ACC_X,ACC_Y,ACC_Z,Time
37.536621,894.012451,399.444580,0.000132
42.297363,894.195557,395.782471,0.000886
33.416748,897.583008,399.353027,0.001629
39.916992,889.984131,396.423340,0.002371
34.973145,882.110596,394.409180,0.003134
36.987305,885.223389,395.874023,0.003876
32.867432,896.026611,403.381348,0.004618
32.958984,893.096924,406.036377,0.005359
33.050537,896.942139,397.064209,0.006112
35.430908,870.025635,406.860352,0.006853
33.508301,894.287109,403.656006,0.007595
32.318115,894.104004,396.423340,0.008336
35.614014,890.991211,401.184082,0.009088
38.269043,896.850586,400.634766,0.009829
37.353516,894.653320,396.789551,0.010571
32.958984,895.202637,400.085449,0.011312
38.726807,897.308350,405.395508,0.012063
33.325195,895.660400,398.529053,0.012804
29.937744,901.336670,395.141602,0.013546
29.113770,899.139404,398.345947,0.014288
35.522461,901.428223,397.247314,0.015040
34.332275,905.273438,412.628174,0.015782
36.071777,905.364990,410.247803,0.016523
36.071777,909.210205,407.592773,0.017265
35.430908,903.533936,409.606934,0.018016
36.621094,906.646729,408.050537,0.018758
31.402588,907.470703,411.437988,0.019499
36.712646,908.477783,407.958984,0.020240
32.867432,914.062500,409.790039,0.020981
32.043457,909.027100,410.247803,0.021714
34.423828,910.125732,415.008545,0.022446
29.022217,919.189453,413.452148,0.023177
28.015137,907.012939,413.085938,0.023998
23.162842,915.344238,408.050537,0.024739
30.578613,915.802002,412.719727,0.025480
26.367188,919.097900,411.254883,0.026220
16.845703,911.682129,413.085938,0.026964
22.705078,908.294678,413.360596,0.027696
17.486572,912.048340,412.902832,0.028427
14.831543,917.175293,417.114258,0.029158
18.035889,915.161133,415.008545,0.029908
15.380859,914.794922,408.966064,0.030648
18.951416,908.752441,415.557861,0.031389
23.071289,914.703369,410.064697,0.032129
18.035889,913.146973,411.621094,0.032870
20.782471,911.590576,411.163330,0.033602
15.747070,906.097412,409.057617,0.034333
20.050049,906.921387,408.599854,0.035064
13.366699,908.020020,400.085449,0.035815
19.958496,906.463623,405.578613,0.036555
9.704590,904.724121,407.684326,0.037294
13.092041,907.104492,405.761719,0.038033
20.416260,906.646729,391.845703,0.038782
18.310547,909.759521,392.944336,0.039521
14.465332,906.188965,390.838623,0.040261
14.831543,905.456543,397.979736,0.041000
13.732910,896.850586,391.021729,0.041749
11.169434,903.167725,393.951416,0.042488
13.092041,902.893066,390.197754,0.043228
15.106201,900.787354,394.042969,0.043967
16.754150,897.583008,391.571045,0.044714
14.648438,896.942139,397.430420,0.045475
12.176514,891.357422,396.606445,0.046217
9.338379,893.920898,398.803711,0.046986
7.507324,899.139404,398.803711,0.047719
15.197754,896.942139,398.437500,0.048450
9.887695,892.730713,394.042969,0.049105
18.127441,903.442383,401.824951,0.049852
18.310547,903.625488,402.648926,0.050584
4.852295,902.069092,400.543213,0.051315
13.641357,906.738281,407.958984,0.052045
22.155762,898.864746,408.325195,0.052787
12.908936,909.301758,399.444580,0.053518
9.796143,905.639648,405.487061,0.054249
13.366699,897.766113,399.627686,0.054979
11.993408,902.526855,400.634766,0.055742
14.923096,903.259277,404.296875,0.056482
10.437012,900.238037,395.507812,0.057221
9.979248,901.428223,402.374268,0.057961
16.387939,907.379150,401.550293,0.058709
13.916016,903.350830,396.423340,0.059499
13.183594,899.688721,403.289795,0.060284
7.415771,898.864746,406.860352,0.061025
16.113281,904.907227,403.015137,0.061764
13.275146,900.604248,400.360107,0.062504
13.458252,902.069092,404.846191,0.063254
24.353027,904.815674,409.240723,0.063996
22.705078,907.104492,404.846191,0.064736
15.838623,907.562256,407.684326,0.065476
19.683838,909.393311,406.951904,0.066227
25.817871,908.386230,410.430908,0.066967
23.254395,914.611816,404.205322,0.067707
15.289307,907.287598,408.325195,0.068446
22.888184,906.005859,403.930664,0.069197
22.705078,907.562256,411.163330,0.069936
20.599365,900.695801,405.670166,0.070676
22.888184,911.315918,407.592773,0.071415
24.993896,900.970459,412.719727,0.072165
27.740479,911.499023,413.360596,0.072905
20.233154,903.442383,406.219482,0.073645
18.218994,908.294678,403.198242,0.074481
17.028809,891.540527,401.824951,0.075235
17.578125,896.484375,393.859863,0.075975
15.563965,910.583496,400.909424,0.076715
23.895264,901.702881,396.789551,0.077454
26.458740,901.428223,394.500732,0.078203
28.656006,907.012939,396.697998,0.078943
22.155762,903.350830,389.556885,0.079683
18.859863,902.160645,395.782471,0.080423
17.852783,902.801514,398.345947,0.081174
17.028809,900.787354,399.169922,0.081913
28.747559,903.350830,387.817383,0.082653
22.705078,896.209717,393.310547,0.083394
1.007080,901.519775,400.360107,0.084164
12.176514,907.196045,383.148193,0.084921
15.106201,897.216797,395.507812,0.085676
11.810303,900.512695,398.529053,0.086433
18.493652,899.963379,380.950928,0.087215
13.641357,891.540527,393.676758,0.087972
15.655518,894.561768,397.247314,0.088729
17.761230,898.773193,407.135010,0.089481
9.979248,895.660400,390.655518,0.090261
19.042969,899.505615,396.423340,0.091025
14.556885,894.195557,393.127441,0.091779
14.373779,894.287109,401.092529,0.092530
2.014160,893.005371,409.240723,0.093307
22.613525,897.766113,404.296875,0.094070
17.120361,896.392822,399.353027,0.094823
17.944336,899.047852,398.712158,0.095574
19.958496,897.491455,396.514893,0.096333
21.972656,900.054932,398.803711,0.097090
21.697998,892.364502,397.705078,0.097843
11.993408,885.681152,390.472412,0.098586
18.218994,883.575439,385.253906,0.099326
16.662598,883.300781,394.866943,0.100065
20.507812,883.941650,397.979736,0.100806
17.395020,899.597168,398.254395,0.101546
17.028809,895.660400,392.211914,0.102286
17.761230,895.477295,395.690918,0.103025
18.127441,911.315918,403.656006,0.103765
19.226074,897.216797,398.529053,0.104524
25.177002,894.195557,398.803711,0.105265
25.726318,897.308350,401.092529,0.106005
21.057129,896.850586,401.550293,0.106744
18.402100,894.104004,402.008057,0.107484
18.676758,893.463135,391.754150,0.108224
16.204834,889.434814,405.395508,0.108963
16.662598,884.582520,398.620605,0.109702
7.507324,889.160156,397.613525,0.110443
10.070801,896.118164,398.620605,0.111184
10.894775,885.314941,395.233154,0.111924
21.057129,898.406982,389.831543,0.112664
19.317627,889.068604,391.387939,0.113403
13.000488,885.681152,386.260986,0.114143
15.655518,896.209717,393.402100,0.114882
14.373779,903.350830,387.542725,0.115622
10.620117,896.026611,392.211914,0.116362
14.556885,902.893066,392.211914,0.117103
19.592285,906.738281,398.529053,0.117843
11.444092,904.449463,403.656006,0.118583
13.000488,908.752441,402.008057,0.119336
12.268066,915.893555,408.874512,0.120076
12.817383,923.950195,408.050537,0.120814
11.993408,924.774170,412.811279,0.121563
24.902344,921.936035,414.825439,0.122306
27.099609,930.450439,418.395996,0.123046
19.409180,927.062988,421.051025,0.123786
20.874023,924.041748,425.537109,0.124525
20.233154,937.683105,430.938721,0.125264
20.416260,930.450439,424.804688,0.126004
12.359619,935.943604,425.720215,0.126744
7.049561,941.436768,435.882568,0.127483
10.528564,933.105469,427.001953,0.128235
18.585205,935.485840,429.840088,0.128975
10.345459,930.267334,430.847168,0.129714
17.120361,930.725098,421.966553,0.130454
12.817383,933.105469,419.860840,0.131202
11.535645,934.570312,412.261963,0.131942
9.796143,916.534424,408.782959,0.132681
13.549805,925.781250,413.909912,0.133420
9.338379,912.139893,408.142090,0.134160
10.711670,913.970947,404.937744,0.134901
10.528564,917.358398,405.487061,0.135640
13.183594,915.527344,404.479980,0.136380
10.894775,916.900635,399.353027,0.137120
12.451172,910.675049,406.860352,0.137859
4.852295,906.372070,396.789551,0.138599
5.767822,905.731201,398.529053,0.139337
6.683350,911.773682,396.972656,0.140077
5.584717,899.139404,399.902344,0.140816
11.169434,904.815674,395.690918,0.141555
9.155273,907.470703,399.536133,0.142295
11.352539,909.576416,400.451660,0.143034
17.028809,906.555176,406.402588,0.143785
13.732910,908.843994,398.712158,0.144525
13.824463,910.858154,397.064209,0.145265
11.444092,891.540527,399.993896,0.146004
12.725830,916.076660,410.339355,0.146755
12.268066,907.196045,407.409668,0.147495
20.690918,914.428711,409.149170,0.148234
17.852783,913.513184,415.557861,0.149064
6.866455,909.118652,415.191650,0.149805
4.028320,909.667969,404.022217,0.150544
9.613037,925.506592,420.318604,0.151283
9.887695,921.844482,412.353516,0.152022
12.084961,916.625977,409.881592,0.152761
18.951416,916.625977,408.416748,0.153500
16.845703,919.921875,411.987305,0.154239
12.451172,925.140381,411.804199,0.154978
10.803223,915.893555,409.423828,0.155718
19.775391,907.653809,406.219482,0.156457
16.296387,918.823242,405.761719,0.157197
21.972656,920.562744,408.966064,0.157937
22.979736,921.112061,410.522461,0.158676
0.000000,917.999268,409.332275,0.159415
16.387939,922.576904,416.381836,0.160154
18.035889,927.429199,411.804199,0.160895
16.113281,919.921875,417.572021,0.161635
16.571045,915.161133,410.156250,0.162375
22.521973,918.273926,406.311035,0.163114
19.226074,924.224854,405.761719,0.163853
25.726318,920.288086,418.487549,0.164608
26.824951,919.647217,415.283203,0.165348
25.817871,921.569824,408.966064,0.166087
21.972656,917.816162,410.339355,0.166827
25.177002,913.055420,406.951904,0.167582
25.543213,921.936035,414.733887,0.168329
26.275635,914.611816,409.606934,0.169096
31.494141,920.654297,407.226562,0.169852
26.458740,920.104980,403.839111,0.170591
26.184082,921.844482,397.338867,0.171331
30.487061,894.104004,409.240723,0.172071
29.388428,916.992188,416.473389,0.172832
33.142090,936.859131,412.536621,0.173610
29.296875,914.978027,416.473389,0.174393
32.775879,926.696777,419.403076,0.175142
32.318115,927.246094,424.163818,0.175882
32.684326,917.083740,424.255371,0.176621
27.557373,912.780762,404.205322,0.177361
24.719238,913.787842,405.303955,0.178100
28.381348,913.787842,408.325195,0.178839
26.000977,914.703369,407.684326,0.179578
25.634766,921.844482,411.071777,0.180341
28.747559,919.372559,414.733887,0.181082
27.099609,909.942627,409.698486,0.181821
32.684326,910.034180,405.120850,0.182561
36.071777,913.604736,403.289795,0.183301
21.881104,913.879395,401.641846,0.184040
24.169922,904.998779,407.684326,0.184782
28.106689,912.597656,413.818359,0.185522
29.571533,907.196045,401.092529,0.186271
26.184082,898.681641,396.789551,0.187011
18.402100,897.308350,395.050049,0.187751
24.627686,904.815674,397.430420,0.188490
27.099609,891.998291,400.726318,0.189230
24.078369,908.020020,408.966064,0.189981
30.487061,907.745361,403.381348,0.190722
29.296875,907.196045,408.782959,0.191461
24.993896,900.970459,401.824951,0.192200
32.684326,902.526855,404.663086,0.192948
22.613525,901.428223,411.895752,0.193686
21.697998,903.076172,406.219482,0.194423
41.381836,910.583496,408.966064,0.195182
29.388428,907.012939,406.219482,0.195924
29.937744,906.005859,398.895264,0.196665
22.613525,910.766602,400.360107,0.197406
18.218994,902.069092,400.634766,0.198147
20.599365,936.218262,399.902344,0.198888
11.810303,920.837402,421.234131,0.199629
6.317139,913.513184,394.866943,0.200370
51.727295,899.139404,359.619141,0.201120
-58.685303,884.765625,380.676270,0.201851
76.812744,909.393311,397.613525,0.202583
43.487549,906.097412,405.761719,0.203314
-8.514404,905.456543,405.120850,0.204050
60.424805,906.555176,428.192139,0.204789
4.211426,927.703857,435.882568,0.205529
28.106689,943.084717,423.614502,0.206268
13.916016,942.443848,443.298340,0.207013
22.247314,919.281006,446.960449,0.207753
-17.578125,914.337158,422.149658,0.208492
-4.669189,923.858643,411.895752,0.209232
30.578613,920.837402,398.712158,0.209974
8.880615,918.273926,387.451172,0.210725
19.775391,915.893555,376.098633,0.211485
36.987305,921.386719,379.028320,0.212243
10.620117,922.210693,395.324707,0.213006
26.458740,917.541504,403.015137,0.213802
15.472412,929.443359,411.437988,0.214566
-3.204346,938.690186,423.980713,0.215326
13.916016,937.866211,436.614990,0.216112
-2.563477,935.119629,445.312500,0.216874
-7.507324,937.408447,440.551758,0.217623
1.556396,942.077637,451.171875,0.218363
-7.965088,927.703857,448.516846,0.219130
15.106201,927.886963,429.931641,0.219870
5.035400,919.281006,419.494629,0.220610
9.063721,903.167725,403.656006,0.221350
16.571045,911.590576,387.176514,0.222100
17.120361,911.590576,388.641357,0.222840
15.930176,909.118652,383.148193,0.223672
18.768311,910.949707,376.556396,0.224413
-5.676270,908.569336,378.936768,0.225166
4.211426,904.083252,395.599365,0.225906
-0.183105,907.287598,416.931152,0.226645
-15.380859,915.527344,410.247803,0.227384
-8.239746,920.562744,424.438477,0.228135
-14.831543,925.415039,435.974121,0.228875
-6.500244,911.315918,422.515869,0.229614
-1.373291,895.294189,417.755127,0.230354
4.943848,900.146484,413.726807,0.231103
37.353516,906.005859,397.247314,0.231842
24.444580,906.463623,394.409180,0.232582
31.951904,897.674561,388.092041,0.233321
41.015625,912.963867,372.070312,0.234071
16.937256,897.033691,365.936279,0.234811
16.845703,898.223877,380.676270,0.235550
15.472412,893.646240,389.007568,0.236290
-1.647949,895.568848,398.895264,0.237039
2.014160,897.033691,421.783447,0.237778
-4.760742,904.083252,422.058105,0.238518
3.662109,904.815674,421.966553,0.239257
15.838623,913.330078,415.466309,0.240006
19.317627,903.259277,403.472900,0.240754
26.550293,907.562256,408.599854,0.241510
41.839600,896.484375,395.050049,0.242279
40.557861,899.871826,385.986328,0.243051
44.860840,908.569336,384.155273,0.243791
28.656006,897.216797,381.774902,0.244530
23.162842,889.526367,378.662109,0.245270
2.014160,910.491943,410.247803,0.246050
-6.500244,902.526855,423.248291,0.246803
-0.091553,914.703369,432.128906,0.247567
14.556885,923.400879,437.530518,0.248308
25.451660,911.132812,431.488037,0.249047
38.543701,919.830322,433.135986,0.249787
35.705566,914.886475,421.234131,0.250537
33.233643,913.513184,418.395996,0.251276
41.015625,903.167725,399.169922,0.252016
31.768799,899.230957,389.831543,0.252755
31.311035,894.744873,385.162354,0.253506
20.141602,890.899658,383.331299,0.254246
10.162354,901.336670,386.993408,0.254985
9.887695,896.850586,395.324707,0.255724
1.739502,898.223877,391.204834,0.256472
3.387451,902.160645,404.571533,0.257212
4.943848,894.378662,408.599854,0.257951
21.057129,903.533936,410.430908,0.258690
20.416260,892.730713,412.078857,0.259443
28.930664,902.984619,409.881592,0.260184
34.606934,902.343750,407.318115,0.260923
29.479980,897.216797,396.972656,0.261663
33.416748,894.287109,395.141602,0.262412
26.550293,889.251709,377.929688,0.263152
23.986816,895.294189,375.091553,0.263891
12.084961,880.828857,380.676270,0.264631
15.563965,871.673584,379.394531,0.265378
11.077881,869.934082,368.591309,0.266116
7.232666,883.300781,373.626709,0.266853
6.958008,876.892090,376.831055,0.267610
8.880615,873.504639,380.310059,0.268363
15.197754,893.280029,392.303467,0.269103
20.507812,889.892578,392.028809,0.269844
19.226074,884.765625,398.071289,0.270585
27.282715,893.371582,401.367188,0.271335
24.627686,892.639160,405.303955,0.272075
26.458740,899.047852,407.867432,0.272816
19.134521,906.829834,414.276123,0.273557
22.430420,897.399902,409.606934,0.274297
23.620605,899.597168,414.093018,0.275029
19.317627,904.449463,408.599854,0.275759
6.408691,908.660889,410.064697,0.276491
5.218506,901.245117,410.797119,0.277243
14.648438,908.752441,414.733887,0.277982
6.500244,901.245117,405.670166,0.278721
9.338379,902.252197,418.212891,0.279460
12.908936,903.167725,418.762207,0.280209
29.388428,898.681641,415.283203,0.280949
27.557373,899.963379,418.762207,0.281689
30.944824,910.858154,412.719727,0.282428
36.987305,906.280518,424.163818,0.283178
23.986816,898.956299,423.522949,0.283918
21.331787,902.893066,415.740967,0.284658
22.705078,896.575928,408.599854,0.285397
17.761230,891.632080,400.451660,0.286146
18.951416,897.491455,400.817871,0.286886
17.761230,890.167236,390.472412,0.287625
19.775391,888.885498,393.493652,0.288364
27.740479,898.498535,400.085449,0.289114
24.719238,894.287109,399.993896,0.289854
42.297363,902.343750,400.543213,0.290595
27.740479,890.533447,409.698486,0.291334
30.395508,893.463135,412.811279,0.292084
34.149170,896.942139,416.198730,0.292824
30.578613,892.822266,420.593262,0.293563
27.740479,895.111084,415.191650,0.294303
22.613525,887.420654,410.614014,0.294995
16.754150,896.667480,409.240723,0.295735
18.768311,901.336670,401.092529,0.296475
18.402100,892.181396,401.916504,0.297214
9.063721,883.300781,395.507812,0.297960
10.711670,885.955811,391.662598,0.298785
12.268066,873.321533,392.669678,0.299525
19.866943,884.490967,393.493652,0.300265
24.169922,886.779785,420.684814,0.301017
31.768799,883.392334,403.564453,0.301757
36.804199,885.406494,406.677246,0.302497
30.395508,876.892090,390.655518,0.303236
26.733398,877.166748,403.656006,0.303985
19.317627,881.195068,405.303955,0.304724
16.937256,880.554199,398.620605,0.305464
18.127441,877.166748,394.317627,0.306204
23.895264,869.750977,385.803223,0.306953
19.500732,877.258301,383.605957,0.307692
15.930176,875.793457,382.598877,0.308432
25.177002,876.434326,373.992920,0.309171
15.655518,866.638184,379.669189,0.309920
20.324707,871.307373,375.640869,0.310660
20.599365,876.800537,391.754150,0.311400
28.656006,882.019043,394.775391,0.312139
17.028809,879.821777,399.444580,0.312890
23.803711,881.195068,402.374268,0.313629
20.690918,888.427734,402.923584,0.314369
18.310547,889.434814,409.332275,0.315111
18.127441,891.906738,411.254883,0.315876
10.803223,892.456055,403.656006,0.316643
13.732910,895.111084,415.008545,0.317400
10.711670,901.336670,408.782959,0.318156
13.458252,894.470215,392.852783,0.318945
14.831543,899.597168,393.676758,0.319754
1.739502,892.181396,393.493652,0.320546
9.521484,885.406494,399.353027,0.321308
0.549316,889.251709,398.345947,0.322099
10.162354,895.477295,406.311035,0.322840
9.155273,905.273438,415.191650,0.323581
13.092041,905.090332,414.642334,0.324321
11.169434,899.871826,416.107178,0.325061
7.141113,899.414062,412.536621,0.325802
12.908936,902.160645,415.740967,0.326542
11.810303,895.385742,406.494141,0.327282
11.718750,897.125244,404.479980,0.328022
10.345459,904.541016,402.923584,0.328763
9.887695,900.054932,397.430420,0.329502
5.126953,906.555176,403.747559,0.330242
17.669678,906.555176,399.444580,0.330981
4.394531,909.667969,396.423340,0.331747
14.282227,908.294678,411.254883,0.332488
13.366699,904.449463,413.818359,0.333228
14.556885,905.731201,413.635254,0.333970
14.373779,903.076172,414.184570,0.334710
28.930664,913.238525,414.276123,0.335449
24.993896,908.020020,412.078857,0.336224
27.099609,919.006348,416.656494,0.336966
28.289795,920.196533,414.459229,0.337723
28.472900,917.724609,412.811279,0.338463
31.768799,922.393799,411.254883,0.339204
25.451660,912.322998,415.374756,0.339944
28.564453,905.364990,417.846680,0.340695
27.648926,912.689209,426.544189,0.341435
32.409668,928.161621,434.326172,0.342176
30.944824,922.576904,427.001953,0.342915
35.064697,913.146973,430.847168,0.343666
40.374756,921.203613,442.932129,0.344407
37.719727,920.471191,439.178467,0.345147
37.902832,920.013428,438.171387,0.345886
35.064697,918.823242,435.974121,0.346638
40.283203,917.541504,434.509277,0.347378
46.417236,916.717529,431.671143,0.348118
38.543701,912.689209,423.339844,0.348858
41.656494,906.097412,418.487549,0.349608
46.051025,915.344238,424.346924,0.350347
40.100098,903.900146,417.022705,0.351088
40.924072,900.054932,412.078857,0.351827
41.564941,908.294678,414.184570,0.352576
41.015625,911.407471,416.564941,0.353316
43.487549,909.576416,408.325195,0.354056
42.755127,890.808105,430.664062,0.354796
36.437988,919.921875,453.735352,0.355547
50.170898,923.767090,453.643799,0.356289
37.261963,923.126221,457.946777,0.357030
52.825928,926.239014,456.298828,0.357771
63.537598,934.020996,449.249268,0.358523
42.846680,938.598633,454.467773,0.359264
47.149658,941.070557,457.122803,0.360005
43.762207,933.654785,464.630127,0.360746
30.212402,923.400879,456.115723,0.361497
26.092529,932.281494,451.538086,0.362237
34.423828,929.718018,448.059082,0.362978
30.212402,933.563232,440.734863,0.363718
30.029297,939.971924,440.002441,0.364473
37.445068,937.957764,443.664551,0.365213
31.127930,930.816650,435.791016,0.365953
22.705078,931.549072,443.847656,0.366694
37.170410,940.795898,448.242188,0.367443
36.804199,938.323975,446.777344,0.368183
30.395508,939.056396,446.502686,0.368924
41.015625,937.500000,450.805664,0.369664
35.797119,955.718994,449.615479,0.370416
31.585693,938.690186,445.129395,0.371157
33.782959,933.380127,444.488525,0.371898
37.536621,927.703857,445.220947,0.372638
20.690918,926.879883,446.228027,0.373484
22.705078,937.683105,443.939209,0.374225
30.670166,931.732178,431.579590,0.374966
22.521973,932.006836,428.558350,0.375706
28.564453,933.380127,431.945801,0.376456
21.881104,929.718018,426.361084,0.377197
16.845703,935.577393,438.995361,0.377937
12.725830,920.196533,438.812256,0.378686
18.951416,927.246094,437.438965,0.379479
19.775391,934.753418,441.650391,0.380240
15.197754,932.373047,448.608398,0.380999
19.409180,935.485840,442.565918,0.381760
7.965088,937.042236,439.086914,0.382554
7.141113,928.436279,427.093506,0.383314
10.620117,921.752930,430.755615,0.384071
7.507324,915.344238,426.544189,0.384826
3.845215,920.928955,414.825439,0.385602
3.112793,920.379639,416.473389,0.386359
1.739502,908.111572,398.071289,0.387102
4.577637,911.315918,408.142090,0.387841
13.000488,904.632568,394.500732,0.388608
6.500244,903.350830,401.184082,0.389350
6.134033,897.399902,403.930664,0.390094
5.218506,895.477295,396.789551,0.390839
1.739502,899.597168,394.134521,0.391588
9.796143,892.364502,401.733398,0.392335
7.415771,890.350342,405.029297,0.393075
6.866455,878.814697,401.184082,0.393815
12.176514,884.582520,399.078369,0.394556
7.965088,878.265381,392.944336,0.395297
3.295898,884.582520,389.556885,0.396037
7.415771,875.885010,388.916016,0.396778
11.077881,875.885010,387.634277,0.397518
4.028320,869.293213,387.542725,0.398258
3.662109,861.602783,380.676270,0.398999
7.507324,865.905762,382.598877,0.399766
7.690430,877.532959,385.070801,0.400517
6.317139,874.511719,382.232666,0.401257
11.718750,875.976562,393.585205,0.401997
12.359619,869.201660,389.465332,0.402739
17.211914,889.892578,385.162354,0.403479
17.944336,872.497559,388.183594,0.404219
14.465332,870.574951,384.338379,0.404959
14.282227,870.483398,381.500244,0.405699
18.035889,868.743896,390.655518,0.406440
20.050049,874.145508,399.902344,0.407180
30.212402,874.420166,384.613037,0.407920
33.142090,878.997803,388.183594,0.408660
30.761719,887.969971,393.585205,0.409406
32.409668,883.483887,399.444580,0.410159
33.874512,886.871338,407.684326,0.410908
33.325195,890.625000,419.219971,0.411679
38.452148,897.857666,411.621094,0.412422
42.205811,898.590088,436.523438,0.413162
40.008545,907.287598,439.453125,0.413902
41.656494,914.337158,449.340820,0.414643
38.635254,914.428711,446.319580,0.415384
41.015625,926.330566,453.094482,0.416124
45.318604,924.774170,449.890137,0.416864
45.501709,930.175781,460.418701,0.417605
47.149658,924.041748,458.221436,0.418343
42.572021,915.710449,452.087402,0.419104
43.762207,916.076660,453.277588,0.419847
45.135498,924.316406,461.151123,0.420588
40.191650,925.781250,455.749512,0.421328
46.783447,923.858643,457.397461,0.422068
43.212891,921.020508,459.228516,0.422808
46.966553,918.090820,460.968018,0.423548
46.875000,914.337158,471.588135,0.424288
42.755127,916.717529,467.926025,0.425028
37.261963,913.146973,465.911865,0.425768
49.804688,915.985107,459.045410,0.426511
43.304443,932.556152,459.869385,0.427252
46.417236,913.970947,465.179443,0.427992
40.557861,910.034180,449.798584,0.428733
50.903320,912.872314,452.087402,0.429474
38.726807,908.386230,440.460205,0.430215
37.628174,911.224365,443.023682,0.430955
34.973145,897.583008,437.622070,0.431695
30.578613,895.111084,429.656982,0.432437
26.641846,895.019531,430.389404,0.433178
26.641846,890.625000,430.023193,0.433917
29.937744,888.702393,427.185059,0.434657
34.149170,887.145996,429.748535,0.435417
36.712646,881.378174,432.220459,0.436159
40.283203,884.124756,431.396484,0.436899
38.818359,881.286621,423.522949,0.437639
35.339355,866.271973,413.360596,0.438389
32.135010,862.609863,416.931152,0.439129
33.508301,863.616943,410.339355,0.439869
33.782959,862.426758,406.494141,0.440610
34.790039,854.827881,407.135010,0.441358
31.951904,859.680176,389.099121,0.442098
26.000977,856.842041,387.359619,0.442838
25.726318,852.905273,392.120361,0.443579
25.177002,848.510742,387.542725,0.444331
33.966064,854.919434,386.260986,0.445071
27.282715,841.644287,380.950928,0.445811
26.184082,823.699951,379.394531,0.446551
34.240723,839.355469,371.978760,0.447301
28.564453,836.975098,372.711182,0.448143
27.465820,834.869385,374.176025,0.448885
23.712158,842.926025,372.802734,0.449626
28.747559,847.778320,382.873535,0.450378
21.606445,844.573975,375.091553,0.451119
17.578125,843.383789,377.014160,0.451859
15.380859,837.524414,375.732422,0.452599
14.923096,839.355469,375.091553,0.453359
14.190674,846.221924,379.852295,0.454115
12.451172,821.411133,378.936768,0.454875
15.197754,851.440430,382.690430,0.455641
11.260986,853.454590,378.662109,0.456428
9.796143,851.348877,382.507324,0.457186
3.662109,850.524902,386.077881,0.457943
5.676270,853.912354,377.105713,0.458698
7.690430,852.813721,383.605957,0.459488
-3.753662,858.123779,378.479004,0.460249
-0.640869,852.905273,378.845215,0.461004
-3.753662,848.602295,384.063721,0.461747
-1.739502,855.377197,382.873535,0.462520
-1.281738,849.975586,380.493164,0.463260
-7.141113,858.856201,381.774902,0.464001
-6.866455,860.687256,385.528564,0.464741
-9.155273,858.947754,402.557373,0.465491
-8.972168,858.673096,394.134521,0.466232
-9.155273,844.757080,385.253906,0.466978
-16.387939,849.426270,391.754150,0.467723
-18.676758,854.003906,394.409180,0.468493
-17.395020,853.271484,389.282227,0.469235
-20.233154,853.271484,390.106201,0.469976
-15.747070,856.384277,386.993408,0.470717
-16.296387,850.616455,388.732910,0.471467
-19.042969,858.123779,389.923096,0.472208
-21.514893,853.088379,390.747070,0.472957
-18.310547,850.891113,395.050049,0.473708
-14.556885,857.940674,390.197754,0.474476
-15.197754,853.454590,391.662598,0.475224
-18.676758,854.187012,393.402100,0.475964
-19.683838,861.328125,391.113281,0.476704
-13.641357,859.680176,391.571045,0.477460
-12.908936,858.489990,397.155762,0.478200
-15.197754,867.095947,398.162842,0.478940
-7.598877,862.426758,390.289307,0.479680
-9.063721,870.300293,397.155762,0.480430
-9.063721,867.645264,403.564453,0.481169
-5.218506,873.687744,407.135010,0.481910
4.211426,875.244141,414.093018,0.482649
-2.014160,889.068604,419.403076,0.483398
6.774902,895.019531,425.262451,0.484138
5.584717,896.667480,433.502197,0.484879
13.458252,901.062012,440.460205,0.485620
14.007568,899.963379,444.305420,0.486372
19.226074,907.196045,459.045410,0.487116
17.120361,910.308838,457.763672,0.487857
18.585205,914.337158,463.531494,0.488599
32.592773,911.865234,461.059570,0.489359
26.641846,913.146973,451.080322,0.490100
28.106689,919.464111,462.341309,0.490841
28.930664,920.379639,450.256348,0.491581
30.761719,919.189453,452.819824,0.492332
32.684326,907.562256,449.615479,0.493073
39.550781,902.343750,446.044922,0.493813
34.332275,894.927979,439.636230,0.494553
39.642334,904.907227,433.685303,0.495306
35.522461,904.083252,434.051514,0.496047
44.494629,898.498535,440.551758,0.496787
40.191650,894.378662,433.868408,0.497528
42.114258,889.801025,429.565430,0.498275
42.480469,893.554688,436.706543,0.499015
46.600342,901.519775,433.593750,0.499756
53.833008,895.111084,418.945312,0.500496
57.037354,904.998779,424.987793,0.501245
47.607422,895.294189,420.501709,0.501986
51.361084,890.533447,425.903320,0.502726
43.121338,888.610840,424.072266,0.503466
54.382324,901.153564,436.706543,0.504214
54.290771,900.512695,432.128906,0.504958
51.910400,895.385742,426.086426,0.505699
58.410645,901.428223,433.227539,0.506440
57.495117,904.815674,438.446045,0.507191
53.924561,911.499023,436.431885,0.507931
57.952881,908.752441,445.587158,0.508672
50.994873,909.576416,425.354004,0.509412
56.488037,915.435791,445.770264,0.510162
48.797607,917.175293,449.249268,0.510903
49.255371,911.865234,451.629639,0.511643
52.825928,913.330078,443.756104,0.512383
52.185059,914.062500,444.763184,0.513133
53.100586,912.048340,442.199707,0.513873
52.001953,918.182373,440.643311,0.514613
51.452637,916.534424,439.727783,0.515352
45.593262,906.829834,421.691895,0.516102
53.009033,918.273926,428.649902,0.516843
46.508789,913.879395,440.734863,0.517583
41.015625,915.527344,431.396484,0.518323
45.684814,916.992188,435.241699,0.519077
52.368164,929.992676,444.580078,0.519818
52.825928,921.936035,449.890137,0.520558
46.783447,925.964355,448.425293,0.521298
49.255371,932.098389,450.897217,0.522048
48.522949,935.028076,450.073242,0.522872
41.564941,934.387207,451.721191,0.523612
38.726807,927.062988,451.995850,0.524352
38.635254,938.781738,442.474365,0.525107
33.874512,922.943115,447.143555,0.525847
26.641846,924.957275,448.150635,0.526587
30.487061,925.506592,443.756104,0.527327
23.620605,922.760010,443.756104,0.528077
18.493652,918.090820,444.396973,0.528816
18.859863,925.872803,446.685791,0.529556
22.888184,924.682617,435.424805,0.530296
22.521973,927.978516,441.833496,0.531045
21.423340,920.928955,441.558838,0.531785
18.768311,919.281006,430.664062,0.532524
17.578125,920.654297,423.889160,0.533264
14.648438,912.231445,431.213379,0.534013
5.859375,913.787842,441.284180,0.534753
10.620117,914.245605,433.868408,0.535492
10.070801,913.879395,433.685303,0.536232
10.437012,916.076660,435.791016,0.536981
-3.570557,919.647217,428.833008,0.537721
5.493164,916.900635,422.973633,0.538461
3.021240,920.654297,424.713135,0.539201
3.112793,921.112061,431.762695,0.539950
12.268066,923.309326,434.143066,0.540689
4.394531,919.281006,439.910889,0.541439
4.669189,919.464111,435.241699,0.542184
4.852295,922.210693,436.431885,0.542951
6.774902,924.774170,439.544678,0.543694
5.126953,923.858643,437.713623,0.544433
0.549316,921.936035,443.115234,0.545172
-7.415771,922.210693,438.171387,0.545924
-2.197266,917.358398,430.755615,0.546664
-3.479004,914.428711,430.206299,0.547405
2.105713,921.386719,426.727295,0.548158
7.507324,912.231445,420.593262,0.548927
7.049561,916.351318,432.769775,0.549677
10.803223,916.809082,427.001953,0.550420
10.437012,917.816162,425.079346,0.551160
7.690430,918.823242,432.128906,0.551917
16.113281,918.731689,430.206299,0.552658
8.789062,927.062988,439.544678,0.553398
6.683350,923.400879,436.706543,0.554138
13.732910,923.034668,439.910889,0.554889
8.880615,930.267334,441.558838,0.555628
9.246826,933.471680,444.763184,0.556368
18.127441,933.105469,445.220947,0.557107
10.620117,937.225342,450.531006,0.557855
14.282227,941.619873,453.460693,0.558593
30.029297,941.619873,450.897217,0.559239
18.951416,953.338623,463.531494,0.559984
21.972656,958.465576,467.834473,0.560725
22.613525,945.281982,465.545654,0.561465
28.656006,961.669922,469.482422,0.562205
23.986816,958.831787,479.278564,0.562945
30.944824,960.388184,477.905273,0.563685
22.430420,966.430664,466.094971,0.564425
27.008057,959.472656,474.334717,0.565165
28.015137,952.056885,466.827393,0.565904
32.775879,958.465576,467.102051,0.566644
29.571533,945.465088,460.052490,0.567384
29.296875,949.951172,467.193604,0.568123
26.458740,951.599121,461.608887,0.568867
25.634766,945.556641,451.080322,0.569610
29.663086,944.183350,449.981689,0.570351
28.564453,945.281982,450.073242,0.571091
24.078369,931.457520,442.657471,0.571845
26.092529,927.703857,446.868896,0.572586
27.832031,935.028076,445.587158,0.573326
21.881104,926.971436,441.375732,0.574066
21.606445,929.718018,444.946289,0.574808
25.360107,922.576904,440.002441,0.575547
21.423340,915.893555,436.614990,0.576287
25.360107,911.499023,428.649902,0.577028
25.268555,936.309814,427.917480,0.577769
16.204834,905.731201,415.740967,0.578509
19.866943,896.759033,409.606934,0.579249
25.634766,901.153564,407.409668,0.579989
24.078369,892.181396,406.127930,0.580729
22.247314,890.350342,399.078369,0.581468
21.423340,887.237549,401.092529,0.582208
17.028809,888.427734,400.085449,0.582947
16.662598,884.307861,397.247314,0.583688
19.409180,891.540527,398.345947,0.584427
11.810303,886.138916,392.486572,0.585167
23.803711,880.920410,395.050049,0.585907
19.134521,880.187988,394.775391,0.586656
23.254395,874.969482,389.099121,0.587397
18.035889,882.110596,402.648926,0.588140
23.254395,875.518799,386.535645,0.588881
27.740479,878.448486,388.641357,0.589621
17.669678,878.265381,388.732910,0.590361
20.233154,881.652832,391.479492,0.591101
11.535645,873.687744,392.395020,0.591842
8.880615,872.955322,397.979736,0.592582
4.302979,874.603271,398.986816,0.593322
5.584717,881.195068,407.409668,0.594062
7.965088,880.371094,404.479980,0.594801
5.584717,883.758545,401.824951,0.595556
15.014648,882.476807,410.797119,0.596297
13.366699,880.004883,414.642334,0.597121
16.571045,877.807617,420.410156,0.597863
13.916016,892.456055,419.403076,0.598603
14.923096,894.653320,422.149658,0.599342
13.641357,894.195557,427.001953,0.600082
10.345459,899.230957,425.170898,0.600822
4.486084,895.568848,417.663574,0.601562
1.007080,894.470215,422.882080,0.602302
4.486084,900.787354,425.354004,0.603042
9.613037,911.315918,435.333252,0.603781
7.598877,912.139893,425.628662,0.604535
3.845215,908.203125,429.016113,0.605275
-3.753662,900.695801,426.727295,0.606014
1.098633,906.280518,426.544189,0.606753
0.366211,908.843994,432.220459,0.607502
1.831055,905.548096,437.622070,0.608242
5.310059,900.421143,431.579590,0.608981
2.014160,906.280518,440.551758,0.609720
8.972168,906.738281,425.994873,0.610460
0.274658,906.555176,432.586670,0.611200
2.838135,901.977539,426.086426,0.611943
5.401611,912.780762,421.417236,0.612683
5.310059,905.731201,428.558350,0.613424
0.915527,901.611328,423.980713,0.614163
6.408691,906.829834,426.361084,0.614903
6.134033,902.252197,429.565430,0.615644
-4.302979,902.069092,424.530029,0.616413
-1.007080,903.625488,425.628662,0.617161
13.275146,897.949219,429.199219,0.617907
12.451172,903.259277,430.664062,0.618648
14.099121,908.752441,433.502197,0.619388
6.225586,914.062500,437.805176,0.620128
7.324219,920.013428,436.157227,0.620867
11.627197,913.330078,440.277100,0.621608
17.303467,914.062500,443.664551,0.622363
18.035889,916.076660,446.319580,0.623110
15.930176,922.668457,436.798096,0.623857
17.028809,924.682617,443.206787,0.624601
13.092041,928.253174,458.404541,0.625355
12.451172,931.365967,447.875977,0.626096
5.950928,929.901123,451.721191,0.626835
11.993408,934.387207,451.171875,0.627575
16.845703,945.007324,461.517334,0.628324
22.338867,938.690186,461.425781,0.629065
24.169922,944.091797,457.946777,0.629805
18.951416,946.655273,459.136963,0.630545
22.064209,944.183350,463.714600,0.631296
42.480469,946.838379,469.848633,0.632036
23.254395,947.937012,468.383789,0.632776
22.888184,953.887939,464.355469,0.633516
28.564453,947.845459,464.904785,0.634267
28.930664,952.239990,469.116211,0.635008
22.064209,949.310303,468.200684,0.635749
32.958984,946.105957,463.897705,0.636488
37.261963,959.747314,473.602295,0.637229
34.698486,945.373535,466.094971,0.637971
39.367676,954.162598,469.940186,0.638711
35.522461,953.430176,465.637207,0.639450
35.888672,950.408936,467.834473,0.640200
46.142578,954.986572,472.869873,0.640938
48.614502,961.029053,466.003418,0.641695
45.227051,951.416016,467.742920,0.642436
41.564941,953.338623,465.087891,0.643176
25.817871,951.507568,469.573975,0.643916
43.670654,954.254150,466.094971,0.644656
37.994385,945.007324,460.876465,0.645397
38.909912,946.472168,455.383301,0.646136
46.234131,952.331543,455.291748,0.646876
38.360596,943.359375,465.179443,0.647616
37.170410,954.620361,455.657959,0.648357
35.247803,954.895020,448.425293,0.649097
32.958984,951.873779,459.960938,0.649837
43.304443,946.563721,454.284668,0.650577
33.691406,946.014404,452.178955,0.651316
36.712646,947.937012,460.418701,0.652067
40.740967,953.430176,458.129883,0.652807
38.177490,952.697754,452.911377,0.653548
30.395508,951.416016,448.883057,0.654288
24.719238,952.606201,451.171875,0.655036
26.641846,953.247070,442.565918,0.655776
28.015137,951.690674,451.812744,0.656516
23.986816,954.345703,445.037842,0.657256
22.338867,963.775635,439.453125,0.658007
26.367188,950.134277,437.622070,0.658747
22.888184,946.105957,437.347412,0.659487
18.951416,951.324463,436.523438,0.660226
12.268066,946.563721,445.587158,0.660967
13.458252,947.845459,434.417725,0.661708
11.260986,949.035645,434.875488,0.662448
10.345459,943.084717,446.136475,0.663188
11.444092,947.662354,448.791504,0.663928
6.408691,950.408936,445.312500,0.664667
1.007080,950.958252,444.030762,0.665406
4.669189,954.620361,451.812744,0.666146
-3.295898,950.683594,445.587158,0.666893
6.683350,960.388184,458.221436,0.667649
6.774902,951.049805,462.066650,0.668394
-15.930176,949.859619,464.080811,0.669141
-4.852295,953.521729,465.545654,0.669885
-1.739502,949.584961,461.791992,0.670624
-6.500244,944.000244,468.109131,0.671364
0.183105,948.394775,459.411621,0.672195
0.000000,958.282471,474.334717,0.672937
-8.605957,949.676514,472.686768,0.673677
-0.366211,950.592041,475.524902,0.674417
-1.647949,953.613281,470.397949,0.675159
-7.965088,941.070557,469.024658,0.675932
-5.859375,949.035645,480.743408,0.676689
0.549316,949.493408,479.003906,0.677442
6.866455,947.570801,475.616455,0.678201
4.302979,948.669434,479.095459,0.678991
22.705078,943.267822,481.842041,0.679748
-2.746582,939.971924,473.510742,0.680505
-0.823975,941.162109,480.560303,0.681260
22.155762,943.634033,483.764648,0.682050
0.000000,953.796387,489.166260,0.682809
-3.479004,940.338135,492.553711,0.683570
2.746582,943.908691,502.349854,0.684364
-22.247314,938.415527,512.512207,0.685146
-3.112793,944.000244,511.047363,0.685910
-1.373291,942.901611,510.040283,0.686651
1.373291,943.542480,518.920898,0.687390
-8.422852,942.810059,519.927979,0.688136
-29.113770,969.909668,517.456055,0.688899
-12.451172,926.696777,485.046387,0.689658
-28.198242,917.083740,530.639648,0.690406
-55.114746,924.407959,562.042236,0.691146
20.416260,953.613281,559.204102,0.691906
-51.269531,933.837891,552.795410,0.692646
27.282715,940.887451,554.992676,0.693386
79.376221,946.380615,553.436279,0.694149
-40.466309,951.232910,540.252686,0.694934
48.522949,949.035645,527.435303,0.695716
-17.578125,907.562256,543.548584,0.696470
-18.768311,909.759521,530.181885,0.697211
-25.085449,906.188965,525.329590,0.697972
3.387451,909.484863,517.272949,0.698721
-29.937744,896.118164,496.948242,0.699461
-11.810303,897.766113,471.496582,0.700208
9.796143,895.294189,491.271973,0.700948
-2.563477,886.505127,484.039307,0.701688
13.458252,872.406006,491.180420,0.702428
14.556885,870.941162,486.602783,0.703167
7.690430,877.349854,487.609863,0.703904
7.232666,866.912842,480.377197,0.704657
20.324707,860.961914,482.482910,0.705399
9.979248,857.666016,483.398438,0.706151
20.507812,852.813721,485.778809,0.706892
11.535645,847.412109,485.137939,0.707633
13.183594,843.841553,481.475830,0.708372
27.923584,838.806152,478.271484,0.709122
23.162842,825.988770,457.672119,0.709863
18.127441,816.650391,450.622559,0.710603
34.515381,820.861816,435.424805,0.711342
38.269043,797.149658,434.234619,0.712092
34.790039,812.988281,430.297852,0.712842
40.374756,815.551758,432.403564,0.713594
40.283203,811.157227,438.537598,0.714334
52.001953,810.424805,433.410645,0.715085
53.833008,811.523438,454.376221,0.715826
56.030273,808.227539,464.355469,0.716566
66.650391,824.249268,469.940186,0.717306
53.833008,818.298340,451.354980,0.718055
68.023682,820.953369,464.447021,0.718795
64.910889,817.657471,459.136963,0.719535
72.326660,807.403564,466.369629,0.720276
76.354980,806.762695,457.580566,0.721025
78.826904,811.065674,461.425781,0.721765
80.017090,813.262939,432.861328,0.722505
86.059570,810.058594,447.143555,0.723245
73.150635,807.312012,446.685791,0.723992
88.714600,808.776855,451.904297,0.724730
84.136963,814.453125,462.615967,0.725485
112.060547,812.622070,467.651367,0.726226
91.552734,819.122314,477.996826,0.726976
87.432861,819.396973,482.116699,0.727717
87.707520,797.790527,485.137939,0.728456
82.214355,816.650391,491.180420,0.729196
81.024170,814.636230,485.778809,0.729946
78.094482,817.565918,483.947754,0.730686
87.249756,814.361572,485.412598,0.731426
84.411621,816.192627,477.539062,0.732165
74.157715,809.875488,478.088379,0.732915
72.601318,817.565918,491.638184,0.733655
72.601318,817.382812,485.412598,0.734395
59.509277,815.093994,489.898682,0.735134
50.354004,812.164307,486.328125,0.735884
63.995361,818.023682,484.680176,0.736624
53.649902,821.228027,498.321533,0.737364
50.537109,827.636719,499.969482,0.738104
46.600342,830.474854,504.455566,0.738853
42.388916,828.918457,502.807617,0.739593
46.051025,822.692871,501.800537,0.740333
43.212891,833.587646,498.321533,0.741073
43.670654,833.587646,502.441406,0.741822
45.501709,840.545654,505.920410,0.742562
40.100098,833.587646,494.750977,0.743302
32.318115,841.094971,495.758057,0.744042
29.571533,842.285156,505.187988,0.744791
3.112793,839.904785,502.075195,0.745531
20.874023,841.735840,505.828857,0.746270
11.077881,846.313477,504.821777,0.747096
10.070801,847.412109,508.666992,0.747848
7.507324,847.869873,517.181396,0.748588
2.838135,847.412109,510.864258,0.749327
-0.549316,843.109131,508.666992,0.750067
5.676270,848.968506,508.026123,0.750814
-4.302979,843.109131,506.195068,0.751551
-2.471924,840.087891,501.892090,0.752303
-5.126953,836.059570,497.406006,0.753043
-3.387451,844.757080,493.652344,0.753791
-9.704590,834.594727,486.419678,0.754539
-6.317139,837.707520,483.215332,0.755278
-17.028809,828.460693,481.658936,0.756028
-16.662598,830.749512,477.081299,0.756778
-20.874023,827.636719,475.067139,0.757516
-21.514893,836.151123,476.531982,0.758254
-17.944336,829.101562,469.573975,0.759004
-19.866943,829.742432,475.341797,0.759757
-21.331787,825.439453,472.869873,0.760497
-19.683838,826.446533,476.348877,0.761238
-19.409180,830.383301,476.715088,0.761983
-16.845703,830.017090,484.863281,0.762738
-10.070801,829.467773,486.419678,0.763484
-21.423340,832.214355,483.123779,0.764231
-18.310547,830.932617,484.405518,0.764974
-19.042969,829.101562,473.327637,0.765714
-12.634277,828.460693,479.827881,0.766454
-10.894775,824.249268,474.151611,0.767194
-4.486084,824.615479,464.721680,0.767934
-13.183594,821.685791,456.848145,0.768711
-11.077881,841.186523,458.679199,0.769365
-12.817383,830.108643,465.087891,0.770113
-7.507324,824.066162,454.559326,0.770880
-7.324219,833.679199,457.580566,0.771621
-8.697510,831.115723,466.461182,0.772360
-9.063721,831.756592,473.510742,0.773100
-7.598877,828.918457,476.715088,0.773840
-8.514404,837.982178,480.560303,0.774580
-13.183594,824.890137,474.884033,0.775319
-6.500244,832.122803,484.680176,0.776059
-10.162354,832.672119,484.313965,0.776813
-16.296387,834.411621,483.581543,0.777551
-17.944336,833.038330,476.531982,0.778291
-18.310547,825.439453,477.264404,0.778938
-11.260986,822.418213,477.722168,0.779702
-10.528564,826.995850,473.327637,0.780442
-14.831543,821.044922,472.045898,0.781182
-14.923096,831.939697,477.264404,0.781922
-19.042969,825.164795,482.025146,0.782673
-15.930176,818.023682,488.250732,0.783415
-16.387939,823.699951,487.060547,0.784156
-16.662598,824.615479,489.166260,0.784895
-14.282227,822.143555,496.673584,0.785648
-16.021729,827.728271,495.117188,0.786388
-14.465332,830.566406,506.835938,0.787127
-14.648438,827.636719,501.525879,0.787867
-20.324707,826.995850,501.708984,0.788616
-16.387939,801.727295,493.011475,0.789355
-21.240234,815.734863,491.821289,0.790095
-22.155762,818.298340,492.462158,0.790834
-16.845703,822.235107,481.018066,0.791587
-32.867432,821.136475,492.736816,0.792327
-28.656006,819.488525,486.236572,0.793067
-25.543213,817.474365,485.961914,0.793806
-31.951904,824.798584,489.898682,0.794551
-31.951904,828.552246,497.406006,0.795303
-33.782959,824.249268,501.068115,0.796042
-31.494141,819.946289,493.469238,0.796677
-30.487061,821.960449,499.328613,0.797440
-30.212402,821.044922,508.300781,0.798181
-32.135010,823.974609,496.490479,0.798921
-32.226562,819.122314,497.314453,0.799661
-35.614014,823.516846,496.124268,0.800400
-35.064697,818.572998,489.166260,0.801143
-36.987305,824.890137,491.638184,0.801883
-39.916992,818.572998,480.743408,0.802636
-42.755127,818.298340,483.673096,0.803377
-61.157227,814.819336,478.454590,0.804117
-52.551270,814.270020,478.363037,0.804856
-56.671143,812.347412,483.581543,0.805606
-54.290771,816.101074,479.919434,0.806346
-52.551270,804.199219,484.313965,0.807085
-49.713135,809.600830,490.814209,0.807825
-51.086426,807.861328,488.891602,0.808565
-56.854248,807.403564,485.687256,0.809305
-61.706543,800.170898,490.631104,0.810045
-58.502197,802.917480,489.257812,0.810801
-48.980713,801.727295,482.666016,0.811560
-53.283691,804.565430,480.926514,0.812303
-51.818848,795.867920,477.264404,0.813045
-57.586670,799.346924,473.693848,0.813803
-46.051025,800.811768,476.715088,0.814545
-50.720215,793.304443,479.370117,0.815287
-49.438477,794.769287,473.510742,0.816029
-50.354004,801.544189,471.862793,0.816770
-53.009033,802.642822,478.454590,0.817512
-46.417236,800.262451,471.496582,0.818253
-31.768799,800.262451,479.095459,0.818994
-40.008545,796.691895,483.581543,0.819841
-31.402588,802.551270,484.405518,0.820583
-33.050537,798.614502,483.215332,0.821324
-31.311035,798.889160,488.067627,0.822065
-33.142090,797.698975,483.673096,0.822807
-26.275635,806.671143,479.644775,0.823548
-27.740479,801.361084,481.292725,0.824289
-26.824951,802.093506,484.497070,0.825030
-26.824951,805.755615,484.313965,0.825781
-30.395508,792.663574,480.102539,0.826522
-27.008057,796.875000,484.039307,0.827263
-25.360107,795.867920,477.996826,0.828004
-28.930664,799.713135,480.651855,0.828755
-19.409180,802.642822,478.912354,0.829496
-18.768311,801.544189,486.328125,0.830237
-0.183105,799.530029,491.821289,0.830979
-23.529053,799.804688,473.785400,0.831753
-15.014648,808.593750,492.279053,0.832511
-22.430420,794.403076,494.567871,0.833270
-27.191162,793.395996,488.708496,0.834030
-23.254395,798.614502,482.849121,0.834789
-21.881104,792.480469,489.624023,0.835544
-22.705078,785.339355,480.834961,0.836317
-17.395020,790.008545,483.215332,0.837073
-13.641357,791.931152,479.461670,0.837844
-26.824951,793.762207,473.510742,0.838651
-18.951416,787.994385,479.003906,0.839447
-15.930176,788.909912,486.419678,0.840206
-16.571045,782.226562,476.623535,0.840999
-18.585205,781.311035,477.355957,0.841759
-18.951416,786.437988,478.363037,0.842509
-16.937256,780.303955,478.179932,0.843322
-21.972656,783.050537,491.363525,0.844073
-18.310547,786.071777,490.905762,0.844805
-20.233154,787.445068,493.011475,0.845557
-17.761230,785.797119,499.328613,0.846308
-21.057129,786.437988,497.406006,0.847047
-29.479980,787.811279,501.525879,0.847797
-25.634766,783.233643,500.518799,0.848529
-28.289795,783.874512,493.652344,0.849260
-29.479980,786.529541,492.828369,0.849990
-31.127930,779.296875,497.863770,0.850736
-29.022217,781.402588,487.518311,0.851471
-30.853271,779.113770,485.046387,0.852213
-31.768799,772.247314,491.455078,0.852948
-30.944824,774.902344,480.834961,0.853679
-29.846191,771.148682,479.461670,0.854410
-33.508301,774.261475,474.792480,0.855143
-30.395508,771.240234,474.975586,0.855875
-32.043457,772.796631,468.200684,0.856607
-33.599854,764.099121,471.405029,0.857355
-26.641846,770.782471,471.862793,0.858088
-31.860352,751.922607,471.038818,0.858829
-23.803711,764.556885,472.045898,0.859560
-2.746582,768.218994,476.898193,0.860291
-24.444580,776.092529,479.278564,0.861146
-31.036377,777.374268,482.666016,0.861882
-32.684326,770.050049,479.919434,0.862613
-30.029297,773.071289,482.574463,0.863344
-32.135010,774.261475,483.489990,0.864076
-32.318115,777.648926,478.088379,0.864806
-25.543213,780.395508,479.187012,0.865537
-22.796631,781.127930,480.377197,0.866268
-22.521973,785.247803,477.905273,0.866999
-27.191162,783.599854,480.743408,0.867730
-19.042969,788.543701,484.313965,0.868473
-13.549805,786.895752,492.004395,0.869206
-15.472412,786.437988,481.567383,0.869938
-16.937256,790.008545,485.229492,0.870679
-15.106201,787.170410,483.215332,0.871413
-5.493164,791.931152,488.067627,0.872144
-14.190674,790.191650,494.476318,0.872902
-14.739990,794.586182,486.785889,0.873643
-18.676758,797.424316,489.715576,0.874382
-10.803223,804.107666,488.616943,0.875122
-10.894775,809.783936,494.750977,0.875875
-15.563965,804.840088,494.750977,0.876615
-19.409180,808.044434,495.208740,0.877355
-14.556885,811.157227,500.793457,0.878095
-12.725830,807.403564,504.364014,0.878845
-9.338379,805.847168,507.019043,0.879585
-11.901855,819.946289,506.835938,0.880324
-8.422852,821.136475,500.610352,0.881064
-8.697510,837.341309,514.251709,0.881819
-0.732422,830.566406,519.470215,0.882560
-6.134033,837.066650,521.942139,0.883340
-8.697510,841.827393,520.385742,0.884084
-4.211426,842.102051,528.076172,0.884824
0.823975,839.080811,528.625488,0.885563
-3.387451,836.883545,527.801514,0.886318
-6.774902,836.608887,528.808594,0.887058
-2.563477,840.911865,524.688721,0.887797
0.000000,843.750000,527.801514,0.888537
-0.915527,841.186523,527.984619,0.889286
-9.521484,836.517334,521.759033,0.890043
-4.028320,845.397949,525.787354,0.890785
-1.281738,837.524414,528.808594,0.891524
-5.401611,837.982178,525.695801,0.892277
-12.634277,839.355469,520.477295,0.893103
-8.239746,839.263916,529.907227,0.893844
-14.007568,841.278076,520.111084,0.894583
-5.493164,851.348877,519.653320,0.895334
-2.746582,843.933105,525.146484,0.896073
-4.394531,837.066650,519.287109,0.896812
-0.549316,843.292236,523.681641,0.897551
-3.021240,844.940186,534.301758,0.898300
-1.922607,860.229492,536.773682,0.899040
-22.888184,858.032227,527.252197,0.899779
-2.838135,854.187012,552.978516,0.900519
-0.915527,858.489990,532.653809,0.901268
1.281738,854.461670,539.794922,0.902008
-3.845215,858.306885,542.083740,0.902747
-9.063721,850.982666,536.315918,0.903486
-10.711670,853.363037,537.780762,0.904235
-4.028320,850.158691,535.308838,0.904975
-9.613037,849.700928,541.168213,0.905714
-2.014160,859.680176,541.168213,0.906453
-5.859375,852.722168,534.301758,0.907201
-7.049561,849.426270,533.111572,0.907951
-10.070801,858.764648,533.386230,0.908696
-11.169434,844.390869,527.435303,0.909463
-6.225586,849.792480,523.406982,0.910233
-10.162354,849.884033,514.434814,0.910973
-5.401611,840.270996,515.167236,0.911716
-4.943848,836.242676,514.892578,0.912456
-3.936768,832.855225,514.160156,0.913210
-10.894775,833.404541,521.942139,0.913950
-3.753662,837.432861,514.251709,0.914689
-8.789062,837.249756,516.632080,0.915428
-2.197266,842.468262,512.786865,0.916255
-3.570557,844.024658,511.230469,0.917035
-6.500244,834.136963,517.364502,0.917816
-11.077881,832.397461,520.751953,0.918561
-1.098633,835.052490,513.427734,0.919306
-4.028320,837.341309,514.801025,0.920050
-7.965088,838.989258,512.695312,0.920794
-2.563477,837.158203,515.533447,0.921548
-1.831055,837.707520,522.125244,0.922292
-0.549316,845.581055,519.561768,0.923036
0.915527,830.291748,528.259277,0.923773
-4.577637,839.538574,522.491455,0.924508
-2.563477,833.953857,524.047852,0.925242
-0.366211,841.644287,533.203125,0.925976
-0.732422,836.883545,530.090332,0.926716
-0.823975,839.538574,526.611328,0.927457
-10.345459,834.686279,531.097412,0.928197
3.204346,838.897705,535.583496,0.928951
2.014160,844.573975,530.548096,0.929780
-5.584717,832.672119,526.519775,0.930528
0.640869,840.270996,523.956299,0.931272
12.268066,836.334229,525.787354,0.932016
7.507324,835.052490,520.568848,0.932773
11.260986,835.144043,520.751953,0.933518
12.268066,830.383301,522.583008,0.934262
4.302979,833.038330,523.773193,0.935007
5.126953,834.228516,521.759033,0.935751
3.662109,836.059570,512.329102,0.936486
6.225586,831.848145,537.872314,0.937219
10.070801,837.066650,518.463135,0.937953
3.479004,831.024170,515.716553,0.938714
6.500244,841.003418,526.702881,0.939462
2.105713,833.587646,529.632568,0.940256
11.718750,837.982178,534.484863,0.941001
11.901855,834.228516,521.392822,0.941759
15.563965,828.094482,514.434814,0.942504
16.296387,831.390381,522.125244,0.943248
17.120361,832.763672,524.322510,0.943993
13.366699,825.164795,525.238037,0.944745
15.014648,829.925537,525.604248,0.945481
13.000488,835.144043,526.245117,0.946215
12.908936,828.552246,519.927979,0.946954
16.204834,829.925537,517.181396,0.947703
9.704590,824.981689,511.047363,0.948437
12.542725,826.354980,515.075684,0.949208
16.845703,824.615479,514.801025,0.949944
16.113281,822.326660,514.709473,0.950706
19.683838,840.362549,516.357422,0.951450
9.796143,838.073730,508.666992,0.952195
8.880615,833.404541,518.463135,0.952939
10.162354,830.566406,518.646240,0.953693
10.986328,833.312988,530.456543,0.954454
12.268066,835.144043,529.815674,0.955199
13.549805,830.749512,520.385742,0.955944
10.253906,834.686279,524.597168,0.956700
9.155273,826.446533,513.519287,0.957445
14.465332,831.024170,517.456055,0.958180
6.591797,825.439453,511.688232,0.958915
12.084961,827.087402,516.265869,0.959672
10.070801,831.665039,519.653320,0.960416
2.655029,823.974609,512.878418,0.961161
6.042480,831.939697,519.744873,0.961906
15.747070,826.904297,514.892578,0.962650
12.542725,834.594727,515.716553,0.963385
8.880615,836.059570,516.174316,0.964175
9.521484,835.144043,509.674072,0.964920
5.493164,824.615479,509.948730,0.965665
3.021240,829.559326,514.801025,0.966408
6.408691,829.467773,511.962891,0.967152
7.507324,838.256836,507.568359,0.968011
13.183594,838.989258,510.681152,0.968756
7.690430,828.918457,513.519287,0.969500
7.049561,834.320068,515.258789,0.970244
8.605957,833.862305,518.646240,0.970980
2.105713,836.700439,515.625000,0.971715
7.141113,843.750000,521.942139,0.972449
-0.823975,842.193604,517.639160,0.973183
1.739502,848.144531,519.378662,0.973929
7.049561,845.214844,522.216797,0.974673
7.598877,849.060059,523.315430,0.975416
12.634277,852.355957,526.885986,0.976160
8.514404,851.623535,529.632568,0.976925
6.866455,847.778320,529.541016,0.977671
2.105713,858.581543,528.259277,0.978415
-0.732422,858.673096,530.914307,0.979159
7.232666,858.947754,537.231445,0.979917
7.507324,860.504150,528.991699,0.980661
14.282227,866.821289,532.653809,0.981405
0.640869,857.940674,525.238037,0.982150
4.119873,863.159180,535.858154,0.982895
1.922607,858.764648,529.266357,0.983629
-7.965088,856.384277,524.963379,0.984364
-9.521484,859.497070,534.118652,0.985131
-3.387451,861.877441,523.132324,0.985938
-10.345459,862.976074,514.801025,0.986741
-12.908936,859.405518,519.195557,0.987488
-12.359619,854.003906,515.167236,0.988258
-14.831543,860.595703,507.751465,0.989002
-11.444092,858.581543,507.843018,0.989746
-15.380859,859.588623,508.117676,0.990491
-4.302979,856.201172,512.145996,0.991246
-11.352539,866.455078,511.779785,0.991989
-12.176514,858.764648,518.646240,0.992733
-18.402100,850.982666,511.688232,0.993477
-18.035889,849.609375,519.104004,0.994269
-9.063721,846.405029,519.744873,0.995025
-0.366211,856.292725,514.617920,0.995793
-21.423340,852.630615,538.330078,0.996569
-23.712158,846.405029,515.991211,0.997313
-27.648926,846.405029,506.378174,0.998056
-27.099609,839.721680,499.053955,0.998799
-29.846191,848.602295,502.716064,0.999572
-31.402588,845.031738,499.603271,1.000314
-30.487061,838.714600,485.412598,1.001056
-29.663086,843.750000,501.617432,1.001798
-31.219482,838.989258,497.680664,1.002543
-30.761719,837.615967,498.138428,1.003286
-27.648926,835.144043,501.159668,1.004024
-29.571533,845.947266,497.314453,1.004758
-34.606934,842.102051,496.032715,1.005523
-25.634766,846.038818,491.180420,1.006267
-23.529053,846.954346,495.483398,1.007011
-24.261475,846.221924,492.370605,1.007755
-32.501221,845.214844,493.835449,1.008510
-28.564453,855.926514,503.173828,1.009254
-24.627686,847.686768,500.610352,1.009998
-30.761719,856.109619,502.716064,1.010742
-32.043457,854.370117,506.927490,1.011496
-27.832031,863.250732,512.420654,1.012240
-22.521973,861.877441,514.343262,1.012984
-21.240234,868.835449,524.230957,1.013728
-22.338867,871.215820,524.597168,1.014472
-21.423340,871.673584,529.083252,1.015206
-23.712158,865.905762,518.920898,1.015941
-19.683838,872.314453,529.266357,1.016675
-23.712158,872.863770,558.197021,1.017445
-21.606445,876.251221,535.675049,1.018192
-16.937256,880.462646,535.308838,1.018936
-23.437500,881.378174,532.470703,1.019679
-21.697998,874.603271,520.202637,1.020434
-22.521973,870.117188,521.026611,1.021178
-20.416260,870.117188,518.280029,1.021922
-25.451660,869.934082,512.878418,1.022666
-17.761230,865.631104,514.068604,1.023407
-18.585205,864.624023,508.666992,1.024142
-28.656006,864.990234,505.645752,1.025723
-20.324707,845.764160,501.342773,1.027425
-29.022217,866.363525,501.251221,1.029100
-20.416260,884.307861,505.737305,1.030799
-24.444580,870.300293,504.364014,1.032467
-30.395508,860.870361,501.800537,1.034148
-31.860352,861.694336,500.701904,1.035846
-31.677246,889.892578,508.392334,1.037521
-24.169922,863.342285,519.012451,1.039218
21.789551,876.251221,555.450439,1.040892
-16.754150,893.096924,551.971436,1.042566
-27.740479,894.836426,521.209717,1.044218
-20.599365,865.081787,526.428223,1.045925
-27.099609,864.532471,507.843018,1.047601
-48.065186,887.695312,487.976074,1.049277
-24.810791,880.920410,517.089844,1.050953
-9.338379,881.652832,537.139893,1.052628
-22.155762,880.554199,533.569336,1.054303
-29.663086,883.209229,530.456543,1.055957
-25.726318,874.145508,528.533936,1.057679
-30.944824,865.264893,502.807617,1.059355
-37.445068,856.567383,493.560791,1.061098
-34.332275,850.524902,500.518799,1.062844
-36.346436,850.341797,502.899170,1.064665
-34.515381,854.370117,512.512207,1.066331
-32.135010,848.510742,509.307861,1.068005
-28.198242,842.376709,486.694336,1.069687
-48.065186,866.638184,484.313965,1.071408
-47.973633,840.179443,489.532471,1.073080
-40.557861,838.256836,503.631592,1.074803
-40.466309,834.320068,504.730225,1.076491
-44.586182,835.052490,504.913330,1.078158
-35.247803,829.284668,496.124268,1.079823
-35.705566,824.523926,483.489990,1.081488
-30.487061,823.974609,486.785889,1.083179
-31.219482,822.418213,486.877441,1.084844
-27.282715,820.220947,515.350342,1.086532
-28.198242,827.728271,508.483887,1.088197
-27.282715,819.946289,510.223389,1.089883
-25.726318,820.220947,501.525879,1.091548
-18.493652,826.446533,490.905762,1.093236
-12.542725,826.538086,503.997803,1.094904
-2.197266,827.911377,509.033203,1.096569
22.155762,839.355469,518.188477,1.098235
-0.183105,865.539551,522.766113,1.099866
-1.281738,834.960938,523.773193,1.101079
2.014160,856.384277,511.413574,1.102358
9.613037,837.341309,515.258789,1.103429
0.000000,832.305908,521.392822,1.104646
22.796631,850.250244,531.280518,1.105864
0.732422,846.496582,528.350830,1.107082
34.332275,850.616455,530.822754,1.108300
6.774902,853.363037,523.681641,1.109519
4.028320,830.108643,532.012939,1.110778
5.950928,833.679199,505.096436,1.112086
8.148193,823.150635,496.765137,1.113304
22.796631,820.129395,492.828369,1.114523
12.268066,823.883057,499.145508,1.115740
17.578125,816.925049,508.575439,1.116958
-0.091553,814.636230,503.540039,1.118195
28.564453,818.023682,510.131836,1.119414
15.014648,811.614990,495.117188,1.120619
19.775391,806.213379,490.447998,1.121821
7.507324,794.036865,480.194092,1.123023
11.810303,793.762207,480.468750,1.124265
12.817383,801.635742,474.060059,1.125483
13.824463,799.896240,477.172852,1.126702
22.796631,800.903320,489.532471,1.127920
17.669678,808.868408,499.053955,1.129138
13.092041,813.354492,510.406494,1.130387
22.888184,814.361572,493.103027,1.131606
19.317627,815.368652,519.104004,1.132842
10.253906,815.917969,503.540039,1.134127
17.028809,817.565918,509.948730,1.135347
17.852783,817.108154,503.448486,1.136564
15.197754,818.939209,503.448486,1.137781
19.958496,824.615479,505.828857,1.139009
4.028320,827.178955,518.463135,1.140227
16.021729,831.115723,525.878906,1.141438
11.352539,835.052490,518.188477,1.142640
9.887695,836.151123,518.005371,1.143841
2.655029,837.524414,515.808105,1.145081
-1.007080,831.756592,512.512207,1.146299
-0.183105,834.869385,508.392334,1.147517
-3.021240,843.658447,505.645752,1.148734
1.647949,860.961914,511.047363,1.149951
6.408691,844.573975,518.554688,1.151186
3.021240,847.778320,526.702881,1.152403
0.457764,850.982666,533.294678,1.153615
2.655029,852.539062,530.364990,1.154816
4.211426,846.405029,522.674561,1.156017
6.500244,852.264404,521.759033,1.157314
0.274658,859.771729,508.666992,1.158613
6.134033,854.461670,514.434814,1.159840
6.866455,856.750488,513.977051,1.161057
0.823975,855.377197,515.991211,1.162292
-5.493164,859.954834,522.674561,1.163559
1.098633,866.546631,527.526855,1.164800
-7.598877,862.426758,527.343750,1.166017
1.464844,858.032227,528.808594,1.167235
4.577637,857.940674,526.428223,1.168469
-3.479004,862.792969,524.871826,1.169685
-9.979248,856.201172,518.737793,1.170965
-7.415771,856.384277,524.139404,1.172169
-5.035400,856.567383,518.005371,1.172948
-7.141113,857.849121,528.259277,1.173700
-12.817383,867.462158,528.717041,1.174444
-6.774902,860.046387,518.463135,1.175188
-5.584717,861.602783,525.604248,1.175933
-11.901855,857.940674,506.011963,1.176676
-5.035400,856.567383,511.688232,1.177419
-3.479004,863.525391,512.695312,1.178162
-1.922607,863.800049,510.131836,1.178902
-0.549316,865.631104,510.406494,1.179636
-13.732910,865.631104,514.984131,1.180370
-12.176514,857.666016,512.969971,1.181105
-3.845215,859.039307,515.258789,1.181843
-2.655029,854.003906,521.575928,1.182587
-4.852295,863.983154,521.850586,1.183332
-2.197266,871.673584,534.301758,1.184075
3.662109,867.736816,530.822754,1.184829
0.000000,869.384766,532.196045,1.185563
4.394531,868.560791,529.998779,1.186297
-1.922607,873.046875,528.350830,1.187132
2.197266,874.328613,527.252197,1.187880
-0.732422,869.659424,525.878906,1.188625
3.570557,870.941162,528.625488,1.189370
2.380371,878.082275,530.914307,1.190114
-2.746582,865.814209,526.245117,1.190851
-9.796143,866.088867,528.625488,1.191585
-2.563477,874.786377,528.350830,1.192319
-4.394531,873.413086,526.519775,1.193053
-2.746582,869.293213,530.456543,1.193797
0.915527,867.187500,530.364990,1.194540
3.295898,870.758057,532.012939,1.195284
-0.366211,878.356934,534.851074,1.196026
-1.647949,871.856689,527.435303,1.196771
0.366211,875.427246,532.653809,1.197514
-5.859375,878.356934,539.520264,1.198258
3.479004,873.321533,536.041260,1.199002
1.373291,875.610352,533.752441,1.199767
-7.690430,872.497559,524.414062,1.200504
-14.099121,869.201660,525.604248,1.201238
-9.521484,870.300293,523.406982,1.201972
-12.176514,874.969482,523.681641,1.202717
-8.239746,870.208740,521.118164,1.203462
-17.761230,865.905762,518.280029,1.204206
-17.486572,867.370605,522.583008,1.204950
-11.535645,863.891602,518.646240,1.205695
-11.810303,865.814209,524.688721,1.206440
-18.768311,868.743896,522.125244,1.207184
-17.669678,864.349365,512.329102,1.207928
-14.190674,866.180420,525.512695,1.208676
-20.050049,861.877441,517.730713,1.209410
-17.486572,861.419678,521.392822,1.210145
-22.979736,859.313965,515.899658,1.210879
-27.099609,868.743896,514.709473,1.211620
-35.064697,868.286133,508.209229,1.212384
-27.648926,863.616943,472.778320,1.213129
-74.890137,850.799561,506.103516,1.213874
-91.918945,858.032227,563.415527,1.214628
6.408691,866.546631,552.612305,1.215373
-80.017090,860.412598,550.872803,1.216116
-40.466309,863.433838,542.633057,1.216860
27.008057,866.821289,531.463623,1.217616
-45.959473,873.504639,504.730225,1.218360
-9.613037,876.525879,511.322021,1.219104
-28.656006,851.623535,521.667480,1.219848
-51.452637,836.425781,500.701904,1.220584
-61.889648,838.439941,491.180420,1.221318
-44.494629,841.552734,482.482910,1.222052
-41.107178,835.693359,471.862793,1.222787
-49.987793,844.207764,461.791992,1.223540
-18.768311,845.306396,466.003418,1.224297
-32.592773,854.736328,469.757080,1.225039
-31.311035,843.292236,485.412598,1.225800
-20.416260,844.665527,489.807129,1.226562
-32.867432,848.876953,501.159668,1.227323
-42.297363,846.221924,496.765137,1.228059
-0.091553,857.574463,506.469727,1.228793
-37.261963,859.130859,497.314453,1.229560
-32.775879,853.637695,506.103516,1.230304
-28.289795,853.546143,515.716553,1.231048
-52.825928,846.588135,512.603760,1.231792
-47.973633,854.095459,496.856689,1.232490
-40.924072,856.842041,503.997803,1.233234
-38.085938,849.884033,496.948242,1.233978
-40.740967,859.222412,496.124268,1.234722
-44.494629,858.856201,489.532471,1.235467
-36.895752,868.286133,495.758057,1.236202
-31.677246,869.750977,501.251221,1.236936
-35.705566,878.082275,521.026611,1.237671
-33.050537,879.455566,527.801514,1.238429
-28.472900,886.322021,526.153564,1.239175
-34.332275,891.906738,540.069580,1.239920
-18.676758,900.604248,545.013428,1.240665
-35.430908,900.146484,547.210693,1.241425
-35.797119,901.611328,547.027588,1.242169
-18.585205,900.054932,553.436279,1.242913
-26.916504,897.033691,551.696777,1.243657
-38.818359,891.357422,540.802002,1.244403
-32.226562,895.202637,545.013428,1.245138
-42.663574,887.512207,527.618408,1.245872
-37.628174,900.238037,537.872314,1.246606
-41.381836,892.089844,525.695801,1.247339
-45.135498,894.378662,519.744873,1.248074
-35.064697,901.885986,536.590576,1.248808
-28.564453,902.069092,518.188477,1.249542
-36.346436,894.195557,547.668457,1.250277
-31.951904,901.336670,559.020996,1.251011
-24.810791,891.815186,548.858643,1.251745
-30.670166,894.744873,543.182373,1.252480
-32.043457,889.801025,540.527344,1.253231
-35.797119,881.103516,538.696289,1.253976
-32.135010,884.033203,528.900146,1.254720
-38.909912,886.688232,534.667969,1.255463
-30.578613,883.209229,524.871826,1.256214
-32.775879,878.356934,518.554688,1.256958
-30.670166,876.708984,516.357422,1.257702
-23.529053,874.969482,523.590088,1.258446
-27.557373,872.863770,517.913818,1.259191
-19.226074,875.152588,525.695801,1.260025
-23.803711,873.321533,536.682129,1.260769
-19.500732,875.061035,532.562256,1.261511
-23.895264,871.673584,535.675049,1.262267
-1.373291,875.244141,541.168213,1.263010
-21.972656,872.955322,523.406982,1.263753
-23.162842,869.018555,537.780762,1.264495
-25.177002,864.898682,536.773682,1.265248
-21.881104,872.222900,532.196045,1.265991
-21.423340,859.497070,513.519287,1.266734
-26.458740,860.961914,512.969971,1.267477
-26.641846,848.236084,506.286621,1.268220
-15.380859,866.912842,487.518311,1.268963
-16.662598,849.700928,490.173340,1.269706
-14.465332,844.482422,492.187500,1.270449
-11.077881,841.003418,472.229004,1.271198
-6.500244,857.482910,497.406006,1.271941
-6.225586,855.743408,506.103516,1.272683
6.500244,857.025146,517.639160,1.273425
1.373291,864.624023,535.583496,1.274169
0.274658,862.426758,540.618896,1.274911
-8.148193,870.666504,543.182373,1.275654
0.457764,878.631592,550.506592,1.276397
-5.950928,887.329102,547.851562,1.277140
-4.211426,890.441895,546.112061,1.277882
-5.035400,886.688232,548.034668,1.278625
-4.394531,891.448975,549.041748,1.279367
-8.239746,887.054443,539.337158,1.280131
-4.943848,884.674072,540.618896,1.280903
-6.866455,882.202148,543.640137,1.281703
-11.077881,882.568359,537.780762,1.282473
-13.000488,888.610840,542.358398,1.283217
-13.916016,892.181396,548.492432,1.283960
-12.634277,879.730225,554.626465,1.284704
-21.972656,879.364014,540.435791,1.285489
-27.923584,874.053955,549.407959,1.286246
-19.226074,874.145508,547.485352,1.287007
-26.092529,869.934082,540.069580,1.287759
-17.852783,870.941162,532.653809,1.288502
-19.500732,865.631104,533.111572,1.289244
-30.487061,868.377686,525.604248,1.289986
-25.817871,859.405518,526.977539,1.290729
-20.782471,851.989746,510.589600,1.291472
-27.557373,854.095459,517.913818,1.292215
-31.494141,858.306885,537.963867,1.292958
-25.634766,848.876953,512.237549,1.293715
-23.986816,839.813232,511.138916,1.294450
-16.387939,847.503662,506.103516,1.295184
-18.951416,845.581055,504.821777,1.295938
-17.578125,841.369629,501.251221,1.296706
-28.106689,840.087891,498.962402,1.297451
-45.776367,835.968018,499.969482,1.298195
-27.557373,835.601807,502.532959,1.298940
-34.240723,834.320068,488.708496,1.299685
-30.029297,841.369629,492.828369,1.300430
-22.064209,823.150635,489.440918,1.301174
-46.325684,821.319580,486.785889,1.301918
-23.620605,819.488525,487.152100,1.302663
-23.071289,814.453125,486.419678,1.303407
-26.916504,819.488525,481.933594,1.304152
-22.796631,818.572998,479.461670,1.304895
-17.852783,812.988281,479.736328,1.305637
-12.634277,809.967041,472.595215,1.306371
-19.226074,810.333252,479.278564,1.307105
-7.965088,813.629150,487.152100,1.307840
-8.331299,815.093994,485.778809,1.308576
-4.028320,823.608398,494.842529,1.309309
-0.915527,821.136475,500.976562,1.310042
-0.915527,833.496094,504.913330,1.310777
2.563477,833.221436,513.610840,1.311511
3.845215,836.059570,510.955811,1.312268
3.662109,844.116211,513.519287,1.313012
0.549316,842.926025,511.505127,1.313756
4.302979,839.721680,514.801025,1.314499
3.387451,848.236084,523.040771,1.315243
2.197266,849.426270,528.350830,1.315977
9.704590,847.961426,528.625488,1.316718
7.049561,848.236084,531.646729,1.317452
2.288818,847.137451,535.125732,1.318207
0.274658,846.405029,534.210205,1.318950
-4.028320,856.842041,538.604736,1.319694
1.922607,856.109619,536.590576,1.320437
-0.549316,855.926514,540.893555,1.321191
5.126953,855.010986,544.738770,1.321935
8.056641,849.517822,542.358398,1.322679
16.662598,851.074219,538.970947,1.323422
14.739990,850.891113,537.780762,1.324061
18.218994,854.827881,536.132812,1.324805
20.599365,845.031738,537.506104,1.325549
13.366699,850.799561,530.090332,1.326292
21.881104,853.546143,538.970947,1.327046
23.529053,848.052979,539.611816,1.327791
20.416260,854.278564,540.252686,1.328535
19.317627,853.637695,528.259277,1.329279
21.789551,850.708008,524.322510,1.330033
25.543213,846.771240,532.012939,1.330776
28.747559,848.419189,534.118652,1.331521
32.135010,855.377197,533.294678,1.332265
29.479980,861.419678,538.879395,1.333018
32.592773,858.581543,542.907715,1.333859
39.184570,853.088379,542.358398,1.334606
44.860840,860.046387,549.591064,1.335340
39.459229,859.130859,547.393799,1.336100
34.057617,861.694336,539.154053,1.336844
36.346436,857.574463,538.879395,1.337589
34.790039,855.102539,545.196533,1.338333
34.606934,851.806641,546.386719,1.339087
33.691406,853.179932,548.583984,1.339831
30.761719,857.482910,546.569824,1.340581
29.937744,856.201172,546.295166,1.341345
22.247314,855.560303,543.731689,1.342150
21.331787,849.884033,544.097900,1.342943
29.754639,854.095459,540.710449,1.343771
28.930664,844.390869,529.907227,1.344569
19.409180,845.214844,520.935059,1.345317
19.775391,846.130371,529.724121,1.346065
21.606445,825.805664,521.118164,1.346809
24.353027,843.933105,516.815186,1.347555
14.923096,841.369629,524.505615,1.348300
10.345459,835.418701,518.280029,1.349044
7.507324,830.841064,524.139404,1.349789
9.704590,833.312988,521.301270,1.350533
3.753662,823.425293,517.547607,1.351277
1.190186,825.622559,518.096924,1.352023
6.408691,817.565918,504.364014,1.352816
-6.134033,811.706543,498.596191,1.353631
2.105713,805.572510,494.567871,1.354379
-2.471924,807.403564,488.616943,1.355114
-2.380371,811.065674,484.222412,1.355910
-3.387451,812.347412,486.053467,1.356655
-7.141113,807.128906,478.363037,1.357399
-6.958008,805.572510,480.743408,1.358143
-11.718750,809.692383,485.229492,1.358938
-14.099121,811.248779,487.792969,1.359769
-15.380859,805.480957,488.433838,1.360517
-8.880615,816.833496,491.455078,1.361279
-19.958496,815.368652,500.701904,1.362043
-19.866943,814.910889,502.807617,1.362787
-16.021729,843.383789,495.574951,1.363582
-7.873535,827.270508,509.033203,1.364341
-12.634277,825.256348,512.786865,1.365075
-12.542725,832.214355,513.793945,1.365810
-9.246826,832.214355,506.835938,1.366544
-12.908936,865.264893,520.935059,1.367279
-6.774902,851.257324,523.315430,1.368014
-10.528564,856.842041,537.780762,1.368747
-10.986328,858.947754,544.006348,1.369498
-13.092041,862.060547,542.633057,1.370234
-7.690430,870.574951,552.703857,1.370968
-6.866455,871.948242,555.541992,1.371701
-15.838623,881.103516,560.394287,1.372435
-14.373779,876.892090,539.428711,1.373170
-15.563965,882.293701,567.443848,1.373906
-16.845703,888.061523,570.556641,1.374640
-11.260986,881.469727,563.323975,1.375375
-12.359619,887.878418,572.021484,1.376106
-11.627197,886.962891,575.592041,1.376868
-20.141602,885.131836,565.521240,1.377628
-22.064209,884.765625,561.126709,1.378378
-25.634766,869.384766,561.309814,1.379167
-24.627686,878.723145,558.563232,1.379916
-3.662109,878.631592,559.478760,1.380660
-20.050049,877.899170,554.992676,1.381402
-8.422852,881.011963,556.182861,1.382148
-12.542725,877.807617,553.985596,1.382882
-12.451172,874.328613,553.802490,1.383616
-8.880615,873.321533,547.210693,1.384350
-22.705078,875.061035,544.281006,1.385097
-12.359619,871.490479,544.097900,1.385832
-13.366699,862.243652,548.217773,1.386566
-16.754150,864.532471,546.386719,1.387301
-7.049561,857.116699,547.576904,1.388133
-12.542725,858.123779,548.309326,1.388884
-20.050049,864.624023,518.554688,1.389629
-18.035889,846.405029,529.815674,1.390374
-19.500732,842.285156,519.744873,1.391137
-12.451172,836.975098,515.258789,1.391881
-14.099121,825.347900,512.512207,1.392625
-10.437012,816.741943,508.666992,1.393369
-15.655518,812.164307,501.892090,1.394124
-17.486572,812.438965,498.138428,1.394868
-17.669678,810.333252,495.025635,1.395612
-13.732910,803.192139,486.877441,1.396356
-8.972168,800.903320,492.553711,1.397103
-21.881104,798.065186,491.546631,1.397837
-11.077881,793.304443,480.377197,1.398572
-10.803223,787.078857,477.081299,1.399306
-15.289307,779.388428,468.566895,1.400180
-12.725830,774.902344,463.073730,1.400945
-14.739990,776.550293,463.165283,1.401690
-12.176514,770.507812,463.531494,1.402436
-11.718750,773.803711,459.960938,1.403180
-3.662109,770.599365,456.756592,1.403924
-3.204346,779.022217,464.813232,1.404668
-15.014648,776.184082,467.468262,1.405410
-5.310059,782.318115,467.926025,1.406144
-5.401611,783.599854,477.630615,1.406879
-17.578125,782.409668,479.461670,1.407613
-8.331299,817.932129,486.145020,1.408477
-3.570557,802.551270,490.631104,1.409212
-22.796631,802.093506,498.596191,1.409946
-11.352539,804.656982,501.434326,1.410680
-10.253906,806.671143,502.532959,1.411426
-12.817383,802.368164,504.547119,1.412170
-12.084961,804.199219,503.265381,1.412915
-12.176514,809.051514,497.131348,1.413659
-14.190674,807.037354,501.251221,1.414403
-19.500732,805.938721,496.215820,1.415147
-19.042969,809.326172,498.413086,1.415891
-20.599365,803.283691,495.208740,1.416635
-46.234131,808.319092,493.103027,1.417389
-29.571533,807.769775,500.701904,1.418133
-21.606445,808.135986,504.821777,1.418877
-19.683838,806.945801,495.574951,1.419621
-21.514893,815.277100,499.694824,1.420367
-20.599365,813.354492,504.547119,1.421112
-3.021240,818.572998,507.751465,1.421856
-12.634277,816.101074,515.167236,1.422600
-16.113281,830.749512,521.484375,1.423355
-21.606445,835.510254,529.998779,1.424098
-19.226074,840.362549,532.836914,1.424843
-22.705078,841.278076,530.181885,1.425613
-31.311035,856.658936,540.618896,1.426394
-28.381348,856.750488,539.886475,1.427147
-25.817871,858.856201,542.266846,1.427892
-28.839111,861.785889,551.147461,1.428594
-33.416748,861.785889,553.985596,1.429337
-29.663086,861.053467,551.879883,1.430081
-32.135010,865.539551,554.168701,1.430824
-31.494141,866.729736,558.105469,1.431578
-31.402588,866.912842,555.541992,1.432359
-41.473389,867.828369,562.316895,1.433120
-32.135010,868.377686,566.802979,1.433937
-44.036865,865.722656,564.697266,1.434681
-46.600342,866.638184,560.943604,1.435413
-39.276123,869.201660,562.225342,1.436145
-48.980713,855.743408,562.042236,1.436891
-41.931152,852.996826,559.295654,1.437623
-55.297852,846.221924,544.738770,1.438354
-49.896240,844.299316,540.618896,1.439085
-50.262451,846.221924,536.590576,1.439831
-46.691895,845.581055,537.322998,1.440563
-36.804199,831.665039,532.104492,1.441294
-41.748047,828.826904,527.343750,1.442024
-45.593262,824.249268,529.907227,1.442759
-35.339355,817.565918,522.674561,1.443500
-31.219482,824.981689,514.801025,1.444245
-32.043457,829.284668,519.104004,1.444986
-22.796631,819.213867,514.709473,1.445726
-24.627686,812.255859,516.082764,1.446466
-21.240234,802.825928,514.984131,1.447206
-25.451660,800.079346,507.202148,1.447946
-22.613525,777.832031,501.068115,1.448685
-21.148682,789.916992,500.518799,1.449425
-30.120850,794.860840,488.250732,1.450164
-25.817871,783.508301,492.004395,1.450904
-16.937256,783.142090,491.729736,1.451645
-26.184082,780.761719,487.609863,1.452386
-13.183594,775.634766,484.313965,1.453126
-15.380859,759.704590,484.405518,1.453865
-9.338379,767.944336,487.884521,1.454620
-15.747070,757.324219,476.806641,1.455361
-17.944336,757.324219,473.968506,1.456101
-5.584717,758.514404,478.637695,1.456841
-9.521484,750.000000,475.799561,1.457581
-5.950928,755.035400,467.926025,1.458321
3.753662,752.655029,475.891113,1.459061
-21.240234,756.317139,473.968506,1.459800
-2.288818,754.577637,474.426270,1.460540
4.669189,749.908447,472.961426,1.461279
5.767822,755.950928,477.172852,1.462019
4.943848,763.458252,483.398438,1.462758
15.563965,767.852783,487.335205,1.463498
14.831543,776.550293,510.131836,1.464238
16.937256,782.867432,499.053955,1.464977
18.218994,781.494141,511.505127,1.465717
21.057129,787.445068,513.610840,1.466456
23.345947,806.304932,516.540527,1.467212
22.979736,805.297852,527.252197,1.467952
25.909424,801.818848,535.125732,1.468692
20.233154,812.805176,539.886475,1.469432
22.247314,815.368652,546.112061,1.470186
30.120850,827.270508,555.175781,1.470927
32.226562,827.819824,566.619873,1.471666
29.937744,836.334229,565.887451,1.472420
33.691406,833.770752,559.570312,1.473162
30.120850,835.876465,555.908203,1.473902
33.691406,840.820312,559.020996,1.474641
31.036377,832.855225,553.161621,1.475380
34.881592,832.946777,551.330566,1.476120
27.465820,832.214355,555.725098,1.476859
27.191162,836.791992,551.513672,1.477598
28.472900,836.334229,547.943115,1.478347
3.204346,836.700439,552.062988,1.479087
23.254395,833.953857,551.971436,1.479826
22.613525,834.686279,545.745850,1.480565
23.529053,830.932617,549.316406,1.481304
17.761230,824.249268,548.675537,1.482140
18.768311,824.066162,545.471191,1.482880
16.845703,823.974609,553.619385,1.483619
14.739990,828.277588,546.386719,1.484359
21.697998,830.017090,548.309326,1.485098
20.874023,835.968018,550.872803,1.485837
12.908936,828.094482,550.598145,1.486576
9.155273,820.312500,545.013428,1.487319
10.894775,828.369141,539.886475,1.488059
3.845215,822.143555,538.970947,1.488799
6.042480,816.558838,529.907227,1.489537
7.232666,818.847656,533.386230,1.490286
6.408691,820.587158,536.865234,1.491026
1.739502,821.228027,540.344238,1.491765
9.246826,839.813232,539.245605,1.492504
5.126953,854.553223,535.675049,1.493252
2.655029,845.031738,550.598145,1.493992
-31.768799,809.509277,586.761475,1.494730
-40.557861,810.150146,608.825684,1.495469
-4.577637,812.988281,578.613281,1.496208
-19.042969,839.538574,560.302734,1.496947
10.986328,824.066162,547.119141,1.497687
23.529053,804.840088,535.675049,1.498426
2.197266,800.262451,522.583008,1.499164
8.789062,790.283203,515.991211,1.499908
-22.155762,772.705078,500.610352,1.500654
-10.070801,768.402100,484.039307,1.501400
-22.613525,774.078369,470.123291,1.502146
-14.007568,786.895752,473.602295,1.502886
-1.922607,784.240723,470.672607,1.503625
-7.232666,792.114258,482.482910,1.504365
-1.831055,795.043945,504.638672,1.505104
-4.943848,796.783447,512.145996,1.505844
-18.859863,802.825928,527.801514,1.506583
5.767822,798.339844,537.872314,1.507335
-0.457764,796.051025,540.710449,1.508092
-3.479004,809.967041,539.245605,1.508839
14.831543,818.572998,536.773682,1.509586
8.697510,809.783936,531.188965,1.510328
7.598877,814.361572,524.597168,1.511067
8.514404,821.502686,526.062012,1.511798
4.577637,813.446045,522.674561,1.512528
-12.268066,813.079834,519.195557,1.513259
-7.232666,820.861816,528.350830,1.513998
-8.789062,823.974609,535.491943,1.514729
-6.134033,834.045410,541.442871,1.515459
-9.521484,834.777832,560.302734,1.516189
-1.373291,837.524414,572.021484,1.516918
0.823975,838.256836,575.775146,1.517659
-0.640869,837.615967,568.450928,1.518399
-1.647949,835.327148,572.021484,1.519140
9.521484,832.855225,557.281494,1.519876
9.796143,833.862305,556.640625,1.520624
10.345459,829.650879,552.154541,1.521364
1.556396,831.207275,538.696289,1.522104
-8.422852,827.819824,530.181885,1.522840
-11.352539,830.474854,531.005859,1.523582
-8.972168,827.362061,527.801514,1.524323
-15.747070,822.509766,534.301758,1.525064
-15.563965,831.756592,528.167725,1.525805
-6.317139,833.038330,528.167725,1.526536
-2.014160,839.447021,538.238525,1.527266
3.845215,830.200195,543.273926,1.527996
10.437012,834.411621,543.731689,1.528727
20.599365,836.975098,549.041748,1.529484
11.352539,843.292236,542.083740,1.530224
12.817383,839.904785,551.055908,1.530964
9.521484,821.136475,555.633545,1.531703
-5.401611,837.432861,542.633057,1.532474
-7.598877,844.116211,538.970947,1.533208
-19.409180,846.405029,537.506104,1.533938
-15.930176,837.707520,535.766602,1.534669
-16.571045,832.580566,533.111572,1.535399
-10.894775,836.517334,528.625488,1.536130
-15.014648,843.017578,526.153564,1.536861
-12.084961,847.686768,525.695801,1.537592
-10.803223,843.750000,526.611328,1.538323
-3.295898,845.672607,535.583496,1.539054
-3.204346,845.947266,532.470703,1.539784
1.647949,848.968506,536.041260,1.540516
-11.077881,854.187012,548.675537,1.541246
-10.803223,862.884521,551.147461,1.541977
-15.014648,864.715576,558.288574,1.542707
-26.458740,861.877441,555.999756,1.543442
-27.374268,868.927002,552.429199,1.544184
-36.071777,871.398926,552.337646,1.544925
-34.790039,861.328125,547.485352,1.545666
-36.071777,869.934082,545.104980,1.546408
-31.219482,875.885010,545.013428,1.547149
-26.733398,880.096436,543.182373,1.547891
-29.022217,870.849609,537.322998,1.548631
-29.022217,871.124268,541.442871,1.549373
-26.184082,884.216309,541.168213,1.550114
-45.043945,880.462646,552.886963,1.550855
-26.641846,879.455566,553.161621,1.551597
-32.135010,883.850098,555.541992,1.552339
-33.050537,877.990723,556.365967,1.553081
-34.149170,896.209717,560.394287,1.553822
-35.705566,890.991211,554.351807,1.554564
-38.909912,885.589600,550.231934,1.555390
-43.395996,882.659912,535.400391,1.556133
-67.382812,878.906250,551.239014,1.556875
-44.219971,886.413574,519.836426,1.557616
-46.051025,886.596680,539.611816,1.558357
-45.135498,885.955811,535.675049,1.559099
-43.395996,887.603760,532.196045,1.559840
-47.698975,882.843018,540.893555,1.560582
-48.706055,878.997803,535.675049,1.561323
-49.896240,881.469727,537.048340,1.562064
-54.473877,881.378174,541.717529,1.562806
-57.403564,879.547119,543.640137,1.563547
-56.121826,879.089355,554.534912,1.564286
-60.607910,881.744385,545.471191,1.565027
-53.009033,884.124756,543.823242,1.565769
-53.466797,892.272949,541.992188,1.566510
-50.720215,886.413574,519.836426,1.567251
-44.586182,885.314941,537.963867,1.567994
-49.438477,892.272949,537.780762,1.568743
-55.755615,889.984131,539.337158,1.569485
-50.262451,889.343262,545.745850,1.570226
-54.016113,888.519287,542.633057,1.570968
-50.079346,889.343262,550.506592,1.571710
-54.290771,888.061523,553.894043,1.572451
-54.016113,889.801025,555.267334,1.573193
-50.628662,899.871826,559.753418,1.573934
-52.734375,891.174316,557.189941,1.574816
-48.431396,897.857666,561.035156,1.575690
-49.987793,901.245117,564.147949,1.576449
-55.664062,897.674561,559.844971,1.577217
-58.593750,896.026611,560.852051,1.577969
-58.776855,893.920898,568.267822,1.578748
-54.382324,890.167236,563.690186,1.579501
-59.967041,900.421143,561.676025,1.580325
-64.544678,897.949219,557.556152,1.581115
-60.424805,895.843506,554.351807,1.581907
-52.276611,899.780273,558.837891,1.582679
-56.030273,895.477295,550.140381,1.583475
-59.509277,900.421143,553.802490,1.584226
-56.671143,895.477295,556.823730,1.584988
-53.833008,900.329590,558.929443,1.585735
-54.565430,894.927979,558.929443,1.586504
-53.649902,893.096924,557.464600,1.587236
-58.502197,894.836426,558.563232,1.587967
-59.783936,883.209229,557.281494,1.588698
-59.875488,885.223389,561.859131,1.589441
-55.938721,884.582520,552.429199,1.590173
-50.262451,881.195068,557.739258,1.590905
-43.853760,886.138916,554.443359,1.591635
-42.572021,884.674072,551.239014,1.592378
-40.008545,891.723633,556.640625,1.593108
-35.522461,887.969971,557.464600,1.593839
-34.332275,893.188477,557.739258,1.594570
-37.445068,901.245117,565.979004,1.595312
-30.303955,899.139404,561.676025,1.596043
-32.043457,899.597168,543.090820,1.596774
-27.008057,900.238037,565.429688,1.597505
-27.648926,895.935059,565.795898,1.598315
-26.275635,891.540527,563.415527,1.599048
-19.500732,889.892578,556.365967,1.599779
-22.247314,894.195557,561.218262,1.600510
-30.853271,888.977051,559.570312,1.601250
-29.205322,889.068604,552.612305,1.601981
-22.613525,883.941650,551.696777,1.602712
-14.282227,889.526367,552.246094,1.603443
-17.761230,885.314941,567.443848,1.604184
-16.937256,881.011963,565.795898,1.604916
-19.409180,882.934570,572.113037,1.605646
-13.366699,883.941650,572.021484,1.606377
-18.768311,885.223389,575.408936,1.607118
-18.218994,882.476807,582.458496,1.607849
-11.260986,882.110596,588.867188,1.608580
-22.338867,882.751465,587.860107,1.609311
-17.944336,873.779297,607.360840,1.610054
-14.739990,875.244141,587.677002,1.610785
-20.416260,868.469238,578.521729,1.611516
-20.690918,868.743896,573.394775,1.612248
-19.042969,861.877441,570.922852,1.612904
-17.761230,855.926514,567.352295,1.613635
-18.585205,847.961426,556.274414,1.614366
-24.627686,844.940186,553.161621,1.615097
-19.409180,845.031738,547.760010,1.615837
-21.148682,837.158203,562.316895,1.616568
-25.543213,836.425781,561.584473,1.617298
-23.529053,832.214355,557.006836,1.618029
-22.796631,830.108643,554.260254,1.618785
-23.162842,830.383301,553.527832,1.619527
-26.916504,828.735352,561.035156,1.620268
-18.402100,828.552246,555.725098,1.621010
-30.212402,829.284668,563.415527,1.621764
-31.127930,827.819824,565.246582,1.622506
-23.345947,821.319580,562.683105,1.623246
-25.909424,822.509766,564.514160,1.623987
-24.902344,824.249268,567.260742,1.624737
-26.184082,816.650391,567.626953,1.625479
-29.296875,808.410645,566.986084,1.626221
-28.930664,810.241699,571.380615,1.626962
-28.015137,809.234619,576.599121,1.627715
-29.113770,809.143066,570.739746,1.628546
-39.459229,804.748535,568.176270,1.629287
-39.733887,811.157227,568.450928,1.630028
-36.895752,810.150146,570.373535,1.630712
-32.409668,798.980713,561.492920,1.631453
-34.515381,804.382324,566.345215,1.632194
-41.656494,803.649902,561.584473,1.632934
-41.381836,800.903320,554.260254,1.633685
-44.677734,791.473389,558.197021,1.634426
-43.121338,802.459717,554.260254,1.635166
-43.670654,799.255371,557.739258,1.635907
-38.360596,798.431396,561.035156,1.636657
-42.205811,804.016113,556.549072,1.637398
-45.959473,807.220459,552.246094,1.638139
-39.001465,798.614502,559.661865,1.638880
-42.297363,799.987793,558.288574,1.639631
-39.276123,796.417236,562.042236,1.640372
-42.663574,803.741455,562.225342,1.641113
-42.755127,797.058105,561.035156,1.641854
-45.959473,797.515869,561.676025,1.642604
-36.071777,802.917480,563.323975,1.643346
-38.818359,800.445557,567.260742,1.644087
-33.782959,801.269531,564.971924,1.644828
-35.797119,792.938232,557.739258,1.645579
-32.775879,797.241211,561.401367,1.646327
-22.705078,799.346924,556.182861,1.647074
-35.247803,799.987793,547.119141,1.647826
-31.860352,796.417236,548.034668,1.648599
-26.184082,787.719727,554.168701,1.649342
-27.374268,794.036865,555.633545,1.650083
-16.296387,797.424316,554.443359,1.650824
-25.177002,791.381836,560.394287,1.651574
-34.606934,791.931152,556.732178,1.652315
-30.944824,793.762207,559.295654,1.653056
-30.303955,791.931152,555.999756,1.653797
-27.832031,785.522461,551.696777,1.654551
-26.641846,790.191650,563.598633,1.655293
-24.078369,786.621094,558.105469,1.656049
-21.148682,796.142578,558.013916,1.656807
-16.937256,782.592773,550.964355,1.657600
-16.662598,786.437988,558.013916,1.658350
-21.881104,786.437988,561.401367,1.659095
-9.246826,790.466309,561.767578,1.659839
-15.655518,791.381836,564.514160,1.660604
-12.542725,788.177490,561.859131,1.661346
-18.310547,792.388916,557.556152,1.662087
-15.563965,783.874512,562.957764,1.662828
-6.958008,789.093018,566.162109,1.663580
-7.232666,780.944824,569.732666,1.664321
-9.063721,780.487061,575.592041,1.665061
-9.429932,781.494141,563.415527,1.665803
-9.063721,781.311035,554.992676,1.666557
-5.493164,789.642334,561.584473,1.667298
-4.852295,790.649414,564.239502,1.668038
-8.697510,789.276123,569.549561,1.668779
-5.035400,784.332275,565.521240,1.669531
-3.204346,782.684326,570.831299,1.670272
-3.570557,785.614014,564.697266,1.671012
-0.823975,791.564941,579.254150,1.671752
1.922607,790.649414,575.134277,1.672504
-5.401611,796.142578,580.627441,1.673245
0.091553,787.261963,569.824219,1.673985
0.457764,789.825439,577.331543,1.674726
-2.929688,785.614014,577.697754,1.675477
-2.288818,789.184570,574.493408,1.676217
-4.486084,788.818359,573.944092,1.676958
5.950928,786.346436,570.190430,1.677698
5.493164,785.247803,567.718506,1.678458
4.119873,785.705566,564.605713,1.679201
6.317139,784.332275,570.465088,1.679942
7.507324,783.874512,565.429688,1.680683
5.950928,789.459229,568.176270,1.681435
7.873535,786.529541,568.634033,1.682176
5.859375,786.987305,571.929932,1.682916
4.486084,786.163330,568.725586,1.683657
14.373779,786.529541,570.007324,1.684408
13.183594,786.895752,578.430176,1.685149
15.472412,790.466309,574.768066,1.685890
15.289307,788.177490,567.901611,1.686630
16.021729,787.811279,565.887451,1.687247
11.993408,791.748047,567.993164,1.687988
19.409180,793.395996,566.436768,1.688729
16.387939,792.114258,559.204102,1.689470
11.535645,790.008545,556.091309,1.690222
14.648438,790.374756,552.429199,1.690963
13.183594,786.804199,547.485352,1.691703
6.958008,786.712646,549.041748,1.692444
7.781982,795.227051,551.971436,1.693199
9.796143,796.966553,554.809570,1.693940
8.880615,795.867920,558.013916,1.694681
7.415771,799.804688,540.618896,1.695421
4.119873,804.565430,567.535400,1.696173
5.950928,810.516357,562.957764,1.696913
3.570557,810.791016,571.838379,1.697654
0.457764,814.270020,573.944092,1.698394
-3.204346,824.615479,576.141357,1.699145
0.366211,819.305420,577.972412,1.699885
20.324707,824.157715,580.352783,1.700626
-0.183105,824.157715,577.789307,1.701366
-0.915527,839.080811,593.719482,1.702207
-20.965576,832.031250,586.944580,1.702949
0.823975,828.826904,587.219238,1.703690
-4.486084,836.975098,590.240479,1.704431
0.183105,866.638184,593.902588,1.705172
1.007080,852.264404,596.740723,1.705903
1.098633,851.531982,602.691650,1.706633
-0.183105,856.384277,603.515625,1.707364
-2.929688,853.637695,602.508545,1.708114
-4.119873,856.750488,609.191895,1.708845
-4.394531,854.187012,605.438232,1.709575
-14.648438,854.827881,600.952148,1.710305
-7.873535,859.588623,586.853027,1.711052
-11.718750,845.764160,595.733643,1.711783
-10.528564,846.130371,594.360352,1.712513
-20.050049,845.855713,587.310791,1.713243
-18.493652,847.869873,584.014893,1.713986
-18.676758,842.651367,580.261230,1.714717
-18.310547,836.700439,572.021484,1.715447
-17.578125,834.869385,570.831299,1.716178
-23.345947,828.002930,562.133789,1.716917
-23.620605,826.171875,560.760498,1.717648
-25.177002,826.538086,558.197021,1.718378
-29.937744,822.967529,556.549072,1.719109
-27.282715,822.875977,551.422119,1.719864
-32.775879,812.713623,556.915283,1.720603
-35.705566,826.446533,564.788818,1.721346
-35.339355,827.545166,556.640625,1.722091
-30.578613,818.298340,560.577393,1.722856
-35.522461,818.023682,561.401367,1.723602
-43.670654,814.086914,553.802490,1.724341
-46.051025,816.467285,557.739258,1.725081
-33.233643,806.488037,561.126709,1.725843
-38.726807,810.424805,562.133789,1.726621
-38.177490,820.037842,561.309814,1.727374
-39.916992,814.453125,560.119629,1.728129
-43.395996,818.023682,562.591553,1.728892
-33.874512,821.777344,554.718018,1.729632
-37.994385,824.340820,562.042236,1.730372
-37.261963,817.932129,581.085205,1.731120
-31.402588,817.657471,566.894531,1.731860
-32.958984,819.671631,572.296143,1.732599
-34.606934,828.735352,570.190430,1.733340
-27.557373,830.108643,577.880859,1.734091
-28.656006,826.812744,575.042725,1.734831
-23.712158,827.178955,578.247070,1.735570
-15.747070,827.362061,572.113037,1.736310
-22.979736,827.636719,576.416016,1.737049
-14.282227,831.207275,576.049805,1.737798
-16.662598,837.890625,579.071045,1.738537
-19.866943,829.101562,570.556641,1.739279
-42.663574,834.136963,577.972412,1.740074
-15.380859,840.362549,579.254150,1.740815
-8.514404,843.383789,569.915771,1.741554
-10.894775,840.179443,581.909180,1.742293
-6.958008,848.693848,580.444336,1.743032
-5.218506,846.954346,577.972412,1.743771
-4.119873,842.559814,587.768555,1.744510
-6.317139,845.855713,593.536377,1.745249
-2.471924,854.095459,589.141846,1.745987
-2.197266,857.116699,587.585449,1.746726
8.605957,854.187012,583.923340,1.747465
11.077881,859.680176,582.550049,1.748204
17.303467,869.018555,592.803955,1.748952
17.486572,858.673096,590.423584,1.749692
17.120361,857.666016,586.120605,1.750431
20.599365,867.004395,594.543457,1.751171
18.493652,868.927002,592.437744,1.751910
6.958008,869.750977,590.698242,1.752659
20.599365,869.750977,593.353271,1.753398
17.211914,862.518311,589.874268,1.754137
29.022217,868.377686,587.860107,1.754876
20.050049,862.518311,591.888428,1.755625
20.782471,858.398438,581.909180,1.756365
23.162842,857.025146,583.282471,1.757104
28.472900,852.539062,585.296631,1.757843
31.219482,861.602783,582.824707,1.758593
26.092529,845.306396,576.141357,1.759332
24.444580,847.229004,575.775146,1.760071
24.536133,853.820801,568.084717,1.760811
19.042969,845.306396,570.739746,1.761559
21.514893,848.236084,575.042725,1.762299
22.338867,847.961426,572.021484,1.763038
19.042969,838.714600,566.162109,1.763777
23.071289,843.383789,569.183350,1.764526
3.112793,845.397949,568.267822,1.765266
22.247314,846.496582,571.197510,1.766005
31.951904,842.193604,573.944092,1.766744
33.691406,865.081787,573.211670,1.767492
32.226562,849.792480,583.099365,1.768232
29.022217,845.581055,577.423096,1.768971
35.430908,835.510254,571.289062,1.769710
28.289795,847.412109,576.507568,1.770459
33.233643,848.052979,574.676514,1.771199
25.634766,850.524902,573.120117,1.771938
27.008057,851.806641,578.613281,1.772677
23.254395,841.278076,582.458496,1.773425
26.733398,851.989746,576.599121,1.774165
25.085449,860.137939,577.056885,1.774904
18.676758,849.517822,574.859619,1.775733
18.218994,856.842041,582.641602,1.776473
20.233154,866.729736,585.205078,1.777213
20.050049,868.377686,584.289551,1.777952
16.845703,867.828369,593.994141,1.778702
17.211914,861.602783,592.071533,1.779442
14.556885,869.750977,589.508057,1.780181
14.190674,872.406006,602.233887,1.780920
14.923096,873.046875,599.395752,1.781659
11.352539,887.695312,602.050781,1.782410
8.880615,874.053955,600.585938,1.783149
12.176514,882.843018,607.635498,1.783889
8.331299,881.469727,605.621338,1.784628
-3.570557,871.948242,596.099854,1.785375
7.049561,886.596680,600.677490,1.786115
7.965088,881.286621,591.339111,1.786853
-1.373291,881.652832,589.233398,1.787592
11.535645,884.765625,591.979980,1.788340
0.366211,883.483887,583.374023,1.789080
10.437012,883.575439,582.916260,1.789820
7.507324,887.054443,586.212158,1.790560
11.260986,883.850098,587.310791,1.791308
-3.021240,882.385254,587.402344,1.792048
-2.014160,882.385254,582.092285,1.792786
6.500244,886.230469,590.423584,1.793526
22.338867,891.723633,580.902100,1.794274
2.197266,890.808105,583.648682,1.795014
-4.486084,890.808105,593.536377,1.795760
-2.288818,889.526367,594.909668,1.796504
-3.112793,883.575439,590.240479,1.797268
1.281738,901.336670,598.022461,1.798010
-2.197266,898.956299,599.853516,1.798749
-1.007080,900.329590,604.431152,1.799487
-5.035400,897.949219,600.585938,1.800239
-10.437012,907.470703,609.100342,1.800978
-14.465332,893.005371,609.741211,1.801717
-15.747070,900.695801,598.114014,1.802456
-13.275146,903.350830,600.036621,1.803205
-19.683838,898.406982,583.923340,1.803944
-22.888184,895.751953,580.444336,1.804696
-23.345947,892.639160,578.521729,1.805448
-24.078369,892.822266,576.690674,1.806198
-23.345947,890.716553,576.141357,1.806952
-21.514893,893.554688,570.098877,1.807703
-26.733398,896.667480,567.810059,1.808454
-29.205322,899.230957,566.162109,1.809197
-26.733398,900.054932,570.922852,1.809936
-28.015137,900.695801,577.423096,1.810676
-27.557373,899.139404,583.557129,1.811415
-23.071289,910.400391,600.585938,1.812152
-31.677246,902.893066,602.691650,1.812910
-35.156250,910.766602,608.276367,1.813652
-34.606934,916.442871,618.347168,1.814394
-34.606934,918.182373,612.304688,1.815135
-27.099609,924.407959,623.840332,1.815875
-24.078369,926.330566,626.129150,1.816616
-33.691406,927.429199,624.389648,1.817376
-37.628174,916.076660,624.023438,1.818117
-30.578613,915.252686,616.058350,1.818858
-35.797119,911.315918,621.368408,1.819602
-31.402588,911.224365,613.769531,1.820344
-39.550781,903.533936,610.107422,1.821084
-38.085938,908.569336,618.621826,1.821825
-33.966064,907.653809,616.333008,1.822565
-38.635254,907.745361,611.846924,1.823307
-40.557861,909.118652,622.924805,1.824049
-40.100098,902.801514,615.417480,1.824790
-38.269043,906.097412,614.685059,1.825531
-32.318115,905.914307,609.924316,1.826272
-27.465820,907.012939,609.558105,1.827014
-34.790039,909.210205,611.755371,1.827755
-28.015137,912.139893,611.572266,1.828495
-32.409668,905.731201,607.635498,1.829247
-28.564453,914.245605,611.114502,1.829989
-32.043457,914.886475,614.410400,1.830729
-32.226562,909.118652,608.642578,1.831470
-36.804199,902.801514,612.396240,1.832222
-33.233643,906.188965,619.445801,1.832963
-35.339355,910.491943,622.650146,1.833704
-40.557861,909.667969,618.621826,1.834445
-26.000977,911.132812,627.136230,1.835197
-30.120850,906.646729,623.657227,1.835938
-30.487061,901.611328,626.312256,1.836679
-20.416260,908.294678,629.699707,1.837419
-27.008057,908.386230,630.340576,1.838169
-27.008057,906.097412,630.889893,1.838910
-31.036377,904.815674,623.107910,1.839651
-23.895264,904.907227,623.748779,1.840392
-18.859863,901.336670,636.199951,1.841143
-20.324707,891.815186,636.016846,1.841884
-18.676758,902.801514,622.558594,1.842626
-13.275146,897.125244,626.403809,1.843366
-19.592285,896.759033,622.467041,1.844117
-16.571045,896.942139,635.284424,1.844858
-15.838623,886.779785,638.122559,1.845599
-15.930176,887.420654,635.650635,1.846340
-9.338379,887.237549,633.636475,1.847089
-5.493164,885.223389,632.904053,1.847830
-1.556396,887.878418,636.016846,1.848571
-2.746582,881.927490,627.044678,1.849394
-5.767822,875.244141,629.333496,1.850134
-9.613037,858.123779,621.917725,1.850874
-11.718750,858.764648,613.128662,1.851615
-9.521484,855.010986,611.846924,1.852356
-19.592285,848.236084,607.543945,1.853096
-23.529053,840.728760,603.881836,1.853837
-20.507812,830.566406,594.360352,1.854577
-22.521973,829.833984,598.754883,1.855318
-15.014648,829.742432,596.191406,1.856072
-22.338867,822.509766,595.367432,1.856813
-26.733398,812.347412,598.480225,1.857554
-25.177002,812.988281,597.106934,1.858295
-22.705078,808.502197,591.064453,1.859045
-25.634766,813.812256,586.120605,1.859786
-30.670166,800.170898,597.106934,1.860527
-30.303955,794.586182,594.268799,1.861268
-31.402588,791.564941,589.050293,1.862017
-28.289795,792.938232,586.029053,1.862758
-35.614014,793.945312,586.944580,1.863499
-36.804199,793.304443,585.021973,1.864240
-38.269043,788.085938,568.542480,1.864990
-31.402588,781.402588,574.951172,1.865731
-31.768799,783.966064,565.521240,1.866472
-38.635254,784.881592,567.352295,1.867212
-36.987305,776.733398,559.204102,1.867953
-39.459229,780.029297,561.584473,1.868698
-41.931152,772.888184,560.302734,1.869444
-35.888672,777.832031,560.211182,1.870194
-37.536621,767.761230,560.211182,1.870963
-38.452148,766.845703,553.161621,1.871705
-36.712646,768.310547,553.527832,1.872445
-42.022705,753.112793,564.880371,1.873186
-41.015625,771.331787,567.810059,1.873928
-36.071777,774.169922,567.535400,1.874669
-41.107178,772.796631,567.169189,1.875410
-33.966064,771.972656,572.387695,1.876151
-31.311035,782.135010,577.331543,1.876903
-40.100098,782.867432,578.887939,1.877651
-34.149170,786.804199,590.423584,1.878399
-36.712646,789.093018,595.275879,1.879140
-35.797119,795.593262,596.557617,1.879881
-32.958984,783.691406,593.261719,1.880622
-33.325195,789.550781,599.761963,1.881371
-33.508301,790.740967,595.092773,1.882139
-32.409668,793.487549,600.128174,1.882886
-32.592773,793.395996,593.170166,1.883634
-34.240723,793.762207,593.902588,1.884376
-25.543213,786.895752,601.135254,1.885117
-26.458740,789.276123,597.839355,1.885858
-26.367188,793.853760,599.670410,1.886601
-26.916504,792.022705,596.740723,1.887344
-17.761230,802.917480,608.734131,1.888086
-19.500732,791.564941,596.923828,1.888827
-26.641846,799.896240,602.691650,1.889569
-24.627686,798.431396,610.015869,1.890309
-23.162842,791.015625,611.297607,1.891051
-29.205322,795.776367,605.255127,1.891792
-30.670166,794.677734,615.509033,1.892533
-34.332275,791.290283,612.213135,1.893274
-21.514893,789.459229,611.297607,1.894015
-23.712158,785.156250,608.459473,1.894757
-21.331787,783.874512,602.508545,1.895498
-18.676758,781.219482,597.381592,1.896239
-20.690918,769.226074,598.022461,1.896979
-24.627686,773.803711,597.930908,1.897737
-27.099609,763.092041,597.564697,1.898478
-28.289795,764.648438,598.937988,1.899219
-27.740479,758.239746,585.021973,1.899962
-24.902344,761.535645,594.268799,1.900705
-33.050537,751.190186,591.522217,1.901446
-33.416748,741.302490,588.867188,1.902187
-32.043457,743.499756,587.585449,1.902927
-30.303955,745.056152,589.965820,1.903669
-33.599854,738.647461,586.120605,1.904410
-33.142090,737.640381,588.043213,1.905150
-41.198730,729.125977,579.986572,1.905891
-33.782959,730.499268,577.514648,1.906642
-38.177490,728.851318,577.148438,1.907383
-39.367676,734.527588,575.592041,1.908123
-36.987305,725.738525,572.387695,1.908864
-50.445557,716.217041,569.915771,1.909613
-47.241211,716.400146,577.880859,1.910354
-43.945312,724.548340,583.282471,1.911095
-40.283203,721.618652,576.965332,1.911836
-46.234131,715.759277,580.810547,1.912576
-51.269531,717.315674,587.493896,1.913317
-48.889160,721.069336,583.831787,1.914057
-54.656982,716.766357,582.641602,1.914797
-54.748535,716.674805,585.662842,1.915538
-49.804688,720.611572,586.944580,1.916279
-49.346924,719.238281,583.099365,1.917020
-49.621582,728.210449,581.542969,1.917761
-53.466797,726.470947,581.451416,1.918502
-54.931641,732.513428,589.965820,1.919242
-58.044434,737.182617,594.726562,1.919983
-59.234619,730.407715,598.846436,1.920724
-54.107666,729.217529,605.072021,1.921548
-50.079346,738.189697,604.156494,1.922290
-50.903320,746.612549,605.346680,1.923030
-53.741455,745.788574,612.854004,1.923771
-53.924561,738.189697,587.219238,1.924512
-51.361084,736.267090,611.846924,1.925253
-57.769775,738.739014,605.621338,1.925994
-49.621582,742.309570,613.677979,1.926735
-44.494629,734.161377,605.987549,1.927476
-38.452148,730.865479,607.177734,1.928217
-48.431396,726.104736,595.916748,1.928957
-43.212891,729.858398,602.966309,1.929698
-38.177490,726.470947,603.973389,1.930449
-40.557861,727.935791,605.072021,1.931190
-45.501709,720.062256,602.600098,1.931931
-44.036865,720.245361,603.881836,1.932671
-46.508789,715.301514,601.776123,1.933421
-41.107178,717.315674,601.135254,1.934162
-36.071777,714.477539,601.684570,1.934903
-37.719727,711.456299,600.494385,1.935644
-33.782959,707.702637,594.818115,1.936385
-31.402588,704.589844,590.515137,1.937125
-34.423828,700.744629,586.669922,1.937866
-31.311035,695.343018,587.036133,1.938607
-27.282715,696.166992,577.697754,1.939348
-29.022217,687.194824,574.584961,1.940089
-25.726318,695.068359,575.317383,1.940831
-23.529053,689.575195,584.381104,1.941572
-21.423340,688.568115,584.747314,1.942318
-18.951416,682.342529,579.345703,1.943063
-23.986816,683.715820,568.634033,1.943826
-11.901855,682.708740,586.029053,1.944574
-14.739990,677.490234,592.620850,1.945317
-18.218994,674.652100,591.247559,1.946057
-14.007568,674.743652,596.649170,1.946799
-15.014648,673.553467,597.106934,1.947539
-13.824463,681.610107,599.761963,1.948280
-11.077881,676.208496,598.937988,1.949020
-8.605957,674.835205,592.803955,1.949761
-6.500244,667.510986,589.141846,1.950502
-3.479004,663.940430,586.029053,1.951263
2.746582,661.926270,583.831787,1.952004
-5.310059,660.278320,583.007812,1.952744
6.317139,663.757324,588.684082,1.953520
3.845215,665.130615,586.212158,1.954293
-6.958008,662.658691,597.198486,1.955057
-3.845215,672.912598,602.416992,1.955803
-0.915527,668.884277,605.438232,1.956544
-4.943848,666.870117,601.226807,1.957307
-3.570557,668.884277,606.811523,1.958047
-7.965088,671.722412,606.628418,1.958788
-15.014648,664.123535,610.748291,1.959529
-8.697510,662.384033,606.811523,1.960283
-2.563477,668.334961,605.163574,1.961024
-7.324219,667.694092,595.458984,1.961765
-7.324219,669.799805,596.832275,1.962505
-11.627197,661.560059,595.550537,1.963256
-10.803223,655.242920,592.529297,1.963997
-8.148193,656.799316,590.515137,1.964737
-12.268066,653.686523,579.528809,1.965477
-14.465332,651.306152,579.162598,1.966218
-13.641357,649.291992,590.240479,1.966949
-8.605957,653.137207,585.388184,1.967680
-11.077881,649.658203,590.240479,1.968411
-18.218994,644.256592,588.775635,1.969167
-15.655518,638.763428,564.422607,1.969907
-13.183594,645.080566,590.423584,1.970646
-22.338867,649.291992,584.838867,1.971385
-20.690918,648.193359,585.754395,1.972134
-12.817383,636.016846,579.437256,1.972874
-13.732910,635.650635,577.972412,1.973613
-15.014648,634.643555,581.726074,1.974352
-11.077881,630.249023,578.063965,1.975102
-17.852783,632.537842,576.873779,1.975842
-10.986328,629.882812,570.556641,1.976582
-10.894775,623.748779,569.000244,1.977321
-11.627197,633.636475,573.944092,1.978066
-11.718750,640.045166,571.563721,1.978806
-11.627197,634.185791,578.155518,1.979545
-16.571045,636.474609,586.120605,1.980284
-21.057129,635.467529,582.092285,1.980992
-14.007568,641.693115,586.669922,1.981732
-8.605957,642.059326,588.409424,1.982471
-9.979248,640.869141,587.951660,1.983210
-15.563965,637.115479,589.965820,1.983960
-11.535645,645.080566,595.275879,1.984699
-7.598877,644.348145,587.585449,1.985438
-7.873535,648.651123,593.994141,1.986177
-7.049561,649.658203,597.564697,1.986925
3.570557,657.348633,602.325439,1.987663
-0.915527,661.285400,599.853516,1.988402
1.373291,662.384033,608.276367,1.989142
1.373291,665.588379,605.987549,1.989889
0.915527,668.426514,610.748291,1.990629
1.098633,666.137695,611.663818,1.991368
1.464844,684.539795,620.178223,1.992107
2.838135,681.884766,617.065430,1.992857
-2.014160,692.779541,632.263184,1.993596
-0.823975,684.539795,625.122070,1.994335
0.000000,683.349609,636.291504,1.995205
9.887695,688.842773,636.932373,1.995956
3.021240,691.406250,627.502441,1.996696
4.486084,688.110352,625.122070,1.997435
1.190186,677.947998,625.030518,1.998175
3.295898,676.300049,621.734619,1.998925
7.965088,681.518555,617.889404,1.999664
21.606445,682.525635,613.586426,2.000403
6.317139,681.518555,613.586426,2.001142
-0.366211,678.039551,609.649658,2.001891
2.563477,673.004150,599.945068,2.002630
1.464844,677.398682,605.438232,2.003369
-21.697998,671.813965,599.945068,2.004108
-0.732422,674.377441,594.177246,2.004857
1.464844,664.306641,598.205566,2.005598
2.014160,675.018311,602.691650,2.006337
-1.464844,664.947510,599.304199,2.007076
3.753662,666.870117,599.945068,2.007829
4.211426,671.630859,612.304688,2.008569
-2.197266,669.433594,606.445312,2.009308
-2.380371,670.532227,613.861084,2.010047
1.464844,670.623779,606.445312,2.010797
8.514404,674.926758,617.340088,2.011536
6.042480,674.926758,616.699219,2.012275
2.563477,670.898438,613.952637,2.013014
3.479004,675.018311,611.114502,2.013763
1.647949,675.109863,613.677979,2.014505
3.204346,669.342041,605.804443,2.015250
5.493164,676.574707,612.213135,2.015997
-2.838135,672.271729,608.184814,2.016760
9.796143,677.032471,611.938477,2.017499
8.605957,668.609619,606.536865,2.018236
-0.366211,671.813965,613.311768,2.018973
4.852295,684.173584,614.318848,2.019738
5.950928,679.595947,612.670898,2.020478
4.302979,681.060791,613.311768,2.021218
3.021240,674.194336,617.889404,2.021956
13.458252,676.025391,621.459961,2.022705
9.246826,681.976318,614.593506,2.023445
9.429932,682.708740,613.769531,2.024185
1.922607,683.807373,622.375488,2.024926
3.479004,687.103271,619.262695,2.025682
0.915527,684.997559,613.769531,2.026431
5.035400,691.955566,620.178223,2.027191
8.972168,698.913574,630.157471,2.027959
5.401611,686.187744,622.741699,2.028729
12.084961,689.392090,625.762939,2.029468
16.571045,690.124512,615.509033,2.030207
16.937256,691.680908,619.995117,2.030947
11.169434,684.173584,611.480713,2.031698
0.091553,687.835693,623.107910,2.032439
15.838623,689.758301,615.234375,2.033180
21.423340,694.885254,626.220703,2.033919
25.909424,702.026367,619.812012,2.034670
22.064209,686.553955,618.164062,2.035410
20.599365,706.787109,624.847412,2.036149
21.697998,705.047607,623.931885,2.036889
29.388428,699.462891,629.058838,2.037643
29.663086,699.371338,624.938965,2.038384
27.374268,697.265625,619.995117,2.039123
38.269043,706.420898,626.220703,2.039862
32.043457,699.005127,632.080078,2.040611
40.283203,710.540771,629.241943,2.041350
35.797119,708.892822,631.805420,2.042089
33.691406,715.118408,633.178711,2.042828
29.113770,716.125488,628.509521,2.043577
35.980225,718.139648,635.559082,2.044317
28.656006,710.540771,631.347656,2.045056
27.374268,715.209961,640.228271,2.045796
36.529541,717.590332,636.749268,2.046544
33.691406,724.182129,641.326904,2.047284
28.564453,714.294434,640.136719,2.048023
33.508301,729.492188,643.707275,2.048762
36.987305,728.759766,634.460449,2.049510
38.818359,722.259521,625.854492,2.050250
33.233643,726.928711,624.298096,2.050989
32.501221,720.428467,628.143311,2.051728
32.318115,720.520020,628.692627,2.052477
22.247314,718.048096,625.946045,2.053225
24.627686,716.308594,638.488770,2.053964
29.846191,714.477539,631.896973,2.054704
18.768311,728.668213,628.509521,2.055451
27.191162,705.322266,632.354736,2.056206
29.937744,723.266602,624.389648,2.056947
28.289795,725.555420,635.375977,2.057686
25.360107,725.738525,656.066895,2.058435
20.965576,728.576660,632.263184,2.059174
19.958496,725.830078,637.390137,2.059913
26.824951,726.013184,631.439209,2.060653
14.282227,723.999023,634.826660,2.061401
21.697998,729.858398,640.777588,2.062141
18.676758,728.942871,631.622314,2.062880
20.050049,729.675293,626.953125,2.063619
17.303467,733.337402,625.213623,2.064369
22.430420,724.090576,620.635986,2.065109
21.514893,728.393555,622.650146,2.065848
15.747070,731.506348,630.889893,2.066587
13.549805,727.935791,632.446289,2.067339
14.099121,735.900879,634.002686,2.068079
12.542725,732.513428,634.735107,2.068818
7.965088,734.893799,635.101318,2.069557
18.585205,727.844238,640.594482,2.070389
11.077881,734.436035,638.305664,2.071130
13.458252,730.407715,636.840820,2.071869
11.077881,728.118896,641.235352,2.072608
13.824463,729.034424,636.383057,2.073357
16.571045,731.048584,637.207031,2.074096
12.268066,739.654541,633.636475,2.074836
17.120361,731.506348,625.488281,2.075575
14.099121,730.133057,619.537354,2.076329
14.923096,728.759766,626.678467,2.077070
15.655518,729.034424,626.678467,2.077810
13.092041,730.865479,632.812500,2.078549
16.937256,733.428955,624.389648,2.079301
17.944336,741.302490,629.974365,2.080041
20.416260,740.112305,634.185791,2.080780
27.191162,739.288330,639.129639,2.081520
24.078369,742.492676,640.228271,2.082269
27.099609,746.063232,652.770996,2.083009
24.169922,753.479004,648.925781,2.083748
27.374268,764.373779,653.503418,2.084487
19.409180,761.810303,650.939941,2.085236
22.979736,760.986328,654.785156,2.085975
20.599365,758.056641,654.144287,2.086715
30.029297,769.775391,653.137207,2.087455
29.937744,769.500732,663.665771,2.088212
26.733398,774.536133,655.242920,2.088957
27.832031,769.683838,635.192871,2.089705
24.993896,772.979736,652.954102,2.090449
24.902344,777.374268,666.046143,2.091211
22.338867,782.409668,665.679932,2.091952
24.261475,782.867432,660.003662,2.092691
26.092529,784.240723,659.729004,2.093430
19.042969,777.465820,661.926270,2.094180
23.620605,782.043457,656.250000,2.094920
21.148682,778.747559,659.912109,2.095659
18.676758,779.479980,661.010742,2.096399
23.529053,775.634766,658.905029,2.097147
12.817383,786.804199,667.419434,2.097886
19.500732,780.761719,666.412354,2.098625
16.937256,788.452148,666.229248,2.099364
28.564453,779.388428,660.003662,2.100114
23.162842,781.860352,651.031494,2.100857
23.345947,786.346436,633.087158,2.101617
24.810791,771.423340,656.341553,2.102367
0.457764,776.092529,658.813477,2.103123
23.071289,773.437500,655.792236,2.103871
27.740479,771.972656,655.334473,2.104615
18.676758,769.683838,659.454346,2.105363
17.120361,767.852783,656.524658,2.106106
25.543213,769.866943,653.594971,2.106847
18.585205,771.697998,655.242920,2.107600
19.134521,763.458252,651.855469,2.108345
12.451172,767.120361,652.038574,2.109084
14.373779,765.930176,647.277832,2.109823
19.683838,765.930176,642.974854,2.110562
17.303467,764.465332,638.305664,2.111302
13.549805,766.296387,646.820068,2.112042
11.901855,757.507324,638.763428,2.112781
11.260986,751.098633,645.721436,2.113520
11.169434,753.112793,637.207031,2.114260
6.866455,755.767822,634.826660,2.115000
4.760742,748.168945,634.735107,2.115741
4.577637,747.894287,631.256104,2.116480
3.295898,742.034912,630.065918,2.117218
2.014160,742.858887,617.797852,2.117957
-3.753662,743.682861,627.136230,2.118695
0.823975,741.668701,621.185303,2.119434
6.500244,731.140137,628.417969,2.120191
2.838135,736.267090,631.805420,2.120931
-3.570557,730.133057,622.100830,2.121670
0.457764,726.562500,622.924805,2.122409
-8.148193,728.942871,621.826172,2.123157
-9.063721,723.266602,622.100830,2.123896
-6.317139,723.083496,618.713379,2.124635
-5.401611,725.555420,619.537354,2.125375
-4.119873,716.674805,612.945557,2.126114
-9.155273,724.090576,618.438721,2.126853
-5.584717,720.611572,619.354248,2.127592
-1.831055,723.266602,617.065430,2.128331
-1.190186,721.801758,620.910645,2.129070
1.098633,718.048096,616.424561,2.129809
-2.105713,716.949463,623.016357,2.130548
-4.028320,710.815430,631.530762,2.131287
-9.704590,707.794189,626.403809,2.132037
-9.155273,710.723877,626.495361,2.132776
-4.852295,704.132080,619.812012,2.133515
-5.859375,705.688477,625.396729,2.134254
-7.507324,706.695557,623.748779,2.134994
-5.859375,707.244873,621.459961,2.135734
-9.613037,710.540771,628.143311,2.136473
-4.852295,705.139160,619.903564,2.137213
-3.936768,703.857422,632.537842,2.137961
-6.225586,703.399658,616.699219,2.138700
-1.556396,705.871582,615.051270,2.139439
1.922607,713.653564,615.692139,2.140178
-4.211426,705.322266,613.952637,2.140917
-9.521484,704.589844,613.952637,2.141655
0.274658,701.934814,618.255615,2.142394
-1.922607,697.723389,614.318848,2.143134
-4.577637,698.181152,619.812012,2.143873
-14.007568,698.455811,611.572266,2.144695
-4.852295,691.864014,615.600586,2.145437
-9.155273,694.519043,620.086670,2.146176
-6.042480,702.026367,615.783691,2.146915
-8.697510,697.540283,618.621826,2.147654
-4.486084,697.723389,619.995117,2.148393
-8.605957,691.406250,608.551025,2.149132
-6.683350,695.892334,627.410889,2.149871
-6.683350,698.364258,621.734619,2.150610
-13.549805,694.702148,619.812012,2.151349
-15.930176,687.927246,596.099854,2.152088
-12.268066,682.067871,611.022949,2.152841
-11.535645,688.568115,602.416992,2.153581
-18.310547,666.961670,597.290039,2.154321
-20.416260,677.124023,597.198486,2.155061
-18.035889,676.116943,595.184326,2.155810
-20.141602,663.299561,589.141846,2.156550
-20.507812,658.355713,581.542969,2.157289
-19.866943,656.341553,573.120117,2.158029
-20.233154,658.813477,578.063965,2.158777
-19.683838,655.151367,566.436768,2.159517
-23.071289,647.644043,569.549561,2.160257
-20.965576,644.165039,561.401367,2.160996
-26.733398,638.031006,551.513672,2.161738
-32.684326,642.242432,554.077148,2.162481
-31.036377,644.805908,555.450439,2.163221
-24.353027,643.341064,541.442871,2.163971
-27.008057,627.777100,544.006348,2.164721
-25.543213,637.756348,541.076660,2.165471
-28.106689,623.016357,538.421631,2.166213
-45.959473,625.762939,536.865234,2.166953
-31.768799,621.551514,531.097412,2.167692
-15.197754,630.981445,535.217285,2.168432
-18.859863,627.410889,535.766602,2.169171
-19.592285,618.164062,531.646729,2.169913
-13.458252,626.129150,532.836914,2.170652
-15.197754,617.980957,525.878906,2.171392
-17.211914,618.072510,522.949219,2.172131
-15.930176,616.516113,521.759033,2.172870
-12.908936,622.833252,523.773193,2.173627
-13.458252,617.523193,529.083252,2.174369
-19.409180,616.058350,527.893066,2.175109
-22.796631,619.995117,534.942627,2.175848
-24.444580,612.762451,531.738281,2.176587
-25.085449,613.037109,527.618408,2.177327
-27.740479,607.543945,528.442383,2.178066
-23.803711,614.227295,528.533936,2.178805
-24.261475,604.248047,524.963379,2.179547
-46.600342,606.353760,530.731201,2.180288
-31.127930,606.994629,525.054932,2.181030
-23.712158,597.015381,525.878906,2.181774
-20.690918,620.086670,524.230957,2.182518
-49.163818,641.418457,534.576416,2.183265
-39.916992,643.249512,561.584473,2.184021
-26.916504,646.636963,580.993652,2.184764
-80.383301,648.925781,600.402832,2.185515
-29.022217,644.439697,626.129150,2.186256
-39.184570,638.031006,637.847900,2.187003
-38.909912,644.622803,635.650635,2.187746
20.507812,650.848389,603.607178,2.188491
-2.929688,643.707275,584.106445,2.189237
-10.253906,616.424561,561.126709,2.190000
-2.838135,605.163574,524.597168,2.190754
-28.106689,590.148926,501.983643,2.191502
-64.178467,563.507080,474.792480,2.192250
-37.536621,546.386719,469.940186,2.192991
-40.924072,542.541504,452.453613,2.193732
-10.162354,542.266846,455.841064,2.194473
16.204834,541.900635,453.460693,2.195214
20.416260,538.604736,453.918457,2.195955
4.302979,532.745361,453.002930,2.196696
11.260986,530.731201,463.897705,2.197438
15.106201,519.104004,464.263916,2.198179
11.810303,514.068604,460.876465,2.198919
9.796143,510.040283,466.003418,2.199659
37.170410,493.103027,460.876465,2.200414
33.325195,494.201660,455.749512,2.201155
29.388428,482.666016,436.706543,2.201895
45.410156,452.545166,431.304932,2.202637
64.910889,459.045410,433.135986,2.203393
49.987793,446.136475,419.219971,2.204135
59.600830,445.770264,411.712646,2.204875
75.805664,442.474365,416.107178,2.205615
60.882568,425.628662,413.543701,2.206363
59.417725,429.840088,412.536621,2.207103
71.228027,417.572021,410.522461,2.207843
65.277100,420.593262,400.543213,2.208584
36.437988,406.127930,396.972656,2.209325
68.847656,405.120850,388.732910,2.210066
40.283203,406.311035,393.768311,2.210807
42.114258,401.000977,387.359619,2.211548
47.882080,401.550293,376.007080,2.212289
29.663086,398.529053,375.823975,2.213029
35.614014,388.641357,368.408203,2.213770
43.762207,376.190186,367.767334,2.214510
34.057617,375.366211,351.013184,2.215251
32.226562,382.965088,346.710205,2.215991
21.423340,392.395020,341.400146,2.216731
37.628174,409.606934,314.025879,2.217557
30.303955,430.664062,308.074951,2.218310
27.648926,434.417725,305.053711,2.219051
27.557373,456.848145,280.426025,2.219792
18.951416,464.172363,265.777588,2.220533
19.958496,465.179443,261.291504,2.221273
12.634277,476.623535,249.023438,2.222014
29.571533,494.750977,249.023438,2.222755
18.585205,513.977051,228.790283,2.223495
-0.915527,523.681641,230.346680,2.224236
31.127930,544.830322,222.106934,2.224978
-7.324219,555.816650,236.389160,2.225719
-21.514893,567.535400,275.207520,2.226459
-45.867920,598.114014,279.327393,2.227200
-53.192139,631.347656,300.476074,2.227941
-81.756592,640.777588,316.131592,2.228683
-67.199707,684.356689,357.147217,2.229427
-42.297363,714.477539,400.543213,2.230172
-5.126953,735.626221,414.825439,2.230914
23.437500,759.521484,439.636230,2.231657
51.269531,769.775391,444.305420,2.232398
41.381836,788.269043,459.777832,2.233139
41.381836,791.290283,496.948242,2.233879
7.873535,804.656982,544.830322,2.234620
-61.889648,778.106689,590.698242,2.235363
-33.782959,810.058594,590.606689,2.236128
17.395020,858.673096,587.219238,2.236883
-35.156250,863.067627,599.761963,2.237628
-26.092529,876.525879,628.509521,2.238375
