ACC_X,ACC_Y,ACC_Z,Time
-496.765137,820.587158,-11.077881,0.000130
-497.497559,843.933105,-10.711670,0.000882
-505.645752,844.390869,-13.732910,0.001622
-496.948242,833.862305,-18.310547,0.002379
-502.532959,844.024658,-17.028809,0.003137
-495.025635,845.214844,-17.303467,0.003880
-503.906250,845.397949,-15.930176,0.004640
-505.828857,841.278076,-13.824463,0.005396
-500.152588,845.123291,-13.183594,0.006137
-500.244141,841.827393,-14.739990,0.006878
-501.983643,836.700439,-14.007568,0.007619
-501.068115,843.383789,-18.127441,0.008370
-494.842529,837.158203,-14.739990,0.009110
-504.638672,841.186523,-17.852783,0.009851
-499.603271,841.827393,-11.535645,0.010593
-505.920410,843.475342,-15.289307,0.011334
-510.314941,839.447021,-11.993408,0.012066
-506.561279,841.644287,-9.338379,0.012797
-503.265381,835.784912,-12.817383,0.013528
-501.800537,845.672607,-27.740479,0.014284
-510.131836,842.926025,-16.754150,0.015025
-506.011963,844.116211,-18.859863,0.015766
-506.469727,842.926025,-17.669678,0.016507
-500.335693,844.665527,-21.881104,0.017248
-499.328613,849.517822,-22.247314,0.017979
-505.737305,845.123291,-19.592285,0.018710
-504.272461,847.869873,-21.514893,0.019441
-507.019043,846.954346,-8.422852,0.020184
-512.237549,845.214844,-11.535645,0.020915
-509.399414,843.017578,-13.824463,0.021646
-505.645752,847.961426,-16.296387,0.022377
-509.033203,848.693848,-20.874023,0.023120
-506.103516,852.081299,-18.859863,0.023850
-509.582520,842.742920,-21.697998,0.024581
-507.385254,849.975586,-20.416260,0.025312
-516.265869,849.060059,-1.190186,0.026069
-506.469727,851.715088,-20.874023,0.026809
-515.533447,854.553223,-19.958496,0.027550
-513.244629,854.370117,-16.113281,0.028290
-508.483887,852.081299,-19.958496,0.029040
-509.765625,854.370117,-23.254395,0.029780
-515.167236,852.996826,-17.852783,0.030520
-512.878418,847.595215,-17.669678,0.031260
-504.730225,850.982666,-21.697998,0.032011
-508.850098,857.757568,-10.711670,0.032751
-508.026123,851.898193,-23.803711,0.033491
-511.047363,850.891113,-21.972656,0.034231
-505.737305,855.377197,-23.620605,0.034981
-501.983643,856.567383,-2.197266,0.035721
-507.476807,843.109131,-20.050049,0.036461
-501.434326,857.116699,-11.627197,0.037201
-506.011963,853.088379,-17.120361,0.037953
-507.751465,850.616455,-17.120361,0.038693
-502.624512,854.919434,-11.444092,0.039433
-497.131348,851.531982,-18.951416,0.040174
-499.053955,850.891113,-18.218994,0.040925
-500.976562,848.876953,-13.549805,0.041665
-504.272461,849.975586,-20.416260,0.042406
-508.575439,843.750000,-11.535645,0.043146
-502.349854,842.834473,-24.993896,0.043898
-501.434326,846.038818,-18.035889,0.044638
-497.406006,843.933105,-17.761230,0.045378
-499.877930,848.327637,-19.409180,0.046119
-501.708984,851.989746,-13.366699,0.046871
-501.159668,850.433350,-17.578125,0.047643
-505.279541,854.461670,-16.479492,0.048386
-506.469727,854.003906,-14.739990,0.049126
-498.229980,847.320557,-26.733398,0.049865
-498.504639,853.363037,-24.719238,0.050604
-506.652832,847.412109,-22.796631,0.051343
-506.927490,851.440430,-16.296387,0.052097
-502.532959,853.729248,-15.380859,0.052837
-505.737305,850.616455,-14.465332,0.053575
-506.011963,843.292236,-17.211914,0.054314
-506.744385,857.849121,-15.747070,0.055056
-507.476807,848.876953,-21.240234,0.055787
-505.920410,843.841553,-11.810303,0.056523
-500.244141,849.243164,-15.289307,0.057267
-510.406494,852.905273,-39.550781,0.058087
-504.913330,849.151611,-22.796631,0.058838
-498.687744,852.447510,-7.781982,0.059577
-508.483887,843.383789,-22.521973,0.060315
-510.681152,847.229004,-11.810303,0.061069
-505.737305,847.503662,-14.099121,0.061822
-501.892090,847.869873,-11.077881,0.062564
-499.053955,842.834473,-16.021729,0.063304
-509.124756,849.426270,-18.035889,0.064046
-506.835938,844.573975,-14.831543,0.064777
-508.758545,844.116211,-13.458252,0.065508
-511.505127,844.757080,-19.775391,0.066238
-501.342773,844.207764,-16.937256,0.066994
-509.674072,844.940186,-16.113281,0.067734
-506.469727,843.933105,-13.275146,0.068475
-512.786865,842.834473,-17.944336,0.069215
-505.828857,849.884033,-16.662598,0.069965
-514.709473,848.327637,-16.387939,0.070804
-507.110596,839.172363,-18.218994,0.071546
-509.033203,844.665527,-20.233154,0.072286
-511.779785,845.489502,-15.197754,0.073038
-519.287109,846.954346,-21.697998,0.073778
-517.639160,843.841553,-20.050049,0.074519
-519.653320,849.975586,-15.106201,0.075259
-512.145996,855.285645,-14.923096,0.075999
-516.998291,851.440430,-22.979736,0.076729
-516.723633,845.306396,-14.282227,0.077460
-515.441895,845.947266,-27.740479,0.078191
-511.413574,848.419189,-20.141602,0.078944
-517.364502,841.644287,-10.345459,0.079683
-516.723633,843.383789,-13.916016,0.080422
-512.786865,847.229004,-19.134521,0.081161
-512.420654,848.327637,-21.148682,0.081909
-510.864258,845.031738,-25.268555,0.082648
-514.343262,850.799561,-19.592285,0.083387
-516.540527,850.982666,-18.585205,0.084125
-492.919922,842.193604,-22.705078,0.084874
-512.969971,847.778320,-23.437500,0.085613
-516.082764,850.433350,-18.035889,0.086352
-517.547607,839.080811,-20.782471,0.087090
-517.089844,845.214844,-17.761230,0.087839
-515.991211,844.573975,-18.859863,0.088578
-516.357422,850.524902,-7.598877,0.089317
-521.209717,843.566895,-15.472412,0.090055
-519.012451,847.137451,-17.761230,0.090804
-515.716553,847.869873,-16.021729,0.091543
-519.378662,843.017578,-21.057129,0.092282
-520.751953,839.904785,-17.028809,0.093021
-521.392822,846.130371,-18.859863,0.093769
-518.737793,849.334717,-28.015137,0.094508
-520.751953,839.080811,-22.155762,0.095246
-517.730713,843.109131,-18.676758,0.095985
-527.069092,863.616943,-15.838623,0.096734
-521.209717,846.038818,-18.676758,0.097473
-519.378662,840.545654,-20.965576,0.098212
-527.618408,851.898193,-21.148682,0.098996
-525.238037,864.898682,-19.958496,0.099740
-522.857666,848.693848,-14.282227,0.100480
-522.125244,841.003418,-11.077881,0.101221
-527.893066,845.214844,-11.169434,0.101974
-526.428223,839.721680,-12.634277,0.102716
-527.893066,849.243164,-18.585205,0.103456
-525.054932,845.214844,-18.493652,0.104196
-518.280029,846.496582,-14.373779,0.104944
-524.414062,836.791992,-16.845703,0.105675
-524.963379,844.665527,-15.197754,0.106405
-523.773193,839.996338,-17.944336,0.107135
-524.414062,849.060059,-16.754150,0.107873
-519.836426,843.292236,-15.472412,0.108612
-517.181396,850.799561,-15.380859,0.109351
-520.751953,844.024658,-21.057129,0.110090
-527.160645,842.926025,-16.387939,0.110829
-525.512695,843.475342,-16.387939,0.111568
-519.378662,845.855713,-19.134521,0.112307
-523.681641,842.102051,-10.345459,0.113045
-528.076172,846.954346,-10.803223,0.113784
-529.907227,843.750000,-19.775391,0.114520
-519.561768,855.651855,-16.113281,0.115256
-526.519775,850.433350,-18.676758,0.116009
-527.435303,851.806641,-15.106201,0.116748
-530.548096,853.271484,-12.634277,0.117479
-526.153564,847.320557,-23.071289,0.118209
-532.379150,848.327637,-16.204834,0.118940
-527.160645,850.433350,-24.902344,0.119718
-526.611328,850.891113,-11.901855,0.120466
-524.414062,845.306396,-21.881104,0.121207
-524.688721,842.834473,-16.845703,0.121947
-526.885986,858.215332,-16.937256,0.122701
-521.942139,858.123779,-16.204834,0.123441
-529.083252,852.447510,-19.042969,0.124180
-527.709961,848.419189,-16.754150,0.124919
-523.406982,846.588135,-22.613525,0.125669
-521.759033,850.433350,-20.050049,0.126409
-529.815674,849.243164,-15.838623,0.127148
-527.893066,844.482422,-19.866943,0.127887
-524.047852,853.363037,-9.338379,0.128643
-528.717041,842.559814,-19.866943,0.129383
-523.681641,849.060059,-22.338867,0.130122
-527.435303,848.236084,-20.416260,0.130862
-522.125244,841.003418,-12.084961,0.131611
-520.751953,848.876953,-16.296387,0.132350
-522.857666,836.608887,-13.641357,0.133089
-529.174805,847.229004,-15.014648,0.133829
-518.829346,841.461182,-20.050049,0.134580
-525.421143,840.911865,-18.402100,0.135319
-519.561768,841.918945,-13.549805,0.136058
-525.604248,848.144531,-13.275146,0.136797
-521.850586,847.229004,-15.289307,0.137545
-527.435303,853.637695,-13.275146,0.138284
-517.639160,848.785400,-17.395020,0.139023
-516.357422,847.778320,-19.866943,0.139762
-519.927979,849.060059,-12.908936,0.140511
-526.611328,851.165771,-10.437012,0.141250
-515.075684,844.848633,-26.000977,0.142080
-512.786865,844.116211,-15.930176,0.142820
-529.174805,842.376709,-20.874023,0.143572
-519.012451,847.595215,-12.084961,0.144311
-524.322510,844.207764,-15.747070,0.145050
-518.280029,839.172363,-9.338379,0.145789
-520.568848,837.890625,-15.563965,0.146538
-518.280029,842.559814,-19.958496,0.147277
-522.399902,838.256836,-15.289307,0.148016
-526.611328,865.905762,-16.204834,0.148756
-519.561768,846.771240,-17.303467,0.149504
-519.104004,842.651367,-14.099121,0.150244
-522.125244,847.137451,-10.345459,0.150983
-520.294189,839.355469,-12.451172,0.151721
-528.808594,840.270996,-15.289307,0.152470
-521.026611,841.278076,-12.176514,0.153209
-521.942139,844.665527,-8.605957,0.153948
-525.238037,836.975098,-5.767822,0.154687
-521.301270,841.186523,-3.295898,0.155435
-523.315430,840.362549,-0.091553,0.156174
-529.541016,839.630127,-3.662109,0.156913
-524.688721,840.911865,-6.591797,0.157651
-526.153564,833.129883,-7.324219,0.158398
-527.435303,833.862305,-9.613037,0.159135
-527.984619,826.446533,-9.338379,0.159889
-521.026611,838.256836,-0.091553,0.160643
-520.568848,834.320068,-2.838135,0.161427
-518.280029,836.242676,2.014160,0.162176
-520.294189,834.960938,-7.598877,0.162918
-520.019531,833.770752,-4.669189,0.163658
-522.857666,830.749512,-2.563477,0.164397
-494.842529,832.122803,-8.697510,0.165138
-514.068604,828.918457,11.627197,0.165898
-524.322510,823.333740,-2.380371,0.166657
-518.280029,826.812744,-3.021240,0.167411
-517.639160,829.925537,1.739502,0.168153
-510.864258,826.263428,-3.936768,0.168892
-512.969971,824.798584,-5.126953,0.169631
-514.526367,830.657959,-3.479004,0.170370
-523.864746,829.467773,-2.105713,0.171108
-512.603760,837.158203,-5.035400,0.171847
-524.322510,835.693359,-7.598877,0.172604
-519.012451,839.996338,-9.887695,0.173346
-518.005371,833.862305,-5.401611,0.174086
-535.766602,837.524414,-9.887695,0.174824
-520.935059,830.474854,-8.789062,0.175563
-515.167236,845.214844,-2.380371,0.176300
-514.160156,836.883545,-4.760742,0.177037
-512.237549,834.594727,-4.852295,0.177773
-510.040283,848.602295,-11.810303,0.178597
-514.526367,851.165771,-13.000488,0.179352
-512.603760,840.820312,-9.063721,0.180117
-515.258789,840.362549,-14.099121,0.180865
-510.498047,841.461182,-10.711670,0.181633
-512.420654,847.229004,-6.591797,0.182366
-513.153076,847.503662,-5.584717,0.183096
-510.589600,842.193604,-12.451172,0.183851
-508.850098,849.060059,-10.894775,0.184648
-502.807617,853.088379,-8.697510,0.185410
-508.117676,865.997314,-12.634277,0.186151
-506.195068,850.708008,-17.303467,0.186884
-509.307861,839.080811,-5.950928,0.187646
-504.089355,844.573975,-6.591797,0.188377
-506.286621,846.405029,-8.422852,0.189107
-504.089355,841.369629,-4.760742,0.189836
-507.659912,833.770752,-10.162354,0.190578
-501.434326,836.883545,-2.380371,0.191310
-507.385254,835.144043,-11.444092,0.192039
-500.976562,838.165283,-5.126953,0.192770
-505.096436,828.918457,-4.943848,0.193527
-506.286621,839.080811,3.936768,0.194266
-503.906250,835.418701,3.204346,0.195004
-495.941162,831.207275,-1.373291,0.195742
-500.885010,834.777832,-4.119873,0.196491
-504.180908,831.481934,-4.394531,0.197229
-504.730225,831.207275,-6.591797,0.197967
-496.948242,837.707520,2.563477,0.198705
-498.229980,838.256836,-0.640869,0.199452
-499.145508,830.749512,-2.471924,0.200191
-498.046875,828.186035,-0.915527,0.200931
-500.152588,831.848145,1.007080,0.201673
-502.258301,833.129883,-0.274658,0.202425
-501.342773,827.728271,-2.471924,0.203164
-501.159668,825.988770,-2.746582,0.203903
-506.195068,832.305908,3.570557,0.204641
-506.744385,834.045410,2.746582,0.205389
-505.645752,834.686279,10.620117,0.206127
-509.582520,829.010010,0.549316,0.206866
-517.089844,826.904297,7.598877,0.207604
-507.751465,828.460693,3.753662,0.208352
-509.674072,834.136963,-1.831055,0.209090
-511.779785,822.692871,-5.310059,0.209829
-504.089355,823.608398,-3.479004,0.210568
-510.314941,827.819824,6.042480,0.211319
-505.554199,821.594238,-4.486084,0.212057
-500.976562,843.109131,-2.197266,0.212795
-510.040283,830.474854,0.549316,0.213533
-506.195068,820.312500,1.373291,0.214369
-505.737305,831.573486,5.035400,0.215109
-509.948730,832.855225,1.190186,0.215848
-510.772705,832.031250,-0.823975,0.216587
-515.533447,827.911377,-1.739502,0.217326
-509.948730,825.531006,-3.753662,0.218064
-512.237549,830.291748,-10.162354,0.218802
-506.927490,843.200684,-0.183105,0.219541
-514.434814,839.538574,-0.640869,0.220279
-517.822266,835.144043,2.380371,0.221017
-511.505127,837.249756,-6.408691,0.221756
-514.617920,829.742432,-8.239746,0.222506
-513.610840,823.516846,-6.683350,0.223246
-524.047852,823.883057,-8.331299,0.223984
-513.336182,834.320068,-3.662109,0.224723
-512.145996,830.474854,1.647949,0.225462
-516.815186,830.566406,-8.056641,0.226201
-509.216309,832.672119,-7.965088,0.226939
-508.575439,834.960938,-5.218506,0.227677
-509.674072,831.939697,-11.444092,0.228415
-514.984131,831.848145,-5.767822,0.229151
-503.814697,835.144043,-5.950928,0.229903
-510.589600,833.953857,-3.753662,0.230643
-512.054443,836.242676,-10.253906,0.231391
-518.829346,834.960938,-12.268066,0.232128
-512.969971,837.707520,-3.021240,0.232865
-509.948730,835.968018,-3.845215,0.233619
-506.652832,836.883545,-4.394531,0.234396
-502.807617,823.974609,-9.613037,0.235153
-510.864258,827.728271,-7.141113,0.235906
-506.744385,830.841064,-10.528564,0.236645
-504.638672,836.059570,-4.760742,0.237406
-504.364014,830.657959,-7.141113,0.238144
-513.244629,843.017578,-6.500244,0.238906
-509.490967,830.932617,-17.761230,0.239658
-504.638672,825.805664,-6.774902,0.240454
-509.582520,841.186523,-4.028320,0.241202
-514.434814,834.045410,-4.852295,0.241941
-515.350342,829.742432,-9.704590,0.242680
-501.068115,830.566406,-12.268066,0.243419
-504.821777,840.454102,-5.584717,0.244158
-514.343262,831.756592,-12.634277,0.244896
-515.991211,833.770752,-6.683350,0.245635
-514.160156,838.714600,-1.556396,0.246391
-510.772705,845.123291,-11.077881,0.247133
-517.730713,839.721680,-12.817383,0.247871
-512.420654,845.397949,-4.119873,0.248610
-510.772705,836.883545,-11.444092,0.249358
-509.948730,844.573975,-12.359619,0.250095
-516.632080,845.855713,-7.873535,0.250852
-511.322021,849.334717,-7.232666,0.251596
-517.730713,849.334717,-11.535645,0.252336
-514.709473,849.060059,-1.922607,0.253076
-513.702393,840.270996,-6.683350,0.253816
-517.364502,844.116211,-5.493164,0.254556
-507.934570,842.193604,-11.444092,0.255296
-511.413574,844.940186,-11.444092,0.256037
-515.350342,831.481934,-12.451172,0.256779
-512.145996,838.531494,-13.824463,0.257520
-510.314941,837.707520,-8.514404,0.258260
-509.582520,829.467773,-8.331299,0.258999
-506.744385,838.806152,-9.521484,0.259738
-518.554688,841.644287,-11.352539,0.260478
-513.244629,843.292236,-11.901855,0.261218
-513.519287,847.778320,-6.958008,0.261959
-519.104004,847.503662,-8.239746,0.262699
-510.498047,842.285156,-7.049561,0.263440
-510.681152,843.933105,-7.690430,0.264179
-504.455566,831.298828,-3.753662,0.264919
-508.209229,831.848145,-15.380859,0.265659
-512.969971,834.777832,-18.585205,0.266396
-509.857178,840.179443,-11.169434,0.267127
-516.174316,847.412109,-10.620117,0.267858
-519.104004,844.024658,-9.155273,0.268589
-518.829346,847.045898,-11.627197,0.269322
-514.892578,838.165283,-10.894775,0.270062
-515.258789,838.623047,-2.563477,0.270801
-515.441895,829.559326,-14.190674,0.271539
-519.012451,837.432861,-17.211914,0.272279
-517.547607,841.094971,-9.155273,0.273018
-519.836426,849.060059,-12.451172,0.273756
-525.238037,843.658447,-15.106201,0.274495
-523.315430,845.123291,-10.986328,0.275245
-513.793945,840.454102,-15.197754,0.275984
-520.202637,839.813232,-20.507812,0.276723
-523.406982,835.968018,-21.697998,0.277461
-518.280029,837.615967,-11.993408,0.278210
-520.019531,832.031250,-23.162842,0.278949
-517.364502,839.904785,-12.634277,0.279688
-517.547607,830.932617,-16.296387,0.280427
-520.294189,841.735840,-18.859863,0.281166
-495.117188,840.270996,-18.768311,0.281905
-522.125244,844.940186,-20.507812,0.282644
-515.991211,844.390869,-12.084961,0.283383
-517.272949,821.960449,-16.937256,0.284122
-525.970459,849.151611,-17.578125,0.284872
-521.667480,845.397949,-16.662598,0.285747
-526.336670,846.130371,-21.881104,0.286542
-522.857666,847.869873,-25.360107,0.287330
-526.245117,838.989258,-25.909424,0.288091
-517.456055,851.531982,-18.768311,0.288850
-519.653320,848.693848,-23.986816,0.289605
-522.033691,842.285156,-20.324707,0.290380
-521.392822,854.827881,-19.592285,0.291122
-526.245117,844.665527,-23.620605,0.291862
-519.470215,844.757080,-25.909424,0.292601
-523.040771,845.581055,-22.796631,0.293351
-524.505615,855.926514,-21.057129,0.294090
-523.132324,847.595215,-21.606445,0.294829
-521.026611,847.869873,-22.979736,0.295568
-533.386230,850.158691,-17.486572,0.296317
-518.737793,842.926025,-17.211914,0.297057
-515.625000,865.722656,-20.690918,0.297796
-515.441895,848.052979,-22.705078,0.298535
-511.413574,854.461670,-17.303467,0.299284
-513.702393,849.792480,-21.057129,0.300023
-520.477295,855.560303,-25.817871,0.300762
-519.653320,849.426270,-25.360107,0.301502
-518.005371,851.898193,-15.289307,0.302250
-517.547607,849.060059,-30.395508,0.302989
-520.935059,856.201172,-30.487061,0.303728
-520.935059,849.060059,-29.571533,0.304466
-523.956299,856.933594,-27.374268,0.305213
-523.315430,862.976074,-30.120850,0.305962
-525.421143,855.834961,-20.782471,0.306722
-523.773193,854.919434,-27.557373,0.307505
-520.568848,855.468750,-21.789551,0.308262
-524.139404,851.531982,-24.078369,0.309001
-519.653320,859.680176,-21.514893,0.309740
-515.533447,863.891602,-22.430420,0.310479
-523.590088,850.524902,-30.670166,0.311218
-523.956299,861.053467,-21.514893,0.311957
-523.498535,859.588623,-29.296875,0.312695
-521.759033,857.391357,-29.296875,0.313450
-519.836426,860.412598,-24.353027,0.314206
-523.040771,861.145020,-16.296387,0.314959
-517.272949,853.729248,-26.458740,0.315712
-520.019531,853.546143,-31.494141,0.316476
-517.364502,855.194092,-30.670166,0.317215
-522.033691,852.081299,-24.810791,0.317954
-525.054932,853.729248,-26.641846,0.318692
-525.421143,862.060547,-23.986816,0.319439
-519.561768,853.363037,-26.824951,0.320176
-519.470215,858.398438,-22.430420,0.320913
-526.519775,850.708008,-26.367188,0.321669
-524.322510,850.158691,-28.106689,0.322425
-525.329590,846.313477,-31.768799,0.323165
-514.526367,850.891113,-22.521973,0.323904
-518.829346,843.566895,-20.507812,0.324643
-521.850586,833.312988,-18.676758,0.325392
-517.181396,848.693848,-14.831543,0.326132
-524.597168,847.869873,-17.852783,0.326871
-519.744873,847.961426,-12.908936,0.327610
-521.759033,845.764160,-22.338867,0.328362
-517.913818,845.489502,-21.514893,0.329097
-513.427734,848.419189,-21.148682,0.329828
-515.625000,840.911865,-22.155762,0.330558
-523.315430,836.883545,-18.035889,0.331311
-511.779785,846.130371,-15.930176,0.332042
-517.089844,843.933105,-23.437500,0.332773
-521.392822,839.172363,-22.155762,0.333503
-518.280029,836.517334,-21.972656,0.334128
-507.385254,847.503662,-14.556885,0.334859
-515.625000,845.306396,-21.240234,0.335589
-514.892578,837.890625,-17.669678,0.336319
-509.399414,837.524414,-23.620605,0.337062
-507.751465,842.468262,-22.064209,0.337793
-507.934570,835.693359,-16.662598,0.338523
-510.955811,834.503174,-20.141602,0.339254
-506.927490,828.094482,-46.142578,0.340000
-509.765625,841.003418,-21.514893,0.340731
-511.779785,841.735840,-20.599365,0.341462
-505.920410,837.341309,-12.634277,0.342192
-502.166748,842.468262,-17.669678,0.342943
-504.547119,841.278076,-11.444092,0.343682
-506.652832,844.940186,-6.042480,0.344421
-511.688232,842.193604,-12.359619,0.345160
-510.131836,838.256836,-13.732910,0.345907
-499.877930,841.003418,-19.409180,0.346646
-499.511719,844.207764,-19.317627,0.347385
-505.462646,842.010498,-14.648438,0.348124
-503.356934,841.094971,-15.930176,0.348822
-505.737305,843.750000,-11.077881,0.349561
-512.420654,847.412109,-12.908936,0.350300
-507.110596,847.595215,-13.092041,0.351039
-503.448486,845.214844,-9.887695,0.351791
-500.885010,836.425781,-15.289307,0.352531
-504.821777,843.475342,-15.747070,0.353270
-496.673584,835.601807,-16.204834,0.354009
-494.018555,840.362549,-5.859375,0.354758
-488.250732,836.517334,-13.458252,0.355496
-496.215820,837.066650,-14.739990,0.356235
-496.398926,829.467773,-17.028809,0.357068
-494.842529,832.031250,-20.233154,0.357822
-502.807617,838.348389,-14.373779,0.358561
-497.131348,831.481934,-17.761230,0.359300
-497.863770,840.545654,-16.937256,0.360040
-496.765137,836.517334,-16.479492,0.360786
-500.244141,830.017090,-22.705078,0.361525
-490.631104,832.214355,-19.226074,0.362264
-492.004395,837.249756,-18.035889,0.363004
-494.567871,833.587646,-29.571533,0.363644
-492.279053,827.453613,-22.705078,0.364384
-497.039795,837.524414,-18.676758,0.365123
-486.968994,840.637207,-15.655518,0.365862
-491.912842,844.940186,-26.550293,0.366610
-496.032715,834.320068,-21.240234,0.367349
-496.490479,847.503662,-27.648926,0.368088
-494.476318,848.052979,-21.240234,0.368828
-496.215820,848.510742,-16.204834,0.369611
-496.307373,855.468750,-26.184082,0.370361
-493.743896,852.905273,-17.852783,0.371102
-490.264893,840.911865,-27.282715,0.371842
-469.940186,848.693848,-18.127441,0.372597
-499.603271,845.397949,-15.563965,0.373337
-501.434326,849.975586,-23.071289,0.374076
-498.321533,858.215332,-14.007568,0.374816
-501.342773,848.144531,-19.226074,0.375564
-499.969482,853.363037,-27.465820,0.376301
-497.863770,860.778809,-21.240234,0.377049
-496.398926,851.257324,-21.423340,0.377810
-492.279053,853.179932,-20.050049,0.378576
-498.046875,857.025146,-22.155762,0.379325
-493.469238,856.201172,-22.155762,0.380064
-493.560791,854.553223,-19.958496,0.380827
-508.026123,858.032227,-27.282715,0.381567
-504.913330,853.912354,-28.381348,0.382306
-509.033203,851.348877,-27.648926,0.383069
-505.828857,859.222412,-33.691406,0.383849
-502.349854,854.095459,-33.691406,0.384616
-508.117676,846.862793,-26.824951,0.385364
-506.561279,855.560303,-23.986816,0.386103
-528.442383,858.947754,-28.106689,0.386806
-511.779785,852.813721,-27.099609,0.387544
-515.808105,854.736328,-23.620605,0.388283
-508.392334,862.701416,-34.973145,0.389021
-511.779785,853.729248,-35.430908,0.389770
-514.343262,849.975586,-29.846191,0.390509
-506.378174,859.863281,-26.458740,0.391248
-516.906738,851.348877,-27.191162,0.391987
-515.899658,846.405029,-30.487061,0.392734
-509.674072,852.722168,-27.282715,0.393492
-521.209717,850.158691,-23.620605,0.394236
-521.026611,848.785400,-28.930664,0.394976
-516.174316,861.419678,-26.733398,0.395728
-513.793945,847.412109,-28.289795,0.396468
-513.793945,851.531982,-17.578125,0.397208
-517.547607,853.088379,-26.641846,0.397948
-525.421143,852.172852,-29.937744,0.398698
-519.836426,860.046387,-33.142090,0.399439
-520.385742,859.313965,-27.465820,0.400179
-517.181396,852.264404,-31.311035,0.400919
-520.385742,850.341797,-34.881592,0.401579
-527.893066,848.968506,-32.043457,0.402319
-520.477295,853.912354,-36.895752,0.403060
-529.449463,856.933594,-24.169922,0.403802
-520.019531,850.982666,-27.099609,0.404555
-525.146484,852.355957,-37.719727,0.405295
-533.020020,856.658936,-36.346436,0.406037
-520.660400,850.799561,-37.170410,0.406780
-520.477295,863.616943,-29.663086,0.407540
-522.125244,862.243652,-30.578613,0.408283
-521.209717,861.328125,-31.951904,0.409023
-528.717041,858.856201,-28.198242,0.409763
-527.343750,858.123779,-25.726318,0.410505
-533.660889,859.222412,-28.472900,0.411236
-524.230957,862.152100,-31.127930,0.411967
-527.069092,859.954834,-36.621094,0.412698
-534.851074,849.334717,-33.233643,0.413449
-531.921387,861.785889,-31.860352,0.414188
-531.005859,861.328125,-26.092529,0.414927
-528.625488,858.581543,-29.846191,0.415666
-525.787354,859.130859,-34.881592,0.416414
-516.723633,862.884521,-34.057617,0.417153
-525.238037,856.933594,-26.184082,0.417892
-522.674561,862.518311,-29.388428,0.418631
-519.744873,868.103027,-28.747559,0.419381
-520.111084,854.003906,-38.177490,0.420120
-525.878906,865.447998,-32.958984,0.420859
-518.188477,858.032227,-30.761719,0.421597
-516.998291,857.666016,-29.937744,0.422346
-516.448975,860.137939,-29.937744,0.423085
-518.554688,853.363037,-30.670166,0.423823
-524.414062,851.074219,-36.437988,0.424562
-519.378662,855.468750,-34.698486,0.425311
-513.793945,866.455078,-36.621094,0.426050
-519.653320,856.201172,-31.951904,0.426788
-521.209717,856.842041,-25.634766,0.427626
-513.793945,854.278564,-22.705078,0.428380
-515.441895,859.130859,-25.451660,0.429119
-504.272461,853.912354,-27.465820,0.429858
-512.786865,858.215332,-24.719238,0.430597
-520.385742,855.102539,-28.381348,0.431345
-514.434814,860.229492,-22.979736,0.432084
-511.871338,863.800049,-23.986816,0.432823
-519.287109,850.891113,-31.219482,0.433563
-514.617920,852.539062,-27.740479,0.434317
-514.617920,849.975586,-45.684814,0.435056
-517.822266,850.799561,-28.930664,0.435795
-518.737793,844.848633,-21.972656,0.436534
-513.977051,845.306396,-27.923584,0.437154
-516.815186,848.052979,-27.465820,0.437893
-513.519287,843.383789,-30.029297,0.438632
-506.286621,854.736328,-27.008057,0.439371
-505.554199,852.081299,-28.106689,0.440119
-500.335693,852.996826,-26.550293,0.440858
-510.131836,847.686768,-25.451660,0.441597
-508.026123,851.989746,-19.775391,0.442335
-502.532959,850.250244,-24.353027,0.443084
-509.490967,843.200684,-30.487061,0.443823
-505.096436,845.397949,-26.458740,0.444563
-503.540039,843.475342,-21.423340,0.445302
-511.871338,845.855713,-21.331787,0.446052
-497.039795,848.876953,-24.353027,0.446800
-503.173828,841.369629,-17.761230,0.447559
-503.814697,843.933105,-18.310547,0.448348
-507.019043,849.792480,-21.331787,0.449098
-511.413574,841.644287,-26.641846,0.449874
-497.772217,843.200684,-16.571045,0.450622
-499.786377,856.384277,-20.050049,0.451377
-504.547119,844.665527,-27.008057,0.452117
-503.082275,857.025146,-20.874023,0.452855
-502.441406,849.060059,-23.712158,0.453615
-500.061035,849.060059,-20.233154,0.454362
-494.659424,854.461670,-23.529053,0.455118
-498.504639,845.031738,-29.754639,0.455865
-498.504639,844.757080,-24.902344,0.456653
-501.892090,865.905762,-22.430420,0.457400
-506.744385,845.031738,-20.965576,0.458140
-506.927490,847.412109,-23.986816,0.458897
-499.786377,849.792480,-26.550293,0.459652
-498.138428,850.799561,-20.599365,0.460391
-498.321533,854.644775,-25.909424,0.461130
-504.180908,850.341797,-27.832031,0.461868
-502.624512,847.229004,-15.655518,0.462615
-502.349854,847.045898,-22.247314,0.463375
-505.462646,847.961426,-27.374268,0.464114
-501.159668,847.503662,-29.479980,0.464866
-506.286621,835.601807,-38.177490,0.465605
-506.286621,845.214844,-25.909424,0.466343
-506.652832,842.193604,-27.282715,0.467081
-505.004883,842.376709,-25.268555,0.467821
-504.364014,850.433350,-23.437500,0.468560
-502.807617,840.820312,-26.916504,0.469299
-506.378174,839.813232,-29.754639,0.470038
-500.701904,864.990234,-23.895264,0.470777
-504.455566,840.820312,-27.923584,0.471515
-506.286621,849.975586,-30.120850,0.472254
-506.744385,844.024658,-30.395508,0.472993
-500.335693,851.623535,-28.472900,0.473741
-504.089355,842.193604,-27.465820,0.474483
-505.187988,839.630127,-26.550293,0.475216
-509.948730,845.397949,-25.726318,0.475946
-505.371094,845.031738,-28.564453,0.476688
-508.026123,843.750000,-24.902344,0.477420
-503.356934,844.848633,-20.782471,0.478150
-506.927490,852.081299,-29.113770,0.478880
-515.716553,856.750488,-27.740479,0.479612
-512.145996,858.032227,-27.191162,0.480343
-510.772705,852.264404,-29.113770,0.481094
-507.476807,847.686768,-33.142090,0.481831
-511.322021,857.116699,-18.585205,0.482563
-506.011963,849.700928,-29.846191,0.483293
-507.476807,849.517822,-33.966064,0.484025
-511.505127,848.419189,-22.521973,0.484755
-511.871338,857.025146,-19.683838,0.485512
-512.786865,856.658936,-19.409180,0.486251
-516.632080,856.475830,-21.423340,0.486990
-515.808105,847.229004,-29.296875,0.487729
-515.533447,844.665527,-27.832031,0.488479
-522.308350,845.397949,-28.656006,0.489218
-507.110596,846.313477,-26.000977,0.489956
-508.483887,845.764160,-25.360107,0.490695
-510.589600,839.721680,-30.120850,0.491460
-508.758545,844.207764,-21.331787,0.492202
-508.392334,837.066650,-27.740479,0.492940
-515.075684,836.608887,-25.451660,0.493693
-514.526367,837.890625,-29.571533,0.494431
-510.498047,839.904785,-20.416260,0.495170
-526.153564,839.447021,-23.529053,0.495908
-521.392822,838.897705,-19.226074,0.496657
-516.540527,832.763672,-26.458740,0.497396
-515.899658,834.045410,-29.205322,0.498227
-521.392822,833.770752,-30.212402,0.498982
-522.583008,839.813232,-25.634766,0.499721
-514.617920,844.390869,-17.578125,0.500460
-519.561768,836.151123,-30.120850,0.501231
-520.111084,834.411621,-27.282715,0.502029
-514.526367,838.989258,-22.155762,0.502779
-511.596680,844.848633,-21.606445,0.503559
-514.068604,839.538574,-18.310547,0.504318
-508.850098,838.531494,-15.563965,0.504992
-516.540527,837.249756,-19.683838,0.505772
-519.195557,841.918945,-0.823975,0.506530
-521.209717,834.960938,-24.902344,0.507277
-517.730713,841.735840,-23.986816,0.508075
-509.765625,845.764160,-17.120361,0.508853
-515.258789,838.989258,-22.155762,0.509604
-514.892578,837.249756,-21.514893,0.510418
-516.357422,844.390869,-22.430420,0.511245
-518.096924,838.989258,-33.508301,0.511999
-516.448975,848.052979,-29.205322,0.512827
-524.139404,848.785400,-21.240234,0.513685
-523.132324,852.630615,-16.662598,0.514438
-525.695801,850.891113,-24.353027,0.515183
-520.111084,845.855713,-29.022217,0.515917
-513.244629,850.982666,-26.184082,0.516729
-524.139404,842.285156,-32.226562,0.517549
-513.244629,851.531982,-24.810791,0.518301
-493.835449,852.447510,-28.930664,0.519062
-516.998291,850.341797,-22.979736,0.519819
-518.188477,844.940186,-21.423340,0.520553
-516.448975,852.996826,-21.057129,0.521286
-513.519287,861.053467,-19.500732,0.522019
-514.434814,849.609375,-21.697998,0.522767
-512.695312,844.390869,-27.648926,0.523501
-517.639160,849.609375,-22.247314,0.524338
-516.082764,847.320557,-24.993896,0.525159
-513.519287,840.911865,-22.796631,0.525914
-519.470215,845.947266,-26.458740,0.526658
-520.385742,847.686768,-21.697998,0.527402
-517.089844,846.679688,-28.106689,0.528146
-520.935059,841.186523,-27.832031,0.528889
-521.575928,842.010498,-20.416260,0.529632
-519.561768,848.052979,-15.289307,0.530376
-512.329102,840.179443,-15.838623,0.531119
-515.533447,840.454102,-21.972656,0.531861
-514.343262,841.369629,-15.472412,0.532604
-509.857178,838.714600,-22.247314,0.533346
-520.385742,835.784912,-25.085449,0.534092
-513.244629,830.841064,-22.064209,0.534869
-514.160156,839.630127,-19.042969,0.535617
-507.385254,838.897705,-15.197754,0.536363
-500.885010,840.911865,-19.134521,0.537108
-509.124756,839.538574,-22.430420,0.537847
-504.547119,833.221436,-20.690918,0.538581
-503.173828,832.214355,-26.092529,0.539322
-505.828857,833.862305,-22.979736,0.540066
-504.364014,838.073730,-21.606445,0.540810
-507.110596,840.454102,-23.895264,0.541553
-505.645752,839.630127,-20.965576,0.542296
-510.131836,836.608887,-30.212402,0.543039
-517.730713,843.933105,-26.000977,0.543783
-510.864258,844.207764,-22.155762,0.544526
-508.575439,837.249756,-25.085449,0.545269
-501.434326,845.489502,-27.740479,0.546056
-508.941650,856.384277,-18.676758,0.546864
-510.314941,859.954834,-26.367188,0.547608
-512.420654,849.426270,-23.620605,0.548351
-506.011963,852.264404,-23.162842,0.549095
-506.286621,855.560303,-23.345947,0.549838
-511.688232,851.806641,-25.634766,0.550580
-504.730225,851.806641,-21.606445,0.551324
-513.153076,851.348877,-17.669678,0.552068
-512.420654,848.693848,-21.331787,0.552811
-511.779785,856.567383,-15.655518,0.553555
-513.061523,843.017578,-24.078369,0.554304
-510.955811,846.405029,-25.177002,0.555038
-511.962891,849.609375,-22.247314,0.555772
-510.223389,850.341797,-29.388428,0.556517
-508.941650,851.165771,-43.853760,0.557268
-512.329102,843.292236,-24.261475,0.558012
-511.596680,847.961426,-20.965576,0.558754
-502.624512,849.517822,-18.859863,0.559496
-497.955322,850.158691,-21.423340,0.560247
-502.899170,849.792480,-29.296875,0.560990
-504.730225,846.954346,-25.360107,0.561732
-505.645752,845.855713,-24.536133,0.562473
-506.011963,847.320557,-20.874023,0.563215
-504.913330,845.581055,-18.859863,0.563968
-510.864258,847.961426,-17.669678,0.564710
-507.293701,854.278564,-22.521973,0.565452
-500.701904,846.862793,-21.423340,0.566194
-510.314941,846.496582,-24.810791,0.566945
-507.934570,834.228516,-18.859863,0.567691
-507.568359,842.102051,-16.571045,0.568478
-510.681152,844.024658,-7.324219,0.569221
-499.328613,841.735840,-16.662598,0.569963
-502.716064,823.699951,-22.430420,0.570799
-504.638672,835.876465,-0.183105,0.571601
-502.258301,850.982666,-25.085449,0.572346
-505.004883,844.573975,-18.127441,0.573089
-504.272461,845.764160,-19.134521,0.573831
-506.469727,844.665527,-17.028809,0.574573
-502.624512,837.341309,-20.324707,0.575324
-510.131836,844.848633,-19.775391,0.576066
-510.223389,842.468262,-18.035889,0.576807
-511.230469,845.489502,-17.120361,0.577549
-517.181396,842.102051,-22.430420,0.578292
-509.674072,844.207764,-19.317627,0.579033
-509.765625,841.003418,-25.634766,0.579775
-504.455566,844.207764,-31.677246,0.580518
-506.195068,842.742920,-24.169922,0.581260
-500.427246,837.432861,-22.430420,0.582002
-512.145996,836.608887,-19.500732,0.582744
-511.505127,840.087891,-21.057129,0.583486
-511.688232,839.813232,-22.521973,0.584229
-510.589600,851.257324,-21.423340,0.584971
-512.054443,840.728760,-24.078369,0.585713
-514.343262,838.073730,-30.853271,0.586455
-515.441895,844.665527,-22.430420,0.587197
-518.280029,862.976074,-24.902344,0.587950
-504.821777,844.848633,-29.205322,0.588693
-520.111084,842.468262,-28.839111,0.589435
-521.484375,843.292236,-20.416260,0.590181
-515.167236,852.172852,-21.789551,0.591003
-515.899658,848.419189,-23.529053,0.591771
-515.167236,850.982666,-23.895264,0.592517
-514.526367,850.891113,-26.641846,0.593260
-512.512207,849.884033,-22.064209,0.594100
-519.195557,848.419189,-26.641846,0.594898
-517.364502,849.700928,-25.543213,0.595675
-516.448975,847.595215,-26.184082,0.596417
-496.582031,847.229004,-30.944824,0.597159
-508.575439,853.088379,-31.494141,0.597900
-509.765625,848.876953,-22.888184,0.598652
-506.744385,854.003906,-21.057129,0.599395
-509.307861,844.390869,-27.008057,0.600137
-535.491943,853.363037,-22.064209,0.600879
-513.519287,854.095459,-21.057129,0.601631
-516.540527,851.531982,-24.169922,0.602373
-516.632080,821.319580,-30.944824,0.603115
-516.906738,846.038818,-23.895264,0.603856
-513.793945,847.045898,-21.057129,0.604614
-513.793945,843.109131,-23.437500,0.605372
-517.364502,845.764160,-30.303955,0.606130
-517.089844,843.841553,-31.677246,0.606817
-510.589600,850.891113,-20.599365,0.607565
-511.871338,846.588135,-24.627686,0.608308
-515.625000,849.426270,-15.655518,0.609052
-517.364502,843.200684,-24.810791,0.609872
-520.751953,845.397949,-27.374268,0.610677
-513.702393,848.876953,-26.000977,0.611452
-515.258789,844.757080,-22.521973,0.612199
-514.068604,849.151611,-22.613525,0.612964
-511.962891,847.229004,-24.627686,0.613708
-514.617920,846.588135,-44.036865,0.614453
-517.181396,845.123291,-29.846191,0.615196
-512.878418,846.771240,-17.944336,0.615949
-514.160156,849.151611,-20.507812,0.616693
-513.519287,847.320557,-30.303955,0.617436
-514.343262,841.735840,-26.458740,0.618179
-516.540527,843.475342,-24.719238,0.618933
-515.075684,837.066650,-25.451660,0.619678
-519.470215,839.630127,-22.521973,0.620421
-508.666992,844.299316,-22.521973,0.621164
-511.871338,838.989258,-0.915527,0.621919
-511.413574,843.292236,-23.254395,0.622662
-515.991211,836.700439,-27.008057,0.623406
-509.948730,839.904785,-27.832031,0.624149
-514.801025,835.510254,-23.071289,0.624902
-508.850098,845.581055,-25.085449,0.625646
-512.786865,841.644287,-25.817871,0.626390
-513.610840,841.186523,-29.205322,0.627133
-510.223389,841.552734,-25.268555,0.627887
-508.300781,842.285156,-26.458740,0.628630
-511.138916,839.721680,-22.705078,0.629373
-513.427734,836.883545,-26.916504,0.630173
-514.617920,832.672119,-28.289795,0.630877
-515.258789,830.017090,-6.225586,0.631621
-520.294189,837.524414,-24.627686,0.632364
-517.364502,837.341309,-26.184082,0.633107
-516.174316,839.172363,-16.387939,0.633909
-515.167236,838.623047,-20.050049,0.634645
-513.610840,839.447021,-22.430420,0.635378
-517.913818,833.953857,-22.796631,0.636111
-510.955811,837.066650,-22.155762,0.636867
-516.357422,832.489014,-22.155762,0.637611
-512.878418,833.129883,-24.353027,0.638354
-510.498047,830.657959,-20.599365,0.639097
-518.096924,838.165283,-26.184082,0.639851
-513.061523,836.517334,-31.036377,0.640595
-507.110596,839.447021,-5.035400,0.641338
-513.244629,839.996338,-24.902344,0.642169
-515.716553,837.066650,-23.529053,0.642940
-515.991211,842.742920,-19.866943,0.643685
-516.998291,843.383789,-25.085449,0.644429
-518.554688,831.848145,-21.789551,0.645172
-516.357422,837.158203,-22.430420,0.645927
-519.195557,839.630127,-24.261475,0.646670
-519.104004,842.102051,-21.057129,0.647413
-520.660400,844.757080,-28.015137,0.648156
-512.237549,841.369629,-29.113770,0.648909
-523.681641,844.757080,-31.311035,0.649652
-515.716553,844.116211,-27.191162,0.650395
-518.096924,852.264404,-28.564453,0.651139
-525.512695,847.137451,-35.522461,0.651892
-522.766113,847.869873,-24.627686,0.652635
-523.773193,840.545654,-34.515381,0.653379
-520.477295,843.292236,-34.790039,0.654122
-522.583008,844.665527,-27.740479,0.654875
-524.322510,854.003906,-24.353027,0.655618
-516.906738,849.884033,-24.993896,0.656362
-526.977539,848.876953,-31.677246,0.657105
-519.927979,853.363037,-26.458740,0.657858
-515.716553,848.052979,-25.909424,0.658602
-525.421143,850.158691,-27.191162,0.659345
-519.378662,847.686768,-31.860352,0.660088
-522.949219,843.017578,-32.958984,0.660839
-519.012451,855.560303,-33.599854,0.661583
-516.357422,848.693848,-27.832031,0.662326
-518.829346,848.419189,-29.205322,0.663076
-515.716553,850.433350,-30.120850,0.663854
-519.104004,849.243164,-30.944824,0.664619
-517.456055,854.736328,-28.015137,0.665369
-517.089844,853.637695,-36.712646,0.666112
-518.096924,847.320557,-40.008545,0.666868
-516.998291,855.377197,-34.332275,0.667644
-514.160156,852.630615,-30.303955,0.668417
-521.484375,850.158691,-32.501221,0.669174
-509.307861,860.412598,-32.226562,0.669967
-513.061523,856.933594,-27.648926,0.670715
-513.244629,860.137939,-32.318115,0.671458
-515.167236,850.524902,-36.621094,0.672202
-518.920898,854.095459,-35.064697,0.672955
-513.885498,851.806641,-31.127930,0.673699
-514.892578,854.919434,-27.191162,0.674442
-518.188477,854.370117,-35.156250,0.675185
-527.343750,854.370117,-41.381836,0.675886
-520.660400,853.179932,-33.874512,0.676630
-514.251709,861.602783,-36.712646,0.677373
-516.998291,859.680176,-32.409668,0.678117
-515.167236,862.609863,-18.859863,0.678869
-514.801025,860.321045,-33.416748,0.679614
-518.188477,865.081787,-28.839111,0.680359
-508.575439,857.208252,-30.853271,0.681102
-518.463135,856.842041,-28.564453,0.681857
-512.603760,854.553223,-33.142090,0.682600
-516.082764,862.426758,-23.712158,0.683343
-510.589600,862.060547,-32.226562,0.684087
-518.646240,856.933594,-30.670166,0.684839
-513.885498,851.257324,-31.860352,0.685583
-516.906738,851.898193,-35.797119,0.686326
-518.371582,857.940674,-34.149170,0.687069
-516.448975,857.849121,-26.275635,0.687829
-523.315430,856.842041,-32.867432,0.688572
-517.547607,851.806641,-35.064697,0.689316
-513.885498,844.116211,-33.233643,0.690059
-517.456055,845.764160,-31.219482,0.690813
-510.314941,850.616455,-30.029297,0.691568
-511.138916,847.686768,-28.381348,0.692311
-537.322998,839.447021,-30.395508,0.693055
-515.533447,863.342285,-34.973145,0.693894
-517.181396,844.024658,-34.606934,0.694647
-513.519287,834.594727,-28.015137,0.695391
-515.258789,842.376709,-46.051025,0.696135
-517.364502,842.926025,-28.930664,0.696949
-515.533447,833.404541,-32.043457,0.697695
-514.068604,832.397461,-26.275635,0.698438
-510.314941,837.615967,-33.508301,0.699182
-517.456055,861.602783,-24.993896,0.699871
-513.610840,844.207764,-28.472900,0.700614
-516.723633,840.179443,-26.092529,0.701358
-517.181396,829.742432,-28.930664,0.702101
-513.061523,835.876465,-27.557373,0.702854
-517.730713,841.827393,-22.613525,0.703598
-514.801025,839.080811,-28.747559,0.704342
-516.357422,839.080811,-27.008057,0.705085
-518.646240,836.334229,-5.493164,0.705838
-517.913818,843.200684,-29.663086,0.706581
-511.322021,840.728760,-27.740479,0.707325
-514.343262,841.552734,-28.289795,0.708069
-508.850098,840.087891,-34.240723,0.708841
-506.927490,841.918945,-35.705566,0.709592
-511.596680,838.806152,-34.973145,0.710335
-511.688232,845.306396,-20.965576,0.711078
-510.040283,846.130371,-29.113770,0.711810
-510.498047,846.038818,-33.966064,0.712554
-511.505127,844.207764,-35.247803,0.713383
-506.286621,848.876953,-29.205322,0.714128
-513.885498,844.482422,-26.824951,0.714884
-510.040283,848.327637,-38.543701,0.715628
-506.286621,844.757080,-28.564453,0.716371
-511.322021,847.686768,-25.177002,0.717114
-511.505127,851.074219,-36.071777,0.717866
-507.202148,855.285645,-31.585693,0.718610
-508.117676,848.876953,-28.930664,0.719353
-509.490967,853.363037,-25.543213,0.720097
-501.617432,856.658936,-33.874512,0.720849
-507.385254,854.187012,-24.169922,0.721593
-509.857178,849.975586,-26.367188,0.722336
-511.230469,856.384277,-36.987305,0.723080
-507.843018,851.898193,-29.296875,0.723832
-508.392334,845.123291,-35.064697,0.724576
-507.019043,848.602295,-34.423828,0.725319
-507.202148,848.144531,-37.536621,0.726095
-502.258301,851.806641,-28.930664,0.726852
-499.420166,845.214844,-28.747559,0.727596
-498.596191,841.186523,-29.663086,0.728340
-497.955322,843.750000,-30.120850,0.729083
-502.349854,848.693848,-30.395508,0.729835
-498.870850,844.482422,-32.409668,0.730579
-499.969482,849.060059,-23.162842,0.731322
-496.856689,854.095459,-26.824951,0.732065
-498.504639,853.179932,-33.508301,0.732817
-499.328613,852.722168,-36.987305,0.733560
-499.969482,850.799561,-27.191162,0.734304
-497.772217,853.088379,-27.557373,0.735048
-506.195068,844.665527,-34.423828,0.735792
-503.173828,846.588135,-26.367188,0.736547
-496.124268,856.842041,-26.184082,0.737316
-504.180908,849.151611,-25.451660,0.738070
-500.518799,846.954346,-33.966064,0.738859
-501.983643,851.898193,-28.381348,0.739644
-501.342773,848.693848,-24.444580,0.740378
-497.680664,844.848633,-24.536133,0.741111
-494.476318,853.179932,-24.719238,0.741875
-501.525879,855.102539,-28.564453,0.742618
-498.046875,859.863281,-28.930664,0.743361
-502.532959,849.884033,-33.599854,0.744104
-508.209229,855.285645,-28.839111,0.744880
-503.540039,859.680176,-27.465820,0.745660
-498.046875,852.630615,-28.106689,0.746411
-509.765625,850.433350,-25.451660,0.747181
-506.103516,849.334717,-32.684326,0.747948
-501.159668,852.813721,-30.029297,0.748691
-492.370605,856.384277,-24.536133,0.749432
-495.666504,855.102539,-28.106689,0.750174
-497.955322,856.018066,-27.923584,0.750928
-497.772217,852.630615,-25.726318,0.751672
-505.645752,844.390869,-29.479980,0.752414
-501.434326,848.602295,-28.198242,0.753156
-502.624512,849.975586,-28.930664,0.753908
-503.265381,859.039307,-19.317627,0.754649
-501.983643,861.145020,-24.078369,0.755391
-504.272461,853.546143,-31.036377,0.756137
-505.096436,851.440430,-25.177002,0.756950
-506.286621,853.271484,-43.212891,0.757695
-505.645752,857.391357,-26.184082,0.758437
-509.033203,849.334717,-28.472900,0.759179
-502.624512,858.856201,-32.958984,0.759931
-506.561279,848.236084,-28.106689,0.760700
-501.342773,842.468262,-26.000977,0.761469
-502.532959,842.926025,-29.754639,0.762214
-496.673584,852.539062,-25.817871,0.762973
-500.061035,849.884033,-33.508301,0.763715
-500.885010,844.390869,-31.127930,0.764456
-504.364014,853.546143,-27.832031,0.765198
-512.420654,848.236084,-31.036377,0.765949
-501.159668,849.975586,-31.860352,0.766691
-503.448486,854.827881,-29.205322,0.767433
-506.011963,839.813232,-31.219482,0.768174
-507.934570,862.884521,-23.620605,0.768814
-506.744385,843.292236,-26.550293,0.769557
-500.701904,845.123291,-30.944824,0.770298
-509.307861,839.263916,-29.022217,0.771040
-510.955811,841.186523,-28.381348,0.771793
-511.413574,843.841553,-30.029297,0.772536
-503.906250,843.566895,-27.557373,0.773277
-500.518799,843.841553,-29.113770,0.774019
-506.286621,839.996338,-36.529541,0.774772
-512.786865,844.482422,-29.846191,0.775514
-508.026123,852.722168,-30.029297,0.776256
-509.948730,844.116211,-29.388428,0.776998
-511.138916,848.785400,-29.388428,0.777751
-506.744385,845.397949,-30.212402,0.778493
-498.321533,844.848633,-23.529053,0.779234
-502.899170,835.327148,-29.479980,0.779976
-506.652832,843.383789,-36.346436,0.780729
-511.871338,845.581055,-22.613525,0.781471
-496.948242,849.975586,-19.683838,0.782213
-508.209229,841.735840,-20.416260,0.782955
-509.582520,840.545654,-26.641846,0.783715
-513.153076,847.137451,-34.698486,0.784457
-510.131836,844.024658,-22.247314,0.785281
-500.335693,850.341797,-32.318115,0.786083
-507.293701,853.179932,-32.684326,0.786854
-506.835938,840.454102,-33.142090,0.787600
-512.512207,844.116211,-34.149170,0.788341
-508.850098,850.616455,-33.325195,0.789083
-508.117676,843.566895,-26.275635,0.789836
-509.033203,844.116211,-26.275635,0.790578
-508.575439,846.954346,-29.296875,0.791319
-508.209229,847.686768,-31.768799,0.792061
-507.202148,848.236084,-33.050537,0.792872
-504.913330,845.672607,-25.085449,0.793664
-505.554199,844.573975,-28.289795,0.794406
-505.828857,844.848633,-30.120850,0.795148
-500.427246,848.876953,-20.141602,0.795901
-505.096436,847.595215,-23.071289,0.796643
-499.786377,848.144531,-17.669678,0.797385
-507.110596,847.686768,-23.986816,0.798127
-504.638672,850.250244,-26.824951,0.798752
-503.814697,845.397949,-25.634766,0.799494
-504.089355,845.306396,-29.571533,0.800236
-501.983643,851.623535,-25.360107,0.800977
-510.589600,850.524902,-27.557373,0.801728
-499.877930,838.989258,-34.790039,0.802470
-502.716064,839.813232,-30.670166,0.803212
-507.568359,849.609375,-30.578613,0.803954
-505.004883,843.017578,-24.627686,0.804729
-501.434326,844.299316,-26.550293,0.805472
-506.469727,840.728760,-34.606934,0.806214
-502.807617,851.806641,-26.367188,0.806963
-505.920410,849.700928,-26.367188,0.807738
-506.835938,842.742920,-28.472900,0.808492
-505.737305,848.785400,-23.895264,0.809240
-503.173828,846.221924,-27.099609,0.809982
-504.180908,852.081299,-26.824951,0.810744
-506.835938,847.869873,-26.916504,0.811486
-500.610352,852.996826,-20.324707,0.812228
-509.674072,842.102051,-25.909424,0.812970
-507.110596,843.933105,-28.289795,0.813722
-504.180908,853.363037,-28.747559,0.814527
-504.180908,855.377197,-21.606445,0.815313
-505.737305,853.363037,-23.162842,0.816065
-507.476807,846.405029,-33.782959,0.816850
-496.582031,850.891113,-29.296875,0.817594
-497.314453,848.876953,-23.254395,0.818336
-505.828857,848.510742,-26.184082,0.819078
-507.202148,852.264404,-22.521973,0.819829
-502.441406,844.299316,-24.261475,0.820571
-500.518799,846.496582,-29.205322,0.821313
-502.349854,851.440430,-25.177002,0.822055
-503.448486,847.503662,-23.345947,0.822810
-508.758545,847.686768,-28.198242,0.823554
-505.737305,847.045898,-43.762207,0.824297
-501.617432,850.982666,-23.162842,0.825039
-504.547119,847.686768,-30.303955,0.825793
-502.716064,847.137451,-26.367188,0.826535
-501.800537,844.757080,-27.557373,0.827276
-496.398926,847.045898,-28.656006,0.828018
-496.215820,841.369629,-29.571533,0.828772
-505.187988,847.686768,-27.557373,0.829514
-504.547119,844.482422,-30.578613,0.830256
-503.173828,857.849121,-26.458740,0.830997
-500.244141,855.834961,-25.085449,0.831745
-498.870850,854.278564,-31.860352,0.832487
-500.518799,845.764160,-31.677246,0.833229
-499.145508,843.658447,-25.085449,0.833970
-498.046875,845.672607,-32.501221,0.834721
-499.237061,841.552734,-27.374268,0.835463
-501.068115,849.884033,-28.839111,0.836204
-507.110596,845.581055,-21.148682,0.836946
-502.075195,842.651367,-29.022217,0.837700
-497.039795,842.376709,-35.614014,0.838434
-497.406006,844.024658,-31.768799,0.839167
-497.863770,854.553223,-25.451660,0.839901
-501.800537,844.665527,-19.958496,0.840656
-500.885010,848.602295,-27.465820,0.841397
-493.652344,850.524902,-27.557373,0.842139
-493.011475,851.898193,-22.155762,0.842930
-496.582031,850.250244,-21.148682,0.843691
-502.990723,848.419189,-21.423340,0.844434
-496.215820,848.785400,-28.106689,0.845175
-498.229980,850.158691,-30.029297,0.845917
-504.638672,848.327637,-30.029297,0.846715
-503.448486,852.081299,-25.909424,0.847459
-502.166748,847.595215,-30.853271,0.848201
-502.258301,849.426270,-31.494141,0.849007
-503.173828,849.243164,-31.585693,0.849802
-501.068115,840.637207,-24.353027,0.850550
-490.997314,846.679688,-32.684326,0.851292
-495.025635,850.799561,-31.127930,0.852034
-497.589111,848.419189,-30.303955,0.852664
-494.018555,852.630615,-25.726318,0.853406
-498.962402,838.897705,-32.501221,0.854147
-493.652344,846.496582,-35.614014,0.854889
-501.251221,848.602295,-35.614014,0.855642
-497.589111,848.602295,-30.761719,0.856471
-495.666504,848.510742,-36.071777,0.857213
-495.849609,850.433350,-35.156250,0.857955
-489.349365,843.017578,-33.782959,0.858708
-496.582031,843.475342,-34.881592,0.859450
-494.842529,847.503662,-32.226562,0.860192
-503.814697,848.968506,-33.782959,0.860933
-504.821777,843.750000,-33.508301,0.861742
-498.779297,844.573975,-34.881592,0.862513
-486.968994,847.412109,-33.782959,0.863255
-496.948242,854.003906,-37.261963,0.863997
-500.244141,845.123291,-31.585693,0.864779
-508.392334,864.624023,-29.571533,0.865522
-505.645752,853.820801,-36.071777,0.866264
-501.525879,844.665527,-34.332275,0.867058
-506.469727,845.306396,-36.163330,0.867800
-502.441406,846.313477,-36.437988,0.868541
-505.371094,840.728760,-32.775879,0.869339
-509.124756,847.778320,-41.748047,0.870093
-508.666992,850.158691,-39.733887,0.870835
-505.645752,854.553223,-39.276123,0.871577
-511.871338,849.884033,-34.057617,0.872319
-517.547607,845.031738,-36.529541,0.873061
-516.448975,845.306396,-41.290283,0.873804
-518.188477,843.200684,-34.149170,0.874545
-515.167236,846.405029,-31.860352,0.875287
-517.913818,848.144531,-29.937744,0.876029
-516.082764,849.792480,-33.782959,0.876771
-512.878418,826.812744,-33.874512,0.877513
-518.920898,850.067139,-30.944824,0.878255
-522.857666,844.757080,-29.022217,0.879008
-518.280029,849.243164,-27.191162,0.879765
-520.111084,842.193604,-26.916504,0.880543
-521.392822,835.052490,-36.163330,0.881290
-531.738281,834.960938,-31.585693,0.882033
-527.343750,843.292236,-40.283203,0.882775
-517.364502,847.778320,-35.980225,0.883516
-526.611328,836.608887,-37.994385,0.884258
-527.069092,841.186523,-42.114258,0.885076
-530.364990,841.461182,-31.585693,0.885835
-528.717041,842.102051,-35.797119,0.886590
-522.216797,846.679688,-38.269043,0.887364
-529.174805,844.390869,-36.437988,0.888134
-524.230957,847.412109,-30.578613,0.888911
-535.400391,844.940186,-39.550781,0.889668
-529.083252,848.144531,-36.621094,0.890415
-530.364990,843.200684,-33.142090,0.891181
-530.181885,845.581055,-35.522461,0.891924
-534.576416,866.638184,-29.022217,0.892666
-528.076172,844.024658,-29.571533,0.893408
-542.724609,845.489502,-36.987305,0.894224
-529.907227,848.876953,-34.881592,0.894967
-533.386230,842.285156,-40.008545,0.895664
-541.534424,842.010498,-34.606934,0.896409
-539.886475,845.581055,-34.240723,0.897164
-541.168213,844.757080,-27.008057,0.897908
-538.238525,853.729248,-29.296875,0.898651
-532.836914,843.750000,-32.318115,0.899395
-539.062500,850.158691,-26.550293,0.900147
-540.344238,851.257324,-29.846191,0.900891
-543.548584,848.144531,-41.656494,0.901635
-542.541504,844.116211,-31.677246,0.902379
-536.132812,850.891113,-34.240723,0.903133
-539.703369,847.961426,-33.325195,0.903876
-538.238525,850.433350,-33.416748,0.904619
-539.794922,856.384277,-27.740479,0.905362
-534.301758,855.102539,-29.846191,0.906170
-541.351318,844.116211,-40.649414,0.906916
-540.618896,850.982666,-35.522461,0.907659
-532.745361,847.686768,-36.163330,0.908402
-536.041260,849.243164,-43.029785,0.909100
-536.315918,852.447510,-38.360596,0.909843
-542.083740,854.278564,-27.374268,0.910586
-538.055420,856.018066,-30.944824,0.911329
-536.773682,851.165771,-32.867432,0.912082
-541.168213,850.433350,-36.804199,0.912825
-536.499023,860.687256,-31.951904,0.913568
-536.499023,864.990234,-37.170410,0.914312
-535.308838,860.595703,-39.276123,0.915065
-538.055420,853.088379,-35.339355,0.915808
-539.978027,851.989746,-35.522461,0.916551
-532.562256,852.355957,-36.987305,0.917295
-537.963867,857.574463,-34.973145,0.918049
-539.428711,855.102539,-36.895752,0.918794
-540.252686,857.666016,-35.064697,0.919537
-536.132812,858.398438,-30.761719,0.920280
-531.097412,857.757568,-27.282715,0.921038
-534.027100,862.060547,-27.832031,0.921782
-539.886475,852.172852,-31.311035,0.922526
-540.161133,850.067139,-31.127930,0.923270
-527.343750,855.285645,-28.564453,0.924023
-529.174805,850.982666,-28.381348,0.924767
-531.188965,855.194092,-31.494141,0.925511
-532.470703,849.426270,-26.916504,0.926281
-526.794434,851.531982,-28.656006,0.927037
-530.731201,845.947266,-32.958984,0.927864
-529.266357,846.954346,-33.966064,0.928608
-526.336670,846.862793,-31.860352,0.929351
-525.970459,848.876953,-27.557373,0.930109
-528.076172,854.553223,-27.099609,0.930852
-535.217285,852.539062,-37.994385,0.931596
-529.266357,860.412598,-31.951904,0.932352
-539.154053,845.489502,-38.909912,0.933110
-524.505615,846.862793,-32.226562,0.933854
-527.160645,846.496582,-28.564453,0.934597
-524.871826,861.877441,-34.057617,0.935341
-527.618408,859.680176,-33.508301,0.936094
-528.259277,854.003906,-27.099609,0.936837
-529.815674,848.419189,-31.768799,0.937581
-526.336670,854.461670,-32.867432,0.938324
-518.371582,852.722168,-28.472900,0.939077
-521.942139,846.771240,-31.311035,0.939821
-523.315430,842.834473,-32.501221,0.940564
-522.583008,847.869873,-25.085449,0.941308
-520.843506,843.750000,-25.726318,0.942046
-522.583008,848.602295,-24.261475,0.942790
-518.920898,843.200684,-22.430420,0.943533
-520.202637,843.933105,-22.064209,0.944277
-521.118164,845.672607,-30.212402,0.945030
-516.540527,843.841553,-21.331787,0.945773
-514.251709,843.383789,-23.986816,0.946517
-514.343262,842.742920,-21.240234,0.947261
-520.294189,840.728760,-21.148682,0.948014
-521.484375,842.285156,-24.719238,0.948758
-517.730713,845.947266,-17.944336,0.949501
-495.117188,838.714600,-27.374268,0.950260
-521.026611,836.242676,-19.409180,0.951075
-520.660400,835.876465,-19.409180,0.951825
-514.526367,837.615967,-22.888184,0.952568
-515.991211,839.355469,-15.197754,0.953311
-508.758545,834.777832,-20.141602,0.954064
-511.505127,837.158203,-24.353027,0.954808
-515.167236,834.960938,-19.042969,0.955551
-509.582520,832.031250,-22.705078,0.956295
-505.371094,829.010010,-20.782471,0.957111
-515.716553,823.059082,-17.395020,0.957871
-512.603760,828.277588,-19.592285,0.958659
-514.617920,828.460693,-16.021729,0.959411
-509.948730,827.819824,-9.155273,0.960176
-509.857178,826.446533,-15.380859,0.960920
-512.054443,830.383301,-17.486572,0.961663
-517.272949,822.235107,-15.747070,0.962406
-492.370605,819.488525,-18.768311,0.963160
-512.420654,824.157715,-17.669678,0.963904
-510.314941,816.192627,-18.402100,0.964647
-508.941650,814.270020,-16.479492,0.965395
-502.441406,819.030762,-15.014648,0.966097
-506.744385,818.664551,-21.881104,0.966841
-505.096436,816.925049,-17.944336,0.967584
-510.406494,815.826416,-13.366699,0.968327
-508.758545,820.129395,-15.838623,0.969070
-504.821777,820.037842,-14.831543,0.969803
-506.378174,819.213867,-14.831543,0.970536
-503.173828,817.749023,-12.451172,0.971269
-499.877930,822.418213,-17.669678,0.972029
-497.955322,817.382812,-15.747070,0.972773
-502.899170,815.368652,-6.774902,0.973517
-499.053955,818.572998,-13.824463,0.974260
-513.336182,819.854736,-14.190674,0.975013
-503.723145,830.017090,-18.218994,0.975757
-508.209229,820.678711,-17.120361,0.976500
-507.110596,820.678711,-17.120361,0.977261
-509.399414,826.629639,-11.901855,0.978057
-504.913330,830.932617,-12.084961,0.978803
-501.434326,827.636719,-8.239746,0.979547
-505.554199,824.066162,-14.739990,0.980290
-505.737305,821.319580,-15.655518,0.981044
-509.948730,825.622559,-10.253906,0.981788
-505.462646,827.728271,-16.937256,0.982532
-507.568359,825.805664,-19.958496,0.983276
-508.758545,826.446533,-15.563965,0.984029
-508.850098,823.883057,-12.084961,0.984773
-505.279541,822.692871,-18.676758,0.985517
-511.779785,842.285156,-19.958496,0.986261
-507.110596,834.045410,-15.930176,0.987014
-507.659912,822.418213,-19.683838,0.987758
-513.519287,821.502686,-17.211914,0.988501
-508.850098,822.235107,-17.669678,0.989298
-507.934570,829.559326,-19.134521,0.990055
-509.033203,827.087402,-21.514893,0.990799
-509.674072,824.157715,-21.514893,0.991542
-511.962891,827.087402,-23.071289,0.992285
-513.885498,826.171875,-24.536133,0.993038
-506.927490,834.686279,-20.599365,0.993782
-505.096436,826.629639,-14.099121,0.994577
-507.110596,830.017090,-16.021729,0.995321
-506.652832,820.861816,-17.395020,0.996012
-503.265381,824.798584,-15.289307,0.996756
-505.187988,834.503174,-17.852783,0.997500
-506.561279,836.425781,-22.247314,0.998244
-514.068604,833.862305,-22.247314,0.999085
-507.476807,831.756592,-15.930176,0.999856
-507.476807,842.376709,-14.739990,1.000603
-504.272461,838.714600,-9.613037,1.001347
-512.237549,833.221436,-13.000488,1.002103
-512.878418,829.559326,-18.951416,1.002848
-506.195068,834.411621,-17.303467,1.003591
-501.983643,837.982178,-21.514893,1.004335
-510.589600,842.102051,-19.042969,1.005088
-512.237549,839.447021,-23.895264,1.005832
-511.138916,840.545654,-22.247314,1.006575
-517.547607,827.728271,-23.254395,1.007318
-511.779785,833.221436,-11.810303,1.008007
-514.984131,833.679199,-14.831543,1.008751
-508.850098,831.115723,-16.387939,1.009494
-510.681152,840.728760,-17.669678,1.010237
-509.490967,841.278076,-16.571045,1.010990
-515.808105,834.869385,-19.958496,1.011734
-514.160156,836.059570,-22.064209,1.012478
-508.941650,837.066650,-24.719238,1.013221
-515.167236,836.791992,-22.247314,1.013976
-505.462646,842.102051,-28.472900,1.014779
-507.476807,838.165283,-9.887695,1.015525
-511.779785,832.672119,-9.521484,1.016269
-510.131836,837.524414,-12.268066,1.017020
-511.413574,839.721680,-18.768311,1.017764
-508.026123,845.764160,-14.007568,1.018508
-510.040283,837.707520,-19.317627,1.019251
-517.364502,842.834473,-19.134521,1.020005
-509.765625,838.989258,-19.500732,1.020752
-510.223389,841.552734,-17.028809,1.021504
-517.913818,837.524414,-21.057129,1.022285
-507.202148,837.707520,-19.775391,1.023061
-509.582520,834.777832,-17.944336,1.023821
-514.434814,844.757080,-17.852783,1.024581
-517.181396,840.637207,-23.529053,1.025358
-520.111084,844.482422,-23.712158,1.026152
-514.526367,835.876465,-29.388428,1.026908
-514.343262,836.517334,-22.979736,1.027688
-512.145996,843.933105,-22.064209,1.028435
-512.969971,841.552734,-19.500732,1.029200
-511.596680,841.369629,-15.563965,1.029943
-514.617920,836.608887,-17.669678,1.030677
-514.068604,839.538574,-19.866943,1.031410
-513.427734,838.897705,-25.451660,1.032168
-511.871338,840.087891,-21.697998,1.032911
-512.603760,838.531494,-22.613525,1.033655
-492.828369,844.848633,-22.247314,1.034399
-507.568359,835.876465,-17.395020,1.035207
-511.322021,834.503174,-21.148682,1.035953
-511.047363,843.017578,-20.782471,1.036699
-510.955811,837.158203,-24.078369,1.037445
-507.110596,839.996338,-28.472900,1.038188
-510.040283,842.834473,-25.451660,1.038932
-513.427734,836.791992,-26.367188,1.039676
-509.948730,836.517334,-24.169922,1.040419
-509.674072,837.982178,-29.022217,1.041026
-506.744385,844.665527,-33.142090,1.041770
-508.575439,835.052490,-29.571533,1.042513
-503.448486,841.918945,-25.268555,1.043257
-501.708984,866.455078,-24.169922,1.044009
-505.096436,840.270996,-25.177002,1.044753
-508.392334,839.904785,-26.824951,1.045496
-504.089355,840.728760,-27.008057,1.046292
-510.864258,847.686768,-26.367188,1.047048
-504.364014,843.658447,-20.507812,1.047792
-511.871338,847.045898,-22.613525,1.048535
-510.131836,843.292236,-23.254395,1.049279
-505.645752,849.792480,-22.338867,1.049910
-504.364014,846.771240,-18.035889,1.050653
-501.800537,848.144531,-21.697998,1.051396
-504.180908,846.221924,-24.169922,1.052140
-504.455566,836.700439,-23.712158,1.052892
-505.737305,842.010498,-22.247314,1.053636
-499.786377,836.334229,-23.986816,1.054380
-502.716064,835.784912,-22.796631,1.055123
-499.877930,834.960938,-16.845703,1.055876
-501.251221,833.404541,-28.106689,1.056620
-505.004883,832.031250,-25.360107,1.057374
-500.244141,839.263916,-17.669678,1.058123
-499.603271,836.242676,-27.282715,1.058884
-495.483398,836.883545,-16.204834,1.059629
-498.962402,832.397461,-21.514893,1.060373
-500.610352,831.573486,-23.437500,1.061116
-494.842529,831.481934,-29.937744,1.061870
-493.286133,830.566406,-31.402588,1.062615
-496.398926,836.425781,-25.268555,1.063358
-497.955322,833.404541,-23.620605,1.064144
-501.251221,830.108643,-26.458740,1.064900
-498.504639,829.010010,-22.796631,1.065644
-503.540039,835.052490,-29.663086,1.066388
-502.716064,839.904785,-20.782471,1.067132
-500.976562,835.693359,-21.148682,1.067884
-502.807617,832.855225,-26.000977,1.068629
-491.912842,830.108643,-28.656006,1.069373
-498.138428,835.784912,-26.367188,1.070117
-503.540039,840.087891,-22.888184,1.070958
-502.441406,839.630127,-21.606445,1.071703
-503.723145,834.594727,-27.008057,1.072446
-506.927490,834.960938,-29.296875,1.073190
-508.850098,848.327637,-26.824951,1.073944
-499.786377,840.362549,-23.529053,1.074687
-500.427246,838.073730,-21.789551,1.075430
-504.821777,834.136963,-24.719238,1.076174
-501.068115,839.172363,-8.697510,1.076847
-500.061035,847.045898,-29.296875,1.077590
-501.800537,851.257324,-18.035889,1.078334
-509.307861,842.102051,-21.972656,1.079077
-503.814697,843.658447,-23.986816,1.079832
-500.061035,848.876953,-46.142578,1.080576
-501.892090,842.926025,-22.064209,1.081320
-509.033203,844.116211,-24.902344,1.082063
-504.547119,841.644287,-24.261475,1.082817
-502.532959,852.905273,-24.719238,1.083560
-501.800537,845.764160,-24.169922,1.084303
-500.244141,844.665527,-27.191162,1.085099
-504.547119,848.052979,-28.198242,1.085856
-506.744385,851.623535,-28.198242,1.086600
-506.195068,851.165771,-26.275635,1.087343
-507.293701,844.940186,-23.895264,1.088086
-505.737305,855.010986,-23.345947,1.088839
-497.863770,853.912354,-24.169922,1.089583
-511.871338,853.546143,-31.494141,1.090327
-505.187988,847.137451,-27.191162,1.091070
-510.955811,849.334717,-22.338867,1.091823
-507.568359,844.940186,-29.846191,1.092569
-502.807617,849.517822,-26.733398,1.093320
-504.547119,849.517822,-28.839111,1.094094
-500.427246,849.060059,-28.381348,1.094867
-499.145508,847.137451,-29.754639,1.095611
-508.026123,848.052979,-24.169922,1.096355
-504.638672,845.031738,-29.846191,1.097099
-503.540039,849.609375,-29.663086,1.097852
-503.906250,847.778320,-23.071289,1.098596
-502.716064,840.454102,-26.641846,1.099339
-500.518799,842.834473,-30.761719,1.100083
-502.166748,843.841553,-26.458740,1.100835
-502.349854,846.679688,-21.789551,1.101579
-503.723145,847.229004,-28.289795,1.102322
-504.364014,853.820801,-21.148682,1.103065
-498.779297,851.898193,-28.381348,1.103895
-507.843018,837.982178,-28.106689,1.104665
-504.821777,845.306396,-29.571533,1.105427
-504.364014,847.320557,-15.838623,1.106177
-504.455566,848.693848,-27.099609,1.106947
-508.575439,851.348877,-28.381348,1.107691
-499.237061,847.778320,-30.670166,1.108436
-507.934570,841.918945,-27.923584,1.109181
-506.561279,843.841553,-21.057129,1.109978
-509.033203,840.637207,-33.233643,1.110728
-506.378174,841.644287,-30.670166,1.111473
-500.701904,840.454102,-28.930664,1.112216
-501.342773,841.461182,-27.465820,1.112975
-508.300781,844.665527,-28.381348,1.113719
-509.948730,843.109131,-21.697998,1.114463
-504.272461,844.573975,-26.000977,1.115206
-507.019043,839.355469,-28.198242,1.116032
-501.983643,840.545654,-25.634766,1.116778
-507.202148,845.123291,-36.437988,1.117522
-504.821777,841.918945,-26.458740,1.118276
-502.441406,837.249756,-24.169922,1.119028
-501.892090,836.883545,-26.184082,1.119771
-510.406494,843.566895,-16.021729,1.120515
-507.019043,844.207764,-26.824951,1.121258
-507.202148,835.876465,-24.169922,1.122012
-507.934570,838.989258,-18.951416,1.122756
-499.328613,837.341309,-21.514893,1.123499
-500.427246,836.883545,-19.134521,1.124298
-499.053955,837.982178,-20.050049,1.125042
-500.793457,841.918945,-21.697998,1.125786
-501.342773,848.236084,-25.909424,1.126529
-495.666504,847.503662,-20.599365,1.127272
-501.892090,845.123291,-22.705078,1.128042
-495.758057,845.306396,-30.670166,1.128786
-497.680664,837.707520,-21.148682,1.129529
-504.364014,847.229004,-18.859863,1.130321
-500.793457,851.715088,-20.416260,1.131065
-497.131348,846.679688,-22.979736,1.131809
-498.321533,854.278564,-16.113281,1.132553
-501.068115,851.257324,-16.113281,1.133296
-496.765137,851.257324,-16.571045,1.134040
-494.110107,851.257324,-19.683838,1.134783
-500.701904,844.848633,-28.015137,1.135526
-500.061035,849.060059,-20.599365,1.136270
-496.765137,850.067139,-14.739990,1.137014
-485.870361,844.665527,-15.014648,1.137757
-486.328125,843.383789,-18.402100,1.138501
-492.462158,850.433350,-27.099609,1.139252
-484.588623,843.658447,-21.423340,1.139996
-489.898682,847.320557,-18.585205,1.140739
-484.771729,846.221924,-13.458252,1.141509
-482.482910,851.165771,-13.549805,1.142348
-488.983154,844.482422,-12.084961,1.143092
-481.201172,839.447021,-22.064209,1.143836
-480.926514,845.031738,-23.071289,1.144579
-481.292725,844.757080,-18.768311,1.145323
-478.088379,846.221924,-15.655518,1.146098
-473.510742,848.419189,-21.697998,1.146844
-475.891113,855.285645,-12.268066,1.147588
-483.215332,849.609375,-18.768311,1.148331
-477.905273,845.581055,-19.500732,1.149075
-481.658936,839.263916,-17.395020,1.149818
-483.764648,845.397949,-15.289307,1.150561
-481.750488,849.517822,-17.303467,1.151305
-481.658936,848.052979,-21.789551,1.152049
-484.130859,866.729736,-11.810303,1.152792
-485.687256,838.989258,-13.641357,1.153536
-482.391357,844.024658,-16.754150,1.154291
-482.025146,852.355957,-17.028809,1.155034
-483.215332,842.651367,-17.028809,1.155778
-487.426758,864.532471,-22.338867,1.156521
-486.419678,845.214844,-22.521973,1.157273
-488.159180,839.904785,-25.085449,1.158016
-476.074219,848.419189,-3.021240,1.158760
-488.433838,847.045898,-19.592285,1.159503
-484.405518,848.785400,-29.022217,1.160246
-485.321045,838.165283,-25.360107,1.160979
-479.095459,839.538574,-24.536133,1.161713
-488.983154,845.947266,-22.705078,1.162445
-488.250732,846.954346,-33.782959,1.163178
-482.025146,844.024658,-41.656494,1.163956
-470.947266,846.313477,-42.938232,1.164710
-473.144531,845.123291,-31.311035,1.165462
-473.419189,839.263916,-20.050049,1.166241
-487.518311,833.953857,-13.824463,1.166988
-503.631592,822.875977,-16.754150,1.167731
-507.751465,821.044922,-15.747070,1.168473
-503.723145,826.080322,-10.986328,1.169235
-500.061035,809.967041,-18.402100,1.170047
-500.427246,798.248291,-31.677246,1.170802
-506.561279,791.931152,-47.790527,1.171596
-499.053955,783.782959,-62.072754,1.172348
-485.229492,786.621094,-69.946289,1.173090
-483.398438,798.614502,-57.861328,1.173833
-479.827881,801.727295,-47.882080,1.174575
-487.060547,810.424805,-34.790039,1.175317
-482.299805,821.777344,-18.310547,1.176059
-483.123779,825.622559,-5.676270,1.176801
-483.764648,834.045410,-7.232666,1.177543
-491.546631,829.742432,-16.662598,1.178285
-489.624023,827.453613,-15.106201,1.179027
-485.870361,828.552246,-23.437500,1.179770
-483.856201,831.481934,-30.395508,1.180513
-498.596191,834.960938,-24.627686,1.181328
-500.701904,841.735840,-20.599365,1.182075
-497.955322,848.876953,-16.113281,1.182817
-496.307373,844.940186,-15.563965,1.183559
-501.800537,851.898193,-10.620117,1.184315
-495.666504,850.708008,-3.936768,1.185057
-483.673096,861.877441,-6.683350,1.185799
-452.728271,864.074707,-26.641846,1.186540
-472.595215,863.250732,-26.367188,1.187292
-481.201172,859.130859,-24.719238,1.188035
-485.137939,853.363037,-32.592773,1.188777
-488.708496,864.440918,-44.586182,1.189519
-477.630615,876.617432,-36.163330,1.190344
-470.306396,882.385254,-29.296875,1.191101
-477.264404,889.984131,-24.810791,1.191844
-469.299316,890.716553,-18.768311,1.192586
-477.447510,886.505127,-11.993408,1.193339
-486.785889,885.498047,-16.662598,1.194081
-476.715088,885.498047,-32.318115,1.194823
-487.152100,889.984131,-31.402588,1.195565
-472.595215,886.413574,-18.585205,1.196315
-471.771240,877.716064,-18.035889,1.197058
-473.876953,885.040283,-17.578125,1.197800
-486.694336,878.448486,-24.169922,1.198541
-467.559814,873.596191,-31.768799,1.199260
-461.608887,888.977051,-34.881592,1.200001
-465.362549,888.702393,-26.000977,1.200744
-446.136475,890.899658,-17.120361,1.201486
-449.066162,921.020508,-18.585205,1.202237
-439.178467,930.633545,-11.352539,1.202979
-455.017090,911.590576,24.353027,1.203721
-468.383789,909.210205,25.177002,1.204463
-468.841553,893.005371,13.824463,1.205215
-462.341309,884.307861,14.465332,1.205957
-464.813232,888.427734,13.275146,1.206699
-432.312012,865.814209,13.549805,1.207441
-432.678223,855.651855,10.253906,1.208184
-450.164795,814.910889,7.598877,1.208926
-428.100586,808.593750,0.366211,1.209667
-431.854248,809.234619,-27.191162,1.210459
-428.009033,818.298340,-27.008057,1.211212
-424.530029,820.404053,2.197266,1.211954
-443.115234,822.875977,20.050049,1.212695
-445.404053,845.306396,38.726807,1.213438
-448.699951,845.031738,52.185059,1.214320
-466.369629,834.228516,54.840088,1.215063
-448.333740,830.841064,41.931152,1.215805
-448.608398,833.038330,9.063721,1.216547
-423.156738,817.932129,3.387451,1.217298
-418.487549,807.586670,-8.697510,1.218040
-426.361084,811.340332,2.014160,1.218783
-426.177979,809.417725,8.514404,1.219524
-441.558838,815.734863,24.261475,1.220277
-455.657959,836.883545,33.966064,1.221020
-467.559814,831.481934,66.925049,1.221761
-483.215332,826.995850,78.735352,1.222504
-481.658936,825.897217,57.312012,1.223280
-471.313477,818.115234,12.451172,1.224024
-445.220947,809.326172,-6.042480,1.224766
-437.896729,795.776367,-11.718750,1.225507
-431.945801,797.149658,-8.331299,1.226260
-438.903809,808.502197,3.845215,1.226999
-450.897217,825.164795,44.677734,1.227732
-470.581055,844.573975,62.347412,1.228465
-492.919922,863.433838,75.073242,1.229223
-510.589600,868.835449,112.060547,1.229965
-523.223877,878.723145,94.024658,1.230730
-534.118652,856.109619,78.643799,1.231473
-523.132324,829.467773,45.776367,1.232271
-492.370605,824.523926,17.486572,1.233015
-476.257324,819.122314,-34.698486,1.233756
-458.404541,826.995850,-62.530518,1.234498
-470.123291,814.178467,-52.368164,1.235252
-469.940186,815.185547,-8.239746,1.236009
-481.842041,841.094971,14.739990,1.236758
-503.265381,879.455566,36.254883,1.237532
-510.864258,881.561279,67.382812,1.238304
-518.829346,877.990723,72.143555,1.239050
-530.181885,873.138428,39.916992,1.239793
-528.991699,860.412598,-8.331299,1.240534
-506.103516,847.229004,-27.648926,1.241226
-502.624512,827.453613,-52.917480,1.242034
-494.201660,827.362061,-32.318115,1.242787
-481.658936,834.228516,-33.691406,1.243575
-501.159668,834.594727,4.669189,1.244347
-501.708984,849.517822,11.535645,1.245118
-493.011475,893.463135,17.028809,1.245862
-504.730225,904.907227,27.832031,1.246605
-510.498047,900.054932,41.290283,1.247358
-519.378662,876.068115,16.754150,1.248100
-507.476807,871.398926,-13.458252,1.248842
-503.540039,879.089355,-28.198242,1.249584
-500.610352,876.068115,-30.853271,1.250336
-510.223389,864.898682,17.028809,1.251078
-506.927490,830.566406,31.860352,1.251821
-514.984131,844.116211,10.253906,1.252563
-472.320557,878.814697,-3.021240,1.253317
-464.080811,873.504639,-2.655029,1.254059
-487.152100,872.314453,-2.197266,1.254800
-483.215332,853.820801,-6.500244,1.255542
-494.018555,822.601318,-4.760742,1.256292
-534.851074,836.059570,-11.352539,1.257034
-512.237549,847.686768,-7.141113,1.257776
-526.062012,853.637695,-45.410156,1.258518
-518.554688,850.799561,-4.302979,1.259270
-512.145996,820.678711,16.845703,1.260012
-506.744385,839.813232,11.444092,1.260759
-510.681152,937.316895,-21.148682,1.261525
-420.227051,1061.462402,10.162354,1.262311
-501.434326,920.654297,188.232422,1.263101
-628.601074,865.997314,304.321289,1.263864
-492.370605,956.085205,196.105957,1.264618
-393.768311,1047.912598,197.570801,1.265433
-478.363037,1090.850830,171.203613,1.266197
-479.827881,1055.969238,124.511719,1.266987
-405.487061,992.980957,111.145020,1.267761
-503.082275,966.522217,73.425293,1.268550
-493.286133,955.810547,114.807129,1.269365
-355.133057,934.387207,212.768555,1.270141
-380.859375,966.613770,247.100830,1.270963
-806.762695,1038.757324,422.424316,1.271762
-671.997070,1066.040039,495.025635,1.272521
-664.764404,1141.754150,518.920898,1.273266
-837.982178,1174.621582,484.405518,1.274037
-653.961182,1177.368164,464.904785,1.274770
-590.057373,1168.487549,422.332764,1.275500
-578.521729,1140.655518,384.979248,1.276231
-619.812012,1134.521484,339.752197,1.276990
-595.367432,1118.225098,337.097168,1.277722
-578.063965,1106.140137,321.807861,1.278452
-571.746826,1127.563477,333.435059,1.279186
-615.875244,1137.084961,361.633301,1.279950
-396.697998,1184.692383,341.766357,1.280687
714.202881,1424.835205,-120.025635,1.281418
283.264160,1434.356689,-158.020020,1.282149
-601.501465,1117.218018,54.290771,1.282937
-382.873535,1062.377930,228.881836,1.283670
71.685791,1026.672363,315.307617,1.284402
-183.471680,1054.046631,419.128418,1.285133
-336.547852,1108.062744,503.265381,1.285876
-389.739990,1256.011963,524.780273,1.286709
-461.517334,1369.537354,544.738770,1.287441
-426.361084,1357.086182,584.014893,1.288175
-374.908447,1355.621338,586.395264,1.288907
-272.918701,1293.182373,597.473145,1.289638
-235.107422,1271.484375,634.552002,1.290369
-209.472656,1137.634277,640.136719,1.291101
-229.980469,1169.677734,567.169189,1.291832
-402.282715,1175.903320,470.031738,1.292563
-360.076904,1335.113525,317.138672,1.293294
-196.929932,1387.939453,342.773438,1.294025
-319.610596,1328.704834,353.942871,1.294756
-319.519043,1257.843018,375.183105,1.295487
-160.491943,1231.384277,400.726318,1.296217
-131.652832,1214.721680,401.458740,1.296948
-68.115234,1228.088379,384.338379,1.297692
138.244629,1314.147949,407.501221,1.298423
153.991699,1219.573975,502.807617,1.299154
-540.252686,1211.242676,473.785400,1.299884
-424.804688,1388.763428,385.803223,1.300637
-216.247559,1478.393555,479.095459,1.301376
-230.804443,1356.628418,520.294189,1.302116
-405.944824,1278.991699,526.336670,1.302855
-236.389160,1277.160645,517.730713,1.303608
-397.064209,1223.785400,507.476807,1.304347
-479.919434,1210.327148,563.049316,1.305086
-412.536621,1270.843506,543.273926,1.305825
-446.960449,1352.691650,418.762207,1.306572
-515.991211,1396.362305,492.370605,1.307345
-513.977051,1336.303711,557.373047,1.308154
-426.910400,1415.222168,464.996338,1.308923
229.980469,1386.016846,483.856201,1.309662
-266.143799,1223.419189,545.288086,1.310402
-454.193115,1257.110596,607.269287,1.311142
-228.881836,1298.767090,686.462402,1.311946
-255.615234,1306.365967,717.224121,1.312697
-216.064453,1405.151367,710.632324,1.313455
-165.344238,1423.004150,765.380859,1.314201
-316.131592,1357.269287,750.732422,1.314966
-551.147461,1166.107178,770.233154,1.315705
-727.844238,1096.893311,701.110840,1.316445
-232.269287,1429.962158,643.341064,1.317184
-168.731689,1435.180664,739.929199,1.317934
-100.708008,1409.088135,773.162842,1.318673
9.429932,1372.650146,796.875000,1.319413
-113.983154,1354.431152,808.593750,1.320152
-757.049561,1124.176025,783.233643,1.320903
-924.591064,1379.791260,647.369385,1.321640
-70.312500,1613.067627,555.267334,1.322378
-373.352051,1577.545166,510.314941,1.323140
-224.578857,1785.461426,516.815186,1.323884
-1323.577881,355.407715,679.595947,1.324625
233.367920,1605.468750,444.671631,1.325365
203.338623,1588.897705,504.089355,1.326121
-1179.107666,712.554932,641.601562,1.326862
-939.697266,1433.349609,479.644775,1.327603
-513.336182,1968.750000,484.863281,1.328343
-731.689453,1229.736328,540.069580,1.329093
-1367.065430,491.088867,221.740723,1.329834
-187.133789,1474.914551,331.146240,1.330574
-689.941406,1077.209473,351.562500,1.331315
-604.614258,1186.340332,417.388916,1.332066
-727.661133,1185.974121,441.467285,1.332806
-781.219482,1282.745361,479.919434,1.333546
-806.396484,925.872803,534.393311,1.334287
-613.220215,751.464844,482.116699,1.335038
-488.525391,1076.934814,514.251709,1.335780
-703.948975,1078.857422,566.711426,1.336520
-543.914795,1480.133057,601.318359,1.337261
-477.264404,1591.552734,598.480225,1.338002
-239.044189,2244.140625,566.619873,1.338733
-2246.520996,-888.061523,773.712158,1.339463
-655.883789,968.444824,512.420654,1.340193
-755.859375,1558.502197,566.070557,1.340924
-948.211670,1095.977783,568.817139,1.341675
-216.430664,2246.887207,519.561768,1.342414
305.694580,-623.657227,735.168457,1.343153
2246.795654,-2239.654541,816.192627,1.343891
-251.586914,-127.716064,721.069336,1.344640
-1254.638672,2626.647949,239.868164,1.345379
-849.151611,2694.946289,263.122559,1.346118
-615.692139,258.544922,519.927979,1.346857
-1278.991699,-170.745850,364.379883,1.347606
166.076660,1136.718750,155.822754,1.348345
-165.802002,203.155518,246.368408,1.349083
-1447.998047,1455.139160,71.868896,1.349822
-563.598633,1688.507080,29.479980,1.350571
1187.347412,-848.968506,226.776123,1.351310
733.062744,-105.102539,138.336182,1.352050
672.637939,899.047852,-447.967529,1.352789
990.509033,1534.515381,-475.433350,1.353538
1050.292969,1398.468018,-351.837158,1.354277
767.028809,478.271484,97.595215,1.355017
-488.433838,443.115234,190.246582,1.355897
-52.001953,678.680420,58.227539,1.356638
-185.760498,854.370117,38.177490,1.357378
-453.735352,852.722168,119.476318,1.358117
-563.415527,495.758057,141.448975,1.358856
-2149.108887,517.364502,168.548584,1.359595
-1407.440186,736.267090,221.282959,1.360334
85.327148,804.199219,251.037598,1.361073
328.308105,725.463867,291.778564,1.361828
498.870850,818.664551,288.208008,1.362568
714.843750,473.052979,247.283936,1.363308
659.271240,623.016357,261.108398,1.364047
425.628662,684.631348,263.946533,1.364785
-208.831787,495.941162,261.383057,1.365522
-966.796875,729.034424,245.452881,1.366272
-145.660400,555.450439,226.593018,1.367007
512.329102,766.479492,202.789307,1.367766
370.056152,661.468506,165.710449,1.368498
-214.782715,630.432129,155.364990,1.369228
-177.246094,645.904541,104.461670,1.369958
166.625977,663.574219,99.975586,1.370701
-188.049316,533.386230,133.941650,1.371431
-417.388916,595.458984,221.282959,1.372162
33.142090,610.198975,220.733643,1.372893
335.998535,708.984375,194.183350,1.373636
248.291016,623.291016,188.323975,1.374367
-369.964600,756.317139,-1222.503662,1.375097
-183.563232,1617.736816,-469.116211,1.375828
-64.910889,1608.398438,233.459473,1.376562
319.519043,161.590576,398.529053,1.377296
-66.192627,707.153320,199.768066,1.378027
-29.296875,786.437988,-135.406494,1.378790
598.022461,641.601562,21.606445,1.379562
-397.521973,473.052979,234.466553,1.380309
-709.808350,540.893555,52.917480,1.381040
-703.582764,612.487793,-17.944336,1.381771
-40.557861,657.897949,9.796143,1.382540
-318.695068,596.740723,71.044922,1.383279
-264.221191,536.773682,104.370117,1.384018
-165.344238,486.511230,-3.662109,1.384757
-432.952881,438.079834,-47.973633,1.385515
264.038086,222.656250,-122.955322,1.386270
-1121.337891,323.913574,70.037842,1.387017
-1040.588379,366.027832,156.372070,1.387808
-1082.336426,379.577637,119.110107,1.388556
-1248.779297,372.528076,73.059082,1.389295
-1226.898193,399.261475,162.231445,1.390034
-1186.798096,382.781982,190.246582,1.390772
-1307.922363,371.246338,215.606689,1.391509
-1147.888184,678.131104,176.788330,1.392269
-1261.138916,222.015381,163.238525,1.393013
-1100.097656,376.647949,284.820557,1.393769
-1099.914551,401.916504,280.334473,1.394509
-1234.954834,253.967285,266.693115,1.395249
-792.938232,442.840576,252.410889,1.395990
-875.061035,324.829102,287.109375,1.396745
-803.192139,429.931641,327.575684,1.397486
-598.388672,525.054932,358.703613,1.398226
-664.855957,515.167236,404.205322,1.398966
-501.068115,528.808594,440.734863,1.399717
-389.648438,545.471191,359.985352,1.400457
-469.940186,461.517334,403.930664,1.401198
-391.204834,343.322754,542.175293,1.401938
-543.914795,330.230713,613.494873,1.402688
-326.934814,475.799561,553.802490,1.403428
-330.413818,390.747070,446.411133,1.404169
-106.658936,390.930176,448.516846,1.404909
0.640869,350.280762,419.128418,1.405658
-51.452637,300.292969,414.733887,1.406399
-142.456055,255.157471,443.572998,1.407139
-155.731201,313.018799,444.946289,1.407880
-291.778564,321.624756,397.338867,1.408630
-296.081543,275.390625,429.016113,1.409370
5.310059,237.579346,284.088135,1.410110
43.670654,178.527832,308.441162,1.410849
82.489014,315.032959,367.126465,1.411599
-20.782471,311.737061,361.999512,1.412340
-210.937500,244.628906,407.684326,1.413080
-126.525879,339.111328,398.162842,1.413820
-113.433838,303.863525,351.196289,1.414561
-70.129395,315.124512,359.436035,1.415291
-35.430908,317.413330,371.063232,1.416021
-59.234619,327.850342,316.223145,1.416752
-50.537109,363.922119,315.124512,1.417500
-39.184570,374.267578,324.554443,1.418240
-85.876465,391.479492,313.476562,1.418979
-100.708008,335.906982,360.626221,1.419718
-109.771729,430.572510,376.831055,1.420458
-323.455811,492.095947,331.787109,1.421197
-319.335938,490.814209,257.263184,1.421936
701.385498,72.143555,62.072754,1.422676
1106.231689,418.029785,242.156982,1.423415
728.851318,498.321533,254.150391,1.424153
-17.303467,481.658936,355.682373,1.424892
-580.627441,487.884521,411.071777,1.425631
855.743408,542.175293,355.316162,1.426371
-28.106689,518.646240,386.444092,1.427206
-335.449219,503.265381,394.683838,1.427947
412.628174,561.584473,426.910400,1.428687
176.147461,571.380615,473.236084,1.429441
-57.037354,552.886963,452.545166,1.430181
242.889404,581.085205,489.990234,1.430920
322.540283,593.902588,564.514160,1.431659
55.206299,605.895996,564.239502,1.432408
134.765625,613.586426,610.382080,1.433148
161.590576,628.601074,684.722900,1.433887
21.057129,616.607666,685.546875,1.434625
-24.536133,623.107910,704.315186,1.435374
-22.338867,565.338135,783.050537,1.436113
-92.285156,606.445312,845.947266,1.436851
-15.197754,624.206543,917.724609,1.437590
41.381836,616.058350,920.654297,1.438340
-20.507812,632.446289,890.808105,1.439079
-33.691406,630.981445,833.312988,1.439818
-34.423828,639.862061,830.566406,1.440558
-67.932129,635.467529,768.218994,1.441307
-146.942139,633.544922,728.485107,1.442046
-159.393311,649.841309,667.144775,1.442785
-189.605713,644.073486,639.404297,1.443524
-203.338623,633.911133,641.784668,1.444273
-190.979004,623.474121,673.919678,1.445013
-217.529297,621.185303,682.891846,1.445752
-159.942627,671.997070,669.525146,1.446492
-141.174316,635.833740,655.792236,1.447238
-500.061035,628.601074,630.981445,1.448009
-569.183350,626.403809,609.375000,1.448764
-435.424805,609.375000,663.482666,1.449534
-526.794434,591.705322,701.202393,1.450279
-500.061035,591.339111,703.857422,1.451019
-466.644287,595.092773,737.915039,1.451759
-488.708496,583.465576,784.606934,1.452517
-456.665039,578.063965,806.304932,1.453270
-436.889648,578.704834,849.517822,1.454035
-436.157227,575.775146,863.342285,1.454782
-386.627197,610.107422,893.280029,1.455569
-383.422852,622.558594,930.633545,1.456309
-388.916016,634.185791,920.745850,1.457049
-369.873047,631.988525,933.471680,1.457790
-365.753174,633.453369,942.993164,1.458542
-354.400635,614.227295,946.655273,1.459283
-348.724365,623.016357,946.014404,1.460023
-350.738525,590.332031,931.732178,1.460762
-342.132568,555.908203,882.843018,1.461511
-327.667236,543.914795,845.123291,1.462249
-303.405762,522.033691,771.331787,1.462986
-228.515625,509.765625,725.189209,1.463747
-194.366455,515.533447,685.180664,1.464507
-219.268799,488.159180,663.208008,1.465248
-264.953613,440.460205,627.410889,1.465988
-260.833740,431.762695,588.226318,1.466729
-287.841797,420.867920,579.254150,1.467476
-299.194336,414.093018,561.950684,1.468217
-297.821045,414.733887,552.978516,1.468958
-294.525146,402.282715,538.879395,1.469698
-284.912109,402.832031,524.688721,1.470448
-266.784668,406.860352,517.364502,1.471189
-254.425049,405.395508,500.335693,1.471929
-239.959717,413.085938,492.736816,1.472669
-209.381104,411.163330,477.630615,1.473419
-203.247070,420.867920,443.023682,1.474159
-200.225830,383.972168,405.212402,1.474900
92.376709,392.486572,305.328369,1.475640
175.689697,424.621582,215.423584,1.476389
15.747070,401.824951,231.903076,1.477130
-47.241211,375.183105,251.220703,1.477870
92.102051,394.226074,250.122070,1.478611
120.208740,400.451660,230.895996,1.479352
59.234619,408.874512,222.473145,1.480082
22.064209,452.087402,210.021973,1.480812
47.332764,479.827881,194.458008,1.481542
68.023682,484.039307,185.668945,1.482292
48.706055,517.364502,172.027588,1.483032
32.867432,521.667480,147.766113,1.483772
34.423828,551.422119,146.026611,1.484512
46.142578,572.753906,130.096436,1.485262
39.916992,583.099365,122.680664,1.486002
27.923584,606.903076,106.658936,1.486742
27.740479,617.614746,117.462158,1.487481
54.565430,628.143311,123.779297,1.488230
42.755127,650.207520,138.793945,1.488970
36.712646,681.335449,146.850586,1.489710
15.930176,707.794189,165.893555,1.490449
-12.634277,698.089600,256.072998,1.491198
-19.683838,708.435059,343.963623,1.491937
30.303955,741.760254,501.708984,1.492676
29.479980,787.994385,549.591064,1.493415
-5.035400,865.264893,565.795898,1.494164
0.183105,911.499023,628.417969,1.494902
6.958008,930.999756,644.439697,1.495642
-20.416260,966.064453,674.285889,1.496381
-23.162842,993.164062,710.449219,1.497129
-1.831055,1027.496338,728.485107,1.497868
-59.692383,1047.546387,782.135010,1.498607
-50.354004,1071.899414,810.516357,1.499441
-52.642822,1079.223633,846.038818,1.500195
-82.305908,1084.899902,851.898193,1.500934
-88.989258,1103.393555,861.785889,1.501673
-38.543701,1138.824463,827.911377,1.502412
-248.107910,1112.548828,825.439453,1.503161
-434.509277,1053.955078,792.663574,1.503900
-409.240723,1039.031982,764.831543,1.504639
-422.241211,1017.150879,759.979248,1.505378
-508.117676,1001.312256,791.931152,1.506126
-463.348389,989.685059,780.303955,1.506866
-418.853760,1000.671387,817.657471,1.507605
-459.594727,992.797852,838.165283,1.508345
-425.170898,1000.946045,866.271973,1.509094
-394.134521,996.643066,896.026611,1.509833
-398.345947,995.635986,901.702881,1.510572
-394.500732,985.565186,933.837891,1.511311
-370.788574,980.712891,948.120117,1.512058
-371.154785,962.768555,959.289551,1.512795
-375.183105,948.486328,965.789795,1.513543
-381.042480,914.703369,957.366943,1.514299
-396.972656,924.407959,951.416016,1.515030
-412.261963,888.427734,923.400879,1.515761
-418.579102,870.666504,882.293701,1.516491
-435.241699,831.756592,855.468750,1.517226
-417.022705,801.086426,794.403076,1.517957
-372.619629,796.691895,740.661621,1.518705
-307.800293,781.768799,717.041016,1.519445
-242.156982,773.895264,688.842773,1.520207
-237.854004,767.303467,700.744629,1.520947
-222.290039,763.275146,692.230225,1.521678
-213.500977,731.323242,693.969727,1.522409
-209.564209,729.766846,682.342529,1.523158
-198.211670,724.456787,676.849365,1.523889
-194.274902,709.167480,661.010742,1.524620
-192.352295,699.096680,646.179199,1.525350
-196.472168,688.110352,632.904053,1.526089
-207.824707,675.659180,612.579346,1.526819
-221.923828,671.997070,595.458984,1.527550
-233.367920,665.771484,576.690674,1.528280
-239.044189,658.447266,566.162109,1.529034
-238.952637,650.848389,546.752930,1.529773
-240.417480,655.883789,538.421631,1.530512
-228.973389,653.778076,530.090332,1.531252
-217.254639,647.644043,531.188965,1.532000
-208.007812,659.362793,516.174316,1.532767
-195.922852,663.665771,510.589600,1.533522
-181.549072,662.200928,507.110596,1.534286
-180.999756,674.102783,498.229980,1.535054
-177.612305,681.610107,467.468262,1.535813
-136.596680,679.046631,424.987793,1.536555
-51.086426,670.989990,412.170410,1.537296
-51.452637,661.010742,360.260010,1.538035
-35.430908,663.848877,310.546875,1.538775
-20.599365,671.356201,303.588867,1.539515
-7.781982,675.659180,289.947510,1.540255
-10.620117,679.870605,297.821045,1.540995
0.000000,689.483643,313.293457,1.541735
-9.979248,710.083008,358.428955,1.542475
-41.015625,729.217529,387.451172,1.543225
-82.305908,746.887207,453.826904,1.543966
-119.018555,757.690430,486.785889,1.544707
-147.125244,791.198730,515.991211,1.545447
-154.632568,806.579590,548.126221,1.546196
-195.373535,829.193115,559.478760,1.546937
-224.945068,839.996338,589.782715,1.547677
-245.819092,852.264404,592.895508,1.548418
-281.524658,852.630615,610.382080,1.549158
-298.004150,872.406006,619.079590,1.549909
-318.054199,872.039795,626.403809,1.550649
-326.019287,889.343262,634.918213,1.551389
-314.392090,900.054932,636.749268,1.552129
-306.976318,908.020020,645.538330,1.552880
-282.440186,920.379639,658.264160,1.553620
-291.412354,918.365479,673.370361,1.554360
-280.700684,929.718018,673.095703,1.555100
-274.383545,937.683105,690.399170,1.555849
-251.312256,946.197510,689.758301,1.556593
-239.959717,945.831299,694.244385,1.557333
-225.769043,953.887939,692.687988,1.558075
-215.423584,957.366943,676.666260,1.558826
-213.134766,960.754395,657.714844,1.559567
-201.416016,965.698242,645.721436,1.560308
-185.211182,968.627930,628.692627,1.561048
-181.182861,971.923828,616.882324,1.561638
-176.605225,979.339600,609.741211,1.562369
-165.985107,978.424072,613.952637,1.563099
-155.273438,979.980469,616.607666,1.563834
-159.118652,993.255615,622.558594,1.564582
-142.456055,1002.227783,638.671875,1.565321
-148.773193,1013.763428,652.587891,1.566060
-148.956299,1022.277832,668.518066,1.566805
-153.900146,1027.954102,675.842285,1.567556
-160.034180,1032.714844,700.927734,1.568295
-170.471191,1025.390625,698.272705,1.569034
-177.429199,1031.982422,719.055176,1.569774
-188.690186,1022.094727,720.703125,1.570613
-185.577393,1014.221191,722.717285,1.571353
-184.295654,1012.298584,728.668213,1.572092
-180.725098,1008.178711,739.837646,1.572831
-175.506592,1004.882812,736.724854,1.573570
-171.844482,1000.396729,731.781006,1.574309
-164.886475,995.635986,737.457275,1.575048
-157.745361,988.769531,721.343994,1.575787
-143.005371,971.649170,702.667236,1.576527
-146.301270,941.253662,678.588867,1.577266
-140.258789,949.768066,675.842285,1.578005
-137.420654,940.063477,655.059814,1.578756
-134.399414,933.013916,644.256592,1.579495
-127.258301,928.710938,621.368408,1.580235
-116.363525,929.351807,607.727051,1.580975
-131.927490,915.710449,608.642578,1.581715
-124.053955,911.865234,606.262207,1.582455
-128.082275,906.555176,601.867676,1.583194
-129.089355,906.921387,619.628906,1.583934
-123.321533,898.681641,625.946045,1.584673
-130.828857,895.843506,638.671875,1.585412
-121.948242,901.885986,645.904541,1.586151
-131.561279,901.885986,645.080566,1.586890
-144.927979,893.737793,651.397705,1.587630
-154.357910,881.011963,649.017334,1.588369
-166.900635,872.589111,639.221191,1.589108
-180.358887,856.750488,623.199463,1.589847
-190.887451,825.531006,602.416992,1.590587
-194.732666,826.446533,587.951660,1.591367
-204.254150,817.108154,580.078125,1.592131
-188.415527,818.115234,573.486328,1.592896
-180.908203,812.896729,580.352783,1.593662
-174.591064,805.480957,574.676514,1.594402
-168.365479,793.212891,579.437256,1.595141
-164.886475,782.501221,593.994141,1.595880
-169.830322,774.261475,593.170166,1.596630
-173.767090,767.852783,587.951660,1.597379
-182.098389,753.753662,585.479736,1.598130
-188.323975,753.479004,570.831299,1.598886
-204.437256,739.196777,543.090820,1.599656
-223.571777,724.365234,545.837402,1.600395
-223.480225,714.385986,536.132812,1.601135
-225.036621,718.963623,527.435303,1.601876
-227.325439,721.984863,527.984619,1.602630
-230.712891,718.414307,528.350830,1.603369
-219.909668,724.456787,520.843506,1.604108
-213.958740,726.837158,510.040283,1.604846
-210.754395,727.294922,510.589600,1.605593
-202.972412,737.640381,514.343262,1.606330
-201.141357,734.619141,496.398926,1.607092
-197.021484,738.189697,484.313965,1.607837
-196.380615,745.880127,484.130859,1.608578
-197.753906,748.443604,474.884033,1.609319
-191.986084,747.344971,468.658447,1.610059
-204.986572,750.549316,471.496582,1.610799
-198.120117,747.161865,470.123291,1.611540
-207.824707,742.858887,468.566895,1.612280
-197.296143,755.035400,489.807129,1.613019
-203.063965,754.394531,500.518799,1.613760
-209.197998,756.774902,520.294189,1.614502
-211.029053,768.310547,553.527832,1.615242
-212.402344,779.388428,567.718506,1.615983
-221.008301,782.501221,591.613770,1.616736
-225.952148,766.937256,595.458984,1.617476
-235.656738,780.212402,602.783203,1.618216
-236.297607,780.395508,584.655762,1.618956
-242.980957,782.684326,582.275391,1.619705
-245.086670,779.205322,566.253662,1.620446
-248.199463,752.014160,545.837402,1.621186
-231.536865,766.571045,544.555664,1.621927
-187.774658,774.261475,532.745361,1.622677
-189.605713,779.388428,535.858154,1.623418
-170.837402,779.663086,534.393311,1.624158
-147.766113,798.706055,544.921875,1.624899
-137.237549,812.622070,559.570312,1.625639
-124.237061,824.066162,576.965332,1.626370
-114.624023,835.235596,590.881348,1.627100
-134.216309,841.461182,628.875732,1.627831
-134.033203,852.630615,635.192871,1.628561
-136.505127,859.130859,645.721436,1.629311
-150.146484,875.701904,672.912598,1.630051
-148.132324,887.420654,698.638916,1.630790
-152.160645,879.913330,679.321289,1.631528
-155.456543,890.899658,685.180664,1.632278
-149.139404,892.089844,688.110352,1.633017
-148.773193,896.942139,692.047119,1.633756
-141.357422,889.892578,691.040039,1.634494
-120.025635,892.913818,698.364258,1.635243
-113.067627,889.617920,679.870605,1.635982
-102.172852,887.420654,675.018311,1.636720
-85.418701,878.723145,670.166016,1.637459
-79.559326,880.828857,665.130615,1.638208
-74.432373,870.666504,657.531738,1.638947
-69.671631,863.250732,664.855957,1.639686
-73.974609,869.567871,669.250488,1.640425
-73.974609,863.159180,649.383545,1.641276
-76.629639,847.778320,645.996094,1.642015
-75.622559,844.116211,640.869141,1.642755
-79.193115,835.784912,631.622314,1.643508
-72.143555,828.094482,614.044189,1.644248
-72.784424,800.628662,614.135742,1.644987
-67.291260,808.593750,607.635498,1.645726
-65.734863,803.649902,601.593018,1.646466
-62.530518,809.417725,605.072021,1.647205
-41.198730,794.311523,585.754395,1.647944
-44.036865,781.494141,585.388184,1.648683
-44.677734,787.261963,579.986572,1.649422
-31.585693,788.177490,558.288574,1.650161
-45.593262,780.853271,555.999756,1.650900
-46.051025,777.099609,546.112061,1.651638
-38.269043,764.556885,544.097900,1.652386
-56.854248,772.155762,533.843994,1.653125
-50.811768,761.077881,521.484375,1.653863
-54.290771,764.007568,504.821777,1.654603
-58.044434,764.465332,505.828857,1.655343
-54.840088,771.789551,499.328613,1.656082
-63.262939,771.514893,488.708496,1.656821
-59.875488,770.965576,477.081299,1.657560
-59.783936,793.029785,473.510742,1.658299
-64.819336,770.416260,465.270996,1.659037
-69.122314,776.092529,462.432861,1.659774
-64.270020,787.353516,460.968018,1.660524
-73.974609,787.536621,482.574463,1.661280
-80.383301,800.537109,458.038330,1.662011
-109.497070,811.157227,457.489014,1.662775
-115.814209,825.988770,470.214844,1.663536
-125.701904,837.615967,485.412598,1.664304
-141.998291,845.397949,488.342285,1.665035
-161.956787,860.046387,506.103516,1.665766
-163.696289,882.751465,511.779785,1.666496
-160.125732,886.322021,530.090332,1.667239
-169.555664,892.639160,534.027100,1.667991
-165.527344,892.913818,547.851562,1.668736
-184.020996,896.575928,543.273926,1.669499
-179.168701,896.209717,538.696289,1.670245
-184.570312,900.146484,539.794922,1.670985
-193.176270,894.104004,534.210205,1.671724
-208.557129,895.385742,523.956299,1.672463
-209.106445,893.188477,513.336182,1.673201
-225.494385,892.364502,507.110596,1.673940
-231.262207,896.759033,503.906250,1.674678
-239.044189,888.336182,491.180420,1.675417
-236.389160,902.893066,500.061035,1.676154
-240.325928,897.216797,494.293213,1.676890
-236.663818,896.118164,489.624023,1.677656
-251.861572,909.118652,483.123779,1.678439
-245.727539,912.414551,485.137939,1.679179
-243.713379,925.964355,488.159180,1.679919
-251.953125,920.745850,474.517822,1.680660
-252.319336,924.224854,470.855713,1.681423
-253.692627,929.260254,469.390869,1.682166
-251.770020,929.260254,468.200684,1.682906
-253.417969,946.197510,470.214844,1.683646
-269.989014,937.500000,468.383789,1.684399
-269.073486,951.141357,468.200684,1.685139
-262.207031,951.690674,478.271484,1.685879
-271.362305,947.479248,482.757568,1.686619
-271.636963,961.212158,468.566895,1.687368
-278.869629,959.472656,469.665527,1.688108
-278.411865,953.613281,469.848633,1.688848
-281.890869,953.338623,473.419189,1.689587
-292.694092,945.739746,471.496582,1.690336
-291.137695,945.190430,449.981689,1.691075
-290.039062,940.063477,453.460693,1.691815
-287.841797,939.605713,440.643311,1.692554
-284.362793,933.471680,433.868408,1.693303
-283.172607,932.739258,433.959961,1.694043
-275.390625,920.928955,425.354004,1.694783
-270.721436,915.527344,423.797607,1.695523
-262.115479,909.210205,419.860840,1.696263
-253.051758,906.555176,417.114258,1.696994
-249.389648,905.548096,419.403076,1.697724
-244.720459,893.463135,413.085938,1.698454
-236.572266,899.414062,415.191650,1.699194
-234.375000,890.350342,413.635254,1.699932
-220.184326,885.314941,401.092529,1.700671
-220.092773,887.145996,407.867432,1.701409
-210.937500,882.385254,401.733398,1.702149
-197.570801,868.286133,400.543213,1.702888
-189.514160,878.356934,409.240723,1.703626
-194.458008,886.322021,412.536621,1.704365
-161.224365,878.173828,420.410156,1.705113
-165.069580,882.385254,438.720703,1.705849
-160.766602,883.758545,448.150635,1.706586
-148.590088,904.083252,458.953857,1.707322
-143.463135,903.259277,465.820312,1.708075
-143.096924,900.970459,474.609375,1.708815
-130.096436,922.943115,483.489990,1.709554
-139.801025,930.267334,486.419678,1.710292
-136.688232,932.006836,488.891602,1.711032
-152.893066,932.739258,498.779297,1.711771
-153.167725,936.859131,515.350342,1.712605
-153.259277,931.274414,522.308350,1.713345
-148.681641,938.873291,523.223877,1.714097
-120.117188,952.972412,528.442383,1.714836
-121.948242,963.134766,530.639648,1.715575
-119.659424,966.339111,533.203125,1.716314
-106.292725,972.930908,541.259766,1.717001
-93.841553,973.388672,543.273926,1.717740
-116.271973,978.790283,554.718018,1.718478
-86.883545,985.198975,556.915283,1.719217
-80.657959,998.840332,566.253662,1.719923
-78.735352,1004.699707,565.795898,1.720662
-77.911377,1009.918213,568.542480,1.721400
-67.108154,1036.743164,578.796387,1.722139
-83.129883,1035.003662,589.233398,1.722887
-76.812744,1048.004150,593.536377,1.723627
-70.587158,1055.511475,618.804932,1.724365
-77.545166,1059.539795,621.826172,1.725104
-72.509766,1056.427002,617.889404,1.725852
-83.221436,1066.680908,620.544434,1.726591
-68.206787,1060.821533,620.452881,1.727330
-67.199707,1055.145264,615.509033,1.728069
-56.762695,1065.032959,599.212646,1.728817
-65.460205,1045.898438,603.698730,1.729556
-59.692383,1051.025391,572.662354,1.730298
-57.403564,1074.005127,565.887451,1.731037
-77.636719,1053.680420,575.042725,1.731789
-41.107178,1035.278320,566.619873,1.732526
-70.312500,1019.165039,549.499512,1.733297
-57.220459,1022.827148,557.281494,1.734055
-72.509766,1033.538818,563.507080,1.734821
-57.495117,1031.890869,555.358887,1.735569
-43.487549,1022.552490,549.682617,1.736307
-66.192627,1026.855469,550.689697,1.737058
-58.502197,1025.299072,572.479248,1.737797
-57.861328,1018.341064,598.480225,1.738536
-58.319092,1036.010742,592.254639,1.739283
-70.495605,1033.172607,595.184326,1.740037
-54.199219,1011.383057,592.346191,1.740783
-71.685791,1004.150391,571.014404,1.741545
-81.298828,1003.509521,562.591553,1.742289
-73.425293,1003.509521,546.661377,1.743028
-100.616455,987.121582,548.217773,1.743766
-98.052979,977.233887,538.879395,1.744504
-90.270996,957.183838,520.751953,1.745242
-109.497070,923.675537,503.723145,1.745978
-88.256836,919.097900,489.166260,1.746716
-92.742920,901.611328,469.024658,1.747452
-99.884033,895.935059,438.171387,1.748189
-67.291260,882.476807,407.318115,1.748978
-79.833984,877.258301,397.338867,1.749721
-82.855225,846.954346,388.916016,1.750462
-84.228516,823.242188,376.373291,1.751202
-100.616455,816.833496,361.816406,1.751948
-107.391357,814.727783,354.858398,1.752688
-95.855713,818.756104,362.365723,1.753428
-95.489502,816.741943,353.576660,1.754168
-88.073730,820.861816,347.900391,1.754918
-100.891113,814.910889,347.259521,1.755658
-77.545166,805.114746,339.477539,1.756397
-93.933105,801.910400,338.104248,1.757137
-97.869873,805.206299,336.822510,1.757886
-93.841553,803.741455,341.308594,1.758627
-100.708008,816.741943,330.322266,1.759366
-124.969482,819.213867,328.125000,1.760106
-144.744873,802.734375,332.336426,1.760856
-186.218262,755.126953,354.400635,1.761596
-185.943604,456.848145,390.838623,1.762336
-248.657227,583.190918,438.171387,1.763076
29.663086,627.502441,299.102783,1.763786
-149.597168,722.259521,242.156982,1.764526
-57.220459,685.180664,232.818604,1.765265
-66.101074,681.335449,208.190918,1.766005
-40.740967,703.033447,187.866211,1.766745
-72.601318,712.921143,189.239502,1.767476
-10.803223,742.858887,163.055420,1.768206
-27.648926,721.710205,170.928955,1.768937
-62.988281,757.049561,170.013428,1.769687
12.268066,790.466309,145.111084,1.770427
-20.141602,791.381836,115.631104,1.771166
-30.212402,752.838135,129.821777,1.771905
4.760742,778.106689,137.786865,1.772660
-14.556885,794.586182,119.476318,1.773399
-32.958984,789.276123,126.342773,1.774138
-10.070801,773.803711,137.969971,1.774877
-5.676270,784.698486,130.920410,1.775626
-42.205811,789.184570,130.004883,1.776365
-24.719238,786.712646,127.532959,1.777103
-24.444580,782.958984,142.730713,1.777841
-59.783936,784.423828,163.146973,1.778590
-60.424805,788.543701,187.774658,1.779329
-55.480957,790.008545,191.619873,1.780068
-103.363037,798.339844,236.114502,1.780806
-69.946289,816.833496,271.820068,1.781554
-4.119873,888.153076,273.925781,1.782293
-8.148193,917.266846,316.223145,1.783031
37.353516,922.760010,349.639893,1.783868
41.839600,929.534912,353.485107,1.784537
13.183594,923.400879,364.013672,1.785276
30.395508,921.478271,369.689941,1.786015
46.234131,943.450928,353.302002,1.786753
15.380859,975.219727,335.723877,1.787502
5.035400,1000.213623,332.977295,1.788241
-30.578613,1022.735596,330.413818,1.788979
-74.066162,1011.199951,352.752686,1.789718
-109.313965,1008.544922,384.704590,1.790466
-152.801514,991.790771,434.143066,1.791205
-172.027588,977.691650,677.947998,1.791944
-126.251221,1028.045654,777.008057,1.792682
46.051025,1089.843750,811.157227,1.793430
-40.374756,1100.830078,790.832520,1.794169
-110.961914,1160.888672,779.846191,1.794907
-22.979736,1176.452637,807.678223,1.795646
-53.375244,1187.347412,817.016602,1.796394
-63.995361,1220.581055,804.748535,1.797133
-36.621094,1221.862793,835.601807,1.797871
-52.276611,1227.722168,844.116211,1.798610
-68.023682,1232.757568,842.376709,1.799358
-31.036377,1243.743896,839.263916,1.800097
-43.579102,1245.025635,853.820801,1.800835
-49.713135,1239.624023,854.370117,1.801574
-46.234131,1244.476318,840.820312,1.802320
-45.318604,1234.497070,845.489502,1.803057
-38.818359,1229.827881,837.890625,1.803794
-24.444580,1212.066650,802.185059,1.804565
-31.585693,1182.220459,788.269043,1.805329
-10.803223,1183.593750,757.415771,1.806091
-16.937256,1154.479980,714.843750,1.806842
-50.994873,1114.471436,667.510986,1.807586
-70.129395,1099.365234,644.439697,1.808318
-123.687744,1054.595947,617.065430,1.809049
-133.941650,1011.474609,581.085205,1.809808
-170.104980,993.164062,571.472168,1.810591
-183.013916,990.509033,532.928467,1.811345
-180.541992,973.846436,515.441895,1.812081
-158.752441,977.325439,505.462646,1.812812
-157.745361,950.683594,487.243652,1.813563
-149.597168,920.745850,459.411621,1.814296
-110.961914,925.781250,458.404541,1.815026
-106.750488,905.181885,416.931152,1.815757
-88.439941,885.772705,377.929688,1.816448
-83.404541,864.257812,395.233154,1.817187
-79.101562,864.074707,378.936768,1.817925
-74.707031,844.848633,378.479004,1.818665
-87.707520,817.382812,378.936768,1.819413
-75.164795,810.882568,333.343506,1.820172
-80.200195,785.705566,303.314209,1.820915
-91.827393,773.620605,314.483643,1.821655
-69.213867,750.457764,316.955566,1.822407
-73.516846,745.880127,307.342529,1.823147
-85.235596,729.217529,294.708252,1.823887
-70.404053,713.745117,284.454346,1.824627
-92.651367,747.528076,275.756836,1.825281
-93.933105,744.049072,230.895996,1.826021
-68.847656,737.640381,220.733643,1.826760
-96.038818,708.801270,235.198975,1.827501
-73.425293,692.230225,225.769043,1.828254
-91.278076,691.223145,212.860107,1.828994
-92.010498,685.729980,185.577393,1.829733
-67.474365,690.032959,167.724609,1.830473
-61.798096,680.328369,146.667480,1.831223
-64.086914,675.659180,127.166748,1.831962
-43.304443,675.842285,129.638672,1.832702
-39.825439,660.736084,114.715576,1.833441
-34.606934,647.094727,113.708496,1.834190
-18.676758,627.227783,117.645264,1.834930
-9.429932,617.340088,112.335205,1.835670
12.268066,628.143311,94.482422,1.836410
-0.915527,631.439209,81.665039,1.837149
9.521484,630.889893,89.263916,1.837881
20.416260,626.770020,69.213867,1.838611
16.937256,650.665283,74.615479,1.839341
19.866943,641.693115,64.361572,1.840093
22.979736,663.208008,31.951904,1.840832
27.648926,661.285400,24.993896,1.841570
28.381348,657.073975,17.303467,1.842308
22.247314,700.012207,-5.676270,1.843053
18.035889,732.788086,-23.071289,1.843791
9.429932,760.894775,-59.509277,1.844529
26.092529,770.782471,-39.916992,1.845267
17.852783,766.021729,-45.135498,1.846023
10.345459,774.444580,-66.925049,1.846774
3.295898,771.514893,-75.988770,1.847515
9.979248,777.008057,-85.327148,1.848253
7.598877,788.726807,-99.151611,1.849009
-5.035400,795.959473,-87.158203,1.849749
6.958008,806.121826,-78.918457,1.850486
-2.380371,816.009521,-37.719727,1.851225
8.697510,836.608887,1.190186,1.851974
4.486084,858.398438,67.565918,1.852712
-2.197266,875.610352,100.158691,1.853451
-23.986816,889.068604,146.667480,1.854190
-19.042969,893.096924,147.491455,1.854941
18.859863,898.681641,130.004883,1.855680
6.958008,896.850586,104.187012,1.856510
49.255371,848.327637,79.467773,1.857250
52.917480,852.539062,78.186035,1.858001
-92.285156,886.047363,86.334229,1.858740
-74.340820,877.166748,13.916016,1.859479
68.939209,766.754150,21.606445,1.860217
423.980713,785.888672,27.832031,1.860966
42.297363,832.946777,9.063721,1.861705
-516.998291,722.442627,-0.457764,1.862443
-73.150635,872.589111,-72.418213,1.863182
-292.602539,905.273438,-82.672119,1.863930
-235.198975,895.294189,-123.870850,1.864670
-137.603760,911.041260,-168.182373,1.865409
-395.050049,866.088867,-192.535400,1.866147
-259.460449,846.221924,-237.121582,1.866896
-281.250000,829.467773,-281.066895,1.867635
-347.900391,830.291748,-277.954102,1.868374
-319.885254,825.714111,-307.708740,1.869112
-304.595947,835.876465,-314.025879,1.869860
-325.103760,836.700439,-341.857910,1.870599
-315.399170,838.806152,-367.767334,1.871338
-318.054199,845.123291,-391.296387,1.872077
-307.434082,863.525391,-423.614502,1.872825
-284.637451,874.420166,-455.383301,1.873564
-147.766113,929.901123,-485.412598,1.874303
-146.118164,932.922363,-513.793945,1.875042
-221.832275,872.131348,-520.019531,1.875819
-307.342529,865.447998,-520.477295,1.876582
-306.427002,877.349854,-515.533447,1.877335
-343.322754,894.287109,-525.054932,1.878099
-337.738037,904.449463,-540.344238,1.878838
-642.700195,778.656006,-540.344238,1.879576
-1059.356689,885.406494,-510.772705,1.880315
-544.464111,961.212158,-515.991211,1.881065
241.973877,641.510010,-500.701904,1.881804
172.576904,1239.990234,-298.828125,1.882543
-264.862061,1016.601562,-248.016357,1.883304
36.254883,1058.349609,-208.831787,1.884084
-226.593018,1045.532227,-140.350342,1.884847
-206.634521,968.444824,-106.750488,1.885592
0.091553,1110.168457,-86.425781,1.886331
-162.139893,1007.537842,-34.881592,1.887084
-88.714600,1028.045654,-48.339844,1.887824
-141.998291,1196.685791,-30.944824,1.888563
-169.738770,1325.500488,-22.064209,1.889301
1.739502,1230.377197,-2.380371,1.889967
-228.240967,1307.464600,31.768799,1.890703
-178.070068,1314.147949,42.297363,1.891440
-118.286133,1353.698730,69.488525,1.892177
-253.967285,1284.576416,133.483887,1.892936
-137.329102,1319.732666,269.439697,1.893680
-205.718994,1355.621338,337.829590,1.894420
-238.861084,1382.995605,423.706055,1.895160
-205.627441,1330.627441,492.553711,1.895913
-124.420166,1302.062988,557.373047,1.896655
-298.919678,565.063477,1757.537842,1.897396
-1582.122803,1297.668457,1885.711670,1.898139
-1265.075684,1674.591064,1701.416016,1.898914
-97.961426,1730.529785,1158.050537,1.899656
321.899414,1875.183105,1135.070801,1.900396
-719.421387,1753.234863,1254.089355,1.901136
-744.964600,1708.099365,1203.369141,1.901886
-480.926514,1710.754395,990.966797,1.902627
-523.681641,1769.805908,1116.668701,1.903367
1426.757812,1867.401123,1179.656982,1.904107
1962.249756,1578.643799,1216.369629,1.904737
-74.066162,1528.472900,1129.119873,1.905477
-1005.981445,1617.828369,1099.822998,1.906217
-1056.518555,1643.188477,1025.299072,1.906957
-867.187500,1578.735352,975.219727,1.907708
-341.857910,1585.327148,839.630127,1.908448
742.401123,1573.516846,779.022217,1.909189
473.693848,1466.491699,645.721436,1.909932
53.100586,1365.966797,498.321533,1.910683
-417.480469,1325.317383,429.840088,1.911415
-151.611328,1247.589111,294.250488,1.912146
35.064697,1226.531982,184.478760,1.912877
43.853760,1173.889160,126.342773,1.913631
-97.503662,1113.555908,11.169434,1.914371
-254.150391,1077.758789,-36.437988,1.915109
-225.036621,1060.546875,-165.435791,1.915848
-164.337158,1052.856445,-222.839355,1.916595
-63.812256,1046.813965,-241.241455,1.917334
-36.254883,1015.319824,-258.087158,1.918073
-54.016113,997.924805,-251.312256,1.918812
-23.254395,956.634521,-234.100342,1.919561
18.402100,952.514648,-197.204590,1.920300
132.659912,957.733154,-178.161621,1.921038
149.780273,959.838867,-131.744385,1.921777
126.708984,964.324951,-117.828369,1.922528
97.778320,943.725586,-134.857178,1.923266
107.482910,928.070068,-178.710938,1.924004
8.239746,895.568848,-192.077637,1.924743
-236.206055,872.680664,-217.163086,1.925490
-266.967773,879.638672,-264.404297,1.926365
-190.979004,886.779785,-306.427002,1.927106
-54.840088,914.520264,-313.751221,1.927845
35.430908,953.430176,-341.583252,1.928585
82.031250,962.493896,-323.364258,1.929323
111.511230,929.992676,-318.420410,1.930061
127.899170,871.124268,-309.906006,1.930800
50.170898,829.925537,-303.588867,1.931539
-83.312988,804.290771,-298.461914,1.932277
-80.841064,813.903809,-344.329834,1.933016
-40.191650,842.193604,-361.907959,1.933768
-471.771240,862.792969,-306.427002,1.934508
-397.247314,896.301270,-185.668945,1.935246
450.347900,991.333008,65.093994,1.935985
588.043213,1118.774414,157.470703,1.936724
188.507080,1150.726318,161.224365,1.937471
-192.260742,1114.196777,126.892090,1.938209
-154.724121,1097.991943,4.852295,1.938948
44.036865,1104.400635,-47.241211,1.939687
64.544678,1059.448242,-120.758057,1.940435
-128.997803,1060.638428,-159.942627,1.941174
-386.444092,1027.679443,-186.035156,1.941912
-331.695557,1038.391113,-195.556641,1.942650
49.255371,1049.194336,-212.310791,1.943398
184.936523,1068.603516,-200.500488,1.944137
81.939697,1061.920166,-188.323975,1.944875
-79.925537,1029.052734,-214.782715,1.945614
-69.580078,1001.312256,-289.489746,1.946360
-9.338379,983.825684,-332.519531,1.947097
193.817139,997.650146,-386.718750,1.947833
1001.037598,1032.348633,-27.191162,1.948609
610.931396,1018.432617,240.234375,1.949368
-809.417725,1105.682373,221.832275,1.950133
-429.565430,1173.248291,169.738770,1.950876
191.162109,1213.989258,109.588623,1.951637
-10.803223,1212.890625,60.424805,1.952374
-657.440186,1130.126953,48.522949,1.953110
-709.259033,1021.362305,3.112793,1.953855
-136.047363,1142.669678,-99.060059,1.954612
430.664062,1116.210938,-128.173828,1.955343
241.882324,1024.932861,-182.281494,1.956074
1.190186,994.079590,-208.282471,1.956804
-160.308838,945.098877,-332.519531,1.957546
21.972656,984.008789,-510.864258,1.958277
458.404541,965.606689,-580.261230,1.959007
162.048340,927.886963,-705.413818,1.959737
-437.164307,909.210205,-651.214600,1.960412
-1256.011963,781.677246,-255.615234,1.961161
-561.035156,1001.495361,-7.965088,1.961897
820.770264,1199.981689,-4.669189,1.962663
188.690186,1035.278320,-15.747070,1.963412
-992.248535,987.854004,-59.234619,1.964150
-403.839111,1059.814453,-208.465576,1.964889
189.788818,1115.661621,-282.806396,1.965628
477.905273,1126.464844,-473.144531,1.966364
186.309814,1025.665283,-684.997559,1.967101
-252.685547,935.760498,-769.042969,1.967838
814.086914,939.147949,-588.134766,1.968607
1467.864990,863.891602,-266.326904,1.969346
523.498535,835.418701,-189.147949,1.970082
-820.037842,1061.737061,-9.887695,1.970833
-1371.093750,1182.586670,174.041748,1.971570
-1515.197754,1231.933594,94.757080,1.972327
-1345.642090,1194.946289,12.817383,1.973069
-1205.841064,1168.579102,-78.826904,1.973808
-930.725098,1089.202881,-162.689209,1.974443
-333.435059,1073.364258,-198.120117,1.975182
2190.032959,1358.276367,-110.504150,1.975921
2999.908447,2861.480713,2999.908447,1.976660
2999.908447,2999.908447,2999.908447,1.977410
2999.908447,2999.908447,2999.908447,1.978149
2496.826172,2999.908447,-562.774658,1.978889
-1846.069336,1604.827881,-2634.063721,1.979628
-1396.087646,-171.752930,-2638.549805,1.980387
-809.234619,-326.934814,-2137.115479,1.981127
-1472.167969,-201.049805,-2044.830322,1.981867
-2022.674561,686.553955,-577.697754,1.982607
-538.513184,1070.709229,765.655518,1.983353
1779.510498,1688.873291,1310.577393,1.984104
1027.038574,1437.835693,44.586182,1.984844
-502.166748,1071.716309,-319.427490,1.985584
-1030.975342,568.450928,-917.266846,1.986335
-1068.603516,569.274902,-886.779785,1.987075
-489.898682,820.220947,-509.582520,1.987815
151.519775,1095.886230,-61.523438,1.988555
557.189941,1135.711670,-117.004395,1.989296
104.095459,963.867188,-344.970703,1.990026
-49.438477,846.221924,-663.940430,1.990757
-364.013672,716.949463,-756.683350,1.991488
-407.867432,753.112793,-460.510254,1.992237
-342.407227,827.545166,-227.691650,1.992976
-159.942627,994.720459,42.022705,1.993714
-55.755615,1066.223145,-119.934082,1.994453
-179.351807,1044.891357,-217.529297,1.995095
-150.604248,912.231445,-450.897217,1.995945
-76.446533,901.794434,-439.086914,1.996686
9.338379,907.012939,-332.061768,1.997438
45.135498,928.619385,-225.128174,1.998175
12.725830,986.846924,-199.676514,1.998924
-101.898193,1004.882812,-215.423584,1.999663
-172.302246,1001.037598,-301.757812,2.000412
-224.029541,966.156006,-324.188232,2.001151
-218.719482,966.064453,-259.460449,2.001889
-256.072998,985.198975,-200.958252,2.002627
-282.623291,999.481201,-191.986084,2.003376
-258.636475,946.655273,-294.067383,2.004115
-218.627930,944.549561,-322.906494,2.004853
-186.309814,935.028076,-300.018311,2.005593
-148.498535,941.802979,-248.291016,2.006366
-183.837891,981.719971,-205.902100,2.007127
-193.725586,1006.713867,-169.372559,2.007921
-184.661865,1011.291504,-179.351807,2.008687
-183.471680,1012.481689,-162.597656,2.009476
-127.258301,1004.058838,-176.513672,2.010235
-54.016113,956.726074,-289.306641,2.010991
-61.706543,950.042725,-266.967773,2.011752
-45.043945,967.712402,-200.042725,2.012543
-44.952393,991.149902,-143.188477,2.013301
-73.059082,969.909668,-209.381104,2.014053
-133.392334,957.550049,-258.544922,2.014823
-123.687744,929.809570,-270.629883,2.015583
-137.878418,961.669922,-256.256104,2.016334
-115.905762,990.509033,-167.633057,2.017166
-109.863281,971.923828,-177.337646,2.017964
-97.595215,944.641113,-187.042236,2.018715
-100.982666,929.901123,-244.903564,2.019454
-110.504150,928.802490,-272.644043,2.020212
-136.688232,927.978516,-287.475586,2.020950
-145.019531,940.155029,-227.874756,2.021689
-171.295166,950.775146,-204.803467,2.022431
-179.077148,966.064453,-195.922852,2.023201
-151.153564,959.197998,-254.699707,2.023948
-122.497559,935.119629,-286.743164,2.024694
-105.194092,914.611816,-327.392578,2.025432
-43.029785,912.597656,-298.095703,2.026206
-20.050049,919.006348,-288.848877,2.026949
-11.260986,940.795898,-290.222168,2.027688
-61.981201,930.267334,-307.067871,2.028427
-97.869873,932.464600,-300.659180,2.029163
-149.414062,926.971436,-290.679932,2.029900
-170.196533,919.006348,-290.222168,2.030656
-161.956787,931.915283,-290.130615,2.031416
-164.886475,929.992676,-291.229248,2.032155
-131.378174,931.274414,-287.292480,2.032893
-151.702881,925.964355,-305.969238,2.033632
-351.470947,932.373047,-333.068848,2.034383
-466.827393,955.718994,-252.593994,2.035122
-474.426270,957.092285,-187.408447,2.035862
-373.260498,973.663330,-189.422607,2.036600
-346.893311,961.669922,-285.369873,2.037352
-250.030518,930.267334,-298.553467,2.038091
-154.083252,930.084229,-284.545898,2.038830
-100.708008,938.690186,-286.285400,2.039569
-83.404541,951.507568,-289.581299,2.040318
-93.200684,951.324463,-298.828125,2.041057
-110.229492,953.521729,-278.594971,2.041796
-102.539062,980.712891,-239.776611,2.042535
-133.026123,988.311768,-234.466553,2.043274
-189.239502,992.706299,-245.269775,2.044013
-202.880859,1028.320312,-221.923828,2.044752
-232.269287,1021.820068,-207.733154,2.045491
-218.078613,1032.165527,-202.514648,2.046223
-195.098877,1028.228760,-225.860596,2.046953
-140.991211,1009.735107,-221.282959,2.047699
-78.918457,1009.918213,-227.050781,2.048431
-58.502197,1010.375977,-253.967285,2.049171
-65.551758,1001.403809,-247.924805,2.049902
-86.425781,996.002197,-262.939453,2.050633
-118.011475,989.593506,-258.911133,2.051363
-160.125732,984.558105,-266.693115,2.052104
-154.998779,986.206055,-241.790771,2.052842
-135.955811,979.064941,-240.234375,2.053581
-132.568359,970.916748,-251.037598,2.054320
-123.138428,975.219727,-248.474121,2.055059
-125.518799,971.740723,-252.319336,2.055797
-109.222412,954.986572,-283.264160,2.056586
-77.270508,956.909180,-280.426025,2.057356
-73.974609,964.233398,-277.313232,2.058107
-110.595703,957.458496,-271.453857,2.058840
-134.307861,967.620850,-255.065918,2.059622
-151.885986,965.881348,-285.644531,2.060364
-155.731201,979.064941,-305.145264,2.061105
-132.385254,973.388672,-304.779053,2.061845
-89.813232,973.205566,-293.884277,2.062598
-35.339355,980.987549,-280.059814,2.063339
-16.113281,974.212646,-276.306152,2.064079
-0.274658,982.727051,-251.861572,2.064819
-68.389893,990.783691,-227.325439,2.065571
-75.988770,994.903564,-261.199951,2.066445
-107.666016,983.001709,-283.630371,2.067185
-114.074707,984.741211,-275.024414,2.067926
-88.348389,997.924805,-228.515625,2.068669
-51.086426,1035.003662,-210.021973,2.069400
-23.529053,1026.580811,-238.037109,2.070178
-37.994385,986.663818,-326.660156,2.070921
-94.573975,983.734131,-328.857422,2.071662
-58.319092,988.220215,-261.840820,2.072402
-38.360596,1005.706787,-188.598633,2.073142
-19.775391,1016.052246,-210.754395,2.073895
-25.085449,996.826172,-272.918701,2.074626
-84.869385,989.135742,-311.096191,2.075356
-113.800049,979.156494,-318.695068,2.076087
-98.785400,984.832764,-310.546875,2.076820
-47.698975,989.410400,-293.701172,2.077553
-21.606445,1013.580322,-232.543945,2.078284
20.416260,1021.820068,-221.191406,2.079015
-4.211426,997.375488,-297.454834,2.079750
-63.354492,963.958740,-336.090088,2.080491
-122.497559,964.691162,-290.588379,2.081231
-75.347900,1011.657715,-231.353760,2.081972
-66.925049,1016.326904,-234.924316,2.082712
-44.494629,989.501953,-292.785645,2.083452
-53.558350,983.825684,-321.807861,2.084193
-65.460205,972.656250,-317.779541,2.084960
-70.312500,963.958740,-351.654053,2.085763
