ACC_X,ACC_Y,ACC_Z,Time
100.067139,869.201660,479.553223,0.000130
96.771240,871.490479,480.010986,0.000883
93.658447,874.145508,475.524902,0.001643
92.285156,873.229980,471.405029,0.002385
88.348389,877.624512,473.785400,0.003127
84.228516,871.307373,475.433350,0.003867
79.101562,873.504639,480.285645,0.004619
79.742432,874.511719,473.144531,0.005360
75.073242,872.589111,472.137451,0.006101
83.221436,874.969482,468.750000,0.006841
76.354980,876.525879,465.362549,0.007582
75.897217,876.342773,472.961426,0.008314
80.017090,884.033203,472.045898,0.009045
74.707031,874.237061,461.334229,0.009776
73.608398,881.103516,465.362549,0.010531
71.685791,877.716064,463.439941,0.011273
68.206787,877.258301,463.714600,0.012014
65.093994,877.624512,464.813232,0.012756
47.515869,867.462158,458.496094,0.013507
72.418213,876.708984,461.883545,0.014248
66.101074,877.441406,469.207764,0.014989
60.699463,868.652344,466.003418,0.015730
59.051514,875.976562,457.946777,0.016481
66.375732,871.398926,459.320068,0.017222
65.093994,868.377686,462.066650,0.017963
67.199707,873.138428,457.855225,0.018705
60.791016,882.476807,457.489014,0.019445
63.171387,885.406494,460.510254,0.020177
61.981201,876.342773,464.080811,0.020908
68.481445,880.554199,465.270996,0.021639
71.502686,870.208740,457.031250,0.022391
70.129395,882.385254,459.411621,0.023130
69.946289,878.540039,457.672119,0.023869
80.566406,876.983643,466.735840,0.024609
72.967529,873.229980,472.229004,0.025358
68.298340,877.990723,467.376709,0.026097
73.791504,880.187988,466.735840,0.026836
78.369141,881.744385,470.947266,0.027575
77.087402,874.328613,462.799072,0.028323
72.601318,877.258301,467.010498,0.029062
76.904297,882.110596,462.615967,0.029801
73.242188,881.652832,473.510742,0.030539
87.799072,879.730225,447.418213,0.031288
85.510254,888.977051,473.602295,0.032028
81.390381,880.645752,474.243164,0.032767
85.327148,879.364014,471.679688,0.033506
85.968018,881.744385,470.306396,0.034254
91.094971,882.385254,469.024658,0.034993
94.665527,878.723145,472.595215,0.035732
92.651367,874.328613,467.651367,0.036479
100.341797,868.286133,466.552734,0.037233
90.820312,871.124268,464.447021,0.037974
99.609375,863.525391,460.601807,0.038715
105.377197,867.004395,463.897705,0.039456
105.194092,867.919922,466.369629,0.040206
102.447510,866.729736,459.777832,0.040947
108.306885,851.806641,460.144043,0.041687
107.025146,846.862793,452.453613,0.042428
106.109619,844.757080,454.650879,0.043168
108.764648,850.067139,449.890137,0.043900
106.018066,854.095459,449.066162,0.044630
107.299805,848.419189,426.544189,0.045388
108.764648,845.581055,442.291260,0.046140
105.102539,843.109131,449.890137,0.046881
111.419678,847.595215,453.918457,0.047621
115.905762,846.313477,447.601318,0.048362
122.222900,845.397949,452.362061,0.049112
120.574951,834.045410,452.087402,0.049852
122.131348,830.291748,447.784424,0.050592
119.018555,835.144043,461.608887,0.051333
111.511230,835.510254,448.150635,0.052073
112.609863,829.284668,450.164795,0.052803
106.018066,817.108154,445.587158,0.053534
112.243652,832.580566,451.538086,0.054264
102.905273,825.531006,446.868896,0.055018
114.807129,843.933105,457.672119,0.055759
111.419678,839.813232,459.228516,0.056500
97.869873,842.468262,459.777832,0.057240
97.137451,845.214844,462.890625,0.057990
95.855713,847.137451,454.742432,0.058731
109.405518,856.384277,466.094971,0.059471
101.348877,854.736328,466.827393,0.060211
96.862793,850.708008,468.475342,0.060960
98.785400,852.630615,473.144531,0.061701
97.412109,860.046387,476.531982,0.062442
90.087891,868.652344,478.820801,0.063182
90.545654,860.504150,474.243164,0.063923
88.348389,855.560303,470.397949,0.064655
85.418701,870.574951,467.834473,0.065405
87.432861,858.398438,476.257324,0.066176
87.066650,852.813721,467.651367,0.066974
86.700439,861.145020,472.595215,0.067735
79.193115,852.905273,451.629639,0.068497
84.503174,857.391357,457.214355,0.069250
78.918457,846.679688,452.728271,0.070032
77.362061,851.348877,461.883545,0.070806
77.636719,860.778809,461.242676,0.071611
75.531006,868.377686,454.376221,0.072411
83.770752,872.406006,467.285156,0.073200
81.756592,866.363525,472.320557,0.074123
69.854736,868.835449,479.461670,0.074902
67.108154,860.595703,481.475830,0.075665
66.650391,866.546631,482.757568,0.076417
68.756104,863.983154,473.510742,0.077166
68.572998,847.961426,472.503662,0.077918
64.361572,864.898682,470.397949,0.078669
59.967041,870.117188,456.756592,0.079414
60.333252,866.821289,455.749512,0.080162
55.572510,859.588623,456.573486,0.080942
60.607910,862.335205,456.390381,0.081764
55.938721,859.039307,458.221436,0.082549
57.128906,857.208252,454.467773,0.083300
61.981201,859.680176,451.538086,0.084072
59.692383,858.673096,452.911377,0.084818
61.981201,869.110107,455.200195,0.085562
66.650391,859.680176,454.284668,0.086329
64.910889,866.180420,459.320068,0.087084
69.488525,861.145020,462.249756,0.087829
59.417725,856.933594,468.017578,0.088570
56.762695,850.982666,466.186523,0.089324
61.614990,854.827881,469.573975,0.090066
63.903809,860.321045,465.454102,0.090807
63.995361,871.215820,466.186523,0.091547
62.530518,863.250732,461.883545,0.092295
71.868896,863.983154,464.447021,0.093026
65.551758,858.215332,461.242676,0.093757
70.953369,862.884521,463.439941,0.094487
67.016602,854.919434,459.503174,0.095229
71.868896,853.088379,452.178955,0.095969
81.481934,848.052979,453.186035,0.096710
83.770752,848.052979,439.270020,0.097450
91.735840,855.651855,444.946289,0.098191
93.658447,851.531982,445.129395,0.098931
90.545654,844.665527,441.833496,0.099672
93.383789,849.060059,426.635742,0.100413
85.235596,845.581055,449.432373,0.101164
90.454102,846.313477,446.044922,0.101905
91.369629,851.348877,451.538086,0.102645
89.630127,850.891113,445.220947,0.103385
95.581055,864.807129,447.052002,0.104132
96.130371,860.687256,459.686279,0.104863
91.278076,862.701416,461.791992,0.105593
101.898193,862.884521,466.644287,0.106323
98.785400,863.708496,468.658447,0.107056
98.876953,856.201172,489.074707,0.107797
107.025146,865.173340,472.045898,0.108538
102.172852,863.250732,467.834473,0.109278
107.025146,864.440918,467.193604,0.110019
106.109619,867.645264,464.813232,0.110762
107.025146,869.110107,468.383789,0.111503
97.320557,867.828369,463.073730,0.112244
106.567383,863.983154,469.024658,0.112985
111.785889,871.490479,467.010498,0.113717
110.046387,880.645752,465.179443,0.114448
107.574463,870.025635,462.982178,0.115178
105.285645,880.004883,466.369629,0.115909
102.081299,872.863770,462.249756,0.116661
103.271484,878.265381,467.834473,0.117401
97.412109,874.053955,469.665527,0.118140
100.799561,883.941650,479.278564,0.118879
102.996826,882.293701,483.398438,0.119640
109.497070,892.272949,483.215332,0.120390
108.856201,896.667480,483.581543,0.121134
104.187012,894.104004,490.447998,0.121960
99.243164,897.857666,486.968994,0.122710
96.405029,900.421143,481.658936,0.123453
93.566895,897.766113,482.940674,0.124211
98.144531,897.491455,491.638184,0.124992
89.447021,891.082764,489.349365,0.125756
92.559814,900.787354,487.884521,0.126529
92.559814,897.491455,493.469238,0.127279
91.552734,894.287109,487.152100,0.128055
91.918945,896.301270,481.018066,0.128821
115.173340,892.913818,489.807129,0.129572
96.221924,890.808105,482.574463,0.130313
83.221436,891.906738,477.996826,0.131092
79.010010,886.596680,473.693848,0.131846
88.531494,882.019043,462.615967,0.132587
83.953857,879.364014,468.292236,0.133322
82.672119,885.498047,460.876465,0.134057
75.988770,873.138428,461.242676,0.134788
75.714111,865.905762,455.749512,0.135518
72.143555,868.927002,447.967529,0.136249
77.819824,871.856689,456.481934,0.137019
77.636719,868.194580,450.073242,0.137762
72.509766,867.187500,439.453125,0.138499
68.572998,866.638184,444.580078,0.139232
71.868896,861.236572,457.489014,0.139963
70.678711,863.433838,453.826904,0.140693
70.129395,862.426758,451.812744,0.141424
72.052002,855.560303,452.178955,0.142155
77.453613,857.940674,455.017090,0.142885
81.298828,859.863281,453.643799,0.143616
82.031250,863.067627,461.700439,0.144346
78.094482,857.849121,455.657959,0.145078
77.636719,854.187012,454.284668,0.145829
69.030762,852.630615,463.623047,0.146561
68.939209,854.370117,467.102051,0.147292
68.847656,854.370117,462.799072,0.148033
64.544678,852.905273,452.636719,0.148847
75.256348,856.658936,457.855225,0.149578
74.157715,850.524902,449.249268,0.150309
74.432373,856.292725,449.157715,0.151040
73.059082,860.321045,448.608398,0.151771
67.474365,853.912354,446.777344,0.152501
68.572998,852.264404,446.228027,0.153231
75.439453,848.602295,444.854736,0.153963
75.073242,850.616455,446.044922,0.154693
74.523926,847.503662,446.502686,0.155423
67.199707,849.975586,447.509766,0.156154
67.932129,862.152100,451.538086,0.156891
67.016602,859.771729,461.883545,0.157632
67.016602,857.574463,455.200195,0.158373
70.861816,868.103027,469.390869,0.159113
61.248779,865.814209,465.820312,0.159854
66.741943,881.286621,479.736328,0.160595
64.086914,879.455566,471.496582,0.161335
57.403564,880.462646,478.363037,0.162076
65.368652,884.307861,484.497070,0.162827
60.607910,879.821777,479.827881,0.163567
64.636230,886.138916,476.348877,0.164307
59.600830,885.772705,474.884033,0.165048
62.988281,880.828857,470.214844,0.165800
65.734863,891.174316,478.729248,0.166541
61.798096,886.230469,448.791504,0.167276
63.171387,891.998291,463.073730,0.168038
60.241699,889.892578,461.059570,0.168781
60.150146,892.272949,468.475342,0.169522
62.164307,891.265869,469.116211,0.170262
62.530518,890.808105,470.855713,0.171018
60.791016,891.632080,489.807129,0.171779
59.600830,886.779785,468.933105,0.172520
59.967041,893.646240,479.370117,0.173260
69.580078,898.406982,483.032227,0.174006
64.910889,891.448975,472.686768,0.174741
66.925049,898.498535,473.785400,0.175473
69.671631,896.575928,475.982666,0.176205
68.389893,895.935059,472.961426,0.176954
75.073242,892.639160,477.813721,0.177727
71.044922,887.054443,474.975586,0.178478
72.967529,886.413574,472.045898,0.179237
74.340820,888.885498,468.933105,0.179983
73.242188,882.568359,464.813232,0.180733
72.143555,885.314941,470.397949,0.181465
71.868896,887.237549,463.989258,0.182195
83.038330,881.469727,456.024170,0.182926
77.911377,881.835938,456.024170,0.183679
81.665039,883.941650,457.763672,0.184421
81.665039,879.455566,459.960938,0.185161
82.214355,880.920410,488.800049,0.185902
85.327148,870.666504,467.010498,0.186645
92.559814,876.159668,464.630127,0.187376
91.552734,875.427246,464.904785,0.188106
96.679688,865.539551,468.933105,0.188836
95.581055,872.680664,445.861816,0.189591
100.891113,872.955322,462.524414,0.190331
95.214844,869.567871,465.911865,0.191101
106.658936,863.342285,468.566895,0.191859
108.306885,870.941162,469.390869,0.192632
104.095459,865.539551,467.834473,0.193391
106.567383,867.645264,469.207764,0.194132
101.806641,865.081787,462.158203,0.194872
104.003906,861.968994,459.777832,0.195631
104.553223,869.110107,461.608887,0.196371
104.003906,860.595703,455.200195,0.197111
99.700928,864.349365,459.777832,0.197851
106.842041,866.363525,460.327148,0.198600
106.567383,864.898682,463.165283,0.199340
95.947266,867.187500,464.996338,0.200081
100.982666,859.405518,463.439941,0.200821
97.961426,864.440918,466.369629,0.201561
96.954346,858.123779,464.813232,0.202291
98.785400,858.764648,468.933105,0.203022
93.017578,858.123779,468.841553,0.203752
100.616455,867.828369,472.869873,0.204507
104.003906,868.652344,477.905273,0.205248
105.194092,863.342285,471.496582,0.205988
99.609375,868.835449,479.736328,0.206749
114.532471,862.426758,478.088379,0.207528
97.503662,861.328125,475.524902,0.208279
105.468750,860.229492,477.172852,0.209028
106.475830,861.053467,469.757080,0.209776
99.517822,848.052979,453.369141,0.210535
99.517822,855.102539,458.038330,0.211276
99.609375,855.926514,456.390381,0.212016
99.060059,844.757080,452.545166,0.212756
97.412109,852.355957,455.841064,0.213507
95.672607,845.764160,446.960449,0.214247
95.672607,859.863281,449.798584,0.214987
93.017578,861.602783,454.284668,0.215727
93.109131,862.426758,450.164795,0.216471
89.630127,859.222412,466.552734,0.217203
91.369629,860.778809,462.982178,0.217933
90.179443,860.412598,471.771240,0.218696
90.087891,869.842529,477.172852,0.219476
91.003418,873.596191,482.666016,0.220225
88.531494,874.053955,477.172852,0.220988
87.341309,880.279541,475.799561,0.221737
77.819824,874.877930,485.046387,0.222567
84.960938,878.356934,491.912842,0.223308
85.784912,878.265381,483.398438,0.224048
81.481934,867.828369,479.003906,0.224789
77.087402,875.976562,474.060059,0.225529
80.566406,881.927490,477.630615,0.226315
80.657959,875.427246,461.242676,0.227096
76.354980,872.680664,470.581055,0.227888
72.509766,881.103516,472.686768,0.228639
73.516846,883.666992,469.665527,0.229399
65.551758,885.772705,470.947266,0.230141
71.868896,883.392334,468.933105,0.230900
79.284668,882.568359,469.390869,0.231640
69.946289,882.568359,445.953369,0.232381
78.643799,882.659912,469.390869,0.233121
73.608398,876.892090,471.221924,0.233902
78.002930,877.258301,466.461182,0.234642
81.939697,888.336182,470.581055,0.235383
64.819336,872.772217,463.531494,0.236123
72.052002,879.455566,460.144043,0.236864
77.178955,877.807617,469.665527,0.237595
68.115234,873.321533,458.862305,0.238325
71.136475,877.899170,466.735840,0.239056
74.523926,882.385254,467.742920,0.239811
70.495605,882.751465,467.651367,0.240552
67.932129,879.730225,467.834473,0.241298
71.594238,878.173828,472.961426,0.242051
70.770264,880.004883,479.278564,0.242824
70.953369,879.547119,481.750488,0.243573
72.326660,882.293701,481.292725,0.244313
74.707031,885.131836,483.032227,0.245056
85.144043,886.413574,481.933594,0.245829
82.031250,886.413574,473.419189,0.246571
91.094971,883.666992,476.623535,0.247311
88.714600,884.124756,477.996826,0.248052
82.397461,884.857178,470.764160,0.248802
81.024170,877.532959,465.545654,0.249542
79.193115,881.561279,465.179443,0.250282
83.953857,881.835938,459.136963,0.251052
85.601807,881.011963,462.341309,0.251848
83.679199,888.793945,475.433350,0.252596
80.566406,892.822266,448.608398,0.253337
85.876465,884.674072,472.595215,0.254077
84.960938,884.765625,476.623535,0.254817
84.594727,881.469727,476.806641,0.255558
79.742432,894.287109,480.285645,0.256299
86.425781,890.625000,484.680176,0.257040
89.263916,887.145996,488.159180,0.257781
89.355469,886.413574,486.694336,0.258522
90.637207,890.991211,477.081299,0.259263
87.799072,890.899658,483.856201,0.260005
89.996338,892.272949,480.651855,0.260742
85.418701,891.998291,482.482910,0.261473
87.524414,887.237549,485.412598,0.262203
85.418701,888.610840,479.644775,0.262933
79.833984,891.082764,489.257812,0.263693
83.496094,871.673584,477.722168,0.264435
83.404541,888.702393,481.109619,0.265175
79.193115,884.399414,485.870361,0.265916
88.073730,888.793945,480.194092,0.266668
78.277588,878.082275,477.905273,0.267409
86.975098,879.180908,473.968506,0.268150
88.073730,882.293701,469.482422,0.268890
84.686279,884.033203,472.686768,0.269638
84.045410,884.765625,474.243164,0.270380
83.679199,875.701904,475.341797,0.271120
92.010498,884.399414,469.390869,0.271862
96.862793,884.857178,474.334717,0.272602
93.750000,884.307861,472.229004,0.273332
95.123291,889.068604,471.038818,0.274063
86.608887,875.152588,475.524902,0.274793
85.876465,879.547119,482.757568,0.275546
99.700928,886.962891,483.947754,0.276287
97.229004,883.850098,482.116699,0.277028
90.545654,884.582520,483.489990,0.277768
92.834473,885.681152,485.229492,0.278508
96.221924,882.019043,486.785889,0.279239
96.221924,884.765625,489.440918,0.279969
97.503662,881.927490,491.363525,0.280700
100.158691,885.040283,483.306885,0.281450
100.067139,879.730225,474.243164,0.282191
98.876953,879.089355,484.313965,0.282932
102.630615,881.561279,476.257324,0.283673
94.940186,873.596191,468.933105,0.284457
98.419189,874.328613,461.334229,0.285199
91.278076,866.455078,465.820312,0.285940
95.672607,866.729736,455.932617,0.286680
97.869873,867.919922,461.242676,0.287431
101.165771,871.307373,461.242676,0.288172
93.017578,863.800049,459.136963,0.288924
91.552734,864.532471,461.791992,0.289678
98.510742,867.553711,468.383789,0.290420
94.207764,865.631104,468.383789,0.291160
93.200684,864.715576,467.468262,0.291901
102.355957,870.666504,477.722168,0.292651
100.433350,844.665527,472.595215,0.293392
104.095459,864.257812,474.700928,0.294133
99.700928,865.356445,467.285156,0.294874
98.785400,862.426758,467.285156,0.295614
109.405518,876.983643,462.249756,0.296355
94.482422,867.187500,463.714600,0.297170
98.968506,869.934082,456.207275,0.297901
90.087891,875.976562,459.503174,0.298633
83.496094,872.955322,462.524414,0.299375
91.003418,879.913330,471.862793,0.300116
90.637207,872.314453,461.517334,0.300857
83.038330,877.532959,445.404053,0.301597
91.918945,874.328613,463.256836,0.302338
90.270996,877.075195,473.327637,0.303079
82.855225,868.743896,460.144043,0.303820
92.285156,872.406006,477.355957,0.304562
90.545654,878.814697,475.616455,0.305303
100.341797,885.589600,467.651367,0.306044
97.045898,885.589600,471.679688,0.306785
101.715088,894.287109,482.391357,0.307525
97.137451,888.702393,479.187012,0.308266
97.961426,889.892578,482.574463,0.308997
100.158691,888.702393,477.722168,0.309727
94.665527,887.512207,483.398438,0.310458
85.235596,891.265869,486.236572,0.311211
82.305908,889.892578,492.370605,0.311952
93.475342,889.892578,482.666016,0.312695
84.960938,889.801025,483.673096,0.313476
93.841553,898.956299,483.581543,0.314219
88.073730,913.970947,477.355957,0.314961
82.397461,896.667480,487.884521,0.315715
89.996338,895.568848,486.602783,0.316461
96.862793,896.026611,482.849121,0.317223
101.715088,895.477295,486.968994,0.317966
94.390869,899.597168,484.771729,0.318708
94.665527,899.688721,481.475830,0.319465
91.278076,890.716553,484.771729,0.320207
94.757080,893.096924,484.680176,0.320947
93.383789,892.913818,480.010986,0.321688
91.369629,890.716553,477.081299,0.322430
86.883545,887.603760,483.306885,0.323171
88.256836,895.751953,484.405518,0.323912
83.404541,893.737793,479.644775,0.324653
82.946777,888.336182,484.497070,0.325399
84.777832,886.596680,481.842041,0.326137
89.996338,881.561279,484.222412,0.326896
88.439941,878.723145,472.869873,0.327677
91.003418,878.265381,469.207764,0.328465
95.764160,873.596191,467.010498,0.329212
98.693848,876.068115,473.876953,0.329949
105.377197,880.737305,464.080811,0.330697
91.644287,875.518799,465.637207,0.331458
92.285156,868.560791,468.475342,0.332200
99.792480,871.398926,490.814209,0.332941
89.263916,872.772217,468.566895,0.333682
96.679688,873.229980,464.538574,0.334439
91.003418,875.061035,464.447021,0.335201
85.327148,872.863770,468.566895,0.335945
114.715576,869.842529,473.602295,0.336685
89.630127,868.652344,474.975586,0.337438
87.066650,875.885010,473.327637,0.338179
87.799072,872.039795,467.926025,0.338920
94.757080,873.413086,461.151123,0.339661
87.066650,878.723145,469.024658,0.340410
88.714600,884.124756,458.770752,0.341151
83.496094,879.821777,469.207764,0.341892
87.982178,874.694824,468.383789,0.342633
92.742920,875.518799,469.024658,0.343372
93.475342,876.159668,476.531982,0.344103
87.524414,878.265381,475.616455,0.344833
85.327148,887.969971,482.666016,0.345563
72.052002,878.906250,479.553223,0.346319
80.566406,890.075684,486.419678,0.347061
76.629639,884.216309,480.377197,0.347802
74.707031,886.871338,477.996826,0.348543
73.791504,887.237549,481.842041,0.349294
76.263428,881.744385,475.341797,0.350035
74.981689,882.019043,482.391357,0.350776
72.509766,881.927490,478.546143,0.351516
75.897217,882.659912,473.419189,0.352267
82.763672,881.011963,472.320557,0.353008
81.756592,881.011963,470.672607,0.353748
78.094482,874.511719,490.722656,0.354489
79.010010,873.596191,469.757080,0.355229
78.918457,875.976562,467.376709,0.355959
67.565918,873.413086,467.193604,0.356690
69.763184,873.138428,469.757080,0.357420
68.481445,872.772217,445.495605,0.358175
65.826416,877.258301,467.468262,0.358922
69.305420,864.349365,468.475342,0.359665
68.847656,863.891602,461.791992,0.360406
64.819336,856.750488,454.467773,0.361159
67.016602,863.708496,457.305908,0.361900
62.896729,864.807129,454.284668,0.362641
61.340332,872.497559,455.657959,0.363382
67.291260,870.483398,453.277588,0.364131
66.558838,861.145020,454.010010,0.364873
69.396973,862.884521,453.094482,0.365614
60.516357,858.764648,458.221436,0.366355
63.812256,854.919434,460.876465,0.367095
65.734863,852.447510,460.876465,0.367825
68.664551,855.560303,459.136963,0.368556
68.115234,855.377197,452.728271,0.369286
66.833496,857.299805,461.242676,0.370030
68.481445,853.363037,458.129883,0.370760
60.150146,847.778320,444.030762,0.371574
70.404053,850.250244,456.298828,0.372305
65.093994,847.045898,448.608398,0.373062
63.812256,846.130371,448.242188,0.373803
66.741943,847.412109,448.425293,0.374544
88.897705,846.130371,445.953369,0.375285
74.798584,850.708008,445.404053,0.376053
74.249268,848.602295,448.699951,0.376795
76.721191,849.975586,452.362061,0.377535
78.186035,856.109619,446.868896,0.378276
76.629639,850.250244,450.622559,0.379026
79.101562,856.475830,451.354980,0.379767
81.665039,865.173340,463.439941,0.380508
81.115723,863.616943,465.362549,0.381248
76.171875,858.581543,458.862305,0.381998
84.777832,871.398926,462.982178,0.382739
85.876465,862.060547,461.517334,0.383480
85.052490,864.624023,468.841553,0.384221
90.362549,870.849609,473.968506,0.384961
89.904785,869.018555,478.363037,0.385691
88.714600,868.652344,483.673096,0.386422
88.806152,875.701904,474.609375,0.387152
88.531494,874.145508,477.722168,0.387905
87.066650,865.997314,475.067139,0.388646
92.010498,875.244141,478.271484,0.389388
84.869385,861.602783,479.370117,0.390139
83.038330,872.863770,473.327637,0.390915
86.608887,866.271973,456.939697,0.391678
84.686279,863.067627,461.517334,0.392421
90.270996,860.229492,466.003418,0.393162
81.390381,860.870361,458.312988,0.393904
82.214355,862.609863,457.489014,0.394644
76.629639,852.905273,463.073730,0.395385
73.791504,860.137939,460.693359,0.396126
75.531006,858.306885,455.657959,0.396867
78.643799,854.644775,457.122803,0.397608
77.087402,857.482910,454.559326,0.398349
71.228027,856.201172,464.263916,0.399105
77.636719,855.468750,468.200684,0.399836
75.347900,861.511230,459.228516,0.400567
71.594238,854.003906,458.404541,0.401298
71.044922,850.982666,461.151123,0.402028
72.784424,854.278564,468.475342,0.402784
71.868896,852.996826,464.904785,0.403524
71.777344,856.933594,468.200684,0.404284
78.369141,850.341797,460.418701,0.405046
76.171875,851.440430,461.059570,0.405808
64.361572,851.623535,463.256836,0.406574
72.509766,847.412109,448.333740,0.407319
65.551758,835.601807,449.157715,0.408060
64.453125,847.320557,456.024170,0.408803
64.453125,851.898193,456.298828,0.409544
63.262939,849.151611,452.819824,0.410284
60.333252,843.933105,449.615479,0.411025
61.340332,852.722168,457.489014,0.411765
66.101074,845.123291,453.735352,0.412506
60.424805,846.588135,456.024170,0.413246
59.692383,856.842041,456.298828,0.414001
63.812256,859.954834,461.608887,0.414734
70.220947,859.405518,467.559814,0.415464
72.509766,865.814209,467.193604,0.416223
70.587158,865.081787,474.426270,0.416977
71.136475,865.173340,471.679688,0.417718
68.572998,862.060547,490.356445,0.418466
68.481445,862.792969,472.137451,0.419210
68.756104,870.391846,464.447021,0.419965
70.861816,867.004395,472.045898,0.420706
63.079834,867.462158,467.651367,0.421448
61.431885,860.229492,469.299316,0.422188
68.939209,858.215332,464.172363,0.422938
64.727783,859.039307,463.348389,0.423679
64.086914,857.482910,463.714600,0.424420
77.911377,863.159180,464.447021,0.425160
80.017090,885.955811,468.383789,0.425901
70.953369,870.483398,464.447021,0.426631
81.115723,865.905762,460.510254,0.427361
86.517334,874.511719,468.109131,0.428092
76.812744,865.722656,463.531494,0.428846
84.503174,872.222900,467.102051,0.429587
87.066650,873.229980,466.644287,0.430327
86.334229,878.265381,469.665527,0.431068
85.784912,871.215820,473.327637,0.431808
91.003418,879.913330,474.426270,0.432541
96.862793,882.110596,479.919434,0.433271
89.996338,887.512207,473.693848,0.434001
87.249756,879.638672,475.067139,0.434755
88.256836,882.110596,480.285645,0.435496
91.461182,882.476807,480.651855,0.436237
89.447021,883.117676,478.546143,0.436978
88.806152,882.019043,478.546143,0.437720
93.292236,885.681152,480.285645,0.438451
84.503174,887.512207,480.560303,0.439181
87.341309,884.216309,491.546631,0.439911
88.714600,881.103516,473.785400,0.440655
83.221436,881.103516,471.405029,0.441396
91.644287,879.638672,473.144531,0.442137
93.566895,880.645752,469.116211,0.442877
82.489014,876.342773,471.038818,0.443618
87.432861,872.497559,464.630127,0.444359
90.362549,874.694824,466.278076,0.445178
89.355469,879.547119,473.327637,0.445921
91.735840,877.349854,471.130371,0.446671
95.764160,872.680664,466.644287,0.447412
93.750000,878.356934,471.405029,0.448177
95.123291,871.032715,468.475342,0.448918
89.904785,866.821289,449.066162,0.449670
93.750000,872.131348,468.933105,0.450410
88.714600,872.039795,466.094971,0.451151
95.031738,872.039795,468.658447,0.451891
96.221924,871.490479,470.489502,0.452642
93.017578,868.103027,469.665527,0.453383
90.179443,866.455078,473.419189,0.454123
85.601807,867.004395,468.841553,0.454864
85.876465,866.180420,472.229004,0.455604
83.496094,870.849609,458.038330,0.456335
83.679199,867.553711,463.256836,0.457065
86.059570,868.286133,463.073730,0.457795
86.608887,866.271973,466.552734,0.458549
85.876465,859.313965,462.890625,0.459290
84.869385,864.257812,463.989258,0.460030
74.523926,847.686768,469.665527,0.460771
85.327148,866.638184,469.116211,0.461520
82.031250,862.335205,472.778320,0.462260
74.523926,860.412598,460.235596,0.463001
80.932617,855.926514,461.425781,0.463741
82.122803,859.863281,463.531494,0.464512
79.284668,869.476318,465.179443,0.465274
83.312988,853.820801,461.517334,0.466037
80.200195,856.750488,468.750000,0.466783
85.968018,862.426758,464.904785,0.467544
91.369629,866.271973,473.510742,0.468285
87.432861,857.574463,460.876465,0.469025
88.897705,863.342285,460.235596,0.469766
91.003418,857.116699,464.813232,0.470516
86.517334,856.933594,460.235596,0.471258
85.052490,862.701416,467.559814,0.471999
86.059570,869.476318,468.658447,0.472740
91.644287,865.356445,469.940186,0.473480
95.214844,865.722656,463.806152,0.474210
98.419189,864.898682,449.890137,0.474940
96.771240,863.159180,472.961426,0.475671
99.884033,862.609863,466.552734,0.476440
95.855713,859.863281,469.024658,0.477205
96.496582,868.743896,464.630127,0.477954
86.608887,858.856201,463.348389,0.478694
88.806152,860.321045,467.834473,0.479460
87.890625,852.264404,461.242676,0.480200
87.799072,853.729248,468.841553,0.480941
91.552734,853.454590,462.982178,0.481682
90.911865,858.398438,458.953857,0.482436
88.897705,860.321045,466.094971,0.483178
103.637695,860.137939,464.630127,0.483918
102.996826,863.616943,467.102051,0.484659
96.771240,859.222412,462.432861,0.485399
95.581055,863.250732,455.932617,0.486129
91.735840,844.390869,467.468262,0.486859
98.785400,859.771729,466.369629,0.487590
103.820801,865.997314,470.489502,0.488345
102.172852,860.412598,471.038818,0.489086
98.693848,865.814209,472.137451,0.489826
92.559814,866.729736,462.799072,0.490567
94.940186,861.236572,460.418701,0.491318
92.742920,862.243652,466.094971,0.492059
93.475342,861.877441,466.003418,0.492800
89.721680,859.039307,460.784912,0.493541
92.468262,857.391357,462.249756,0.494291
95.489502,860.595703,456.390381,0.495032
94.665527,863.616943,470.306396,0.495773
93.750000,871.582031,470.214844,0.496513
89.263916,870.574951,475.067139,0.497252
92.468262,876.342773,475.708008,0.497983
95.397949,873.504639,477.539062,0.498713
88.623047,870.117188,471.038818,0.499444
94.848633,873.321533,477.447510,0.500197
93.200684,874.053955,480.377197,0.500938
91.644287,870.117188,478.454590,0.501679
89.538574,867.187500,474.884033,0.502419
85.876465,870.758057,477.539062,0.503159
80.932617,859.222412,471.130371,0.503890
83.312988,862.609863,467.742920,0.504620
84.228516,868.469238,463.897705,0.505350
92.193604,869.201660,445.770264,0.506102
87.982178,873.138428,469.299316,0.506843
84.686279,865.997314,460.418701,0.507584
90.545654,860.321045,459.411621,0.508325
82.305908,863.708496,462.799072,0.509075
88.165283,863.708496,466.094971,0.509816
89.813232,855.834961,466.094971,0.510557
90.911865,861.511230,463.531494,0.511297
92.285156,863.616943,465.454102,0.512047
93.750000,866.455078,462.158203,0.512788
90.911865,860.778809,470.672607,0.513529
86.425781,861.511230,464.904785,0.514270
90.179443,858.306885,462.615967,0.515020
99.060059,848.876953,461.425781,0.515785
88.165283,856.109619,467.285156,0.516527
91.278076,862.976074,468.933105,0.517268
95.123291,861.785889,465.087891,0.518018
97.229004,863.067627,465.087891,0.518759
87.707520,860.321045,453.277588,0.519586
94.207764,861.236572,458.862305,0.520327
97.503662,866.729736,469.757080,0.521079
100.158691,859.954834,464.813232,0.521820
106.201172,858.398438,473.144531,0.522560
106.842041,861.694336,465.545654,0.523301
105.651855,855.926514,469.848633,0.524041
100.616455,858.673096,469.116211,0.524771
104.095459,854.553223,467.834473,0.525502
105.834961,854.003906,463.531494,0.526232
104.370117,852.447510,466.552734,0.526985
100.158691,857.208252,471.588135,0.527725
105.651855,843.383789,460.510254,0.528466
114.166260,844.116211,468.841553,0.529207
110.137939,853.729248,467.376709,0.529956
112.701416,846.496582,463.073730,0.530697
110.870361,845.764160,460.235596,0.531438
110.412598,839.355469,449.340820,0.532178
111.785889,843.750000,458.770752,0.532930
112.976074,842.376709,457.763672,0.533671
111.785889,843.200684,456.298828,0.534412
111.602783,840.454102,460.235596,0.535152
113.067627,839.263916,460.052490,0.535890
115.264893,834.228516,461.791992,0.536620
114.349365,842.376709,458.312988,0.537351
118.469238,844.665527,454.559326,0.538089
138.244629,842.926025,457.031250,0.538867
120.483398,844.299316,454.284668,0.539627
123.596191,846.130371,462.799072,0.540377
123.962402,841.369629,455.566406,0.541118
121.856689,844.573975,458.038330,0.541878
127.075195,841.918945,468.200684,0.542619
126.342773,851.440430,465.728760,0.543360
118.194580,852.905273,465.820312,0.544101
118.835449,851.165771,462.066650,0.544851
117.736816,851.440430,462.158203,0.545592
115.173340,844.207764,468.566895,0.546356
126.525879,856.292725,472.595215,0.547114
124.053955,856.292725,472.229004,0.547862
115.264893,858.764648,466.827393,0.548639
115.356445,862.701416,460.876465,0.549380
107.482910,852.264404,469.116211,0.550121
109.130859,863.983154,467.834473,0.550871
99.884033,857.208252,473.602295,0.551617
109.863281,858.398438,482.025146,0.552357
112.792969,868.377686,480.560303,0.553099
107.482910,868.011475,477.355957,0.553839
112.701416,875.610352,487.609863,0.554580
106.384277,873.870850,481.933594,0.555320
105.743408,873.962402,475.524902,0.556059
118.560791,876.800537,477.539062,0.556791
112.792969,870.025635,476.898193,0.557523
113.342285,876.983643,482.299805,0.558253
107.208252,871.124268,479.003906,0.558992
108.581543,873.962402,475.158691,0.559724
102.905273,873.779297,466.827393,0.560455
101.623535,869.567871,467.468262,0.561185
94.116211,874.603271,467.834473,0.561922
98.327637,874.694824,472.686768,0.562664
97.503662,868.286133,468.566895,0.563405
91.735840,872.955322,462.799072,0.564145
92.559814,881.378174,477.722168,0.564885
93.750000,885.955811,477.355957,0.565626
92.834473,885.040283,481.018066,0.566367
88.989258,876.525879,482.757568,0.567107
97.412109,883.941650,482.208252,0.567852
91.735840,888.336182,483.856201,0.568603
93.750000,889.251709,485.046387,0.569343
97.503662,887.603760,479.461670,0.570084
89.996338,881.103516,479.003906,0.570824
84.136963,880.371094,472.045898,0.571565
84.503174,881.195068,464.263916,0.572295
82.031250,870.025635,457.672119,0.573026
87.524414,873.687744,458.312988,0.573756
86.151123,875.152588,451.446533,0.574505
85.235596,864.715576,453.918457,0.575236
83.038330,870.208740,452.545166,0.575966
84.320068,873.596191,454.742432,0.576697
87.890625,869.659424,457.214355,0.577448
86.517334,871.307373,459.411621,0.578207
80.474854,869.384766,487.243652,0.578949
88.897705,869.293213,462.432861,0.579690
89.080811,866.363525,467.742920,0.580430
84.503174,872.680664,472.412109,0.581172
85.235596,875.061035,468.658447,0.581912
86.517334,863.433838,465.545654,0.582653
90.637207,871.582031,467.834473,0.583413
96.221924,867.370605,459.594727,0.584154
94.390869,867.187500,454.101562,0.584894
86.059570,864.257812,455.657959,0.585635
85.510254,863.433838,457.214355,0.586375
85.144043,868.377686,461.791992,0.587116
88.256836,859.954834,453.460693,0.587856
83.496094,860.046387,455.108643,0.588597
85.601807,861.602783,457.763672,0.589336
89.080811,865.631104,462.982178,0.590077
85.601807,873.413086,457.031250,0.590818
92.651367,870.391846,469.390869,0.591569
88.806152,888.977051,460.510254,0.592299
95.855713,872.131348,464.904785,0.593116
88.439941,867.095947,466.003418,0.593847
88.256836,865.356445,468.017578,0.594583
90.911865,863.891602,464.721680,0.595324
91.735840,874.420166,463.256836,0.596065
97.137451,877.716064,470.947266,0.596805
89.172363,869.659424,479.370117,0.597546
88.348389,868.652344,475.250244,0.598287
82.305908,869.476318,474.151611,0.599027
88.531494,871.490479,475.250244,0.599768
87.890625,870.941162,469.299316,0.600509
85.327148,872.131348,466.735840,0.601249
83.862305,877.532959,467.285156,0.601998
83.496094,871.307373,466.918945,0.602743
90.911865,879.089355,474.151611,0.603517
88.623047,869.384766,470.397949,0.604259
93.933105,875.885010,476.989746,0.604999
86.883545,874.603271,470.764160,0.605740
95.031738,880.554199,476.715088,0.606474
91.369629,875.701904,478.179932,0.607204
92.102051,872.955322,479.553223,0.607934
86.151123,883.758545,478.179932,0.608664
84.320068,884.307861,475.891113,0.609413
84.228516,882.019043,469.665527,0.610144
84.228516,875.976562,475.158691,0.610895
84.228516,880.096436,480.560303,0.611637
90.545654,882.476807,478.271484,0.612388
95.855713,878.173828,474.700928,0.613136
81.298828,877.624512,470.672607,0.613890
82.305908,887.054443,466.003418,0.614638
85.876465,877.166748,463.897705,0.615411
87.890625,879.272461,474.151611,0.616168
88.256836,889.068604,477.905273,0.616909
87.158203,894.287109,482.849121,0.617650
86.975098,895.568848,473.327637,0.618403
88.256836,888.061523,474.975586,0.619145
90.728760,888.793945,486.602783,0.619885
89.996338,894.470215,477.630615,0.620674
88.623047,891.357422,481.384277,0.621457
85.968018,895.751953,492.095947,0.622208
94.482422,900.146484,487.426758,0.622968
98.968506,893.096924,484.863281,0.623712
92.468262,894.287109,479.553223,0.624472
92.651367,893.646240,488.800049,0.625220
93.750000,890.533447,475.982666,0.625966
88.897705,892.364502,479.187012,0.626720
93.292236,893.646240,485.595703,0.627467
96.038818,893.280029,472.137451,0.628208
98.144531,897.216797,473.876953,0.628950
97.320557,888.153076,465.454102,0.629694
92.559814,882.385254,468.017578,0.630437
89.904785,883.941650,465.179443,0.631177
102.172852,880.371094,467.193604,0.631918
103.363037,885.406494,473.419189,0.632660
101.623535,885.406494,466.827393,0.633397
112.335205,875.061035,468.750000,0.634130
104.095459,877.075195,469.940186,0.634861
106.933594,880.371094,473.510742,0.635593
106.018066,880.462646,472.961426,0.636356
112.609863,873.321533,481.109619,0.637099
107.208252,872.222900,478.729248,0.637841
114.074707,873.779297,474.700928,0.638586
108.123779,875.244141,467.285156,0.639336
103.637695,879.821777,469.299316,0.640077
99.243164,866.271973,471.038818,0.640818
98.968506,869.750977,464.355469,0.641559
104.919434,871.582031,463.439941,0.642312
99.517822,871.124268,457.946777,0.643054
99.151611,867.645264,459.503174,0.643795
101.348877,867.279053,456.665039,0.644535
99.060059,868.286133,461.791992,0.645276
103.363037,868.286133,460.327148,0.646016
98.876953,866.638184,466.186523,0.646757
98.785400,869.934082,467.742920,0.647496
92.742920,869.567871,464.721680,0.648226
97.686768,866.271973,456.390381,0.648957
100.158691,845.123291,463.165283,0.649687
96.221924,863.433838,462.982178,0.650421
70.312500,869.659424,466.003418,0.651152
94.116211,862.884521,467.285156,0.651882
87.707520,853.912354,456.573486,0.652613
85.418701,860.046387,464.355469,0.653344
93.475342,860.687256,465.454102,0.654102
91.003418,858.947754,460.144043,0.654843
86.425781,852.264404,456.939697,0.655584
81.390381,860.321045,467.193604,0.656324
84.411621,844.940186,464.996338,0.657074
88.714600,872.680664,471.496582,0.657815
82.580566,867.370605,470.397949,0.658555
83.221436,859.771729,463.623047,0.659296
80.200195,874.786377,469.390869,0.660047
80.657959,870.208740,467.651367,0.660787
78.735352,876.525879,470.855713,0.661528
76.263428,874.145508,472.320557,0.662268
79.284668,876.342773,468.841553,0.663008
79.010010,870.574951,471.038818,0.663739
75.988770,867.279053,472.412109,0.664469
81.665039,869.750977,476.898193,0.665199
78.735352,882.293701,481.018066,0.665951
73.150635,875.427246,471.313477,0.666750
71.594238,881.561279,474.700928,0.667492
68.939209,880.462646,473.876953,0.668231
70.587158,877.166748,469.848633,0.668982
73.516846,877.258301,472.869873,0.669721
69.671631,877.624512,466.552734,0.670462
73.516846,881.103516,472.869873,0.671202
74.432373,880.554199,473.510742,0.671950
79.193115,878.631592,471.038818,0.672690
68.023682,874.420166,472.412109,0.673430
71.502686,876.617432,473.419189,0.674180
77.911377,877.624512,475.616455,0.674922
76.354980,875.061035,471.130371,0.675663
81.207275,871.124268,472.320557,0.676403
74.981689,872.222900,467.926025,0.677143
76.995850,875.610352,471.679688,0.677884
85.876465,877.532959,476.348877,0.678624
86.334229,881.561279,474.426270,0.679365
89.263916,865.631104,464.721680,0.680114
90.362549,872.589111,465.362549,0.680845
90.270996,862.518311,467.010498,0.681576
90.362549,887.237549,471.313477,0.682306
86.700439,864.440918,462.615967,0.683036
89.263916,866.180420,456.207275,0.683807
93.017578,864.257812,454.742432,0.684550
90.362549,856.933594,450.805664,0.685292
88.348389,854.187012,456.207275,0.686046
89.172363,854.644775,453.369141,0.686793
90.270996,848.419189,450.988770,0.687555
90.820312,849.060059,453.369141,0.688299
97.229004,856.292725,454.101562,0.689041
93.933105,844.573975,456.481934,0.689784
93.933105,848.968506,444.030762,0.690525
103.637695,843.292236,449.066162,0.691265
105.010986,836.700439,445.861816,0.692007
106.201172,844.482422,454.467773,0.692780
99.792480,837.341309,449.157715,0.693534
107.574463,834.136963,453.643799,0.694287
109.588623,839.447021,448.425293,0.695059
106.109619,837.249756,447.967529,0.695801
109.130859,839.538574,451.446533,0.696542
107.299805,863.983154,444.671631,0.697282
107.849121,845.397949,443.572998,0.698034
110.412598,840.179443,448.150635,0.698775
104.095459,833.679199,445.678711,0.699516
95.581055,828.918457,455.566406,0.700257
104.736328,836.608887,464.538574,0.700998
89.813232,835.601807,460.876465,0.701728
92.010498,842.010498,451.812744,0.702459
95.306396,846.862793,457.397461,0.703190
98.236084,848.510742,457.855225,0.703955
106.201172,854.919434,464.263916,0.704697
104.553223,853.820801,458.038330,0.705438
99.884033,849.060059,454.742432,0.706178
103.271484,845.031738,459.503174,0.706928
98.236084,841.278076,463.806152,0.707669
91.827393,843.292236,467.193604,0.708409
95.764160,837.982178,457.946777,0.709150
98.052979,849.609375,456.573486,0.709900
95.764160,840.087891,460.418701,0.710641
94.665527,842.193604,462.707520,0.711381
88.714600,844.116211,465.545654,0.712122
86.791992,848.693848,464.263916,0.712862
87.890625,853.454590,466.003418,0.713592
78.735352,853.088379,467.834473,0.714322
85.327148,854.187012,467.010498,0.715053
81.756592,860.778809,470.306396,0.715793
84.228516,858.398438,471.679688,0.716534
81.848145,855.743408,470.214844,0.717275
85.327148,857.757568,475.067139,0.718015
83.038330,856.475830,471.771240,0.718756
86.334229,863.342285,470.947266,0.719497
90.454102,867.279053,468.475342,0.720237
87.066650,868.194580,464.996338,0.720979
77.911377,867.004395,471.038818,0.721721
90.911865,870.208740,473.144531,0.722452
83.496094,868.560791,469.116211,0.723182
80.841064,866.912842,478.912354,0.723912
81.207275,871.490479,483.489990,0.724661
79.010010,867.736816,487.243652,0.725402
79.467773,872.039795,476.989746,0.726142
85.601807,870.483398,483.398438,0.726884
78.369141,873.413086,477.905273,0.727634
79.650879,875.244141,481.109619,0.728375
92.010498,863.525391,465.179443,0.729117
86.883545,860.046387,468.017578,0.729858
94.665527,870.208740,467.102051,0.730637
86.517334,862.060547,459.503174,0.731379
92.010498,853.637695,455.657959,0.732120
90.179443,850.616455,443.298340,0.732860
99.517822,853.546143,450.073242,0.733611
92.742920,852.447510,449.340820,0.734352
96.130371,855.834961,453.918457,0.735093
98.052979,854.370117,463.348389,0.735833
88.348389,851.715088,456.665039,0.736575
87.432861,854.003906,461.883545,0.737306
90.911865,855.834961,463.165283,0.738036
91.186523,858.673096,461.975098,0.738767
95.581055,855.468750,460.601807,0.739522
97.320557,843.017578,456.298828,0.740263
92.010498,850.341797,460.144043,0.741086
98.876953,850.158691,454.010010,0.741827
96.771240,849.426270,455.291748,0.742578
94.024658,842.834473,441.650391,0.743319
100.341797,843.841553,446.960449,0.744061
99.060059,849.243164,448.699951,0.744801
98.968506,844.757080,445.953369,0.745551
97.229004,850.982666,449.249268,0.746310
102.722168,846.771240,450.622559,0.747054
95.947266,844.390869,447.052002,0.747795
101.165771,847.229004,449.523926,0.748538
104.187012,854.644775,454.925537,0.749268
102.813721,854.370117,444.396973,0.749998
96.862793,850.250244,444.488525,0.750728
98.602295,849.792480,454.376221,0.751484
94.573975,852.081299,464.172363,0.752225
102.630615,851.898193,465.911865,0.752966
97.595215,846.130371,461.425781,0.753706
99.792480,858.673096,461.242676,0.754446
98.968506,860.870361,464.447021,0.755177
101.440430,855.743408,466.918945,0.755907
103.729248,855.468750,469.940186,0.756638
100.891113,856.842041,466.094971,0.757391
96.496582,849.426270,464.538574,0.758133
98.785400,853.820801,462.982178,0.758874
96.496582,856.292725,455.017090,0.759625
97.869873,864.532471,457.122803,0.760397
95.764160,866.363525,467.559814,0.761160
90.820312,863.616943,462.158203,0.761911
91.918945,870.025635,473.327637,0.762652
89.172363,877.990723,471.679688,0.763410
92.102051,881.744385,473.968506,0.764161
87.890625,874.511719,482.574463,0.764918
85.510254,882.751465,487.060547,0.765659
91.003418,885.040283,484.039307,0.766413
100.158691,883.026123,483.673096,0.767160
98.876953,894.287109,489.257812,0.767917
92.468262,872.406006,495.208740,0.768665
90.179443,890.350342,489.349365,0.769449
87.524414,888.702393,482.025146,0.770196
90.087891,891.723633,480.285645,0.770937
84.777832,893.280029,482.574463,0.771677
86.425781,896.575928,476.531982,0.772418
89.721680,887.695312,474.700928,0.773159
89.630127,894.287109,473.968506,0.773900
92.376709,867.462158,465.820312,0.774641
89.538574,888.336182,453.918457,0.775381
90.454102,883.941650,458.770752,0.776122
97.595215,884.399414,473.785400,0.776862
86.608887,875.976562,463.989258,0.777604
90.362549,883.483887,468.383789,0.778337
101.623535,893.371582,471.588135,0.779067
94.024658,886.596680,472.229004,0.779797
100.708008,886.688232,481.384277,0.780527
98.236084,884.490967,477.172852,0.781285
95.123291,888.153076,476.623535,0.782026
95.306396,888.885498,479.553223,0.782767
99.792480,887.237549,476.165771,0.783508
91.644287,885.131836,475.250244,0.784257
91.827393,891.815186,479.461670,0.784998
86.242676,882.293701,474.243164,0.785738
89.447021,881.195068,472.137451,0.786479
87.524414,877.807617,467.559814,0.787228
89.172363,876.068115,466.186523,0.787969
85.968018,881.835938,467.651367,0.788709
87.158203,887.695312,463.439941,0.789449
91.644287,884.948730,456.939697,0.790188
96.221924,878.265381,451.354980,0.790919
95.123291,876.159668,451.812744,0.791649
95.031738,872.131348,455.108643,0.792379
94.024658,869.110107,455.932617,0.793132
98.968506,868.560791,460.052490,0.793881
101.440430,862.976074,457.122803,0.794628
98.785400,869.842529,460.144043,0.795369
95.123291,870.025635,461.608887,0.796099
100.250244,875.061035,464.263916,0.796830
96.221924,876.068115,463.439941,0.797560
93.566895,871.124268,458.587646,0.798290
95.214844,873.870850,462.982178,0.799043
92.559814,868.011475,468.292236,0.799784
102.081299,873.321533,457.855225,0.800525
100.524902,875.885010,458.587646,0.801266
101.989746,875.610352,461.883545,0.802005
101.440430,874.328613,460.144043,0.802736
96.405029,875.793457,466.094971,0.803466
104.095459,876.617432,459.686279,0.804196
97.320557,868.194580,456.573486,0.804950
96.313477,870.849609,457.489014,0.805691
100.341797,870.666504,458.038330,0.806431
102.172852,874.237061,460.510254,0.807172
102.539062,867.279053,455.291748,0.807924
97.869873,878.540039,467.193604,0.808665
102.355957,870.941162,468.383789,0.809406
93.200684,864.257812,464.630127,0.810164
97.320557,872.955322,468.841553,0.810905
94.024658,870.483398,469.116211,0.811646
93.658447,863.067627,464.538574,0.812387
100.158691,864.807129,462.432861,0.813128
98.327637,869.567871,462.432861,0.813868
103.637695,873.504639,459.411621,0.814692
109.863281,880.920410,467.010498,0.815433
109.497070,870.574951,464.447021,0.816173
102.996826,880.187988,473.968506,0.816903
101.531982,875.244141,474.609375,0.817634
96.679688,870.391846,469.940186,0.818364
93.017578,879.272461,470.031738,0.819097
94.848633,869.476318,461.975098,0.819848
96.130371,879.455566,469.573975,0.820594
100.891113,880.828857,470.489502,0.821342
98.693848,871.398926,465.087891,0.822090
93.933105,869.201660,465.179443,0.822831
90.087891,873.046875,468.566895,0.823572
100.708008,875.427246,468.292236,0.824312
95.397949,867.919922,458.587646,0.825054
99.884033,875.976562,463.256836,0.825798
99.243164,865.356445,466.369629,0.826568
101.165771,872.406006,464.080811,0.827315
100.982666,871.856689,461.334229,0.828055
93.017578,869.476318,464.080811,0.828796
99.792480,868.011475,471.038818,0.829536
96.862793,869.293213,465.820312,0.830277
97.320557,874.145508,472.412109,0.831018
95.581055,870.300293,468.658447,0.831759
93.933105,878.082275,466.186523,0.832500
94.482422,876.159668,469.207764,0.833242
88.989258,883.758545,470.581055,0.833987
89.630127,874.145508,470.031738,0.834724
85.876465,870.849609,475.158691,0.835485
94.848633,874.420166,469.848633,0.836229
100.982666,880.828857,473.968506,0.836971
99.334717,884.857178,477.905273,0.837712
97.961426,888.702393,481.018066,0.838452
99.151611,884.399414,479.187012,0.839193
97.778320,885.498047,485.412598,0.839934
95.581055,885.040283,476.074219,0.840675
73.059082,896.118164,478.363037,0.841489
98.327637,895.660400,484.588623,0.842244
95.397949,897.674561,487.426758,0.843017
100.067139,893.371582,480.834961,0.843765
105.743408,893.737793,482.482910,0.844506
98.327637,891.540527,479.553223,0.845247
95.947266,881.927490,468.841553,0.846004
100.433350,879.364014,463.256836,0.846745
96.405029,882.568359,470.123291,0.847486
90.270996,883.483887,470.306396,0.848226
94.665527,880.828857,463.989258,0.848976
96.313477,876.525879,463.806152,0.849717
106.201172,875.244141,471.313477,0.850458
101.531982,876.159668,465.270996,0.851199
100.799561,876.434326,466.003418,0.851944
101.898193,881.103516,466.644287,0.852675
98.602295,879.821777,469.116211,0.853406
94.299316,868.927002,466.735840,0.854136
92.742920,871.398926,467.742920,0.854893
95.855713,846.954346,464.721680,0.855634
96.405029,862.609863,459.594727,0.856375
98.785400,862.792969,459.869385,0.857116
98.144531,861.785889,457.763672,0.857865
88.439941,857.208252,457.122803,0.858607
90.454102,855.194092,447.235107,0.859347
98.144531,852.355957,443.664551,0.860088
105.651855,864.074707,452.270508,0.860837
99.975586,863.342285,449.890137,0.861579
98.968506,855.377197,450.531006,0.862319
75.988770,847.595215,442.932129,0.863059
93.841553,847.778320,445.587158,0.863799
102.722168,858.306885,444.213867,0.864530
107.025146,852.813721,445.220947,0.865260
95.214844,849.792480,443.572998,0.865990
97.869873,847.503662,449.432373,0.866743
93.200684,848.510742,446.868896,0.867484
93.750000,843.292236,450.714111,0.868225
98.144531,853.820801,456.024170,0.868966
91.461182,850.616455,459.228516,0.869705
96.588135,845.581055,460.510254,0.870437
98.785400,849.151611,467.193604,0.871167
96.313477,849.334717,463.073730,0.871905
98.693848,852.996826,458.404541,0.872688
92.559814,849.700928,454.742432,0.873450
94.024658,851.715088,451.995850,0.874228
71.960449,847.503662,453.369141,0.874986
92.926025,847.503662,451.721191,0.875771
93.292236,850.616455,450.622559,0.876536
91.918945,843.200684,450.622559,0.877297
88.989258,833.496094,443.023682,0.878075
89.263916,844.116211,426.177979,0.878869
95.855713,844.482422,446.868896,0.879637
103.912354,854.003906,455.932617,0.880393
95.764160,854.187012,452.178955,0.881234
97.503662,859.130859,467.285156,0.881997
95.489502,850.616455,459.045410,0.882749
101.440430,862.518311,478.363037,0.883517
97.137451,859.954834,473.510742,0.884302
94.482422,863.067627,479.370117,0.885056
94.848633,867.828369,476.715088,0.885798
98.693848,865.631104,480.102539,0.886539
100.982666,873.779297,477.447510,0.887295
101.257324,869.110107,470.489502,0.888065
97.961426,871.124268,476.989746,0.888808
102.081299,878.997803,469.848633,0.889628
95.855713,870.849609,464.721680,0.890384
100.982666,871.215820,472.686768,0.891125
100.891113,864.349365,461.151123,0.891867
105.651855,877.258301,461.242676,0.892607
103.271484,878.082275,459.594727,0.893358
101.623535,871.582031,466.094971,0.894099
100.982666,878.997803,462.341309,0.894840
107.025146,870.208740,468.200684,0.895580
100.524902,868.194580,457.305908,0.896320
107.391357,872.314453,464.813232,0.897051
100.524902,869.934082,461.334229,0.897808
110.046387,877.990723,478.546143,0.898550
109.771729,875.152588,467.742920,0.899300
99.884033,876.708984,476.623535,0.900041
106.658936,876.251221,471.771240,0.900781
107.391357,877.075195,490.081787,0.901522
108.947754,876.708984,471.405029,0.902271
110.870361,878.906250,472.961426,0.903012
109.863281,878.631592,467.559814,0.903753
113.433838,878.997803,466.278076,0.904493
114.990234,884.033203,468.658447,0.905233
110.412598,881.011963,470.214844,0.905964
114.624023,881.744385,470.397949,0.906694
106.384277,874.694824,464.263916,0.907437
109.588623,881.103516,467.102051,0.908209
108.123779,884.490967,472.412109,0.908972
112.243652,883.026123,472.686768,0.909715
104.278564,884.948730,480.651855,0.910457
109.863281,882.385254,477.722168,0.911198
112.701416,882.568359,472.229004,0.911939
104.187012,887.878418,473.236084,0.912680
111.328125,880.279541,475.524902,0.913420
106.842041,884.307861,470.672607,0.914196
105.926514,881.744385,479.095459,0.914949
96.679688,877.624512,476.898193,0.915701
106.201172,887.237549,474.426270,0.916449
113.433838,883.666992,466.552734,0.917190
107.849121,881.927490,471.496582,0.917931
108.215332,883.392334,472.595215,0.918671
103.546143,881.561279,470.764160,0.919412
107.299805,882.110596,470.581055,0.920154
101.715088,882.476807,460.784912,0.920894
104.736328,879.455566,463.623047,0.921634
103.912354,870.391846,463.623047,0.922370
101.715088,875.518799,464.813232,0.923101
108.215332,873.046875,462.432861,0.923832
93.017578,877.166748,467.834473,0.924562
94.482422,871.215820,464.721680,0.925297
100.982666,872.863770,469.390869,0.926038
96.313477,874.145508,469.482422,0.926781
105.926514,877.899170,467.926025,0.927524
103.912354,877.624512,467.651367,0.928264
102.813721,873.687744,472.869873,0.929005
99.151611,871.398926,474.884033,0.929745
98.785400,865.905762,465.637207,0.930486
97.869873,864.990234,470.214844,0.931226
101.806641,868.469238,470.947266,0.931967
95.123291,872.863770,465.087891,0.932707
89.996338,862.976074,453.369141,0.933448
99.609375,870.025635,460.235596,0.934203
95.031738,870.758057,455.383301,0.934934
94.207764,854.919434,445.312500,0.935664
90.911865,859.039307,450.256348,0.936395
89.904785,853.637695,444.580078,0.937128
93.017578,854.095459,444.030762,0.937870
95.855713,855.194092,430.023193,0.938610
93.109131,856.842041,447.692871,0.939351
89.355469,857.391357,454.010010,0.940100
99.609375,862.335205,454.742432,0.940841
99.060059,863.800049,452.545166,0.941582
101.074219,869.384766,447.143555,0.942323
94.482422,861.053467,459.320068,0.943071
92.102051,862.701416,469.757080,0.943802
93.475342,872.589111,462.707520,0.944560
94.024658,863.616943,454.742432,0.945293
99.060059,868.011475,467.102051,0.946032
101.898193,873.321533,446.136475,0.946773
91.461182,877.716064,471.862793,0.947514
91.827393,874.237061,475.250244,0.948254
94.940186,877.807617,468.933105,0.948995
101.074219,882.751465,466.003418,0.949735
100.524902,882.019043,472.778320,0.950475
100.982666,884.033203,468.292236,0.951215
102.447510,888.610840,471.954346,0.951952
104.644775,887.695312,470.855713,0.952709
107.482910,886.230469,480.010986,0.953450
102.630615,882.934570,475.982666,0.954190
98.052979,882.293701,477.905273,0.954930
87.982178,894.470215,474.884033,0.955670
90.637207,887.878418,476.440430,0.956411
91.827393,885.406494,471.221924,0.957151
95.855713,891.448975,471.313477,0.957902
87.158203,882.293701,471.679688,0.958642
88.348389,890.441895,472.686768,0.959383
91.552734,890.258789,469.482422,0.960124
96.130371,882.476807,473.052979,0.960867
102.172852,883.117676,468.933105,0.961598
103.729248,882.110596,471.771240,0.962409
105.468750,885.589600,473.602295,0.963140
100.982666,886.596680,470.855713,0.963882
99.426270,878.356934,467.559814,0.964624
98.693848,882.385254,478.637695,0.965364
98.236084,878.814697,475.708008,0.966105
92.193604,878.082275,472.869873,0.966846
115.814209,881.011963,472.137451,0.967586
94.940186,879.638672,472.503662,0.968327
90.820312,876.068115,469.573975,0.969067
85.784912,876.159668,468.475342,0.969817
92.285156,874.786377,469.757080,0.970558
91.278076,872.863770,467.193604,0.971298
91.369629,875.610352,445.495605,0.972038
95.214844,879.455566,468.566895,0.972781
91.827393,873.138428,471.588135,0.973512
97.961426,875.152588,467.285156,0.974265
99.517822,872.406006,472.503662,0.975008
97.595215,878.265381,474.426270,0.975749
99.609375,882.476807,476.806641,0.976490
92.376709,881.103516,475.158691,0.977230
97.229004,886.138916,483.489990,0.977971
90.179443,886.413574,480.102539,0.978724
90.728760,882.293701,476.348877,0.979465
87.341309,871.856689,478.820801,0.980206
83.129883,875.061035,473.327637,0.980947
83.587646,878.906250,476.348877,0.981689
80.749512,872.131348,465.270996,0.982453
86.151123,872.222900,474.792480,0.983191
91.094971,869.567871,467.193604,0.983941
89.447021,873.779297,462.799072,0.984714
95.306396,872.863770,465.911865,0.985455
97.961426,880.645752,467.651367,0.986196
92.010498,865.081787,465.728760,0.986937
95.397949,874.237061,459.960938,0.987695
98.419189,877.166748,463.623047,0.988435
97.961426,862.609863,467.010498,0.989176
96.405029,861.877441,490.264893,0.989916
101.715088,859.222412,467.468262,0.990656
95.672607,861.053467,470.947266,0.991395
99.243164,864.074707,448.883057,0.992158
93.841553,871.856689,468.475342,0.992909
97.229004,865.539551,473.876953,0.993693
89.996338,859.954834,467.742920,0.994440
93.658447,871.948242,469.848633,0.995181
99.792480,866.821289,466.644287,0.995921
95.214844,867.736816,464.996338,0.996673
105.560303,870.666504,477.996826,0.997414
104.827881,889.617920,465.820312,0.998154
104.644775,860.412598,466.461182,0.998894
101.623535,865.264893,460.052490,0.999689
112.152100,845.397949,462.249756,1.000442
106.658936,864.715576,467.193604,1.001183
108.856201,860.504150,462.799072,1.001923
109.130859,865.081787,465.545654,1.002669
109.130859,861.785889,463.256836,1.003400
106.292725,861.053467,467.926025,1.004130
105.743408,868.286133,469.116211,1.004860
102.813721,863.433838,466.003418,1.005616
104.461670,868.743896,464.447021,1.006357
109.405518,861.602783,460.601807,1.007097
100.616455,851.165771,449.523926,1.007837
109.588623,856.750488,451.995850,1.008577
106.567383,852.905273,450.622559,1.009308
110.687256,859.863281,456.939697,1.010039
110.961914,850.982666,457.855225,1.010769
105.743408,852.355957,445.770264,1.011526
110.870361,866.088867,449.157715,1.012266
109.039307,851.257324,445.953369,1.013005
111.236572,852.630615,447.784424,1.013745
100.524902,857.849121,447.143555,1.014485
95.031738,857.940674,455.749512,1.015216
101.623535,855.468750,459.136963,1.015946
88.806152,860.595703,463.256836,1.016676
98.419189,857.940674,462.615967,1.017429
102.905273,861.877441,463.256836,1.018169
73.059082,864.257812,463.073730,1.018909
92.376709,861.602783,446.777344,1.019648
95.764160,856.384277,469.299316,1.020388
97.686768,857.849121,461.425781,1.021119
99.426270,861.785889,453.369141,1.021849
105.834961,859.863281,460.510254,1.022579
93.566895,870.025635,462.982178,1.023330
104.461670,859.313965,460.418701,1.024071
100.708008,863.067627,456.390381,1.024812
97.869873,866.912842,457.031250,1.025551
91.827393,866.821289,460.327148,1.026320
100.891113,870.849609,461.151123,1.027063
96.038818,871.673584,464.447021,1.027803
87.707520,875.335693,463.806152,1.028543
94.024658,890.350342,469.573975,1.029295
95.123291,868.743896,469.665527,1.030035
97.045898,870.208740,471.771240,1.030774
96.496582,869.293213,479.644775,1.031515
96.405029,875.061035,471.405029,1.032265
94.573975,880.279541,474.884033,1.033005
101.989746,875.427246,473.144531,1.033745
106.567383,875.518799,473.510742,1.034485
108.856201,875.244141,477.172852,1.035241
100.799561,873.687744,468.109131,1.036065
94.940186,879.455566,466.094971,1.036806
98.510742,880.645752,460.693359,1.037546
96.405029,881.011963,465.454102,1.038298
95.214844,876.800537,465.362549,1.039038
97.961426,874.145508,465.820312,1.039777
88.897705,863.159180,469.665527,1.040517
70.587158,868.652344,471.221924,1.041257
90.820312,870.574951,471.313477,1.041987
88.623047,874.328613,466.735840,1.042718
89.172363,874.145508,473.236084,1.043448
102.722168,878.631592,474.975586,1.044201
115.356445,877.441406,463.439941,1.044942
98.419189,870.483398,463.165283,1.045681
99.792480,872.222900,462.432861,1.046421
91.644287,866.638184,471.038818,1.047170
95.947266,855.743408,460.784912,1.047910
106.018066,857.025146,457.946777,1.048650
97.320557,854.736328,456.207275,1.049390
92.742920,859.680176,456.024170,1.050139
100.616455,856.658936,459.960938,1.050879
97.229004,856.292725,459.594727,1.051620
93.200684,854.278564,451.995850,1.052360
94.848633,859.771729,458.679199,1.053100
93.200684,859.680176,452.728271,1.053830
95.031738,865.905762,458.496094,1.054579
95.855713,866.729736,464.721680,1.055322
98.693848,864.624023,470.947266,1.056109
100.341797,865.081787,466.369629,1.056876
101.165771,865.447998,490.631104,1.057618
104.095459,875.152588,472.503662,1.058358
99.151611,869.384766,469.665527,1.059113
98.510742,865.264893,470.672607,1.059853
100.982666,874.511719,466.552734,1.060592
106.292725,872.863770,451.080322,1.061332
98.693848,863.433838,461.151123,1.062094
101.898193,866.363525,458.404541,1.062833
96.771240,864.807129,447.967529,1.063603
97.045898,857.849121,449.798584,1.064357
92.559814,858.032227,452.362061,1.065105
90.362549,845.855713,453.277588,1.065851
97.595215,857.482910,453.643799,1.066591
98.510742,854.644775,455.200195,1.067332
98.419189,848.876953,460.144043,1.068094
97.961426,857.299805,453.552246,1.068835
100.982666,855.010986,449.523926,1.069575
106.384277,858.856201,454.284668,1.070326
98.052979,853.088379,449.707031,1.071067
98.419189,860.595703,443.115234,1.071806
102.905273,852.722168,452.087402,1.072548
95.672607,853.271484,453.460693,1.073303
85.327148,845.672607,448.883057,1.074045
100.250244,858.489990,447.509766,1.074784
100.982666,855.377197,450.988770,1.075524
96.862793,851.806641,451.904297,1.076266
98.785400,856.658936,439.910889,1.076997
97.869873,858.032227,449.981689,1.077727
106.384277,856.933594,450.805664,1.078457
98.785400,858.215332,449.432373,1.079207
101.531982,865.356445,455.749512,1.079947
96.679688,859.313965,465.362549,1.080687
98.693848,866.088867,457.580566,1.081427
99.426270,867.553711,461.334229,1.082176
97.503662,866.821289,466.918945,1.082916
102.996826,869.750977,472.686768,1.083656
90.911865,864.624023,463.439941,1.084396
96.496582,873.504639,465.545654,1.085136
97.412109,875.518799,465.545654,1.085876
95.672607,874.053955,470.672607,1.086616
101.440430,883.941650,468.658447,1.087356
98.052979,872.955322,458.953857,1.088092
92.285156,879.547119,464.172363,1.088823
100.524902,873.870850,445.312500,1.089581
108.123779,874.969482,467.285156,1.090323
95.855713,874.420166,471.954346,1.091056
103.546143,880.920410,474.884033,1.091786
103.637695,887.237549,471.954346,1.092516
110.046387,891.540527,475.341797,1.093247
110.412598,888.336182,480.651855,1.093983
105.743408,893.371582,484.222412,1.094723
105.010986,894.561768,486.877441,1.095463
101.440430,904.357910,494.842529,1.096202
96.313477,904.724121,475.616455,1.096946
99.517822,910.949707,491.638184,1.097676
95.214844,901.611328,487.792969,1.098406
102.905273,896.118164,486.419678,1.099136
98.876953,898.315430,492.736816,1.099883
104.553223,898.590088,489.715576,1.100623
105.743408,893.280029,487.792969,1.101363
101.074219,901.519775,482.757568,1.102103
104.187012,906.372070,478.363037,1.102852
101.715088,907.012939,476.257324,1.103592
99.792480,907.745361,481.842041,1.104332
100.341797,903.900146,484.680176,1.105072
99.609375,904.174805,493.469238,1.105812
98.419189,905.822754,492.004395,1.106552
100.433350,897.857666,484.130859,1.107292
94.757080,895.385742,496.948242,1.108031
97.045898,898.406982,491.271973,1.108769
100.616455,897.949219,489.257812,1.109627
100.524902,897.216797,476.440430,1.110362
100.708008,889.984131,480.194092,1.111116
111.328125,886.596680,478.546143,1.111856
106.933594,883.850098,475.891113,1.112596
111.785889,880.371094,469.848633,1.113336
106.018066,873.504639,468.841553,1.114076
95.672607,869.750977,451.538086,1.114826
103.454590,867.919922,456.939697,1.115566
94.207764,862.884521,456.298828,1.116305
98.510742,857.025146,451.171875,1.117045
105.102539,863.525391,459.411621,1.117785
100.799561,857.757568,454.376221,1.118516
100.616455,862.426758,455.657959,1.119245
97.320557,855.560303,454.833984,1.119976
100.067139,845.855713,451.538086,1.120725
98.602295,858.856201,460.510254,1.121466
101.440430,863.067627,462.432861,1.122205
107.757568,855.377197,462.524414,1.122946
103.271484,857.940674,460.418701,1.123694
107.666016,860.137939,464.080811,1.124434
108.123779,856.475830,464.447021,1.125174
103.363037,862.335205,462.615967,1.125914
101.348877,858.673096,462.982178,1.126648
102.172852,856.658936,469.299316,1.127379
100.158691,855.102539,472.045898,1.128109
97.869873,858.947754,469.299316,1.128842
101.898193,861.877441,470.397949,1.129603
96.221924,853.546143,459.594727,1.130349
100.616455,851.715088,461.334229,1.131095
90.637207,854.278564,457.763672,1.131834
100.158691,850.158691,454.925537,1.132593
101.440430,847.961426,455.383301,1.133334
92.742920,850.524902,456.939697,1.134073
99.151611,852.447510,464.172363,1.134813
101.898193,847.320557,463.348389,1.135554
95.855713,854.003906,459.228516,1.136295
97.778320,857.391357,459.777832,1.137034
99.151611,853.637695,463.623047,1.137774
94.116211,861.511230,468.017578,1.138510
97.412109,866.638184,465.087891,1.139240
90.545654,851.257324,476.806641,1.139970
92.468262,860.687256,472.503662,1.140700
89.996338,864.074707,465.362549,1.141435
94.024658,862.609863,467.102051,1.142175
91.644287,864.440918,470.672607,1.142915
91.369629,874.877930,475.982666,1.143654
84.594727,874.511719,464.813232,1.144394
90.820312,871.856689,474.517822,1.145135
87.524414,875.427246,468.933105,1.145874
92.834473,878.540039,468.292236,1.146616
87.524414,882.476807,471.496582,1.147358
84.503174,881.195068,469.940186,1.148097
83.496094,880.828857,482.391357,1.148838
81.390381,879.364014,484.039307,1.149577
76.263428,875.701904,489.715576,1.150327
73.791504,875.244141,485.961914,1.151058
71.411133,873.779297,484.680176,1.151788
74.707031,879.913330,487.426758,1.152518
70.861816,873.779297,488.616943,1.153250
81.115723,873.687744,468.841553,1.153991
74.432373,872.955322,473.144531,1.154731
76.629639,872.222900,467.102051,1.155471
75.805664,873.046875,448.150635,1.156211
69.030762,865.631104,464.355469,1.156951
67.382812,860.595703,453.643799,1.157691
66.101074,861.968994,454.833984,1.158430
74.249268,849.517822,449.981689,1.159171
50.262451,852.722168,449.066162,1.159940
68.206787,849.060059,445.861816,1.160684
72.052002,850.708008,445.220947,1.161428
72.052002,844.665527,446.502686,1.162187
66.558838,835.968018,439.819336,1.162936
68.023682,850.524902,442.199707,1.163695
74.066162,846.588135,447.326660,1.164441
82.122803,839.996338,453.552246,1.165197
71.594238,844.207764,453.094482,1.165938
68.298340,839.904785,452.362061,1.166678
74.615479,840.179443,450.531006,1.167417
70.678711,841.278076,447.326660,1.168167
71.228027,841.186523,453.369141,1.168907
78.186035,842.559814,453.186035,1.169647
75.531006,835.052490,448.883057,1.170411
74.340820,840.545654,449.432373,1.171167
77.362061,844.207764,457.763672,1.171897
76.721191,838.623047,454.101562,1.172628
82.672119,841.735840,452.178955,1.173359
82.031250,835.876465,451.171875,1.174120
77.545166,841.644287,449.432373,1.174861
83.587646,833.587646,466.644287,1.175601
82.580566,832.672119,448.150635,1.176342
84.320068,834.136963,447.326660,1.177092
82.122803,829.559326,447.326660,1.177832
84.228516,830.932617,450.439453,1.178572
83.312988,827.636719,468.566895,1.179312
87.890625,825.439453,440.460205,1.180062
84.869385,831.756592,451.538086,1.180801
85.327148,822.052002,443.756104,1.181561
94.482422,823.974609,442.199707,1.182303
100.067139,820.495605,447.326660,1.183140
97.686768,825.256348,442.108154,1.183881
99.060059,828.460693,439.910889,1.184621
73.425293,823.974609,440.643311,1.185361
84.869385,822.326660,433.044434,1.186109
92.102051,819.671631,437.164307,1.186849
92.376709,798.614502,438.446045,1.187589
95.764160,816.284180,432.128906,1.188329
97.961426,815.460205,436.248779,1.189068
94.482422,817.932129,463.989258,1.189798
93.933105,820.678711,441.833496,1.190528
97.045898,817.382812,444.030762,1.191259
98.785400,824.707031,447.052002,1.192014
93.750000,827.911377,439.453125,1.192755
89.172363,819.396973,436.798096,1.193495
95.031738,829.284668,444.488525,1.194235
97.961426,826.354980,442.657471,1.194984
98.144531,825.805664,441.741943,1.195725
96.862793,830.932617,443.572998,1.196465
89.630127,832.122803,445.770264,1.197208
87.066650,826.538086,448.699951,1.197974
78.369141,826.812744,440.368652,1.198715
85.235596,829.559326,450.256348,1.199455
93.933105,832.122803,443.939209,1.200195
114.715576,823.150635,440.368652,1.200944
99.609375,830.749512,443.481445,1.201684
99.792480,828.735352,431.854248,1.202440
99.334717,833.679199,441.833496,1.203186
98.052979,832.214355,423.431396,1.203970
95.947266,838.897705,443.572998,1.204715
96.405029,822.875977,455.200195,1.205455
91.094971,843.383789,460.144043,1.206195
86.883545,857.482910,468.658447,1.206949
90.087891,849.060059,473.327637,1.207689
88.989258,855.743408,466.827393,1.208429
93.475342,856.933594,471.771240,1.209199
100.067139,851.623535,466.278076,1.209952
100.891113,855.194092,462.341309,1.210707
102.447510,850.433350,459.411621,1.211453
107.391357,854.919434,459.228516,1.212214
101.074219,853.454590,462.432861,1.212955
98.876953,845.489502,470.214844,1.213695
101.165771,852.539062,469.116211,1.214434
91.735840,848.876953,471.954346,1.215185
102.172852,864.257812,470.031738,1.215925
99.517822,861.602783,475.067139,1.216665
87.249756,859.405518,472.320557,1.217405
88.714600,851.257324,476.806641,1.218149
92.834473,846.862793,473.876953,1.218880
86.883545,843.658447,464.263916,1.219610
97.961426,837.249756,453.277588,1.220341
94.390869,844.024658,444.580078,1.221093
96.221924,835.235596,423.156738,1.221834
102.813721,829.925537,434.234619,1.222574
102.264404,823.883057,444.488525,1.223314
105.010986,816.101074,430.572510,1.224063
105.285645,810.882568,431.945801,1.224803
108.673096,812.622070,429.931641,1.225543
99.334717,811.431885,432.312012,1.226283
106.018066,808.959961,429.382324,1.227022
108.764648,810.150146,430.664062,1.227762
108.306885,809.234619,444.488525,1.228502
110.778809,806.854248,433.410645,1.229242
113.342285,795.684814,431.121826,1.229979
101.440430,788.726807,431.213379,1.230710
116.363525,789.825439,422.973633,1.231440
111.145020,780.578613,415.008545,1.232170
110.046387,789.642334,408.874512,1.232906
105.377197,780.212402,404.388428,1.233646
109.405518,786.346436,403.472900,1.234386
106.567383,782.867432,400.085449,1.235126
102.996826,775.085449,393.127441,1.235865
111.511230,783.599854,401.184082,1.236595
108.764648,782.135010,403.930664,1.237325
110.778809,787.353516,402.557373,1.238055
108.123779,779.754639,395.507812,1.238794
104.919434,777.008057,394.409180,1.239535
104.919434,755.126953,393.585205,1.240275
104.553223,768.951416,391.021729,1.241015
106.292725,768.035889,388.000488,1.241755
108.856201,761.352539,370.605469,1.242504
103.271484,765.930176,369.689941,1.243245
99.975586,758.605957,370.239258,1.243985
105.560303,759.521484,358.978271,1.244725
92.926025,753.845215,358.703613,1.245475
105.194092,735.992432,349.639893,1.246215
106.567383,752.014160,348.266602,1.246955
104.461670,751.464844,352.935791,1.247694
113.250732,751.556396,353.027344,1.248444
101.715088,744.323730,346.710205,1.249184
106.658936,744.049072,349.548340,1.249925
112.335205,757.415771,345.245361,1.250665
105.651855,753.204346,343.872070,1.251414
98.876953,759.429932,345.977783,1.252154
100.799561,761.901855,351.745605,1.252894
100.250244,761.260986,351.013184,1.253634
107.025146,762.359619,351.196289,1.254383
107.025146,771.331787,355.499268,1.255123
97.778320,779.479980,355.865479,1.255863
107.940674,777.374268,355.682373,1.256710
105.834961,784.790039,356.506348,1.257456
108.032227,788.818359,372.253418,1.258196
105.377197,794.403076,371.704102,1.258936
113.800049,795.410156,378.662109,1.259676
118.469238,803.375244,398.071289,1.260415
126.708984,824.707031,398.803711,1.261155
118.286133,821.685791,410.247803,1.261902
121.215820,821.136475,424.621582,1.262673
131.378174,824.249268,423.797607,1.263414
137.603760,823.516846,425.079346,1.264154
138.244629,828.826904,428.375244,1.264895
140.350342,831.665039,439.636230,1.265644
133.026123,830.474854,443.298340,1.266384
132.843018,843.017578,442.108154,1.267124
134.490967,844.573975,442.291260,1.267863
135.589600,848.785400,447.509766,1.268597
135.955811,849.609375,433.685303,1.269327
134.582520,848.510742,444.854736,1.270057
142.913818,850.341797,442.657471,1.270787
160.583496,845.397949,456.848145,1.271523
151.885986,857.482910,479.095459,1.272263
170.745850,872.222900,493.194580,1.273003
173.492432,872.497559,499.694824,1.273743
175.140381,883.575439,508.941650,1.274483
189.331055,892.913818,508.026123,1.275222
179.168701,894.744873,474.517822,1.275970
175.781250,897.033691,488.342285,1.276716
169.372559,899.230957,462.890625,1.277501
162.872314,901.428223,462.890625,1.278247
159.759521,861.511230,449.615479,1.279006
139.801025,817.108154,453.277588,1.279747
162.231445,816.101074,408.966064,1.280499
98.236084,839.080811,397.796631,1.281239
132.568359,859.588623,400.817871,1.281979
140.441895,870.758057,391.204834,1.282719
141.448975,940.429688,403.289795,1.283469
148.315430,948.486328,445.220947,1.284209
190.887451,972.198486,461.242676,1.284950
168.457031,964.965820,470.947266,1.285713
187.316895,945.648193,488.800049,1.286507
177.703857,942.718506,495.117188,1.287255
179.351807,917.633057,501.800537,1.288003
180.816650,905.364990,497.131348,1.288743
171.203613,897.033691,479.736328,1.289501
172.485352,904.357910,478.820801,1.290251
175.140381,919.647217,453.643799,1.290995
160.034180,921.386719,443.756104,1.291735
153.808594,928.985596,447.875977,1.292490
169.555664,934.204102,443.572998,1.293232
156.280518,947.479248,456.390381,1.293974
155.639648,954.711914,467.285156,1.294714
173.767090,941.345215,470.672607,1.295459
165.985107,939.880371,485.778809,1.296191
165.618896,942.352295,492.828369,1.296921
175.689697,943.908691,512.054443,1.297651
163.879395,949.676514,502.258301,1.298409
164.520264,958.282471,507.110596,1.299149
169.921875,958.831787,507.751465,1.299889
159.393311,961.029053,506.561279,1.300630
165.435791,950.225830,497.680664,1.301378
156.921387,942.718506,503.356934,1.302118
148.956299,938.323975,505.737305,1.302858
134.765625,930.816650,490.905762,1.303598
139.160156,928.985596,487.884521,1.304346
132.202148,935.302734,483.398438,1.305086
131.835938,931.640625,480.926514,1.305826
130.462646,931.274414,476.257324,1.306566
113.800049,935.302734,463.714600,1.307307
115.539551,927.978516,460.510254,1.308037
125.793457,911.224365,453.094482,1.308768
96.771240,907.562256,433.227539,1.309497
115.539551,901.245117,424.346924,1.310281
116.363525,892.913818,415.832520,1.311026
114.166260,895.385742,417.846680,1.311766
118.560791,883.117676,415.832520,1.312506
122.406006,880.279541,416.473389,1.313257
123.596191,879.730225,428.192139,1.313997
130.920410,873.321533,428.100586,1.314737
121.673584,882.843018,435.516357,1.315477
123.870850,884.399414,434.875488,1.316217
127.532959,872.406006,433.410645,1.316947
127.258301,869.567871,422.332764,1.317677
120.574951,867.095947,428.833008,1.318407
117.370605,856.567383,414.550781,1.319211
111.968994,820.587158,405.395508,1.319951
106.384277,838.623047,397.338867,1.320692
97.137451,832.489014,401.458740,1.321433
103.912354,834.045410,382.873535,1.322184
109.771729,824.981689,394.317627,1.322924
106.018066,816.192627,389.007568,1.323664
96.130371,810.241699,389.373779,1.324407
104.187012,799.072266,388.824463,1.325162
104.370117,791.656494,397.155762,1.325902
101.165771,794.219971,392.395020,1.326642
102.813721,790.557861,385.620117,1.327382
97.045898,789.459229,376.098633,1.328132
94.573975,782.867432,381.134033,1.328872
88.714600,787.078857,373.077393,1.329703
80.383301,782.958984,364.379883,1.330443
90.545654,787.353516,353.668213,1.331185
95.855713,789.642334,338.653564,1.331915
78.094482,781.127930,330.322266,1.332645
79.559326,796.508789,306.610107,1.333375
69.122314,801.269531,289.489746,1.334129
69.580078,797.515869,277.221680,1.334869
69.030762,815.734863,265.594482,1.335609
68.389893,812.072754,266.235352,1.336350
68.572998,818.206787,259.918213,1.337089
69.030762,820.587158,257.354736,1.337820
57.495117,820.129395,265.502930,1.338550
60.333252,825.164795,281.066895,1.339280
72.418213,832.672119,292.785645,1.340070
62.805176,857.299805,305.236816,1.340808
68.939209,859.405518,323.272705,1.341563
71.228027,873.870850,347.625732,1.342304
78.186035,898.956299,367.034912,1.343055
79.742432,927.703857,395.050049,1.343796
87.524414,933.380127,419.311523,1.344536
88.714600,949.676514,437.072754,1.345275
91.735840,946.929932,449.798584,1.346024
87.158203,950.592041,445.953369,1.346765
83.404541,953.155518,452.911377,1.347504
68.847656,953.521729,457.946777,1.348244
74.981689,960.754395,450.897217,1.348985
73.059082,966.430664,451.629639,1.349727
83.038330,961.395264,455.383301,1.350463
70.953369,951.232910,471.954346,1.351234
74.432373,979.705811,576.690674,1.351988
70.861816,980.255127,636.840820,1.352728
80.749512,1003.875732,712.646484,1.353468
65.643311,1013.031006,758.697510,1.354210
100.341797,1020.263672,748.901367,1.354950
104.278564,1022.094727,725.830078,1.355690
89.630127,1020.812988,711.273193,1.356431
129.821777,1010.101318,663.208008,1.357171
141.265869,999.572754,594.177246,1.357914
128.265381,970.001221,564.880371,1.358644
139.801025,936.126709,490.814209,1.359374
135.314941,910.491943,442.932129,1.360131
79.010010,879.180908,422.607422,1.360892
81.207275,861.785889,399.719238,1.361639
71.594238,867.187500,373.992920,1.362395
54.107666,836.059570,372.253418,1.363135
86.791992,826.721191,380.493164,1.363865
83.862305,819.580078,384.887695,1.364595
70.220947,816.101074,387.084961,1.365325
84.503174,812.438965,405.120850,1.366094
95.214844,808.319092,413.452148,1.366842
104.370117,791.564941,432.128906,1.367583
112.976074,791.381836,426.269531,1.368322
117.462158,770.690918,427.185059,1.369062
96.679688,762.542725,418.395996,1.369802
112.518311,752.471924,418.212891,1.370541
106.109619,734.344482,399.444580,1.371281
108.398438,722.900391,373.626709,1.372027
98.236084,722.259521,358.337402,1.372757
93.383789,704.589844,347.808838,1.373487
95.764160,715.393066,347.991943,1.374217
79.833984,705.871582,332.519531,1.374954
71.960449,705.505371,321.441650,1.375694
86.334229,702.575684,309.448242,1.376433
71.502686,708.343506,302.215576,1.377172
72.509766,715.942383,291.870117,1.377921
61.340332,718.597412,290.954590,1.378660
67.016602,732.147217,276.855469,1.379399
60.791016,743.041992,260.192871,1.380139
55.480957,769.592285,242.980957,1.380879
64.727783,767.120361,235.015869,1.381619
60.241699,753.753662,240.142822,1.382359
62.896729,762.542725,236.297607,1.383098
33.416748,756.958008,227.233887,1.383834
58.685303,746.795654,245.178223,1.384564
66.467285,743.041992,244.079590,1.385293
44.128418,741.302490,234.100342,1.386023
36.987305,746.612549,230.529785,1.386754
48.889160,734.710693,233.642578,1.387508
45.776367,734.069824,236.846924,1.388239
49.072266,741.851807,229.339600,1.388969
46.051025,735.534668,223.114014,1.389706
57.769775,736.816406,224.395752,1.390445
74.432373,747.985840,213.958740,1.391185
62.622070,753.295898,203.247070,1.391925
51.361084,769.500732,199.584961,1.392666
80.566406,771.514893,199.310303,1.393406
86.791992,766.845703,205.261230,1.394146
84.594727,784.790039,211.120605,1.394886
95.031738,789.184570,221.649170,1.395625
106.292725,793.762207,229.064941,1.396365
103.637695,823.883057,240.966797,1.397105
107.025146,840.270996,258.087158,1.397871
111.236572,845.214844,260.009766,1.398613
121.215820,862.335205,271.453857,1.399353
118.927002,852.081299,274.566650,1.400093
111.419678,852.447510,287.750244,1.400832
119.018555,841.827393,304.687500,1.401572
134.490967,854.919434,304.687500,1.402319
130.737305,852.355957,326.293945,1.403145
125.885010,850.433350,331.878662,1.403885
149.780273,847.045898,348.632812,1.404643
142.822266,853.912354,373.077393,1.405384
134.124756,841.186523,373.626709,1.406124
135.864258,837.799072,380.950928,1.406864
141.815186,827.270508,372.711182,1.407614
128.997803,817.291260,371.154785,1.408354
128.265381,804.931641,356.597900,1.409094
117.004395,798.706055,347.076416,1.409834
114.624023,791.473389,310.729980,1.410574
110.870361,783.782959,309.906006,1.411304
95.123291,778.289795,300.750732,1.412034
98.785400,770.965576,284.912109,1.412764
105.834961,762.908936,279.144287,1.413518
92.651367,757.232666,256.896973,1.414258
86.791992,745.239258,239.776611,1.414998
108.947754,725.280762,229.705811,1.415755
101.257324,729.125977,199.584961,1.416538
95.031738,706.054688,157.470703,1.417278
114.990234,723.724365,146.575928,1.418018
108.489990,728.851318,121.307373,1.418758
82.122803,731.506348,78.826904,1.419507
64.544678,713.470459,63.079834,1.420247
87.249756,704.772949,57.495117,1.420987
66.101074,706.878662,41.015625,1.421726
45.501709,727.935791,14.190674,1.422488
49.804688,753.479004,-24.536133,1.423225
69.763184,746.978760,-26.916504,1.423991
37.628174,726.013184,-17.761230,1.424744
38.452148,707.885742,-27.923584,1.425509
53.192139,712.646484,-33.233643,1.426249
62.072754,676.208496,-61.340332,1.426989
32.318115,680.511475,-72.692871,1.427737
9.338379,657.440186,-92.559814,1.428443
76.446533,676.849365,-166.351318,1.429192
71.685791,638.580322,-142.272949,1.429951
0.183105,638.488770,-75.897217,1.430696
164.062500,631.164551,-130.737305,1.431459
-162.139893,639.862061,-185.852051,1.432200
85.876465,686.004639,-225.677490,1.432940
163.238525,702.575684,-279.968262,1.433690
-49.438477,706.054688,-309.814453,1.434455
-42.388916,725.006104,-347.900391,1.435195
40.191650,754.852295,-385.528564,1.435935
-10.345459,791.381836,-399.078369,1.436675
-68.664551,785.522461,-427.459717,1.437424
0.457764,855.285645,-463.165283,1.438164
-27.191162,882.476807,-481.292725,1.438904
-107.757568,826.446533,-509.490967,1.439644
-104.095459,834.686279,-519.653320,1.440388
-36.621094,856.475830,-537.231445,1.441119
-83.404541,878.997803,-540.710449,1.441849
-95.764160,883.941650,-534.210205,1.442579
-50.354004,911.407471,-516.632080,1.443333
-79.193115,930.908203,-453.552246,1.444076
-73.883057,978.607178,-445.861816,1.444817
-42.022705,1008.636475,-492.828369,1.445557
29.479980,1066.314697,-474.060059,1.446307
31.768799,1105.316162,-425.811768,1.447048
22.155762,1135.253906,-371.978760,1.447787
28.106689,1162.994385,-334.991455,1.448528
2.197266,1169.952393,-277.130127,1.449277
4.669189,1183.776855,-208.557129,1.450017
66.192627,1224.151611,-169.006348,1.450757
69.488525,1273.315430,-75.531006,1.451497
130.096436,1248.870850,-51.635742,1.452237
376.281738,1331.268311,196.197510,1.452968
189.788818,1386.383057,440.917969,1.453698
461.425781,1146.057129,472.595215,1.454428
466.735840,1430.603027,508.209229,1.455171
-34.423828,1298.492432,546.844482,1.455902
466.827393,1439.575195,610.382080,1.456632
480.102539,1092.773438,639.862061,1.457362
161.956787,1613.891602,639.770508,1.458112
-17.395020,1711.944580,706.237793,1.458852
275.848389,1767.059326,737.823486,1.459592
40.283203,1660.400391,794.128418,1.460332
-52.825928,1641.632080,860.778809,1.461081
378.753662,1777.496338,889.984131,1.461821
298.828125,1597.961426,962.677002,1.462562
4.760742,1599.884033,995.910645,1.463306
330.322266,1617.004395,1056.518555,1.464063
202.697754,1578.369141,1102.203369,1.464806
143.188477,1556.030273,1115.295410,1.465547
150.787354,1567.840576,1095.794678,1.466287
192.352295,1587.890625,1058.349609,1.467038
179.443359,1604.736328,1035.552979,1.467778
205.810547,1604.644775,996.459961,1.468519
239.410400,1588.531494,967.803955,1.469282
-13.366699,1415.313721,1236.877441,1.470023
644.439697,1302.246094,1419.158936,1.470763
915.710449,1451.568604,1154.479980,1.471503
301.300049,1644.744873,955.993652,1.472243
359.985352,1688.140869,819.396973,1.472983
-20.233154,1633.026123,965.606689,1.473723
476.715088,1532.867432,1087.738037,1.474463
197.387695,1502.471924,861.053467,1.475293
-12.359619,1481.597900,782.501221,1.476024
117.095947,1351.593018,682.434082,1.476755
48.431396,1307.098389,412.536621,1.477489
-200.958252,1220.306396,271.362305,1.478223
-135.040283,1145.050049,118.469238,1.478955
-42.572021,1110.260010,41.748047,1.479685
106.842041,1115.570068,-131.103516,1.480415
204.620361,1110.351562,-224.304199,1.481152
26.458740,993.255615,-263.031006,1.481892
-0.366211,914.611816,-321.166992,1.482632
81.939697,919.555664,-331.054688,1.483373
194.458008,914.428711,-276.031494,1.484114
300.476074,909.210205,-184.204102,1.484854
554.077148,939.514160,-174.774170,1.485594
591.613770,947.387695,-161.499023,1.486334
659.179688,940.704346,-185.302734,1.487078
659.820557,938.873291,-256.347656,1.487836
623.382568,866.729736,-331.329346,1.488579
393.127441,837.799072,-389.282227,1.489319
222.290039,811.981201,-451.995850,1.490071
218.994141,823.150635,-391.479492,1.490811
127.716064,824.890137,-356.597900,1.491551
-104.553223,842.834473,-314.117432,1.492291
-205.444336,881.927490,-311.004639,1.493040
-188.690186,872.589111,-334.991455,1.493781
-215.240479,835.235596,-388.549805,1.494521
-171.936035,837.615967,-417.480469,1.495274
-301.208496,855.560303,-470.306396,1.496023
-424.438477,819.213867,-454.833984,1.496784
-88.165283,790.100098,-342.407227,1.497528
2991.027832,1281.097412,-113.525391,1.498268
2999.908447,1328.063965,-0.549316,1.499008
771.057129,1013.397217,-128.448486,1.499748
-700.653076,917.999268,-136.505127,1.500489
-1131.317139,934.204102,-267.883301,1.501246
317.962646,952.697754,-307.342529,1.501988
1060.272217,1110.717773,-337.829590,1.502728
1242.462158,1120.422363,-348.083496,1.503468
360.900879,1024.383545,-374.084473,1.504208
-184.020996,936.309814,-330.322266,1.504990
-935.943604,937.133789,-256.805420,1.505736
113.250732,975.402832,-169.372559,1.506472
780.120850,1062.561035,-168.182373,1.507209
1146.331787,1153.015137,-164.428711,1.507996
293.884277,1055.694580,-207.183838,1.508749
-74.340820,937.591553,-295.074463,1.509496
-198.211670,922.851562,-324.737549,1.510236
106.475830,901.062012,-355.407715,1.510995
290.313721,945.831299,-400.360107,1.511736
587.860107,1024.200439,-440.826416,1.512477
582.641602,1002.685547,-472.045898,1.513217
417.388916,992.248535,-495.483398,1.513968
-288.757324,1010.559082,-472.229004,1.514709
-474.975586,984.832764,25.634766,1.515449
-50.170898,1076.934814,150.878906,1.516193
607.543945,1303.894043,250.579834,1.516969
1331.176758,1448.913574,223.937988,1.517710
1233.947754,1421.630859,165.435791,1.518450
282.165527,1274.230957,105.010986,1.519190
-158.935547,1183.135986,48.797607,1.519940
-232.635498,1171.417236,38.635254,1.520680
619.720459,1293.457031,-41.198730,1.521420
979.705811,1355.255127,-79.742432,1.522160
951.690674,1328.887939,-126.800537,1.522899
594.818115,1235.778809,-216.796875,1.523630
-16.204834,1225.891113,-258.911133,1.524360
424.530029,1307.647705,-37.078857,1.525090
731.506348,1248.229980,405.303955,1.525852
262.207031,1351.776123,435.058594,1.526595
695.892334,1538.452148,308.532715,1.527335
1057.617188,1511.260986,172.943115,1.528076
622.650146,1358.367920,-290.222168,1.528826
614.959717,1530.761719,-623.016357,1.529567
1463.195801,1513.732910,-512.603760,1.530307
-217.529297,1381.347656,-152.069092,1.531047
494.934082,1415.222168,47.790527,1.531789
326.385498,1468.688965,42.938232,1.532520
-147.491455,1441.314697,117.462158,1.533250
522.216797,1435.272217,162.780762,1.533980
58.593750,1399.475098,91.644287,1.534720
144.287109,1362.304688,-2.471924,1.535450
397.430420,1333.374023,-82.031250,1.536180
229.705811,1312.225342,-37.628174,1.536910
58.959961,1268.737793,-7.324219,1.537664
-10.894775,1265.991211,-17.944336,1.538404
-105.834961,1250.885010,35.247803,1.539144
-34.790039,1309.112549,86.151123,1.539884
-131.652832,1318.084717,126.434326,1.540632
-189.331055,1341.888428,142.456055,1.541372
-225.860596,1374.298096,162.872314,1.542112
-234.466553,1392.150879,188.598633,1.542852
-186.401367,1342.346191,218.261719,1.543601
-284.088135,1376.403809,226.501465,1.544341
-351.562500,1374.481201,230.987549,1.545165
-407.135010,1327.789307,183.197021,1.545906
-417.938232,1301.330566,142.181396,1.546647
-452.911377,1290.344238,120.758057,1.547378
-446.502686,1270.660400,81.390381,1.548135
-425.262451,1220.672607,27.832031,1.548876
-368.133545,1185.882568,-4.302979,1.549627
-359.436035,1142.486572,-88.531494,1.550366
-383.880615,1129.119873,-157.470703,1.551106
-408.599854,1126.007080,-187.408447,1.551847
-407.043457,1128.479004,-234.375000,1.552596
-405.670166,1135.711670,-243.621826,1.553336
-392.211914,1153.472900,-259.094238,1.554076
-378.936768,1140.197754,-287.841797,1.554816
-344.055176,1103.576660,-298.095703,1.555555
-333.892822,1067.138672,-359.985352,1.556285
-264.404297,1027.862549,-438.446045,1.557015
-93.200684,983.001709,-446.044922,1.557746
60.516357,941.619873,-497.039795,1.558499
371.612549,951.141357,-534.759521,1.559239
463.165283,918.090820,-624.481201,1.559979
410.522461,885.040283,-761.718750,1.560719
27.008057,800.445557,-827.636719,1.561468
-530.639648,672.912598,-656.433105,1.562208
-967.163086,684.173584,-453.552246,1.562948
1020.904541,874.328613,-249.023438,1.563687
1324.768066,979.522705,-222.747803,1.564437
56.304932,986.572266,-136.779785,1.565177
1830.963135,2208.251953,2687.438965,1.565916
2351.623535,2265.106201,2829.986572,1.566656
2999.908447,2801.696777,2999.908447,1.567395
2627.471924,2644.775391,1794.158936,1.568137
1104.309082,2032.287598,1375.579834,1.568874
-100.158691,1071.441650,-406.311035,1.569638
-565.521240,212.677002,-1508.056641,1.570408
-861.968994,190.521240,-1961.608887,1.571149
-909.484863,193.634033,-2073.120117,1.571889
-975.585938,215.332031,-1878.662109,1.572629
-680.053711,161.773682,-1611.053467,1.573378
-430.480957,268.341064,-1064.300537,1.574118
113.159180,368.225098,-869.201660,1.574858
-335.266113,453.002930,-596.191406,1.575598
-605.346680,464.996338,-340.667725,1.576338
-1970.306396,742.675781,14.007568,1.577097
-2005.920410,885.681152,301.666260,1.577838
-1598.144531,860.961914,-100.708008,1.578579
-550.781250,766.296387,-461.334229,1.579331
-303.131104,558.837891,-894.104004,1.580072
-366.851807,524.139404,-890.258789,1.580812
-146.942139,653.411865,-608.184814,1.581552
37.536621,707.244873,-339.843750,1.582315
376.007080,748.626709,-66.284180,1.583076
1393.981934,547.119141,144.561768,1.583842
1790.679932,557.647705,2.197266,1.584592
1784.088135,769.592285,-183.288574,1.585352
1749.298096,821.685791,-193.450928,1.586095
1539.733887,810.241699,-219.543457,1.586835
1155.670166,793.670654,-279.235840,1.587576
147.766113,778.564453,-240.875244,1.588315
-395.690918,792.205811,-127.716064,1.589056
-370.239258,838.073730,353.851318,1.589809
1104.492188,1022.277832,915.527344,1.590569
1708.007812,1592.834473,1332.275391,1.591310
581.359863,1804.595947,819.671631,1.592050
-1018.890381,1447.998047,69.213867,1.592790
-1534.698486,1090.301514,-409.332275,1.593532
-1182.861328,637.390137,-485.687256,1.594263
-576.416016,599.029541,-642.700195,1.594993
-349.090576,646.270752,-661.560059,1.595723
88.531494,665.679932,-609.649658,1.596467
323.730469,710.998535,-392.761230,1.597207
518.371582,836.151123,-259.002686,1.597947
312.286377,950.775146,1.007080,1.598688
265.502930,999.114990,120.208740,1.599428
168.365479,1055.786133,202.789307,1.600169
34.606934,1025.665283,-30.853271,1.600909
-158.111572,932.281494,-236.846924,1.601649
-96.221924,774.627686,-593.994141,1.602401
-81.481934,722.167969,-598.297119,1.603142
2.380371,794.860840,-486.511230,1.603881
140.350342,917.175293,-249.572754,1.604621
302.490234,968.078613,-152.526855,1.605354
217.071533,974.029541,-79.467773,1.606084
178.161621,996.826172,-96.130371,1.606814
126.342773,992.065430,-117.553711,1.607544
150.695801,1005.706787,-168.914795,1.608282
203.796387,982.086182,-205.810547,1.609022
245.178223,926.147461,-280.059814,1.609762
244.812012,910.034180,-265.869141,1.610502
283.355713,941.802979,-257.995605,1.611237
311.553955,972.198486,-190.612793,1.611967
316.406250,977.233887,-189.331055,1.612697
249.389648,940.795898,-278.045654,1.613428
233.093262,915.985107,-399.627686,1.614164
244.995117,886.871338,-430.572510,1.614981
260.559082,898.590088,-437.713623,1.615722
252.593994,912.322998,-414.733887,1.616464
240.234375,932.922363,-356.506348,1.617252
295.349121,942.901611,-329.315186,1.617996
339.111328,942.352295,-320.343018,1.618738
390.563965,949.493408,-326.202393,1.619478
342.590332,968.261719,-302.856445,1.620231
285.186768,990.600586,-259.918213,1.620972
198.211670,1005.340576,-244.171143,1.621712
187.042236,1012.573242,-258.728027,1.622452
188.140869,1007.812500,-245.910645,1.623221
206.634521,1048.461914,-191.619873,1.623967
244.903564,1067.962646,-104.278564,1.624722
260.559082,1078.033447,-87.432861,1.625478
262.664795,1077.026367,-122.589111,1.626270
272.094727,1054.870605,-235.473633,1.627033
302.581787,1015.319824,-337.554932,1.627786
323.089600,1016.784668,-361.358643,1.628556
358.062744,1040.039062,-362.091064,1.629340
391.845703,1051.757812,-321.166992,1.630116
434.326172,1074.829102,-283.172607,1.630875
456.207275,1094.055176,-288.391113,1.631657
410.247803,1104.675293,-293.060303,1.632415
322.998047,1077.758789,-276.855469,1.633194
275.115967,1082.336426,-259.094238,1.633953
179.718018,1082.153320,-249.664307,1.634735
-21.514893,1157.775879,-175.964355,1.635507
-198.303223,1151.824951,-70.587158,1.636277
-323.913574,1136.260986,-90.270996,1.637019
-114.532471,1092.590332,-239.959717,1.637818
187.500000,1084.259033,-367.126465,1.638571
268.524170,1097.991943,-363.922119,1.639331
274.932861,1098.175049,-321.533203,1.640078
207.916260,1125.549316,-238.952637,1.640831
195.648193,1125.366211,-207.458496,1.641596
231.903076,1131.134033,-218.170166,1.642340
317.321777,1126.647949,-277.954102,1.643094
339.569092,1105.773926,-309.082031,1.643835
327.484131,1120.239258,-305.969238,1.644575
307.159424,1123.352051,-284.545898,1.645315
312.194824,1135.620117,-271.087646,1.646064
315.765381,1144.226074,-250.213623,1.646804
319.152832,1143.127441,-238.403320,1.647544
291.870117,1124.542236,-272.094727,1.648339
275.573730,1114.288330,-272.094727,1.649120
278.503418,1097.900391,-260.559082,1.649873
291.595459,1118.499756,-260.742188,1.650619
299.560547,1114.379883,-243.988037,1.651361
260.742188,1102.020264,-225.769043,1.652119
259.002686,1097.534180,-246.002197,1.652860
265.960693,1080.963135,-246.276855,1.653600
236.114502,1097.991943,-231.536865,1.654340
223.297119,1094.329834,-223.205566,1.655093
191.986084,1093.780518,-225.036621,1.655833
164.245605,1080.871582,-227.691650,1.656573
162.689209,1065.307617,-246.276855,1.657313
174.407959,1072.082520,-256.896973,1.658061
173.583984,1068.420410,-253.417969,1.658791
171.661377,1081.146240,-244.262695,1.659522
177.429199,1078.765869,-242.065430,1.660252
185.302734,1083.435059,-231.903076,1.661008
188.323975,1070.709229,-235.198975,1.661748
187.591553,1072.082520,-229.064941,1.662488
202.331543,1065.399170,-234.466553,1.663228
232.269287,1079.132080,-244.903564,1.663977
235.198975,1076.110840,-249.114990,1.664717
260.559082,1053.497314,-254.425049,1.665456
261.108398,1049.743652,-258.361816,1.666196
280.334473,1056.976318,-259.277344,1.666948
284.637451,1055.328369,-272.277832,1.667689
265.869141,1044.342041,-272.094727,1.668429
266.784668,1035.827637,-285.461426,1.669169
298.095703,1052.856445,-294.616699,1.669908
303.771973,1058.624268,-274.841309,1.670639
313.751221,1059.356689,-291.595459,1.671369
317.962646,1049.926758,-318.420410,1.672099
320.434570,1059.722900,-318.695068,1.672853
305.053711,1048.736572,-326.751709,1.673619
320.617676,1046.081543,-346.343994,1.674360
319.427490,1049.011230,-350.646973,1.675100
319.152832,1043.609619,-347.625732,1.675842
317.596436,1041.229248,-350.372314,1.676573
293.151855,1043.609619,-353.668213,1.677304
273.651123,1035.369873,-371.246338,1.678033
281.066895,1037.658691,-370.880127,1.678783
302.215576,1039.306641,-366.760254,1.679523
302.032471,1027.038574,-372.253418,1.680263
317.596436,1022.369385,-381.225586,1.681002
322.998047,1014.221191,-389.373779,1.681741
328.491211,1018.066406,-394.683838,1.682472
326.019287,1012.390137,-404.937744,1.683202
330.688477,1019.989014,-386.901855,1.683933
340.301514,1036.010742,-383.605957,1.684772
327.667236,1026.397705,-371.337891,1.685513
332.244873,1027.679443,-374.908447,1.686253
333.160400,1021.728516,-364.013672,1.686993
322.540283,1031.799316,-379.394531,1.687742
321.899414,1036.285400,-380.767822,1.688482
292.785645,1025.207520,-372.894287,1.689222
286.102295,1018.798828,-386.718750,1.689961
303.497314,1016.326904,-385.711670,1.690711
299.468994,1024.291992,-369.873047,1.691451
287.109375,1022.003174,-384.979248,1.692191
270.263672,1040.222168,-395.690918,1.692931
222.930908,1038.940430,-385.711670,1.693671
234.008789,1038.665771,-388.183594,1.694401
235.565186,1032.623291,-346.893311,1.695132
272.827148,1050.476074,-353.942871,1.695888
257.080078,1039.855957,-356.689453,1.696639
197.570801,1033.355713,-356.506348,1.697379
203.887939,1035.278320,-355.682373,1.698119
244.262695,1073.272705,-338.287354,1.698858
225.952148,1083.801270,-300.109863,1.699607
216.430664,1086.181641,-292.602539,1.700347
214.782715,1072.723389,-294.891357,1.701087
220.001221,1072.814941,-315.765381,1.701828
209.564209,1048.461914,-281.707764,1.702567
265.502930,1080.688477,-314.941406,1.703298
232.727051,1059.265137,-321.075439,1.704028
205.261230,1080.688477,-304.870605,1.704758
193.450928,1067.596436,-299.835205,1.705513
186.492920,1062.561035,-303.955078,1.706253
194.366455,1070.983887,-301.391602,1.707004
204.986572,1069.152832,-300.476074,1.707751
189.422607,1075.836182,-306.152344,1.708527
166.168213,1052.581787,-321.350098,1.709274
159.027100,1040.313721,-344.604492,1.710015
180.358887,1043.060303,-334.625244,1.710755
193.450928,1058.441162,-312.927246,1.711509
189.971924,1059.997559,-325.927734,1.712250
168.914795,1038.574219,-338.012695,1.712989
150.695801,1051.116943,-344.696045,1.713729
163.146973,1039.398193,-337.005615,1.714478
177.154541,1040.771484,-335.357666,1.715218
180.358887,1041.046143,-366.027832,1.715958
163.879395,1017.791748,-354.583740,1.716698
139.801025,1016.693115,-353.668213,1.717438
147.949219,1016.052246,-350.555420,1.718168
155.090332,1021.636963,-342.315674,1.718898
148.681641,1024.200439,-342.407227,1.719628
120.391846,1010.375977,-341.400146,1.720382
112.243652,985.107422,-340.759277,1.721151
117.370605,982.269287,-338.287354,1.721914
125.976562,981.811523,-327.575684,1.722675
136.779785,986.114502,-355.133057,1.723445
89.447021,960.205078,-344.421387,1.724186
70.129395,944.274902,-336.730957,1.724926
110.321045,964.782715,-337.371826,1.725666
138.885498,961.578369,-333.435059,1.726415
103.271484,931.274414,-317.596436,1.727155
126.251221,898.223877,-394.226074,1.727895
103.454590,910.766602,-376.464844,1.728635
86.242676,919.738770,-320.251465,1.729374
104.553223,950.408936,-330.230713,1.730105
90.637207,922.668457,-329.315186,1.730835
64.636230,877.716064,-334.716797,1.731565
70.312500,856.567383,-319.793701,1.732320
127.349854,905.639648,-331.787109,1.733059
124.694824,889.068604,-334.716797,1.733799
64.178467,860.687256,-350.097656,1.734539
37.902832,841.735840,-355.499268,1.735287
62.438965,860.321045,-341.033936,1.736030
82.763672,860.321045,-300.292969,1.736791
82.489014,786.895752,-324.554443,1.737553
106.567383,780.029297,-427.917480,1.738297
95.306396,863.708496,-406.677246,1.739037
56.579590,851.806641,-361.175537,1.739784
-23.986816,830.017090,-369.689941,1.740528
-12.908936,856.384277,-354.766846,1.741269
8.789062,856.658936,-318.695068,1.742010
77.362061,871.398926,-323.272705,1.742750
69.396973,834.777832,-359.436035,1.743503
50.811768,817.657471,-386.627197,1.744244
29.479980,817.382812,-381.134033,1.744984
62.164307,826.080322,-340.301514,1.745724
79.742432,840.728760,-312.835693,1.746467
90.637207,846.405029,-317.687988,1.747198
73.059082,848.693848,-325.927734,1.747928
61.248779,837.158203,-349.731445,1.748659
90.637207,816.558838,-346.893311,1.749403
72.143555,827.636719,-335.357666,1.750134
65.093994,834.045410,-323.822021,1.750864
71.868896,830.932617,-320.617676,1.751594
55.664062,816.650391,-337.280273,1.752328
53.192139,814.727783,-355.590820,1.753069
46.325684,810.058594,-355.407715,1.753809
33.142090,806.945801,-338.378906,1.754550
25.726318,800.903320,-329.498291,1.755376
33.508301,831.481934,-339.294434,1.756117
31.402588,831.115723,-331.054688,1.756858
15.563965,822.875977,-342.224121,1.757598
-1.739502,830.566406,-347.259521,1.758336
49.804688,843.109131,-347.442627,1.759082
65.460205,843.475342,-359.436035,1.759823
61.523438,849.975586,-366.302490,1.760564
62.530518,833.221436,-384.338379,1.761305
57.037354,854.278564,-382.781982,1.762046
50.994873,850.158691,-361.907959,1.762787
62.438965,859.497070,-374.450684,1.763528
80.932617,832.214355,-358.245850,1.764269
126.983643,866.546631,-361.541748,1.765010
115.356445,847.595215,-352.203369,1.765750
114.257812,844.940186,-348.083496,1.766491
109.130859,843.109131,-335.723877,1.767226
141.815186,853.179932,-341.766357,1.767956
189.056396,870.025635,-340.209961,1.768687
207.183838,877.899170,-334.808350,1.769417
194.274902,856.658936,-347.351074,1.770156
158.477783,882.843018,-302.764893,1.770898
116.729736,883.392334,-284.637451,1.771638
96.313477,869.476318,-276.855469,1.772379
88.531494,850.891113,-318.511963,1.773119
131.652832,846.221924,-315.856934,1.773860
176.330566,831.848145,-293.609619,1.774607
232.452393,811.614990,-322.265625,1.775349
236.846924,755.401611,-330.596924,1.776090
255.981445,736.816406,-324.005127,1.776830
210.937500,729.492188,-336.364746,1.777583
68.206787,759.155273,-364.929199,1.778330
-20.599365,806.854248,-375.457764,1.779093
-84.960938,817.840576,-377.838135,1.779839
31.951904,833.496094,-390.380859,1.780579
148.590088,819.854736,-310.455322,1.781321
365.570068,833.862305,-268.524170,1.782060
534.118652,885.314941,-172.943115,1.782820
543.548584,921.203613,-147.857666,1.783568
548.583984,961.853027,-144.378662,1.784333
481.842041,976.226807,-133.392334,1.785112
531.097412,1024.475098,-22.979736,1.785875
552.154541,1072.814941,68.298340,1.786620
505.004883,1166.198730,182.189941,1.787361
448.883057,1197.143555,215.423584,1.788120
392.120361,1172.424316,196.014404,1.788861
377.746582,1097.076416,86.883545,1.789601
376.098633,1040.954590,-19.958496,1.790342
570.922852,957.092285,-73.608398,1.791092
718.231201,865.631104,-200.775146,1.791833
727.569580,846.130371,-197.021484,1.792575
476.348877,843.566895,-97.869873,1.793321
353.393555,847.045898,-55.206299,1.794081
192.443848,851.531982,-64.361572,1.794823
155.639648,826.354980,-126.708984,1.795563
147.399902,783.416748,-244.628906,1.796303
154.998779,733.978271,-259.460449,1.797056
271.087646,760.162354,-208.007812,1.797797
336.547852,789.093018,-150.329590,1.798538
427.093506,841.735840,-77.911377,1.799278
456.390381,856.658936,-96.496582,1.800016
413.177490,852.722168,-107.391357,1.800747
351.928711,844.207764,-127.258301,1.801476
355.590820,830.474854,-137.420654,1.802206
385.803223,811.798096,-137.786865,1.802961
412.994385,825.164795,-122.406006,1.803702
404.663086,816.467285,-109.222412,1.804442
404.113770,797.058105,-117.645264,1.805182
417.480469,790.283203,-147.583008,1.805931
418.212891,778.198242,-152.526855,1.806672
397.979736,739.562988,-168.914795,1.807412
382.141113,728.302002,-187.316895,1.808152
420.043945,725.280762,-205.718994,1.808901
426.910400,732.604980,-214.508057,1.809642
407.684326,732.788086,-213.775635,1.810382
379.760742,738.372803,-190.979004,1.811122
400.817871,749.542236,-191.986084,1.811862
408.050537,751.464844,-211.029053,1.812592
397.155762,746.795654,-225.769043,1.813322
385.162354,740.386963,-233.367920,1.814052
419.586182,742.034912,-238.952637,1.814805
408.050537,741.943359,-234.283447,1.815545
413.452148,732.788086,-239.318848,1.816284
422.698975,741.210938,-241.424561,1.817023
422.332764,736.907959,-247.283936,1.817770
379.669189,742.858887,-251.861572,1.818509
391.845703,747.985840,-272.644043,1.819249
337.738037,732.788086,-256.988525,1.819988
355.133057,744.781494,-279.968262,1.820736
332.611084,736.541748,-282.897949,1.821475
329.132080,751.007080,-229.705811,1.822214
344.604492,761.352539,-230.072021,1.822953
349.456787,784.515381,-242.797852,1.823701
306.518555,772.705078,-247.009277,1.824440
262.023926,766.113281,-249.298096,1.825180
314.575195,794.311523,-260.375977,1.825919
327.117920,818.847656,-217.712402,1.826751
312.469482,821.502686,-200.866699,1.827491
304.046631,837.982178,-199.768066,1.828230
302.856445,841.918945,-205.902100,1.828969
309.448242,868.652344,-183.654785,1.829742
304.962158,877.624512,-181.457520,1.830484
310.455322,871.215820,-194.549561,1.831225
287.933350,866.821289,-193.359375,1.831965
324.096680,869.842529,-189.788818,1.832716
298.736572,875.152588,-203.063965,1.833457
319.885254,911.407471,-201.141357,1.834198
291.961670,899.505615,-184.112549,1.834938
273.651123,900.146484,-190.887451,1.835688
292.785645,909.484863,-195.373535,1.836428
291.778564,916.351318,-200.134277,1.837169
297.454834,908.752441,-203.887939,1.837909
306.610107,924.682617,-217.346191,1.838648
323.455811,925.231934,-222.930908,1.839379
325.103760,937.866211,-222.839355,1.840109
307.525635,939.514160,-221.740723,1.840839
258.270264,944.915771,-201.782227,1.841593
242.065430,965.240479,-208.190918,1.842334
249.389648,977.600098,-207.092285,1.843074
261.932373,985.565186,-213.867188,1.843814
253.692627,973.846436,-229.248047,1.844584
244.079590,973.297119,-228.881836,1.845326
253.234863,1003.692627,-221.466064,1.846067
256.256104,992.614746,-206.268311,1.846808
255.249023,981.903076,-219.177246,1.847558
255.249023,971.099854,-227.142334,1.848311
243.621826,977.142334,-228.240967,1.849059
247.833252,989.044189,-226.226807,1.849825
244.995117,986.755371,-218.811035,1.850569
245.910645,990.325928,-226.226807,1.851309
257.446289,991.424561,-233.459473,1.852050
263.214111,997.924805,-231.262207,1.852791
264.587402,989.959717,-228.607178,1.853534
236.206055,978.698730,-235.290527,1.854299
230.804443,987.396240,-235.931396,1.855049
234.191895,1008.636475,-225.860596,1.855808
218.902588,1002.685547,-229.064941,1.856555
209.930420,993.255615,-228.973389,1.857295
208.465576,1000.762939,-229.522705,1.858036
215.057373,1022.735596,-212.127686,1.858797
218.902588,1010.101318,-218.902588,1.859543
202.056885,1003.784180,-214.691162,1.860284
208.831787,1014.862061,-217.987061,1.861024
212.768555,1025.939941,-220.550537,1.861764
210.479736,1002.410889,-221.740723,1.862505
203.338623,1000.946045,-225.769043,1.863246
216.064453,997.009277,-224.945068,1.863988
210.662842,1003.326416,-221.557617,1.864720
214.324951,1003.051758,-214.508057,1.865450
214.508057,995.086670,-225.036621,1.866180
218.627930,978.973389,-226.776123,1.866910
223.937988,973.571777,-256.072998,1.867649
215.881348,969.726562,-239.959717,1.868389
215.240479,974.121094,-252.044678,1.869129
205.535889,966.339111,-247.558594,1.869868
198.760986,968.902588,-241.333008,1.870607
192.993164,957.183838,-235.382080,1.871343
193.908691,951.416016,-238.311768,1.872089
194.549561,948.577881,-241.241455,1.872833
195.922852,945.281982,-237.854004,1.873586
201.965332,956.176758,-240.234375,1.874326
202.239990,950.866699,-239.593506,1.875066
196.105957,949.218750,-244.537354,1.875807
209.930420,946.746826,-238.769531,1.876549
216.979980,945.098877,-244.079590,1.877279
216.888428,942.718506,-245.361328,1.878009
220.550537,936.584473,-245.819092,1.878739
217.803955,922.485352,-239.959717,1.879489
224.121094,924.682617,-244.537354,1.880230
230.529785,930.999756,-245.727539,1.880971
231.536865,917.358398,-245.452881,1.881711
232.177734,913.513184,-247.924805,1.882454
226.409912,910.217285,-244.720459,1.883184
224.945068,903.717041,-244.903564,1.883915
224.578857,904.632568,-243.988037,1.884645
230.712891,899.780273,-250.488281,1.885381
231.994629,890.350342,-258.270264,1.886121
228.057861,889.709473,-254.058838,1.886861
226.226807,891.265869,-252.960205,1.887600
235.198975,884.490967,-255.340576,1.888365
232.635498,888.061523,-255.065918,1.889109
240.875244,890.167236,-252.593994,1.889850
244.354248,890.533447,-257.812500,1.890590
239.318848,885.955811,-258.453369,1.891330
244.720459,881.103516,-256.164551,1.892071
246.093750,888.153076,-249.481201,1.892811
242.980957,889.801025,-258.544922,1.893551
241.424561,887.329102,-246.917725,1.894294
245.086670,889.526367,-249.389648,1.895025
244.171143,896.667480,-239.959717,1.895782
245.635986,895.202637,-240.692139,1.896523
251.037598,895.111084,-240.600586,1.897360
249.206543,897.949219,-235.107422,1.898101
254.974365,893.463135,-230.255127,1.898843
258.819580,900.238037,-225.402832,1.899590
255.981445,901.977539,-222.839355,1.900342
264.953613,911.315918,-225.311279,1.901084
267.608643,903.900146,-228.973389,1.901824
259.368896,900.329590,-224.945068,1.902564
257.080078,907.928467,-218.170166,1.903314
259.643555,902.069092,-234.283447,1.904054
267.059326,902.709961,-229.888916,1.904795
271.820068,905.273438,-227.233887,1.905536
271.362305,903.167725,-224.121094,1.906276
269.348145,903.076172,-221.008301,1.907007
265.777588,898.681641,-222.747803,1.907737
269.348145,898.498535,-226.501465,1.908467
285.827637,901.611328,-235.015869,1.909222
275.299072,897.033691,-234.191895,1.909963
274.841309,903.259277,-233.001709,1.910703
271.728516,899.322510,-228.424072,1.911444
270.812988,904.815674,-228.057861,1.912196
277.038574,912.048340,-219.360352,1.912937
284.454346,909.118652,-213.775635,1.913678
281.341553,906.372070,-224.853516,1.914418
277.221680,910.034180,-231.811523,1.915169
274.932861,906.555176,-227.783203,1.915909
292.053223,909.484863,-218.536377,1.916666
287.841797,914.245605,-215.515137,1.917408
289.855957,913.421631,-214.599609,1.918161
283.630371,903.533936,-210.571289,1.918903
283.447266,902.984619,-218.353271,1.919655
288.208008,911.865234,-212.677002,1.920402
287.384033,892.089844,-213.409424,1.921183
287.475586,915.252686,-205.627441,1.921927
286.285400,907.012939,-207.000732,1.922668
286.468506,904.083252,-212.310791,1.923409
284.729004,900.970459,-216.339111,1.924159
289.855957,902.343750,-215.972900,1.924904
288.665771,911.407471,-214.508057,1.925658
286.285400,898.223877,-213.226318,1.926406
282.897949,897.857666,-206.359863,1.927188
291.046143,896.667480,-216.613770,1.927936
287.750244,894.927979,-218.444824,1.928677
294.891357,896.942139,-218.170166,1.929418
284.545898,895.385742,-207.824707,1.930174
287.567139,892.639160,-213.317871,1.930915
288.299561,899.597168,-212.310791,1.931656
298.187256,898.498535,-220.367432,1.932397
293.609619,893.188477,-222.198486,1.933147
283.264160,888.336182,-222.747803,1.933888
287.109375,881.378174,-222.473145,1.934631
284.545898,887.329102,-214.324951,1.935372
289.489746,883.575439,-218.536377,1.936113
295.715332,879.455566,-224.212646,1.936844
294.525146,875.061035,-226.043701,1.937574
291.961670,871.398926,-228.881836,1.938304
296.447754,877.349854,-235.931396,1.939058
294.799805,872.406006,-225.860596,1.939797
291.503906,871.398926,-229.248047,1.940536
294.616699,873.046875,-233.276367,1.941275
290.496826,870.941162,-232.360840,1.942024
281.066895,867.553711,-235.473633,1.942763
277.679443,868.286133,-233.825684,1.943502
274.291992,872.131348,-227.233887,1.944241
277.038574,877.166748,-235.473633,1.945002
270.355225,863.983154,-241.149902,1.945745
273.284912,870.483398,-230.529785,1.946486
270.904541,869.293213,-230.987549,1.947227
280.883789,871.215820,-227.874756,1.947973
283.996582,875.793457,-228.149414,1.948723
276.397705,878.448486,-221.740723,1.949465
264.770508,868.286133,-225.585938,1.950219
266.693115,882.019043,-226.318359,1.950961
269.714355,876.708984,-226.043701,1.951701
262.573242,878.814697,-221.740723,1.952442
269.073486,882.202148,-214.965820,1.953190
257.354736,887.329102,-216.156006,1.953921
234.375000,877.258301,-220.642090,1.954651
257.537842,874.145508,-216.339111,1.955382
255.432129,879.364014,-226.409912,1.956111
248.382568,881.011963,-218.078613,1.956855
252.044678,885.406494,-219.085693,1.957586
274.932861,881.561279,-221.008301,1.958317
261.291504,872.314453,-216.522217,1.959075
257.629395,877.624512,-219.360352,1.959817
253.601074,881.286621,-222.839355,1.960557
252.319336,880.004883,-228.424072,1.961298
256.347656,877.075195,-226.226807,1.962038
257.263184,877.716064,-221.832275,1.962779
255.249023,874.145508,-218.627930,1.963519
257.446289,875.335693,-230.438232,1.964259
255.065918,874.786377,-221.282959,1.964999
255.432129,883.483887,-217.529297,1.965729
256.256104,857.116699,-232.360840,1.966459
252.868652,864.440918,-232.177734,1.967189
262.023926,873.229980,-228.790283,1.967992
263.031006,866.546631,-232.360840,1.968734
253.967285,857.757568,-239.318848,1.969474
257.171631,863.250732,-229.797363,1.970215
252.502441,867.187500,-229.797363,1.970956
253.784180,867.736816,-236.297607,1.971696
254.882812,863.525391,-236.206055,1.972436
248.931885,863.250732,-234.832764,1.973177
248.016357,866.546631,-236.663818,1.973917
239.501953,873.596191,-235.382080,1.974657
242.980957,864.807129,-237.945557,1.975397
247.283936,862.976074,-231.353760,1.976138
245.819092,863.800049,-230.712891,1.976892
237.121582,856.567383,-230.621338,1.977623
240.692139,865.173340,-227.691650,1.978353
243.530273,859.863281,-226.959229,1.979084
240.142822,862.518311,-229.797363,1.979826
237.945557,861.968994,-228.240967,1.980567
237.213135,854.003906,-235.198975,1.981307
230.529785,851.165771,-229.248047,1.982047
236.846924,870.208740,-221.374512,1.982796
232.269287,861.328125,-228.057861,1.983537
241.149902,865.264893,-228.332520,1.984277
227.691650,863.342285,-231.628418,1.985018
229.705811,869.842529,-227.966309,1.985758
224.945068,863.983154,-229.614258,1.986509
229.431152,863.433838,-221.557617,1.987249
228.881836,859.313965,-228.057861,1.987989
224.304199,856.292725,-227.783203,1.988730
226.226807,867.645264,-223.846436,1.989493
223.480225,862.884521,-218.627930,1.990241
224.578857,870.300293,-235.015869,1.991012
223.205566,867.187500,-226.501465,1.991760
219.085693,872.589111,-224.212646,1.992501
218.078613,865.997314,-222.747803,1.993241
214.141846,866.638184,-231.628418,1.993982
214.141846,867.919922,-222.747803,1.994724
217.712402,870.025635,-234.741211,1.995465
221.466064,873.046875,-225.128174,1.996206
209.014893,858.123779,-232.269287,1.996946
215.057373,854.919434,-236.206055,1.997704
212.402344,866.912842,-238.128662,1.998473
207.733154,860.321045,-237.579346,1.999251
203.521729,862.792969,-237.487793,2.000005
204.711914,859.588623,-231.536865,2.000778
204.803467,862.335205,-229.431152,2.001519
199.401855,851.898193,-232.727051,2.002259
194.183350,852.447510,-238.769531,2.003000
197.021484,858.856201,-237.396240,2.003750
196.014404,859.771729,-235.473633,2.004492
187.957764,862.243652,-233.917236,2.005235
196.929932,866.821289,-233.276367,2.005975
192.718506,868.927002,-234.558105,2.006719
196.838379,866.455078,-230.621338,2.007450
199.035645,861.511230,-228.057861,2.008180
197.387695,860.778809,-229.248047,2.008910
190.612793,865.997314,-223.022461,2.009666
185.485840,869.110107,-226.684570,2.010406
191.436768,857.849121,-233.642578,2.011147
187.042236,868.194580,-234.649658,2.011888
192.260742,869.201660,-228.973389,2.012638
188.323975,867.370605,-239.044189,2.013378
194.274902,871.398926,-233.184814,2.014118
192.077637,877.441406,-234.741211,2.014859
193.450928,876.342773,-226.226807,2.015609
190.979004,874.969482,-236.938477,2.016349
186.492920,880.096436,-232.910156,2.017090
189.514160,874.511719,-227.783203,2.017831
190.338135,880.004883,-224.395752,2.018582
187.774658,880.279541,-228.332520,2.019327
187.774658,882.568359,-229.522705,2.020068
190.155029,883.666992,-231.536865,2.020814
190.063477,886.138916,-218.078613,2.021572
195.556641,889.617920,-223.205566,2.022312
187.866211,882.202148,-225.219727,2.023053
200.042725,901.702881,-233.276367,2.023793
195.098877,898.590088,-226.043701,2.024543
189.971924,897.766113,-223.754883,2.025284
190.338135,890.808105,-225.494385,2.026024
192.718506,889.801025,-230.163574,2.026771
198.394775,902.526855,-218.170166,2.027519
194.641113,898.956299,-216.613770,2.028267
198.669434,896.575928,-216.979980,2.029002
200.683594,901.977539,-229.064941,2.029732
203.796387,908.111572,-220.458984,2.030529
205.810547,907.745361,-215.148926,2.031271
204.620361,904.357910,-222.381592,2.032012
201.690674,906.829834,-225.952148,2.032752
205.444336,899.322510,-223.754883,2.033497
206.817627,908.386230,-222.656250,2.034228
216.064453,910.125732,-220.916748,2.034958
208.374023,906.372070,-218.627930,2.035688
211.212158,910.034180,-220.092773,2.036446
214.782715,918.640137,-219.268799,2.037187
207.641602,913.696289,-216.522217,2.037928
216.247559,917.999268,-226.318359,2.038740
224.029541,922.119141,-215.972900,2.039493
210.388184,919.097900,-218.078613,2.040252
220.642090,924.224854,-221.099854,2.040993
217.712402,918.640137,-211.029053,2.041741
218.444824,919.921875,-210.479736,2.042499
218.994141,921.661377,-212.677002,2.043241
220.825195,914.794922,-214.691162,2.043981
222.930908,915.069580,-218.170166,2.044722
232.818604,910.491943,-212.127686,2.045483
221.740723,904.998779,-226.318359,2.046225
223.297119,914.337158,-221.008301,2.046966
226.226807,910.583496,-225.677490,2.047706
230.255127,913.238525,-224.304199,2.048459
226.318359,911.315918,-224.304199,2.049199
229.064941,913.238525,-216.705322,2.049939
230.712891,904.907227,-213.958740,2.050679
231.719971,906.646729,-218.627930,2.051429
236.389160,913.970947,-219.635010,2.052169
237.945557,920.745850,-223.937988,2.052910
244.628906,921.936035,-218.078613,2.053650
243.255615,912.780762,-223.937988,2.054389
246.093750,917.266846,-216.979980,2.055119
250.305176,912.414551,-220.001221,2.055850
252.136230,915.985107,-217.529297,2.056580
252.685547,914.337158,-221.374512,2.057333
249.114990,913.787842,-219.360352,2.058074
246.093750,912.048340,-233.093262,2.058815
244.445801,905.731201,-221.923828,2.059557
248.565674,908.203125,-209.014893,2.060315
241.790771,897.399902,-217.620850,2.061069
243.530273,897.216797,-217.437744,2.061815
248.657227,900.238037,-212.768555,2.062582
250.396729,890.899658,-217.163086,2.063358
252.410889,898.406982,-210.754395,2.064099
259.094238,895.385742,-222.106934,2.064839
256.805420,884.490967,-224.670410,2.065580
254.974365,889.068604,-219.451904,2.066320
254.058838,892.181396,-212.677002,2.067060
249.755859,886.413574,-209.106445,2.067798
257.812500,884.857178,-217.529297,2.068570
257.629395,887.969971,-216.613770,2.069326
251.403809,882.751465,-220.275879,2.070077
251.861572,888.153076,-219.543457,2.070823
246.002197,883.026123,-228.057861,2.071586
244.079590,885.131836,-222.747803,2.072327
242.431641,882.568359,-222.473145,2.073068
243.804932,884.765625,-222.473145,2.073808
250.213623,890.258789,-220.458984,2.074559
246.551514,884.765625,-219.635010,2.075300
247.833252,884.765625,-219.726562,2.076042
238.861084,886.413574,-212.585449,2.076783
237.670898,876.525879,-215.423584,2.077526
241.058350,885.955811,-210.021973,2.078255
244.079590,883.483887,-212.585449,2.079013
241.973877,886.871338,-220.825195,2.079756
232.543945,887.145996,-215.515137,2.080509
237.670898,886.505127,-219.177246,2.081250
232.910156,880.004883,-217.620850,2.081990
230.895996,891.082764,-217.803955,2.082730
236.206055,898.590088,-213.867188,2.083480
231.903076,888.519287,-212.219238,2.084221
228.881836,897.491455,-210.296631,2.084961
222.839355,886.962891,-219.360352,2.085702
230.255127,900.970459,-213.958740,2.086441
254.882812,900.238037,-212.860107,2.087171
233.367920,899.505615,-212.310791,2.087901
231.079102,898.406982,-219.268799,2.088631
215.148926,906.188965,-217.987061,2.089400
233.459473,910.034180,-210.296631,2.090141
232.269287,915.435791,-216.796875,2.090881
229.156494,899.963379,-213.592529,2.091621
222.747803,906.188965,-214.965820,2.092370
219.360352,904.632568,-210.845947,2.093111
220.458984,910.125732,-231.903076,2.093851
227.325439,912.414551,-220.092773,2.094591
223.297119,906.097412,-214.782715,2.095331
218.994141,907.470703,-213.409424,2.096061
222.198486,921.661377,-207.458496,2.096792
220.275879,917.449951,-216.064453,2.097522
227.508545,922.668457,-217.712402,2.098277
225.952148,917.175293,-217.529297,2.099018
218.719482,922.485352,-218.078613,2.099758
224.670410,917.907715,-210.754395,2.100498
223.480225,929.168701,-201.416016,2.101212
216.613770,938.690186,-199.859619,2.101953
213.134766,926.788330,-210.937500,2.102693
217.712402,923.034668,-209.014893,2.103434
220.550537,930.267334,-205.993652,2.104183
227.508545,931.549072,-214.508057,2.104924
219.818115,933.197021,-211.303711,2.105681
218.719482,936.492920,-202.697754,2.106423
221.740723,930.358887,-202.331543,2.107174
224.212646,931.365967,-199.127197,2.107915
218.719482,935.028076,-207.183838,2.108656
222.015381,932.281494,-210.662842,2.109483
222.656250,935.028076,-214.691162,2.110254
223.297119,929.992676,-214.691162,2.110994
217.803955,933.197021,-207.275391,2.111735
211.120605,941.345215,-207.366943,2.112475
217.987061,944.366455,-205.078125,2.113215
219.909668,946.014404,-208.099365,2.113946
218.627930,942.169189,-213.867188,2.114675
228.790283,942.260742,-215.148926,2.115406
215.057373,940.795898,-209.655762,2.116160
222.290039,943.267822,-213.775635,2.116901
222.381592,944.641113,-207.641602,2.117643
222.747803,941.162109,-212.402344,2.118383
222.106934,948.577881,-210.388184,2.119123
217.437744,941.253662,-216.156006,2.119853
216.705322,941.528320,-207.550049,2.120583
222.198486,934.387207,-213.409424,2.121313
221.099854,933.746338,-209.930420,2.122072
220.458984,935.577393,-215.789795,2.122814
222.473145,940.521240,-219.726562,2.123554
222.473145,936.492920,-212.310791,2.124294
227.600098,935.577393,-206.634521,2.125034
226.135254,931.457520,-214.233398,2.125764
224.395752,935.028076,-210.845947,2.126495
221.374512,931.274414,-217.803955,2.127224
225.128174,927.520752,-205.444336,2.127994
220.184326,932.373047,-217.712402,2.128737
224.487305,926.879883,-212.493896,2.129478
