ACC_X,ACC_Y,ACC_Z,Time
-535.858154,224.395752,801.910400,0.000262
-533.386230,218.078613,799.713135,0.001689
-534.576416,229.980469,804.931641,0.003052
-535.949707,225.769043,802.001953,0.004408
-537.963867,232.635498,796.691895,0.005762
-536.041260,223.205566,803.924561,0.007117
-538.879395,231.719971,800.903320,0.008488
-537.048340,231.079102,802.185059,0.009870
-538.970947,228.881836,808.410645,0.011290
-533.111572,224.212646,805.206299,0.012633
-537.597656,230.712891,802.642822,0.014041
-538.146973,230.255127,807.037354,0.015474
-533.294678,229.431152,794.403076,0.016932
-560.119629,228.607178,801.818848,0.018372
-543.090820,229.248047,809.051514,0.019837
-540.069580,231.994629,803.558350,0.021205
-539.062500,236.846924,800.354004,0.022687
-540.710449,235.015869,804.840088,0.024092
-542.999268,241.149902,803.192139,0.025588
-546.844482,236.755371,807.678223,0.026963
-544.555664,234.283447,808.685303,0.028385
-540.161133,243.255615,804.565430,0.029769
-545.562744,226.959229,801.269531,0.031217
-543.182373,212.493896,802.001953,0.032612
-546.936035,212.493896,808.502197,0.034024
-543.548584,232.452393,803.741455,0.035409
-539.245605,211.669922,795.501709,0.036870
-543.273926,225.311279,798.980713,0.038253
-546.386719,252.410889,811.065674,0.039631
-539.062500,254.974365,795.135498,0.040995
-551.239014,236.206055,806.579590,0.042171
-548.034668,232.360840,800.811768,0.043328
-548.950195,227.691650,800.537109,0.044500
-553.894043,236.755371,804.840088,0.045657
-549.041748,239.593506,809.326172,0.046843
-546.020508,235.656738,799.163818,0.048009
-548.217773,236.846924,805.480957,0.049189
-544.555664,236.663818,798.065186,0.050327
-544.647217,240.234375,815.093994,0.051469
-548.767090,240.325928,803.466797,0.052600
-543.273926,234.832764,796.142578,0.053740
-544.738770,238.769531,813.446045,0.054918
-550.231934,236.572266,802.734375,0.056063
-541.717529,228.240967,802.734375,0.057193
-546.936035,229.522705,803.009033,0.058323
-548.583984,231.262207,808.044434,0.059473
-544.555664,232.727051,805.206299,0.060638
-544.830322,239.410400,807.312012,0.061762
-540.069580,224.761963,806.488037,0.062881
-541.625977,230.987549,802.551270,0.064036
-538.238525,225.952148,807.312012,0.065163
-542.816162,228.057861,804.840088,0.066284
-545.013428,226.226807,808.502197,0.067395
-546.478271,226.409912,800.262451,0.068506
-543.457031,223.754883,799.987793,0.069647
-542.541504,231.903076,800.903320,0.070759
-545.471191,228.790283,810.424805,0.071870
-550.872803,226.409912,805.572510,0.072995
-537.139893,232.086182,797.973633,0.074106
-539.886475,227.050781,804.656982,0.075218
-544.647217,229.614258,807.769775,0.076329
-545.288086,223.480225,812.072754,0.077440
-541.351318,231.628418,806.304932,0.078565
-538.696289,236.755371,815.093994,0.079676
-559.753418,233.917236,811.431885,0.080787
-543.273926,228.607178,813.720703,0.081912
-538.146973,230.438232,806.304932,0.083023
-544.830322,240.600586,812.072754,0.084134
-539.245605,236.572266,815.917969,0.085245
-544.189453,232.452393,811.523438,0.086356
-546.203613,237.579346,817.382812,0.087468
-538.238525,235.748291,808.959961,0.088579
-541.625977,232.818604,815.277100,0.089690
-541.351318,233.093262,809.509277,0.090821
-547.119141,229.980469,804.931641,0.091932
-548.309326,232.818604,809.967041,0.093042
-542.724609,210.937500,813.903809,0.094162
-550.415039,230.438232,807.586670,0.095274
-549.865723,234.832764,807.403564,0.096386
-544.738770,228.698730,804.748535,0.097496
-550.048828,226.684570,809.692383,0.098607
-548.767090,231.262207,800.170898,0.099733
-549.865723,237.030029,809.692383,0.100845
-557.098389,227.691650,801.910400,0.101955
-556.457520,234.283447,802.185059,0.103081
-554.901123,234.924316,805.206299,0.104192
-556.274414,216.156006,803.924561,0.105303
-554.534912,237.213135,808.135986,0.106413
-550.781250,234.649658,799.346924,0.107526
-554.443359,241.058350,800.628662,0.108656
-564.971924,233.367920,807.403564,0.109768
-555.541992,228.149414,807.769775,0.110878
-561.676025,236.572266,805.114746,0.112007
-562.042236,237.487793,811.798096,0.113118
-563.232422,231.445312,811.248779,0.114229
-556.457520,241.882324,802.642822,0.115463
-561.035156,237.762451,805.664062,0.116577
-556.732178,228.057861,804.382324,0.117544
-551.788330,229.888916,803.741455,0.118286
-552.703857,231.353760,804.565430,0.119027
-551.147461,236.663818,804.016113,0.119768
-555.633545,229.248047,802.368164,0.120521
-543.090820,227.600098,805.297852,0.121262
-550.323486,232.818604,799.896240,0.122003
-560.119629,232.727051,803.009033,0.122744
-549.041748,232.177734,803.649902,0.123495
-549.774170,238.494873,812.255859,0.124236
-552.154541,235.473633,809.417725,0.124976
-546.569824,233.917236,808.227539,0.125717
-551.788330,228.515625,801.818848,0.126467
-550.781250,234.100342,805.755615,0.127208
-547.943115,233.734131,802.001953,0.127949
-554.992676,225.952148,796.142578,0.128689
-550.781250,233.184814,794.036865,0.129439
-549.224854,234.649658,800.262451,0.130179
-555.358887,232.269287,805.023193,0.130920
-550.415039,234.100342,796.325684,0.131660
-544.921875,228.881836,804.382324,0.132411
-549.591064,232.269287,802.642822,0.133151
-552.520752,238.586426,803.649902,0.133892
-553.070068,229.980469,799.072266,0.134632
-547.302246,236.114502,800.720215,0.135385
-545.562744,234.191895,804.656982,0.136128
-548.217773,234.466553,805.297852,0.136869
-549.774170,232.543945,799.804688,0.137610
-548.034668,234.649658,801.452637,0.138360
-544.555664,238.769531,806.213379,0.139101
-549.957275,237.854004,810.150146,0.139841
-552.062988,238.769531,811.157227,0.140582
-548.309326,240.875244,808.227539,0.141332
-545.928955,241.424561,808.685303,0.142072
-539.245605,236.114502,809.143066,0.142813
-545.837402,242.706299,805.938721,0.143553
-547.393799,233.367920,809.692383,0.144303
-548.767090,230.712891,814.910889,0.145044
-544.006348,230.255127,801.635742,0.145784
-542.266846,232.818604,806.671143,0.146525
-537.597656,238.037109,799.072266,0.147278
-543.640137,244.171143,805.755615,0.148018
-541.351318,237.670898,808.593750,0.148759
-545.471191,233.825684,801.635742,0.149499
-541.717529,235.748291,803.283691,0.150249
-562.042236,236.297607,807.586670,0.150990
-542.724609,229.522705,803.009033,0.151731
-537.780762,233.825684,796.051025,0.152473
-548.126221,230.346680,809.509277,0.153224
-540.435791,234.466553,802.276611,0.153964
-548.950195,235.473633,809.692383,0.154703
-545.288086,226.135254,776.092529,0.155442
-549.041748,230.346680,796.234131,0.156191
-545.196533,234.924316,802.459717,0.156931
-546.112061,231.353760,803.192139,0.157670
-544.555664,234.466553,803.009033,0.158410
-543.731689,237.030029,799.713135,0.159159
-542.633057,235.931396,803.466797,0.159898
-547.210693,229.522705,802.368164,0.160638
-546.844482,230.621338,801.086426,0.161378
-550.140381,225.402832,796.691895,0.162126
-554.168701,225.769043,796.875000,0.162866
-546.112061,234.100342,796.600342,0.163605
-542.633057,237.854004,800.537109,0.164344
-545.013428,229.522705,799.530029,0.165093
-542.449951,223.937988,801.910400,0.165833
-544.464111,235.839844,806.488037,0.166572
-548.217773,233.825684,809.417725,0.167311
-551.513672,231.353760,803.833008,0.168059
-547.668457,222.930908,801.269531,0.168799
-547.851562,232.452393,805.297852,0.169538
-553.253174,229.797363,792.938232,0.170278
-549.499512,226.867676,801.452637,0.171026
-542.999268,227.233887,804.565430,0.171766
-543.365479,228.057861,799.163818,0.172505
-551.513672,234.558105,800.262451,0.173244
-554.260254,231.445312,800.354004,0.173993
-550.048828,232.910156,802.185059,0.174733
-555.633545,228.057861,799.438477,0.175472
-552.246094,232.818604,803.283691,0.176211
-547.851562,233.184814,791.839600,0.176959
-550.506592,230.621338,795.776367,0.177699
-553.161621,222.290039,798.065186,0.178483
-554.077148,224.487305,789.733887,0.179296
-547.027588,221.923828,793.212891,0.180046
-550.231934,214.965820,795.959473,0.180786
-550.689697,224.761963,793.945312,0.181548
-553.527832,222.290039,790.557861,0.182289
-552.246094,220.001221,797.058105,0.183063
-551.330566,214.965820,797.882080,0.183875
-554.534912,216.339111,798.156738,0.184615
-554.351807,215.698242,798.339844,0.185346
-550.872803,212.585449,792.388916,0.186101
-546.752930,216.339111,793.762207,0.186920
-544.006348,210.205078,792.755127,0.187658
-549.407959,220.367432,792.480469,0.188438
-544.921875,215.332031,799.346924,0.189198
-545.013428,213.684082,795.501709,0.189942
-548.767090,216.613770,788.635254,0.190721
-557.464600,220.367432,794.311523,0.191468
-547.485352,224.304199,795.043945,0.192202
-547.485352,218.353271,794.769287,0.193000
-554.260254,210.937500,793.487549,0.193752
-557.098389,206.542969,790.832520,0.194494
-556.823730,205.902100,797.149658,0.195258
-556.091309,221.466064,794.586182,0.195997
-546.936035,213.867188,795.867920,0.196731
-545.288086,213.409424,791.564941,0.197470
-546.844482,215.515137,799.896240,0.198204
-554.901123,218.078613,801.177979,0.198937
-553.619385,207.641602,796.051025,0.199671
-552.886963,211.761475,793.762207,0.200424
-550.964355,215.515137,801.086426,0.201169
-543.823242,222.381592,802.185059,0.201914
-548.767090,216.339111,793.304443,0.202658
-545.196533,218.444824,797.790527,0.203403
-545.288086,211.303711,801.635742,0.204146
-548.126221,215.881348,795.043945,0.204956
-549.591064,220.458984,802.185059,0.205796
-549.591064,213.134766,791.931152,0.206555
-544.555664,217.163086,802.185059,0.207305
-544.830322,227.783203,797.424316,0.208097
-549.865723,218.994141,801.452637,0.208845
-547.393799,217.803955,798.797607,0.209592
-539.703369,222.290039,802.459717,0.210367
-538.330078,227.508545,802.276611,0.211146
-542.175293,220.367432,794.128418,0.211902
-536.682129,224.212646,803.924561,0.212663
-538.970947,228.881836,806.762695,0.213405
-538.513184,225.402832,800.994873,0.214162
-538.879395,222.290039,795.959473,0.214902
-545.928955,218.261719,792.022705,0.215643
-547.851562,220.733643,795.867920,0.216383
-546.020508,220.642090,802.734375,0.217123
-541.809082,224.670410,803.558350,0.217863
-558.563232,217.254639,806.304932,0.218603
-540.710449,221.832275,805.297852,0.219340
-544.372559,228.515625,810.791016,0.220071
-544.464111,226.226807,804.016113,0.220801
-546.386719,224.029541,814.910889,0.221533
-521.759033,221.649170,803.375244,0.222272
-539.337158,226.409912,804.931641,0.223003
-540.893555,223.937988,803.649902,0.223734
-540.618896,227.142334,801.635742,0.224464
-546.752930,227.416992,800.170898,0.225198
-544.006348,221.923828,797.973633,0.225938
-544.555664,228.240967,803.924561,0.226677
-547.485352,223.114014,809.967041,0.227415
-550.048828,219.909668,803.192139,0.228154
-547.851562,223.937988,807.037354,0.228893
-554.626465,223.205566,799.438477,0.229632
-548.950195,227.325439,802.734375,0.230371
-550.323486,224.670410,799.713135,0.231110
-549.224854,226.318359,801.910400,0.231849
-553.802490,226.776123,804.382324,0.232588
-551.879883,232.727051,804.565430,0.233326
-546.295166,227.416992,799.072266,0.234065
-547.393799,231.536865,796.783447,0.234796
-548.126221,234.100342,809.234619,0.235581
-550.048828,228.057861,797.698975,0.236341
-548.126221,233.825684,794.769287,0.237073
-553.070068,230.895996,799.621582,0.237804
-555.450439,225.860596,803.009033,0.238535
-550.689697,235.382080,800.628662,0.239270
-555.541992,229.248047,797.332764,0.240009
-560.577393,228.698730,794.036865,0.240766
-557.006836,235.839844,797.424316,0.241559
-554.351807,233.551025,795.776367,0.242390
-543.640137,229.705811,793.395996,0.243149
-557.098389,232.360840,816.558838,0.243892
-557.464600,230.529785,797.882080,0.244643
-584.106445,226.043701,797.698975,0.245439
-561.035156,221.557617,796.966553,0.246198
-557.098389,235.931396,795.318604,0.246953
-558.563232,230.621338,797.973633,0.247722
-562.774658,233.917236,795.043945,0.248462
-564.239502,230.712891,793.853760,0.249198
-562.042236,212.402344,797.882080,0.249985
-563.873291,241.699219,804.199219,0.250749
-559.112549,237.945557,795.043945,0.251482
-566.253662,225.128174,797.241211,0.252213
-564.331055,238.677979,794.311523,0.252944
-562.683105,230.621338,800.537109,0.253676
-577.880859,227.416992,800.720215,0.254407
-566.986084,239.227295,799.987793,0.255137
-573.211670,229.064941,806.304932,0.255868
-569.824219,233.734131,801.269531,0.256599
-566.986084,236.572266,806.488037,0.257340
-562.683105,236.663818,804.565430,0.258070
-563.690186,230.987549,799.163818,0.258903
-568.176270,236.755371,807.312012,0.259656
-568.542480,257.446289,799.987793,0.260396
-568.725586,243.988037,805.297852,0.261135
-568.450928,238.861084,798.522949,0.261874
-562.500000,238.037109,801.452637,0.262613
-568.084717,228.332520,801.910400,0.263351
-564.239502,230.712891,801.269531,0.264089
-570.831299,229.248047,796.417236,0.264828
-579.986572,243.804932,795.227051,0.265567
-571.838379,242.614746,793.121338,0.266305
-575.775146,240.966797,795.959473,0.267044
-568.359375,236.755371,794.494629,0.267782
-566.711426,238.311768,798.889160,0.268522
-562.500000,244.720459,798.797607,0.269260
-557.189941,237.396240,795.043945,0.269999
-560.668945,246.643066,802.276611,0.270737
-562.591553,241.790771,804.016113,0.271477
-561.401367,247.009277,801.635742,0.272216
-561.401367,244.995117,799.255371,0.272955
-566.528320,247.833252,796.600342,0.273694
-563.598633,243.072510,796.875000,0.274434
-565.612793,239.868164,800.628662,0.275170
-562.408447,240.417480,801.177979,0.275907
-562.133789,240.234375,801.544189,0.276689
-556.182861,240.142822,802.551270,0.277477
-560.577393,249.023438,804.290771,0.278226
-560.394287,245.178223,807.678223,0.278966
-560.394287,241.149902,802.185059,0.279705
-552.886963,249.114990,809.509277,0.280463
-555.725098,246.826172,796.417236,0.281203
-561.035156,244.079590,802.001953,0.281942
-554.718018,246.185303,798.339844,0.282684
-563.415527,241.516113,819.854736,0.283459
-555.267334,244.812012,798.248291,0.284208
-560.211182,246.185303,802.917480,0.284955
-555.999756,239.959717,805.023193,0.285694
-547.302246,246.551514,801.086426,0.286495
-555.175781,239.318848,799.621582,0.287233
-554.901123,245.727539,805.664062,0.287985
-553.985596,243.713379,804.016113,0.288727
-546.936035,245.086670,805.297852,0.289476
-548.583984,241.241455,804.107666,0.290215
-546.752930,248.840332,805.572510,0.290954
-545.196533,246.368408,802.368164,0.291692
-549.316406,254.699707,803.466797,0.292441
-544.372559,279.052734,807.861328,0.293180
-549.407959,257.812500,807.586670,0.293919
-547.851562,243.530273,807.128906,0.294657
-554.534912,245.086670,807.861328,0.295431
-548.858643,247.741699,802.825928,0.296175
-540.985107,253.692627,804.748535,0.296914
-547.668457,247.283936,800.903320,0.297653
-545.288086,254.882812,803.100586,0.298393
-550.323486,253.784180,804.107666,0.299132
-550.781250,250.579834,804.016113,0.299871
-549.682617,249.023438,808.410645,0.300624
-540.985107,248.474121,809.600830,0.301364
-547.851562,251.953125,816.284180,0.302104
-550.689697,245.178223,805.206299,0.302843
-549.316406,246.643066,804.016113,0.303591
-552.703857,245.544434,809.326172,0.304331
-558.105469,245.086670,805.114746,0.305070
-554.809570,248.199463,804.840088,0.305809
-552.337646,248.382568,811.614990,0.306551
-550.781250,249.664307,804.931641,0.307291
-556.274414,246.276855,800.628662,0.308030
-550.048828,247.192383,803.558350,0.308769
-546.752930,242.706299,809.326172,0.309508
-555.450439,240.234375,805.755615,0.310247
-559.387207,238.586426,809.875488,0.310986
-558.013916,244.903564,798.797607,0.311725
-557.830811,241.882324,803.741455,0.312465
-555.267334,212.219238,793.762207,0.313206
-554.260254,237.030029,795.135498,0.313945
-563.049316,234.741211,806.121826,0.314684
-554.351807,240.509033,779.937744,0.315433
-553.527832,233.001709,795.043945,0.316173
-559.204102,232.360840,800.628662,0.316912
-553.802490,228.790283,798.156738,0.317651
-554.351807,240.142822,801.635742,0.318390
-552.520752,231.628418,796.783447,0.319139
-554.351807,234.832764,797.698975,0.319878
-549.224854,235.656738,797.241211,0.320617
-563.232422,232.360840,793.762207,0.321356
-557.281494,226.776123,798.431396,0.322106
-553.527832,229.156494,800.079346,0.322845
-548.950195,225.677490,801.544189,0.323584
-551.422119,229.980469,793.579102,0.324323
-551.788330,227.325439,789.825439,0.325072
-554.626465,225.769043,800.262451,0.325811
-555.633545,227.325439,797.607422,0.326549
-550.140381,229.705811,801.177979,0.327289
-547.210693,228.149414,801.177979,0.328041
-548.583984,224.029541,794.494629,0.328781
-555.908203,228.424072,800.628662,0.329615
-549.133301,226.226807,790.374756,0.330355
-550.323486,236.206055,803.009033,0.331094
-552.886963,230.163574,804.656982,0.331832
-548.950195,239.227295,802.917480,0.332572
-544.281006,235.290527,804.565430,0.333323
-552.886963,235.382080,800.903320,0.334062
-551.422119,234.649658,807.128906,0.334801
-552.612305,230.712891,800.628662,0.335540
-549.224854,235.656738,804.016113,0.336290
-552.795410,235.015869,807.769775,0.337030
-550.964355,229.705811,802.093506,0.337769
-551.147461,246.459961,812.805176,0.338508
-544.281006,242.431641,804.840088,0.339249
-550.872803,235.015869,814.727783,0.339988
-548.400879,243.804932,815.917969,0.340727
-545.288086,243.347168,815.734863,0.341466
-551.422119,240.783691,808.593750,0.342205
-543.731689,243.896484,805.023193,0.342944
-544.647217,245.544434,803.192139,0.343682
-546.752930,240.875244,799.255371,0.344421
-548.583984,244.720459,809.783936,0.345160
-546.295166,250.213623,808.227539,0.345899
-550.231934,246.917725,809.417725,0.346638
-546.752930,241.790771,805.023193,0.347377
-547.027588,249.114990,810.333252,0.348123
-541.625977,238.403320,804.290771,0.348860
-540.893555,248.474121,809.967041,0.349596
-544.921875,243.164062,810.607910,0.350332
-546.936035,247.558594,807.952881,0.351119
-540.435791,255.065918,813.720703,0.351871
-540.710449,250.762939,815.368652,0.352620
-545.928955,255.798340,808.868408,0.353364
-547.943115,250.030518,800.903320,0.354124
-549.041748,245.910645,799.163818,0.354865
-549.224854,248.565674,804.473877,0.355604
-547.485352,244.628906,802.734375,0.356353
-537.780762,250.030518,803.649902,0.357123
-542.266846,240.142822,804.656982,0.357873
-543.914795,246.002197,800.537109,0.358617
-537.872314,242.706299,804.016113,0.359356
-538.696289,244.995117,795.684814,0.360113
-541.259766,244.720459,803.009033,0.360853
-544.555664,241.241455,804.290771,0.361592
-543.182373,247.100830,802.459717,0.362330
-544.189453,245.361328,804.748535,0.363078
-544.097900,241.882324,806.396484,0.363817
-541.809082,248.016357,803.283691,0.364555
-549.041748,241.607666,805.206299,0.365294
-540.618896,241.973877,804.748535,0.366057
-550.689697,243.896484,805.572510,0.366802
-536.956787,247.741699,803.741455,0.367542
-544.006348,248.382568,805.297852,0.368282
-546.478271,240.509033,800.079346,0.369041
-546.569824,255.065918,808.959961,0.369781
-544.921875,247.924805,801.727295,0.370521
-545.104980,241.607666,806.030273,0.371262
-539.428711,244.354248,804.656982,0.372003
-542.358398,245.086670,807.952881,0.372734
-542.358398,248.840332,806.396484,0.373464
-539.794922,245.086670,800.994873,0.374194
-542.266846,249.847412,805.938721,0.374838
-537.872314,249.664307,806.945801,0.375577
-545.288086,234.558105,802.734375,0.376316
-541.809082,245.178223,800.170898,0.377055
-537.048340,243.988037,802.642822,0.377803
-538.421631,243.438721,797.515869,0.378542
-541.625977,239.868164,803.283691,0.379281
-545.196533,244.995117,801.177979,0.380020
-546.936035,244.171143,797.607422,0.380775
-544.738770,242.156982,798.797607,0.381513
-537.506104,236.206055,802.551270,0.382252
-561.218262,246.459961,801.910400,0.382991
-537.963867,247.100830,798.522949,0.383739
-545.745850,242.065430,808.135986,0.384478
-548.858643,246.093750,805.389404,0.385216
-548.858643,239.593506,804.931641,0.385955
-544.281006,246.643066,806.671143,0.386702
-543.182373,246.276855,813.537598,0.387441
-543.273926,242.889404,802.001953,0.388180
-542.083740,237.762451,811.981201,0.388919
-541.809082,246.643066,810.424805,0.389666
-540.985107,248.199463,805.572510,0.390405
-537.048340,246.643066,808.776855,0.391144
-533.294678,244.354248,801.544189,0.391882
-537.963867,248.107910,810.241699,0.392631
-539.520264,251.403809,807.861328,0.393369
-543.914795,246.734619,811.889648,0.394108
-537.872314,250.305176,812.072754,0.394846
-532.928467,250.579834,808.868408,0.395593
-557.373047,246.185303,801.361084,0.396330
-538.421631,239.501953,805.114746,0.397067
-533.843994,246.643066,809.967041,0.397817
-534.484863,246.734619,807.128906,0.398577
-535.034180,255.706787,810.516357,0.399308
-537.597656,250.762939,814.086914,0.400132
-540.435791,251.678467,813.812256,0.400864
-534.393311,247.192383,807.861328,0.401596
-530.731201,251.220703,809.600830,0.402326
-537.506104,247.741699,813.995361,0.403056
-538.604736,248.107910,807.312012,0.403793
-541.351318,247.650146,808.776855,0.404524
-539.428711,248.382568,814.819336,0.405255
-540.435791,254.882812,798.431396,0.405985
-538.696289,254.791260,821.868896,0.406716
-536.041260,234.832764,813.812256,0.407455
-535.766602,247.833252,815.826416,0.408194
-545.928955,248.657227,819.396973,0.408933
-536.224365,254.608154,796.966553,0.409672
-542.907715,251.861572,818.115234,0.410411
-540.069580,256.347656,818.298340,0.411149
-536.773682,246.551514,815.734863,0.411888
-539.978027,248.931885,810.607910,0.412627
-542.541504,251.678467,814.727783,0.413367
-550.689697,254.425049,817.382812,0.414106
-544.189453,253.326416,817.565918,0.414845
-537.048340,257.080078,816.741943,0.415585
-547.760010,260.925293,815.002441,0.416323
-551.605225,247.650146,810.882568,0.417061
-547.943115,250.946045,810.058594,0.417800
-546.661377,249.664307,807.769775,0.418554
-547.210693,245.910645,806.030273,0.419292
-543.731689,242.248535,815.917969,0.420029
-544.647217,249.206543,807.861328,0.420765
-553.070068,254.425049,808.410645,0.421549
-548.858643,247.192383,805.023193,0.422301
-542.083740,244.903564,807.769775,0.423050
-543.273926,242.248535,809.051514,0.423795
-546.295166,234.649658,804.931641,0.424555
-551.696777,249.389648,806.121826,0.425296
-550.231934,213.684082,806.762695,0.426034
-552.246094,230.438232,806.945801,0.426774
-546.844482,234.649658,809.509277,0.427554
-552.062988,241.516113,804.840088,0.428302
-557.006836,235.748291,806.579590,0.429049
-555.541992,231.353760,808.227539,0.429792
-552.703857,231.994629,801.361084,0.430551
-550.415039,233.825684,806.030273,0.431292
-550.781250,239.776611,799.530029,0.432031
-550.964355,232.635498,796.417236,0.432770
-555.084229,231.811523,801.818848,0.433519
-556.457520,229.248047,805.664062,0.434258
-548.492432,232.635498,801.635742,0.434998
-551.696777,223.937988,799.346924,0.435737
-552.062988,227.325439,804.107666,0.436498
-557.647705,223.297119,800.445557,0.437243
-554.260254,229.156494,799.438477,0.437983
-553.070068,229.888916,796.234131,0.438722
-550.415039,233.642578,806.488037,0.439479
-560.485840,227.416992,798.065186,0.440219
-560.394287,227.325439,793.487549,0.440958
-551.147461,223.297119,803.009033,0.441698
-552.795410,222.747803,794.860840,0.442447
-558.197021,224.029541,799.621582,0.443186
-556.091309,219.543457,796.783447,0.443925
-556.549072,217.254639,797.882080,0.444665
-551.879883,226.318359,804.931641,0.445414
-548.492432,218.078613,797.515869,0.446153
-552.062988,233.917236,799.804688,0.446892
-551.513672,211.944580,799.438477,0.447632
-550.689697,224.487305,794.494629,0.448381
-547.119141,219.726562,800.445557,0.449120
-547.760010,224.578857,805.938721,0.449859
-544.830322,220.092773,803.100586,0.450598
-549.133301,222.930908,807.037354,0.451353
-542.999268,212.768555,797.790527,0.452093
-546.203613,219.177246,797.973633,0.452832
-549.682617,218.353271,790.740967,0.453572
-544.189453,224.578857,801.910400,0.454321
-548.767090,220.642090,796.325684,0.455061
-551.696777,224.121094,798.522949,0.455800
-548.034668,222.290039,806.121826,0.456540
-546.569824,225.311279,806.121826,0.457288
-547.851562,229.980469,810.607910,0.458028
-544.189453,224.304199,802.276611,0.458767
-537.048340,228.332520,799.255371,0.459506
-536.773682,226.776123,802.459717,0.460254
-542.541504,221.191406,804.565430,0.460993
-540.985107,218.719482,801.361084,0.461732
-540.527344,223.571777,792.846680,0.462472
-541.534424,228.240967,800.903320,0.463221
-535.308838,227.966309,799.896240,0.463960
-538.330078,226.501465,803.558350,0.464700
-545.379639,222.381592,808.227539,0.465439
-540.161133,228.057861,808.227539,0.466188
-539.337158,221.099854,811.614990,0.466933
-530.822754,227.783203,807.403564,0.467672
-530.456543,225.311279,811.248779,0.468412
-528.900146,226.776123,812.896729,0.469161
-534.118652,231.994629,809.692383,0.469901
-543.182373,230.346680,806.762695,0.470640
-538.238525,223.663330,805.847168,0.471475
-556.549072,230.346680,809.967041,0.472225
-541.625977,229.522705,813.537598,0.472965
-541.534424,233.551025,809.051514,0.473704
-540.344238,222.473145,810.241699,0.474443
-541.351318,219.268799,805.297852,0.475191
-534.301758,227.142334,807.312012,0.475931
-539.703369,230.438232,809.326172,0.476670
-539.703369,220.825195,807.220459,0.477410
-542.175293,219.085693,806.762695,0.478159
-545.928955,221.557617,798.706055,0.478898
-538.055420,226.043701,804.656982,0.479637
-543.548584,225.860596,802.459717,0.480375
-539.428711,225.860596,807.678223,0.481124
-540.893555,224.945068,807.128906,0.481863
-537.872314,222.106934,802.642822,0.482603
-543.273926,230.346680,806.579590,0.483341
-541.259766,235.748291,803.558350,0.484089
-540.618896,231.994629,800.720215,0.484829
-540.527344,225.585938,797.515869,0.485568
-540.710449,225.402832,802.551270,0.486307
-545.745850,229.705811,806.762695,0.487055
-539.978027,223.297119,804.107666,0.487795
-548.675537,223.663330,801.727295,0.488534
-545.928955,228.332520,795.684814,0.489273
-546.936035,227.874756,797.607422,0.490020
-550.231934,218.536377,796.142578,0.490757
-541.900635,221.374512,797.882080,0.491494
-546.844482,221.008301,796.417236,0.492276
-543.273926,209.472656,795.318604,0.493028
-550.506592,227.050781,796.875000,0.493779
-550.689697,228.607178,801.727295,0.494524
-546.478271,218.902588,792.755127,0.495264
-543.914795,222.106934,795.318604,0.496004
-542.175293,226.043701,804.565430,0.496743
-544.097900,220.092773,785.888672,0.497483
-543.273926,219.909668,787.811279,0.498223
-548.858643,223.571777,796.417236,0.498979
-551.055908,218.536377,797.790527,0.499728
-544.830322,219.268799,791.198730,0.500476
-547.576904,223.388672,799.163818,0.501221
-546.936035,219.726562,792.755127,0.501960
-549.591064,219.268799,797.149658,0.502700
-550.415039,212.402344,788.360596,0.503439
-546.752930,227.600098,793.121338,0.504203
-546.386719,223.480225,795.318604,0.504946
-547.119141,218.536377,793.121338,0.505686
-548.767090,215.698242,795.959473,0.506425
-548.858643,217.163086,790.832520,0.507163
-551.239014,218.994141,792.297363,0.507914
-549.774170,213.409424,800.354004,0.508658
-546.844482,208.099365,790.649414,0.509397
-549.682617,216.430664,794.677734,0.510150
-550.781250,213.134766,802.001953,0.510890
-551.239014,202.697754,790.283203,0.511629
-553.070068,215.515137,794.677734,0.512368
-551.788330,215.423584,793.487549,0.513132
-544.830322,214.416504,796.508789,0.513873
-536.682129,215.423584,794.494629,0.514612
-545.196533,209.564209,799.987793,0.515351
-547.760010,215.789795,798.431396,0.516102
-549.041748,216.613770,800.445557,0.516841
-547.668457,218.170166,804.199219,0.517581
-545.288086,215.972900,798.889160,0.518320
-547.210693,217.346191,803.649902,0.519069
-551.330566,220.916748,802.734375,0.519808
-550.506592,213.043213,799.072266,0.520549
-543.823242,220.275879,805.480957,0.521291
-547.302246,221.557617,796.966553,0.522044
-553.070068,218.627930,805.297852,0.522785
-550.689697,220.001221,803.558350,0.523525
-549.865723,216.430664,807.861328,0.524264
-548.034668,222.564697,803.466797,0.525014
-544.097900,219.726562,801.544189,0.525753
-541.076660,219.543457,803.649902,0.526492
-553.070068,217.987061,795.135498,0.527231
-555.999756,224.304199,805.480957,0.527981
-553.619385,227.783203,805.480957,0.528720
-555.450439,211.853027,797.332764,0.529459
-558.929443,218.444824,805.938721,0.530199
-553.619385,219.543457,803.558350,0.530947
-548.492432,228.973389,804.473877,0.531687
-549.316406,225.769043,805.664062,0.532426
-557.922363,224.670410,801.727295,0.533166
-555.816650,221.099854,800.537109,0.533914
-556.823730,225.860596,804.382324,0.534654
-549.133301,228.057861,804.382324,0.535413
-555.267334,231.994629,803.924561,0.536177
-553.619385,222.106934,796.600342,0.536926
-550.140381,225.677490,803.924561,0.537720
-545.196533,229.980469,807.037354,0.538476
-552.886963,227.783203,800.170898,0.539255
-549.591064,229.614258,803.466797,0.540028
-554.626465,223.022461,805.664062,0.540818
-550.048828,220.550537,799.804688,0.541569
-548.767090,219.177246,803.192139,0.542473
-547.485352,226.409912,799.896240,0.543244
-549.591064,228.332520,802.093506,0.543988
-552.886963,216.430664,801.269531,0.544763
-543.365479,221.740723,798.889160,0.545520
-543.823242,216.979980,795.043945,0.546300
-549.133301,227.050781,800.445557,0.547031
-547.485352,223.846436,803.649902,0.547762
-541.717529,224.029541,807.678223,0.548492
-543.365479,224.761963,802.368164,0.549235
-546.386719,219.177246,800.994873,0.549966
-549.774170,216.796875,802.001953,0.550696
-550.689697,215.423584,806.030273,0.551426
-543.457031,220.642090,802.459717,0.552165
-545.562744,223.663330,799.346924,0.552896
-550.598145,216.339111,810.241699,0.553626
-537.048340,225.677490,809.783936,0.554355
-549.682617,224.212646,803.924561,0.555132
-551.330566,229.064941,786.163330,0.555864
-549.957275,222.290039,798.706055,0.556594
-554.260254,223.205566,805.297852,0.557323
-552.886963,224.304199,809.875488,0.558065
-546.661377,219.360352,802.001953,0.558795
-550.048828,223.571777,797.973633,0.559525
-555.267334,227.783203,806.396484,0.560255
-555.358887,230.987549,810.791016,0.561033
-554.168701,226.776123,805.114746,0.561789
-553.894043,234.100342,809.600830,0.562539
-553.161621,235.839844,807.678223,0.563286
-553.070068,241.149902,807.769775,0.564026
-558.563232,234.375000,804.931641,0.564765
-556.823730,243.804932,812.347412,0.565505
-551.788330,239.227295,802.825928,0.566248
-550.598145,235.198975,807.403564,0.567001
-550.872803,235.107422,812.255859,0.567746
-545.928955,237.945557,810.333252,0.568492
-552.246094,235.565186,805.023193,0.569255
-545.837402,233.184814,815.551758,0.569997
-547.668457,241.424561,810.974121,0.570737
-551.605225,241.516113,801.727295,0.571476
-548.492432,254.150391,801.727295,0.572216
-552.062988,233.551025,801.818848,0.572956
-555.450439,231.536865,804.748535,0.573695
-544.281006,240.325928,803.558350,0.574434
-554.992676,235.656738,806.121826,0.575173
-552.703857,229.064941,805.389404,0.575910
-556.091309,227.233887,800.170898,0.576647
-556.365967,235.931396,803.100586,0.577384
-551.696777,235.748291,799.346924,0.578145
-552.886963,228.881836,798.248291,0.578889
-552.703857,229.064941,802.917480,0.579629
-557.006836,232.086182,800.170898,0.580368
-555.633545,234.741211,795.776367,0.581107
-552.795410,230.712891,800.445557,0.581847
-557.830811,223.205566,808.776855,0.582586
-550.872803,228.424072,806.762695,0.583325
-539.611816,220.550537,806.213379,0.584081
-557.464600,219.177246,800.537109,0.584820
-553.253174,226.593018,798.889160,0.585559
-553.985596,225.494385,800.903320,0.586298
-555.175781,220.825195,802.734375,0.587048
-552.520752,225.128174,802.368164,0.587788
-555.358887,222.930908,794.769287,0.588527
-560.119629,221.008301,804.748535,0.589266
-552.154541,232.360840,798.065186,0.590006
-550.506592,225.219727,789.550781,0.590745
-557.556152,218.078613,799.072266,0.591485
-551.055908,224.761963,805.206299,0.592224
-557.006836,227.508545,800.354004,0.592963
-543.090820,221.008301,799.255371,0.593703
-558.929443,226.318359,800.537109,0.594442
-555.725098,219.177246,806.579590,0.595181
-560.119629,221.557617,806.854248,0.595930
-562.408447,226.501465,818.389893,0.596669
-556.457520,225.128174,807.312012,0.597408
-560.485840,223.937988,818.756104,0.598147
-565.612793,233.642578,807.586670,0.598895
-558.563232,228.424072,799.896240,0.599635
-556.823730,225.494385,805.664062,0.600374
-560.394287,228.424072,808.227539,0.601113
-555.725098,232.727051,804.016113,0.601852
-556.274414,230.987549,805.755615,0.602591
-554.351807,229.339600,797.698975,0.603331
-554.534912,227.508545,805.023193,0.604070
-554.534912,231.719971,804.016113,0.604810
-555.541992,226.409912,801.177979,0.605549
-553.619385,229.064941,801.086426,0.606289
-559.387207,225.219727,801.177979,0.607029
-560.211182,222.015381,798.065186,0.607772
-555.541992,227.325439,803.833008,0.608515
-553.985596,232.543945,800.354004,0.609257
-553.710938,222.290039,799.987793,0.610008
-551.696777,226.959229,802.368164,0.610752
-554.077148,225.311279,806.762695,0.611491
-555.816650,228.240967,799.255371,0.612230
-559.478760,221.282959,801.361084,0.613070
-554.718018,220.184326,802.185059,0.613845
-555.908203,218.811035,796.051025,0.614591
-555.358887,223.663330,806.945801,0.615336
-555.999756,217.529297,800.262451,0.616075
-550.415039,228.973389,803.375244,0.616827
-551.147461,224.578857,802.734375,0.617567
-549.682617,231.994629,802.734375,0.618307
-544.921875,224.670410,798.065186,0.619046
-554.168701,224.029541,794.952393,0.619796
-554.168701,223.754883,795.776367,0.620536
-553.985596,224.212646,795.410156,0.621275
-558.563232,223.846436,800.903320,0.622015
-560.668945,215.057373,792.846680,0.622768
-553.344727,225.952148,794.403076,0.623508
-550.231934,227.508545,801.269531,0.624247
-550.781250,223.114014,800.811768,0.624987
-554.809570,221.282959,799.072266,0.625736
-552.886963,218.536377,792.297363,0.626476
-546.478271,229.339600,798.339844,0.627215
-549.041748,220.916748,802.825928,0.627954
-546.203613,221.557617,801.727295,0.628704
-550.140381,224.029541,791.931152,0.629443
-552.062988,227.233887,776.367188,0.630182
-552.429199,221.008301,789.276123,0.630921
-548.400879,221.099854,790.924072,0.631669
-552.337646,212.951660,794.860840,0.632406
-552.246094,219.085693,798.065186,0.633143
-540.893555,221.923828,799.713135,0.633921
-547.210693,217.987061,795.043945,0.634698
-546.203613,218.627930,795.135498,0.635447
-546.844482,212.127686,797.698975,0.636188
-544.921875,223.937988,796.691895,0.636933
-551.696777,217.987061,793.579102,0.637687
-547.576904,223.205566,795.776367,0.638427
-547.119141,231.445312,804.016113,0.639166
-546.936035,224.853516,798.248291,0.639905
-539.703369,213.043213,799.896240,0.640669
-546.295166,210.571289,799.438477,0.641418
-542.907715,215.057373,792.938232,0.642168
-541.900635,224.578857,800.720215,0.642913
-539.337158,213.500977,804.656982,0.643673
-537.231445,216.888428,799.713135,0.644413
-543.640137,225.769043,775.268555,0.645152
-542.633057,223.114014,799.896240,0.645891
-545.288086,214.691162,798.248291,0.646639
-550.048828,217.346191,801.269531,0.647378
-546.112061,209.106445,791.656494,0.648118
-543.090820,216.979980,796.142578,0.648856
-541.351318,216.339111,802.459717,0.649627
-548.217773,210.113525,791.564941,0.650371
-546.569824,215.240479,797.790527,0.651110
-545.013428,217.987061,812.988281,0.651848
-537.322998,225.219727,806.854248,0.652585
-538.879395,190.795898,797.149658,0.653322
-545.013428,215.606689,793.670654,0.654073
-536.132812,223.022461,796.691895,0.654813
-539.794922,223.205566,800.628662,0.655553
-546.844482,225.585938,803.833008,0.656292
-541.168213,224.121094,798.706055,0.657031
-541.625977,220.825195,791.015625,0.657771
-544.097900,224.212646,797.149658,0.658510
-539.245605,219.635010,802.734375,0.659250
-537.872314,224.578857,802.551270,0.659988
-515.716553,218.078613,794.860840,0.660727
-542.175293,223.754883,804.565430,0.661466
-537.597656,217.254639,804.840088,0.662205
-547.119141,216.613770,806.762695,0.662945
-542.083740,228.515625,801.177979,0.663685
-544.921875,231.994629,796.875000,0.664424
-541.625977,224.853516,805.480957,0.665163
-536.315918,226.776123,809.600830,0.665902
-545.654297,223.571777,806.213379,0.666641
-545.379639,232.727051,810.699463,0.667380
-544.006348,227.233887,805.389404,0.668120
-542.175293,225.128174,801.452637,0.668859
-540.069580,232.910156,802.185059,0.669598
-546.112061,227.600098,794.860840,0.670337
-541.625977,224.212646,800.262451,0.671077
-542.907715,231.719971,805.847168,0.671815
-542.999268,227.142334,802.368164,0.672565
-550.231934,227.600098,801.177979,0.673305
-549.316406,228.515625,800.811768,0.674044
-543.457031,227.783203,800.720215,0.674783
-544.738770,238.861084,804.840088,0.675533
-551.513672,228.424072,801.361084,0.676272
-550.415039,222.290039,801.086426,0.677012
-545.837402,227.783203,801.544189,0.677751
-545.104980,233.093262,812.530518,0.678490
-553.436279,229.064941,800.262451,0.679229
-550.689697,229.064941,795.867920,0.679969
-540.527344,226.135254,803.558350,0.680708
-550.781250,225.585938,800.170898,0.681448
-545.745850,231.903076,810.699463,0.682187
-552.246094,221.099854,802.734375,0.682925
-551.971436,219.543457,798.797607,0.683759
-552.062988,228.057861,800.445557,0.684512
-546.936035,225.402832,802.825928,0.685251
-552.154541,228.057861,807.586670,0.685990
-552.886963,216.888428,801.544189,0.686729
-553.527832,220.367432,799.804688,0.687479
-547.943115,220.001221,797.607422,0.688218
-544.647217,222.839355,799.072266,0.688957
-548.492432,220.001221,810.516357,0.689697
-544.464111,222.290039,802.917480,0.690447
-551.055908,230.163574,804.016113,0.691186
-551.605225,229.797363,805.389404,0.691925
-553.894043,221.740723,804.565430,0.692664
-545.013428,223.205566,802.001953,0.693414
-546.844482,219.360352,802.001953,0.694153
-548.767090,223.297119,806.579590,0.694892
-549.774170,214.965820,805.847168,0.695632
-554.534912,223.114014,806.213379,0.696386
-550.231934,224.578857,800.079346,0.697127
-546.936035,225.952148,797.058105,0.697866
-547.210693,220.916748,800.079346,0.698605
-546.569824,226.776123,806.030273,0.699355
-554.351807,223.022461,801.910400,0.700094
-550.323486,230.438232,806.579590,0.700833
-548.858643,223.297119,804.199219,0.701572
-549.407959,230.072021,803.558350,0.702319
-551.971436,226.043701,800.445557,0.703056
-546.478271,226.409912,802.459717,0.703793
-550.598145,228.973389,797.882080,0.704530
-546.295166,229.156494,798.614502,0.705315
-554.992676,236.572266,801.910400,0.706067
-553.894043,229.248047,799.621582,0.706816
-549.957275,227.600098,805.572510,0.707561
-555.725098,228.057861,800.354004,0.708328
-560.760498,222.656250,799.987793,0.709069
-557.373047,222.290039,802.825928,0.709808
-550.323486,226.318359,797.882080,0.710548
-552.886963,226.226807,807.952881,0.711301
-559.020996,229.156494,803.741455,0.712053
-554.992676,228.607178,804.382324,0.712798
-557.098389,228.607178,794.769287,0.713544
-556.732178,229.614258,796.875000,0.714309
-554.351807,237.213135,798.431396,0.715050
-561.676025,227.416992,797.973633,0.715790
-559.204102,228.149414,800.170898,0.716529
-561.126709,224.487305,796.966553,0.717278
-563.781738,235.839844,796.875000,0.718017
-566.619873,227.691650,806.762695,0.718756
-564.056396,224.670410,806.762695,0.719495
-560.211182,224.853516,804.107666,0.720265
-560.668945,226.684570,805.480957,0.721011
-561.950684,227.600098,795.410156,0.721751
-562.774658,226.043701,796.783447,0.722492
-557.189941,236.022949,805.938721,0.723232
-555.908203,234.924316,799.163818,0.723973
-561.218262,227.874756,796.783447,0.724713
-544.830322,228.057861,800.170898,0.725454
-564.788818,230.072021,797.973633,0.726195
-562.500000,230.987549,804.199219,0.726935
-555.084229,232.727051,804.016113,0.727676
-557.556152,226.867676,803.924561,0.728429
-560.668945,229.888916,808.959961,0.729170
-555.175781,241.333008,806.488037,0.729911
-558.288574,224.304199,805.755615,0.730651
-558.929443,232.635498,806.762695,0.731402
-560.943604,226.867676,799.255371,0.732143
-564.056396,229.156494,801.361084,0.732884
-565.338135,228.881836,805.480957,0.733624
-568.267822,229.614258,802.093506,0.734373
-565.338135,235.748291,800.262451,0.735114
-565.246582,224.761963,804.473877,0.735855
-561.401367,232.727051,794.677734,0.736595
-557.647705,212.585449,800.537109,0.737346
-561.126709,237.579346,802.642822,0.738087
-556.549072,231.262207,799.255371,0.738827
-560.760498,235.107422,799.163818,0.739568
-556.365967,238.952637,804.107666,0.740309
-560.211182,234.283447,812.805176,0.741049
-557.373047,236.022949,805.847168,0.741790
-555.084229,230.987549,799.255371,0.742531
-560.852051,231.262207,811.157227,0.743272
-550.781250,236.022949,810.607910,0.744013
-553.985596,234.741211,802.001953,0.744753
-560.028076,231.353760,806.030273,0.745493
-563.415527,236.572266,807.769775,0.746234
-557.464600,233.184814,800.262451,0.746965
-563.415527,235.107422,802.642822,0.747696
-550.689697,239.776611,809.600830,0.748427
-548.309326,234.375000,808.593750,0.749157
-555.541992,238.128662,804.748535,0.749912
-552.703857,256.347656,809.783936,0.750652
-550.964355,235.748291,805.389404,0.751391
-548.675537,236.206055,809.051514,0.752130
-558.013916,242.248535,808.502197,0.752880
-551.879883,242.797852,805.114746,0.753620
-547.302246,233.093262,806.945801,0.754359
-552.978516,238.677979,804.565430,0.755198
-554.168701,239.318848,803.649902,0.755938
-557.922363,231.994629,801.635742,0.756677
-551.239014,235.107422,809.692383,0.757416
-557.006836,229.980469,811.065674,0.758169
-555.999756,227.325439,805.114746,0.758908
-547.485352,230.804443,806.579590,0.759647
-548.675537,236.846924,802.459717,0.760386
-547.210693,235.656738,806.854248,0.761135
-554.077148,236.206055,805.206299,0.761874
-551.696777,242.340088,804.840088,0.762613
-553.527832,234.741211,802.459717,0.763352
-553.894043,233.367920,798.156738,0.764091
-551.055908,235.473633,809.783936,0.764830
-559.295654,243.164062,806.579590,0.765570
-555.633545,232.910156,803.466797,0.766309
-550.323486,233.367920,797.790527,0.767049
-550.231934,237.121582,799.530029,0.767788
-553.436279,234.558105,797.882080,0.768527
-549.682617,238.403320,809.692383,0.769266
-550.964355,239.868164,807.586670,0.770015
-548.858643,237.121582,810.424805,0.770754
-554.077148,242.980957,802.185059,0.771493
-554.168701,234.375000,800.994873,0.772232
-553.619385,236.114502,802.368164,0.772970
-550.872803,233.551025,800.537109,0.773707
-555.908203,252.319336,807.312012,0.774443
-560.577393,231.262207,803.558350,0.775180
-556.091309,228.515625,804.199219,0.775951
-546.112061,231.719971,807.952881,0.776703
-550.231934,239.685059,804.290771,0.777452
-544.555664,235.382080,806.579590,0.778197
-548.950195,236.114502,803.558350,0.778963
-551.239014,228.973389,803.100586,0.779704
-552.612305,230.895996,806.213379,0.780447
-550.323486,236.480713,807.861328,0.781207
-550.872803,218.170166,808.868408,0.781980
-549.133301,238.586426,809.875488,0.782723
-551.788330,236.938477,806.121826,0.783468
-553.894043,234.558105,803.924561,0.784208
-553.436279,234.100342,798.980713,0.784965
-548.400879,234.008789,802.001953,0.785706
-544.281006,233.001709,804.656982,0.786447
-542.541504,231.170654,812.988281,0.787191
-539.337158,214.782715,800.445557,0.787953
-549.133301,223.205566,806.488037,0.788702
-547.943115,238.586426,805.938721,0.789442
-547.943115,241.973877,809.783936,0.790181
-551.605225,238.586426,800.903320,0.790939
-549.957275,230.895996,794.403076,0.791712
-547.943115,236.572266,799.255371,0.792466
-550.598145,239.959717,806.213379,0.793211
-545.104980,241.241455,806.121826,0.793951
-544.189453,235.290527,797.973633,0.794690
-547.393799,230.712891,796.875000,0.795429
-543.823242,237.762451,797.515869,0.796189
-541.442871,239.227295,803.924561,0.796930
-546.295166,238.769531,797.882080,0.797669
-550.506592,235.656738,803.192139,0.798409
-547.576904,232.177734,804.016113,0.799149
-545.562744,229.156494,799.163818,0.799888
-547.943115,256.072998,802.368164,0.800627
-543.914795,243.438721,801.910400,0.801365
-546.295166,227.050781,792.205811,0.802105
-545.379639,239.593506,804.748535,0.802855
-547.027588,233.642578,802.734375,0.803594
-540.985107,231.353760,807.220459,0.804333
-539.337158,233.642578,807.586670,0.805072
-544.097900,233.642578,795.227051,0.805811
-543.090820,242.614746,801.910400,0.806550
-541.442871,228.424072,800.628662,0.807289
-544.464111,233.917236,800.811768,0.808028
-547.393799,232.086182,797.790527,0.808770
-544.372559,234.741211,802.001953,0.809512
-546.020508,235.748291,807.495117,0.810251
-545.288086,237.396240,804.382324,0.811005
-542.816162,231.079102,799.896240,0.811746
-537.048340,239.776611,801.177979,0.812489
-546.569824,234.100342,799.346924,0.813234
-541.351318,235.473633,804.382324,0.813973
-548.400879,233.551025,799.713135,0.814713
-542.999268,226.135254,803.375244,0.815452
-543.731689,227.783203,780.761719,0.816191
-540.802002,233.367920,800.628662,0.816937
-542.999268,230.987549,800.354004,0.817689
-540.527344,238.586426,799.896240,0.818428
-540.710449,224.395752,803.375244,0.819167
-544.006348,223.114014,801.177979,0.819923
-549.041748,221.099854,800.079346,0.820664
-538.970947,227.508545,803.283691,0.821403
-538.055420,223.571777,803.466797,0.822141
-542.449951,224.121094,801.361084,0.822880
-541.534424,228.790283,796.600342,0.823620
-547.393799,218.902588,795.593262,0.824359
-545.837402,224.029541,800.903320,0.825102
-545.104980,224.761963,799.346924,0.825951
-539.154053,222.473145,798.065186,0.826691
-537.048340,229.431152,798.889160,0.827430
-534.942627,225.952148,796.966553,0.828169
-538.787842,219.818115,819.122314,0.828910
-534.851074,226.226807,803.558350,0.829649
-532.104492,226.135254,802.368164,0.830388
-541.076660,224.304199,794.769287,0.831127
-539.245605,224.761963,796.051025,0.831866
-540.985107,221.191406,810.699463,0.832605
-532.470703,223.663330,805.938721,0.833345
-562.316895,220.001221,800.994873,0.834090
-541.809082,221.374512,797.790527,0.834831
-541.168213,229.797363,804.565430,0.835570
-541.076660,226.959229,803.192139,0.836308
-543.182373,217.254639,804.290771,0.837047
-516.815186,225.952148,798.706055,0.837787
-535.583496,224.670410,799.987793,0.838527
-534.301758,225.677490,804.382324,0.839265
-539.154053,225.402832,804.748535,0.840004
-534.393311,231.536865,801.910400,0.840761
-535.217285,224.945068,800.811768,0.841502
-533.294678,234.741211,804.931641,0.842241
-529.724121,225.128174,802.001953,0.842980
-537.506104,228.515625,806.030273,0.843730
-540.161133,229.797363,805.206299,0.844469
-537.963867,230.072021,799.530029,0.845208
-534.118652,234.191895,806.579590,0.845947
-536.315918,237.396240,808.044434,0.846696
-534.942627,234.008789,804.931641,0.847472
-539.520264,228.973389,805.755615,0.848224
-539.794922,225.860596,800.994873,0.848974
-535.949707,235.565186,803.100586,0.849745
-540.802002,227.142334,802.093506,0.850485
-538.879395,234.741211,802.001953,0.851224
-535.125732,228.973389,802.825928,0.851963
-534.027100,232.452393,806.213379,0.852712
-538.970947,230.987549,798.980713,0.853451
-536.315918,227.050781,815.460205,0.854190
-544.281006,225.036621,799.621582,0.854938
-538.604736,226.593018,804.473877,0.855710
-537.506104,232.910156,806.762695,0.856459
-539.154053,232.635498,807.769775,0.857204
-547.119141,232.727051,809.509277,0.857943
-539.154053,237.304688,803.649902,0.858699
-543.640137,238.403320,801.361084,0.859440
-539.245605,233.734131,796.508789,0.860179
-536.682129,232.269287,807.769775,0.860918
-540.344238,227.874756,797.424316,0.861664
-538.146973,232.269287,807.312012,0.862417
-538.513184,231.262207,806.396484,0.863163
-541.442871,238.494873,805.938721,0.863903
-538.696289,236.206055,810.516357,0.864648
-531.188965,234.283447,810.607910,0.865379
-529.907227,231.628418,804.565430,0.866109
-535.949707,228.057861,802.093506,0.866840
-534.576416,241.882324,799.621582,0.867600
-534.576416,241.882324,807.678223,0.868340
-516.082764,238.311768,805.023193,0.869081
-538.787842,241.424561,804.931641,0.869822
-535.217285,239.776611,811.157227,0.870575
-534.210205,243.804932,807.037354,0.871315
-535.858154,238.677979,805.206299,0.872054
-534.759521,244.354248,801.269531,0.872793
-533.843994,246.734619,806.396484,0.873543
-530.090332,240.966797,808.685303,0.874283
-531.097412,245.269775,805.847168,0.875022
-527.618408,242.706299,804.748535,0.875761
-530.639648,244.262695,808.959961,0.876510
-523.681641,243.896484,809.143066,0.877249
-533.386230,242.065430,812.622070,0.877988
-528.717041,239.776611,805.847168,0.878727
-534.851074,243.804932,811.431885,0.879476
-531.463623,248.748779,811.431885,0.880215
-527.618408,245.452881,806.121826,0.880954
-529.357910,244.628906,811.340332,0.881693
-529.815674,240.417480,806.396484,0.882442
-535.125732,236.663818,808.502197,0.883181
-525.238037,244.812012,800.445557,0.883921
-527.252197,246.551514,807.495117,0.884660
-527.709961,249.023438,816.833496,0.885409
-527.069092,245.544434,808.959961,0.886148
-533.020020,242.797852,804.840088,0.886888
-531.463623,244.995117,813.171387,0.887627
-528.259277,245.544434,810.516357,0.888376
-529.724121,241.699219,811.248779,0.889115
-534.484863,248.107910,806.579590,0.889854
-536.590576,252.136230,800.720215,0.890593
-532.104492,241.516113,801.818848,0.891342
-536.956787,245.819092,811.065674,0.892081
-532.287598,240.234375,806.488037,0.892820
-529.266357,251.129150,801.452637,0.893560
-536.590576,253.326416,803.741455,0.894310
-539.703369,251.861572,806.030273,0.895050
-532.836914,247.192383,802.825928,0.895789
-535.125732,246.826172,802.185059,0.896654
-533.569336,245.819092,806.671143,0.897395
-539.611816,248.474121,809.509277,0.898134
-541.351318,245.452881,803.283691,0.898873
-542.358398,244.995117,811.889648,0.899623
-543.365479,247.100830,806.213379,0.900363
-546.936035,242.706299,807.220459,0.901101
-557.556152,244.079590,811.065674,0.901840
-542.724609,248.107910,801.910400,0.902579
-540.344238,256.072998,807.586670,0.903318
-550.415039,242.797852,806.945801,0.904057
-546.661377,249.664307,800.170898,0.904796
-556.915283,244.537354,798.431396,0.905535
-552.703857,245.361328,799.530029,0.906275
-541.992188,251.403809,792.755127,0.907014
-540.252686,254.882812,804.382324,0.907753
-548.309326,249.023438,804.840088,0.908501
-549.591064,247.833252,809.234619,0.909241
-550.964355,240.234375,803.375244,0.909980
-554.901123,243.713379,805.480957,0.910720
-552.612305,245.819092,800.811768,0.911468
-557.373047,244.445801,808.044434,0.912207
-560.119629,239.227295,805.023193,0.912946
-560.119629,246.093750,801.727295,0.913685
-552.612305,242.156982,808.227539,0.914424
-560.302734,241.973877,805.480957,0.915163
-552.886963,242.248535,808.502197,0.915902
-554.718018,238.311768,810.058594,0.916641
-557.373047,243.988037,797.058105,0.917380
-558.746338,238.311768,804.656982,0.918149
-554.901123,246.276855,803.375244,0.918910
-557.556152,237.670898,804.656982,0.919671
-557.373047,235.931396,798.980713,0.920442
-560.485840,235.839844,798.614502,0.921184
-560.760498,229.797363,806.671143,0.921923
-556.182861,238.037109,806.030273,0.922662
-581.268311,237.670898,809.326172,0.923427
-559.844971,239.868164,807.861328,0.924179
-557.006836,235.290527,805.206299,0.924928
-562.042236,240.509033,809.600830,0.925674
-556.274414,240.875244,815.277100,0.926436
-559.478760,238.677979,817.657471,0.927177
-558.197021,245.269775,801.635742,0.927917
-559.661865,239.868164,806.854248,0.928656
-555.725098,231.811523,803.558350,0.929405
-560.577393,241.790771,801.086426,0.930144
-552.520752,232.910156,806.671143,0.930884
-558.288574,239.501953,813.354492,0.931623
-551.788330,243.347168,819.396973,0.932370
-555.358887,240.234375,810.791016,0.933130
-555.450439,235.839844,818.115234,0.933874
-555.816650,232.269287,804.748535,0.934614
-560.760498,239.501953,808.776855,0.935366
-556.823730,238.769531,810.699463,0.936106
-562.500000,233.367920,807.037354,0.936845
-552.703857,243.713379,816.558838,0.937584
-549.041748,245.819092,817.932129,0.938333
-554.626465,237.304688,811.981201,0.939072
-559.936523,236.572266,807.769775,0.939812
-565.338135,236.755371,808.593750,0.940551
-553.710938,238.677979,807.312012,0.941299
-558.288574,212.493896,807.952881,0.942038
-554.992676,233.825684,807.403564,0.942777
-557.830811,230.621338,810.150146,0.943516
-564.056396,230.255127,810.607910,0.944265
-559.204102,228.057861,801.910400,0.945004
-557.647705,236.938477,811.523438,0.945743
-560.302734,232.269287,807.128906,0.946482
-567.443848,232.543945,808.959961,0.947230
-566.802979,229.522705,806.304932,0.947970
-558.746338,230.621338,808.776855,0.948709
-554.718018,227.783203,808.135986,0.949448
-556.823730,236.022949,812.072754,0.950196
-557.098389,228.424072,810.241699,0.950935
-560.943604,228.424072,805.572510,0.951674
-553.161621,237.121582,806.121826,0.952413
-555.175781,226.043701,800.628662,0.953161
-554.901123,228.240967,802.368164,0.953900
-561.401367,232.269287,803.192139,0.954639
-558.197021,232.818604,809.326172,0.955378
-563.964844,231.536865,810.699463,0.956126
-565.521240,225.219727,803.466797,0.956865
-562.225342,233.367920,806.671143,0.957604
-566.345215,228.973389,801.269531,0.958343
-562.866211,225.128174,799.987793,0.959092
-565.155029,221.557617,801.818848,0.959831
-556.274414,223.937988,803.375244,0.960570
-563.049316,221.649170,791.931152,0.961310
-561.676025,221.374512,794.494629,0.962058
-584.564209,224.578857,792.938232,0.962798
-564.331055,227.508545,794.677734,0.963537
-565.612793,222.381592,793.579102,0.964277
-565.704346,216.796875,792.480469,0.965026
-567.993164,214.233398,799.987793,0.965765
-562.225342,215.881348,796.325684,0.966505
-569.915771,212.677002,798.889160,0.967343
-558.654785,217.437744,795.959473,0.968084
-568.542480,215.148926,795.318604,0.968824
-574.218750,213.867188,793.395996,0.969564
-573.486328,216.247559,788.360596,0.970315
-565.887451,214.874268,792.022705,0.971055
-562.042236,215.698242,796.142578,0.971795
-560.668945,217.529297,788.177490,0.972534
-565.429688,213.684082,789.825439,0.973274
-564.605713,213.958740,794.403076,0.974014
-572.204590,211.578369,795.135498,0.974753
-566.070557,215.698242,794.769287,0.975492
-565.612793,209.930420,793.487549,0.976232
-572.113037,208.923340,797.424316,0.976971
-564.422607,210.662842,793.029785,0.977720
-565.704346,221.557617,799.804688,0.978474
-545.379639,213.684082,802.276611,0.979258
-565.521240,220.001221,782.226562,0.980020
-562.500000,216.064453,799.255371,0.980768
-563.781738,217.163086,797.882080,0.981512
-559.387207,215.423584,800.445557,0.982286
-558.929443,221.374512,798.339844,0.983038
-557.830811,221.374512,795.501709,0.983782
-562.133789,215.789795,793.121338,0.984525
-552.978516,223.937988,796.142578,0.985284
-554.809570,220.458984,797.149658,0.986031
-557.281494,218.170166,795.684814,0.986775
-555.725098,221.649170,798.797607,0.987520
-549.682617,223.297119,796.875000,0.988266
-550.689697,223.388672,801.361084,0.989071
-557.922363,219.635010,797.241211,0.989835
-554.901123,216.888428,798.706055,0.990594
-552.246094,221.374512,797.882080,0.991371
-550.048828,227.416992,812.164307,0.992112
-551.422119,231.079102,801.544189,0.992852
-544.189453,223.114014,795.501709,0.993591
-548.126221,218.444824,791.656494,0.994375
-552.337646,224.670410,802.001953,0.995129
-549.133301,226.684570,800.262451,0.995874
-549.133301,228.790283,808.868408,0.996621
-546.569824,225.769043,801.635742,0.997387
-548.034668,226.135254,801.361084,0.998128
-547.576904,228.790283,794.219971,0.998867
-551.422119,224.487305,791.198730,0.999607
-550.415039,229.797363,798.065186,1.000356
-544.372559,225.677490,796.966553,1.001095
-539.245605,226.135254,795.410156,1.001834
-536.499023,224.212646,790.557861,1.002573
-538.604736,221.832275,797.790527,1.003319
-546.661377,225.677490,790.924072,1.004078
-547.210693,219.909668,791.473389,1.004821
-547.027588,219.909668,792.755127,1.005560
-549.499512,216.339111,792.388916,1.006299
-550.689697,216.064453,795.410156,1.007038
-541.076660,213.409424,789.276123,1.007777
-547.027588,208.923340,791.198730,1.008517
-541.351318,217.712402,796.234131,1.009257
-543.365479,227.142334,787.994385,1.009996
-540.435791,219.726562,792.114258,1.010735
-549.224854,215.515137,790.557861,1.011474
-543.365479,214.874268,785.339355,1.012213
-541.992188,215.972900,786.529541,1.012952
-537.963867,216.339111,792.205811,1.013691
-546.295166,216.156006,793.487549,1.014432
-546.020508,213.867188,794.128418,1.015171
-546.569824,219.268799,789.733887,1.015910
-544.464111,217.987061,798.431396,1.016649
-552.154541,214.324951,793.762207,1.017388
-547.027588,209.197998,792.846680,1.018138
-546.936035,214.599609,792.480469,1.018877
-556.365967,203.979492,789.276123,1.019616
-547.393799,208.740234,790.832520,1.020354
-548.858643,220.275879,791.656494,1.021100
-553.436279,219.360352,791.381836,1.021837
-558.105469,215.515137,794.494629,1.022588
-553.253174,216.430664,799.163818,1.023328
-550.781250,213.958740,796.600342,1.024067
-552.520752,210.937500,804.840088,1.024805
-553.985596,208.190918,791.564941,1.025544
-553.161621,211.944580,794.128418,1.026283
-560.028076,216.156006,791.564941,1.027031
-557.373047,212.127686,785.522461,1.027770
-546.844482,218.353271,797.332764,1.028509
-554.168701,231.628418,791.564941,1.029247
-554.168701,218.627930,796.142578,1.029997
-550.781250,219.268799,797.424316,1.030736
-552.703857,217.895508,797.332764,1.031474
-555.725098,208.923340,795.135498,1.032213
-551.055908,213.592529,799.804688,1.032962
-556.915283,219.909668,807.586670,1.033701
-555.267334,212.677002,800.262451,1.034439
-548.492432,220.642090,806.671143,1.035178
-554.260254,215.332031,799.163818,1.035926
-552.154541,220.001221,804.840088,1.036665
-558.197021,226.318359,805.938721,1.037403
-558.380127,217.254639,800.811768,1.038142
-557.922363,217.895508,800.445557,1.038986
-567.352295,219.726562,799.896240,1.039725
-560.485840,224.029541,801.452637,1.040464
-555.267334,222.564697,809.417725,1.041203
-561.401367,226.959229,804.473877,1.041941
-553.527832,216.979980,807.952881,1.042680
-562.133789,227.233887,805.755615,1.043419
-560.302734,231.903076,806.488037,1.044158
-558.288574,228.515625,812.713623,1.044896
-559.295654,236.022949,806.030273,1.045635
-553.985596,221.374512,794.128418,1.046373
-559.387207,222.747803,807.312012,1.047124
-551.879883,218.994141,803.466797,1.047863
-557.739258,226.867676,809.509277,1.048601
-550.689697,225.219727,810.882568,1.049340
-553.436279,228.149414,796.234131,1.050079
-556.274414,231.079102,808.593750,1.050817
-557.830811,228.607178,814.361572,1.051556
-556.457520,225.952148,809.509277,1.052295
-551.696777,232.727051,810.607910,1.053035
-554.718018,232.818604,805.938721,1.053773
-556.823730,225.036621,807.128906,1.054512
-553.344727,225.952148,781.951904,1.055251
-554.260254,223.663330,801.635742,1.055999
-558.654785,220.550537,805.847168,1.056738
-550.506592,228.973389,811.706543,1.057477
-547.119141,238.769531,809.417725,1.058216
-554.260254,235.015869,800.262451,1.058954
-544.189453,234.924316,803.833008,1.059738
-548.583984,228.424072,805.206299,1.060490
-546.936035,238.769531,810.150146,1.061244
-552.154541,231.353760,807.678223,1.062037
-546.386719,235.198975,810.607910,1.062794
-549.041748,229.614258,805.206299,1.063538
-552.337646,234.924316,806.945801,1.064280
-554.992676,231.811523,809.967041,1.065052
-545.654297,236.206055,812.347412,1.065799
-545.104980,225.769043,803.558350,1.066552
-546.112061,224.029541,808.319092,1.067303
-549.133301,228.973389,801.269531,1.068074
-551.147461,238.677979,801.177979,1.068821
-553.802490,232.177734,803.375244,1.069560
-552.154541,232.543945,807.128906,1.070298
-551.422119,229.064941,795.593262,1.071055
-547.576904,224.487305,799.163818,1.071794
-554.718018,229.614258,805.664062,1.072534
-540.802002,229.522705,806.488037,1.073274
-551.239014,226.409912,807.678223,1.074023
-551.971436,232.269287,801.544189,1.074761
-559.387207,226.226807,802.825928,1.075523
-557.739258,235.015869,794.586182,1.076268
-555.999756,233.825684,795.684814,1.077008
-549.041748,228.698730,799.530029,1.077749
-552.429199,223.388672,809.692383,1.078490
-553.802490,222.747803,805.847168,1.079231
-551.788330,231.628418,798.889160,1.079972
-550.048828,231.079102,800.811768,1.080712
-555.267334,229.339600,803.192139,1.081453
-551.788330,228.973389,799.530029,1.082207
-552.520752,227.508545,799.530029,1.082948
-551.513672,228.149414,802.459717,1.083688
-553.253174,219.726562,799.896240,1.084429
-556.823730,229.064941,779.113770,1.085173
-555.725098,228.607178,801.910400,1.085919
-546.478271,219.451904,797.149658,1.086659
-550.872803,216.430664,796.417236,1.087400
-555.908203,220.642090,804.290771,1.088140
-555.816650,225.494385,801.727295,1.088891
-553.161621,218.902588,801.452637,1.089632
-557.830811,215.332031,803.009033,1.090372
-555.633545,222.106934,807.037354,1.091112
-552.154541,226.593018,799.072266,1.091862
-556.365967,226.684570,799.346924,1.092603
-554.718018,222.656250,789.825439,1.093344
-557.739258,224.212646,800.537109,1.094084
-559.478760,214.508057,800.170898,1.094834
-560.394287,226.867676,801.910400,1.095574
-558.471680,225.677490,805.572510,1.096315
-559.478760,219.268799,796.691895,1.097055
-561.492920,230.712891,798.980713,1.097805
-560.852051,221.557617,797.790527,1.098545
-561.035156,226.684570,801.361084,1.099285
-560.943604,225.402832,801.544189,1.100026
-553.894043,225.769043,800.537109,1.100777
-558.013916,229.248047,809.234619,1.101517
-561.492920,228.607178,801.818848,1.102258
-549.865723,225.769043,807.678223,1.102998
-581.359863,229.522705,798.522949,1.103745
-559.478760,231.170654,803.100586,1.104485
-553.894043,234.375000,805.847168,1.105225
-553.344727,230.438232,803.466797,1.105965
-549.224854,227.966309,797.973633,1.106715
-558.563232,218.078613,796.325684,1.107455
-554.443359,228.698730,799.713135,1.108196
-559.570312,234.283447,808.776855,1.108936
-556.732178,229.705811,799.713135,1.109784
-546.478271,234.558105,807.037354,1.110525
-552.886963,226.318359,780.761719,1.111266
-544.647217,231.811523,802.642822,1.112018
-545.837402,231.079102,806.304932,1.112759
-548.950195,233.734131,805.297852,1.113500
-547.119141,226.593018,805.755615,1.114241
-545.196533,234.008789,809.875488,1.114981
-548.126221,239.685059,810.058594,1.115722
-545.379639,238.311768,805.389404,1.116463
-556.640625,233.367920,803.833008,1.117204
-552.246094,235.382080,804.565430,1.117945
-551.055908,235.473633,799.804688,1.118685
-552.978516,237.945557,801.177979,1.119426
-547.119141,232.177734,798.522949,1.120166
-544.097900,233.276367,806.304932,1.120907
-545.837402,235.565186,812.438965,1.121648
-542.266846,230.346680,803.375244,1.122388
-541.259766,226.959229,800.628662,1.123129
-543.640137,236.846924,806.488037,1.123879
-543.823242,236.480713,804.107666,1.124610
-547.668457,237.670898,808.776855,1.125341
-551.696777,227.325439,808.593750,1.126071
-549.041748,231.262207,807.403564,1.126804
-550.415039,222.839355,808.410645,1.127544
-546.752930,220.550537,808.410645,1.128283
-554.809570,235.565186,807.037354,1.129023
-550.598145,234.008789,794.677734,1.129761
-548.583984,228.607178,793.395996,1.130498
-546.844482,230.072021,804.290771,1.131268
-541.809082,232.727051,804.931641,1.132020
-541.809082,231.262207,804.107666,1.132796
-551.239014,228.698730,803.009033,1.133543
-544.830322,230.895996,801.177979,1.134282
-550.231934,230.804443,801.727295,1.135020
-551.055908,230.163574,799.346924,1.135773
-545.837402,226.043701,797.332764,1.136517
-550.689697,229.522705,801.544189,1.137277
-546.020508,227.966309,802.734375,1.138026
-549.865723,231.628418,800.262451,1.138789
-552.703857,231.262207,801.544189,1.139530
-550.415039,231.719971,801.910400,1.140269
-546.752930,223.022461,800.537109,1.141008
-554.443359,233.093262,807.037354,1.141758
-552.612305,226.043701,800.262451,1.142497
-555.267334,250.488281,802.642822,1.143236
-553.344727,230.072021,800.994873,1.143975
-544.006348,229.980469,801.727295,1.144722
-546.844482,239.318848,799.163818,1.145459
-550.415039,225.952148,802.825928,1.146208
-547.943115,227.325439,803.100586,1.146953
-545.104980,232.910156,808.044434,1.147705
-552.795410,237.213135,794.311523,1.148444
-553.161621,228.057861,802.276611,1.149183
-550.048828,230.895996,801.177979,1.149922
-547.393799,235.748291,809.692383,1.150678
-548.858643,236.938477,808.319092,1.151416
-548.858643,232.543945,807.128906,1.152155
-550.781250,225.311279,802.001953,1.152893
-544.647217,239.593506,803.009033,1.153641
-548.492432,240.875244,804.748535,1.154380
-553.253174,239.868164,807.678223,1.155118
-548.858643,238.128662,811.157227,1.155856
-546.112061,232.269287,800.170898,1.156605
-551.788330,254.425049,803.833008,1.157343
-551.055908,234.466553,801.818848,1.158082
-553.894043,234.375000,804.656982,1.158820
-548.126221,229.980469,799.072266,1.159568
-553.070068,238.403320,798.065186,1.160306
-557.647705,241.241455,808.044434,1.161045
-551.788330,233.001709,805.572510,1.161783
-553.710938,234.191895,806.213379,1.162531
-551.605225,234.741211,806.488037,1.163270
-547.210693,225.769043,798.065186,1.164008
-545.379639,231.353760,803.192139,1.164747
-553.619385,238.311768,810.150146,1.165494
-546.478271,238.403320,811.431885,1.166232
-555.175781,229.980469,804.656982,1.166971
-548.492432,234.649658,799.896240,1.167709
-547.027588,229.064941,805.297852,1.168456
-548.126221,240.875244,804.199219,1.169194
-547.119141,227.325439,800.445557,1.169933
-545.654297,251.312256,805.114746,1.170672
-542.816162,236.480713,805.480957,1.171420
-550.781250,225.677490,805.755615,1.172159
-548.309326,226.776123,805.480957,1.172898
-554.626465,231.445312,805.114746,1.173636
-550.964355,232.360840,799.804688,1.174384
-542.724609,236.663818,805.114746,1.175123
-542.266846,233.276367,803.192139,1.175861
-544.647217,231.903076,801.635742,1.176599
-545.837402,228.149414,802.551270,1.177348
-547.302246,231.445312,805.572510,1.178086
-548.126221,233.001709,805.572510,1.178825
-544.006348,229.980469,806.488037,1.179564
-541.809082,228.790283,801.269531,1.180396
-549.591064,236.480713,799.713135,1.181135
-552.429199,230.438232,803.192139,1.181874
-546.203613,230.895996,800.079346,1.182613
-550.323486,226.776123,798.065186,1.183351
-549.499512,229.064941,799.713135,1.184089
-550.781250,228.057861,802.276611,1.184827
-546.112061,230.346680,805.023193,1.185574
-544.738770,229.248047,807.403564,1.186313
-544.464111,231.536865,792.755127,1.187053
-550.506592,227.233887,801.086426,1.187794
-558.197021,220.367432,801.910400,1.188533
-546.661377,226.226807,805.206299,1.189272
-548.675537,230.163574,801.452637,1.190011
-545.104980,255.706787,801.727295,1.190750
-543.640137,234.558105,805.114746,1.191489
-540.161133,232.177734,799.072266,1.192228
-544.830322,226.501465,803.741455,1.192967
-541.809082,227.783203,801.452637,1.193706
-544.830322,232.818604,798.156738,1.194446
-544.464111,228.240967,805.389404,1.195185
-546.844482,225.128174,798.797607,1.195924
-545.837402,227.874756,803.741455,1.196663
-543.457031,230.529785,802.642822,1.197401
-547.393799,227.600098,801.269531,1.198149
-540.985107,229.248047,804.290771,1.198888
-539.794922,235.931396,807.312012,1.199626
-547.027588,223.114014,804.473877,1.200365
-548.583984,227.691650,802.734375,1.201110
-544.830322,231.170654,800.079346,1.201865
-544.281006,230.621338,799.072266,1.202616
-546.569824,221.374512,798.797607,1.203363
-549.316406,220.367432,793.304443,1.204108
-552.062988,224.029541,796.783447,1.204847
-556.457520,226.684570,804.748535,1.205586
-548.034668,230.346680,800.811768,1.206325
-542.999268,234.283447,801.910400,1.207063
-549.224854,230.163574,806.030273,1.207802
-547.393799,224.029541,796.508789,1.208557
-548.126221,223.022461,799.621582,1.209327
-539.520264,217.163086,807.586670,1.210077
-551.239014,223.663330,806.579590,1.210819
-548.126221,231.719971,803.466797,1.211558
-545.837402,227.325439,805.114746,1.212297
-559.478760,217.620850,808.410645,1.213036
-554.992676,223.480225,808.319092,1.213776
-551.605225,226.043701,798.156738,1.214514
-549.407959,234.008789,800.811768,1.215252
-552.703857,233.184814,805.206299,1.215989
-553.161621,224.487305,806.304932,1.216743
-547.119141,222.290039,799.255371,1.217488
-546.844482,220.001221,796.234131,1.218247
-540.069580,227.325439,812.438965,1.218986
-544.189453,221.923828,804.199219,1.219724
-544.281006,227.508545,803.833008,1.220464
-547.027588,219.085693,801.452637,1.221211
-550.506592,217.071533,800.720215,1.221950
-551.239014,221.099854,801.269531,1.222689
-549.499512,230.072021,799.072266,1.223428
-548.858643,223.846436,802.642822,1.224177
-546.569824,227.508545,796.325684,1.224916
-541.809082,230.621338,810.791016,1.225655
-545.379639,223.205566,804.473877,1.226394
-550.415039,227.050781,807.403564,1.227142
-546.752930,225.769043,802.825928,1.227881
-549.316406,219.818115,801.910400,1.228620
-545.379639,218.353271,804.931641,1.229359
-548.583984,223.846436,798.706055,1.230107
-548.126221,225.402832,800.811768,1.230847
-554.260254,224.578857,797.973633,1.231586
-551.239014,215.606689,807.952881,1.232325
-545.196533,217.437744,796.966553,1.233073
-543.823242,221.191406,792.297363,1.233813
-543.914795,223.754883,799.255371,1.234552
-543.731689,225.677490,800.994873,1.235290
-548.492432,215.423584,799.896240,1.236040
-539.703369,217.987061,805.664062,1.236779
-548.126221,219.177246,805.847168,1.237518
-546.295166,215.972900,800.537109,1.238257
-550.506592,215.789795,816.558838,1.239004
-546.661377,217.437744,809.051514,1.239744
-540.252686,225.311279,806.396484,1.240483
-543.823242,214.141846,804.656982,1.241222
-544.006348,221.557617,797.973633,1.241969
-544.738770,224.761963,787.719727,1.242708
-545.928955,225.769043,799.255371,1.243447
-544.830322,221.374512,798.156738,1.244186
-543.182373,213.592529,797.973633,1.244934
-544.281006,225.311279,796.600342,1.245673
-544.921875,211.120605,801.910400,1.246413
-545.654297,219.268799,803.192139,1.247152
-546.569824,216.979980,805.023193,1.247901
-544.738770,212.768555,800.445557,1.248640
-548.309326,214.874268,800.537109,1.249379
-549.682617,221.282959,805.755615,1.250118
-549.865723,212.310791,800.537109,1.250963
-542.358398,221.099854,802.551270,1.251704
-546.478271,221.832275,806.304932,1.252444
-551.971436,220.275879,799.896240,1.253182
-546.661377,221.832275,800.537109,1.253932
-550.323486,216.064453,793.304443,1.254671
-547.760010,220.825195,799.713135,1.255410
-544.281006,220.275879,804.473877,1.256149
-548.309326,227.325439,797.607422,1.256897
-545.928955,222.106934,795.135498,1.257636
-548.492432,222.290039,805.114746,1.258375
-542.816162,214.050293,808.135986,1.259114
-546.112061,222.564697,797.241211,1.259866
-543.182373,219.726562,805.480957,1.260607
-551.605225,216.705322,798.889160,1.261346
-552.246094,221.374512,799.255371,1.262084
-550.323486,217.712402,804.290771,1.262835
-545.196533,224.304199,798.431396,1.263573
-541.625977,220.916748,808.868408,1.264313
-554.718018,225.311279,812.072754,1.265053
-550.231934,225.494385,807.769775,1.265802
-548.583984,220.916748,801.818848,1.266542
-547.027588,219.177246,802.185059,1.267281
-547.119141,216.979980,798.706055,1.268020
-546.295166,223.388672,803.100586,1.268769
-550.506592,221.191406,802.001953,1.269508
-550.231934,223.754883,805.023193,1.270246
-549.407959,230.621338,800.354004,1.270985
-545.745850,219.818115,800.262451,1.271732
-549.682617,216.796875,796.142578,1.272499
-548.034668,223.571777,800.354004,1.273251
-542.266846,223.571777,819.854736,1.274027
-551.879883,225.219727,802.551270,1.274773
-551.055908,229.156494,806.121826,1.275511
-544.647217,227.142334,806.579590,1.276250
-545.288086,227.233887,797.882080,1.276989
-553.710938,221.099854,796.325684,1.277728
-542.449951,226.501465,802.459717,1.278467
-550.506592,224.121094,797.973633,1.279206
-556.915283,217.529297,800.262451,1.279953
-555.358887,223.937988,804.290771,1.280704
-553.161621,230.987549,804.840088,1.281449
-553.253174,228.057861,805.206299,1.282196
-554.718018,224.029541,799.072266,1.282967
-550.964355,224.304199,797.698975,1.283733
-557.922363,226.318359,800.537109,1.284489
-554.992676,225.494385,789.733887,1.285251
-548.583984,223.297119,805.023193,1.286056
-551.239014,224.029541,800.720215,1.286818
-548.126221,222.656250,799.713135,1.287588
-550.048828,223.114014,798.706055,1.288347
-548.675537,226.501465,797.149658,1.289152
-556.274414,223.754883,803.466797,1.289912
-556.457520,226.684570,804.107666,1.290664
-557.647705,228.790283,801.177979,1.291423
-552.703857,221.374512,804.290771,1.292221
-550.598145,221.649170,797.058105,1.292979
-557.281494,230.529785,796.234131,1.293732
-552.520752,220.458984,799.163818,1.294494
-548.675537,230.987549,799.530029,1.295278
-543.823242,229.431152,796.417236,1.296026
-544.921875,225.677490,798.706055,1.296767
-546.752930,230.072021,798.889160,1.297508
-548.400879,226.593018,818.664551,1.298261
-545.196533,227.050781,800.445557,1.299003
-547.027588,235.107422,800.537109,1.299744
-538.238525,225.311279,805.206299,1.300484
-550.689697,239.410400,795.135498,1.301236
-553.344727,239.044189,800.903320,1.301976
-548.492432,244.812012,801.910400,1.302716
-550.140381,236.755371,800.628662,1.303456
-545.562744,238.769531,810.424805,1.304206
-545.562744,239.776611,809.600830,1.304946
-550.231934,241.241455,805.847168,1.305686
-544.281006,245.635986,801.818848,1.306426
-548.767090,235.839844,801.910400,1.307178
-546.112061,242.431641,802.276611,1.307918
-542.816162,241.973877,801.910400,1.308658
-542.266846,245.635986,806.671143,1.309398
-541.351318,245.178223,804.748535,1.310148
-542.816162,246.002197,807.037354,1.310889
-539.520264,244.171143,806.121826,1.311629
-545.379639,243.804932,805.938721,1.312370
-544.555664,240.966797,806.854248,1.313123
-542.816162,249.572754,813.629150,1.313863
-544.006348,242.340088,809.051514,1.314604
-543.640137,241.241455,805.023193,1.315346
-546.203613,246.551514,803.192139,1.316096
-546.112061,243.438721,808.868408,1.316837
-548.492432,253.509521,816.009521,1.317577
-550.781250,247.467041,805.572510,1.318317
-551.239014,248.840332,807.678223,1.319067
-549.682617,248.931885,814.544678,1.319807
-548.767090,240.509033,813.446045,1.320547
-551.422119,231.719971,804.016113,1.321287
-542.541504,249.023438,811.523438,1.322037
-546.478271,245.452881,804.840088,1.322866
-549.774170,242.156982,797.698975,1.323607
-547.210693,243.438721,807.495117,1.324347
-550.689697,241.607666,805.572510,1.325101
-550.048828,246.643066,804.748535,1.325841
-542.633057,242.614746,807.678223,1.326581
-546.569824,234.466553,806.213379,1.327321
-544.738770,237.396240,804.016113,1.328072
-525.787354,238.037109,805.297852,1.328812
-544.097900,234.191895,803.833008,1.329553
-543.823242,233.367920,801.086426,1.330293
-537.689209,234.924316,803.100586,1.331042
-544.097900,234.649658,807.769775,1.331783
-544.830322,236.755371,804.931641,1.332523
-546.112061,230.346680,806.671143,1.333263
-543.548584,231.903076,804.748535,1.334019
-547.119141,225.952148,802.001953,1.334759
-541.076660,234.191895,805.664062,1.335499
-543.090820,232.910156,805.664062,1.336239
-545.562744,228.607178,804.016113,1.336988
-540.802002,228.057861,799.255371,1.337729
-546.844482,223.297119,797.607422,1.338469
-540.435791,229.156494,795.227051,1.339209
-549.865723,226.226807,793.395996,1.339959
-545.562744,228.424072,810.424805,1.340699
-541.168213,220.825195,798.156738,1.341439
-534.942627,232.177734,809.051514,1.342179
-541.900635,223.022461,796.783447,1.342929
-543.548584,228.790283,800.720215,1.343676
-537.231445,229.980469,796.417236,1.344428
-531.097412,226.959229,796.966553,1.345177
-541.534424,226.318359,802.276611,1.345948
-545.654297,224.029541,803.649902,1.346690
-536.041260,228.607178,808.135986,1.347431
-535.583496,225.311279,814.544678,1.348182
-532.928467,225.219727,794.128418,1.348923
-538.421631,234.558105,800.903320,1.349667
-538.696289,233.551025,802.917480,1.350420
-531.005859,233.093262,806.945801,1.351170
-536.773682,238.861084,807.037354,1.351921
-537.048340,238.769531,807.952881,1.352662
-533.203125,236.846924,805.297852,1.353402
-540.985107,238.861084,803.466797,1.354155
-533.752441,237.762451,809.143066,1.354895
-536.682129,237.854004,806.304932,1.355636
-532.562256,238.311768,811.431885,1.356376
-534.118652,239.685059,809.509277,1.357125
-533.477783,238.677979,809.600830,1.357865
-528.533936,241.058350,813.720703,1.358605
-533.386230,247.283936,815.093994,1.359346
-533.752441,245.361328,805.206299,1.360088
-535.491943,246.734619,807.495117,1.360830
-534.851074,248.657227,810.424805,1.361570
-535.217285,245.361328,809.967041,1.362311
-532.562256,247.375488,809.051514,1.363051
-534.301758,238.861084,804.290771,1.363792
-536.682129,242.523193,802.001953,1.364532
-537.963867,243.438721,802.001953,1.365272
-535.125732,238.677979,805.480957,1.366013
-540.161133,241.241455,808.593750,1.366753
-531.097412,245.452881,808.044434,1.367493
-535.125732,239.868164,804.656982,1.368234
-530.090332,239.227295,804.107666,1.368987
-538.513184,237.762451,810.058594,1.369729
-534.301758,235.656738,805.572510,1.370469
-534.759521,230.804443,805.755615,1.371210
-538.238525,234.283447,798.248291,1.371959
-538.238525,233.642578,802.368164,1.372700
-539.154053,232.360840,800.628662,1.373440
-538.421631,234.741211,800.811768,1.374181
-539.428711,229.339600,802.825928,1.374921
-534.851074,233.093262,808.410645,1.375671
-541.992188,224.304199,803.192139,1.376411
-538.696289,233.551025,793.853760,1.377151
-533.569336,228.973389,801.361084,1.377892
-530.639648,227.966309,804.199219,1.378642
-538.421631,228.240967,803.833008,1.379382
-538.421631,223.388672,807.128906,1.380123
-536.041260,232.360840,801.452637,1.380863
-538.879395,228.240967,790.832520,1.381612
-534.667969,224.121094,798.339844,1.382353
-536.041260,229.980469,800.445557,1.383093
-535.125732,231.353760,799.804688,1.383833
-532.012939,228.332520,797.973633,1.384582
-530.090332,225.219727,804.840088,1.385323
-531.738281,226.318359,805.480957,1.386063
-528.808594,229.522705,803.466797,1.386803
-521.484375,241.149902,802.093506,1.387553
-528.442383,223.937988,807.861328,1.388293
-525.787354,235.290527,798.065186,1.389033
-522.216797,235.656738,799.255371,1.389773
-521.850586,234.649658,799.804688,1.390522
-526.336670,229.522705,802.001953,1.391263
-524.780273,229.797363,805.297852,1.392003
-520.843506,232.543945,800.628662,1.392743
-528.350830,235.290527,807.128906,1.393577
-517.913818,230.438232,816.101074,1.394319
-516.815186,234.466553,813.262939,1.395059
-521.484375,233.551025,816.650391,1.395812
-523.498535,229.980469,812.988281,1.396552
-529.632568,250.579834,809.875488,1.397292
-531.829834,230.987549,803.466797,1.398032
-525.970459,227.416992,801.818848,1.398778
-523.132324,225.128174,800.811768,1.399519
-516.082764,230.529785,810.241699,1.400259
-522.766113,234.191895,811.614990,1.400999
-522.766113,227.416992,808.227539,1.401739
-519.104004,230.621338,807.312012,1.402480
-518.005371,227.966309,807.678223,1.403220
-524.139404,224.853516,805.114746,1.403960
-526.519775,228.881836,806.945801,1.404701
-530.914307,228.973389,805.206299,1.405441
-526.428223,221.557617,803.100586,1.406181
-527.435303,223.846436,797.332764,1.406922
-533.020020,223.846436,797.241211,1.407663
-529.266357,229.614258,803.924561,1.408403
-527.709961,233.917236,780.487061,1.409144
-527.618408,220.275879,794.128418,1.409885
-529.632568,223.754883,801.635742,1.410625
-533.843994,221.923828,792.205811,1.411375
-535.400391,228.149414,791.015625,1.412116
-530.914307,227.325439,795.776367,1.412857
-532.562256,224.761963,793.853760,1.413597
-535.766602,222.747803,789.733887,1.414347
-539.886475,224.578857,786.071777,1.415088
-544.097900,219.360352,784.790039,1.415830
-537.872314,218.078613,790.557861,1.416598
-538.238525,226.959229,795.318604,1.417350
-539.611816,218.536377,784.149170,1.418098
-542.541504,216.156006,782.684326,1.418839
-544.921875,221.374512,777.832031,1.419580
-544.921875,225.402832,779.754639,1.420321
-544.372559,224.121094,781.402588,1.421064
-545.745850,227.783203,785.980225,1.421815
-546.203613,229.156494,782.958984,1.422562
-540.985107,223.297119,775.817871,1.423309
-550.140381,223.114014,784.881592,1.424050
-551.147461,218.811035,783.233643,1.424790
-549.865723,216.705322,781.951904,1.425531
-549.499512,220.367432,777.008057,1.426271
-553.527832,219.177246,783.966064,1.427012
-550.964355,214.691162,781.311035,1.427753
-541.992188,219.818115,781.036377,1.428493
-550.689697,211.303711,779.388428,1.429234
-552.886963,215.332031,780.212402,1.429975
-552.703857,206.542969,776.458740,1.430716
-551.239014,207.000732,779.663086,1.431457
-547.943115,217.803955,775.726318,1.432198
-559.295654,208.007812,772.705078,1.432938
-557.098389,212.310791,781.311035,1.433678
-561.767578,209.197998,753.662109,1.434419
-555.816650,213.867188,782.135010,1.435160
-554.077148,214.599609,773.071289,1.435901
-556.457520,208.557129,771.514893,1.436641
-562.225342,204.254150,776.458740,1.437396
-559.570312,207.733154,775.268555,1.438139
-555.541992,203.430176,772.613525,1.438879
-558.105469,202.331543,773.986816,1.439620
-559.020996,211.029053,770.965576,1.440360
-558.013916,215.148926,775.543213,1.441101
-558.929443,202.423096,776.000977,1.441841
-559.295654,207.550049,776.000977,1.442581
-583.374023,200.500488,780.212402,1.443321
-567.718506,199.035645,772.979736,1.444061
-562.774658,206.634521,772.247314,1.444802
-573.852539,202.697754,776.824951,1.445542
-570.831299,197.570801,777.191162,1.446282
-575.683594,194.458008,760.528564,1.447022
-569.000244,196.655273,762.451172,1.447763
-559.387207,194.915771,758.972168,1.448503
-554.901123,195.007324,768.402100,1.449243
-565.155029,193.267822,777.099609,1.450000
-583.007812,192.352295,787.445068,1.450740
-586.029053,188.598633,790.374756,1.451480
-587.951660,196.380615,793.853760,1.452221
-583.923340,196.655273,788.818359,1.452970
-572.021484,194.458008,797.607422,1.453711
-565.429688,188.964844,795.959473,1.454451
-562.683105,164.154053,797.332764,1.455191
-563.690186,179.901123,791.015625,1.455941
-567.260742,179.443359,763.641357,1.456681
-567.626953,178.894043,767.395020,1.457422
-569.549561,175.506592,768.585205,1.458162
-565.612793,172.302246,768.218994,1.458911
-570.648193,175.415039,769.409180,1.459652
-571.563721,169.647217,780.578613,1.460392
-574.676514,169.281006,777.374268,1.461133
-578.613281,169.738770,786.621094,1.461884
-573.394775,164.520264,780.944824,1.462625
-562.225342,172.943115,781.219482,1.463365
-568.450928,167.175293,769.134521,1.464188
-568.450928,165.252686,767.486572,1.464929
-571.289062,165.985107,774.261475,1.465669
-582.733154,169.647217,774.169922,1.466409
-573.669434,171.295166,786.254883,1.467160
-576.049805,160.034180,772.705078,1.467900
-575.500488,163.696289,780.944824,1.468640
-574.401855,159.576416,776.000977,1.469380
-566.711426,158.294678,778.839111,1.470129
-571.929932,160.034180,772.247314,1.470870
-573.669434,163.879395,776.733398,1.471610
-569.091797,165.069580,771.697998,1.472350
-569.183350,167.724609,752.471924,1.473099
-582.916260,152.343750,776.641846,1.473840
-587.402344,147.674561,774.169922,1.474581
-598.388672,141.540527,768.127441,1.475321
-595.367432,146.118164,759.521484,1.476062
-591.247559,139.709473,742.126465,1.476802
-584.472656,141.540527,739.013672,1.477543
-585.021973,142.456055,753.479004,1.478284
-576.599121,141.082764,754.669189,1.479024
-584.747314,151.062012,756.774902,1.479764
-587.036133,153.350830,763.824463,1.480505
-579.345703,156.829834,773.345947,1.481245
-586.395264,151.885986,780.944824,1.481985
-589.599609,160.125732,786.071777,1.482726
-592.987061,147.491455,769.592285,1.483466
-587.219238,124.694824,751.922607,1.484206
-601.776123,127.899170,752.197266,1.484946
-591.705322,126.617432,732.238770,1.485696
-596.008301,119.018555,729.309082,1.486438
-594.085693,115.814209,722.991943,1.487188
-583.282471,111.694336,722.900391,1.487940
-587.493896,112.335205,717.407227,1.488689
-589.691162,118.652344,728.210449,1.489430
-595.458984,114.166260,732.879639,1.490170
-602.508545,106.292725,732.879639,1.490911
-590.057373,109.222412,741.302490,1.491656
-584.747314,126.525879,748.901367,1.492407
-570.831299,131.561279,761.352539,1.493155
-570.739746,137.054443,768.951416,1.493903
-571.380615,137.512207,774.169922,1.494644
-566.619873,145.202637,774.169922,1.495384
-565.612793,144.744873,782.958984,1.496125
-550.964355,175.323486,780.578613,1.496866
-535.308838,196.197510,774.444580,1.497607
-532.104492,218.536377,779.663086,1.498347
-545.654297,252.777100,811.706543,1.499087
-564.971924,282.348633,829.010010,1.499850
-729.766846,254.150391,863.800049,1.500594
-788.360596,192.718506,848.327637,1.501336
-782.775879,187.133789,850.891113,1.502078
-637.207031,193.725586,858.032227,1.502818
-601.501465,229.248047,836.608887,1.503558
-413.818359,241.790771,823.150635,1.504298
-397.521973,235.656738,794.769287,1.505038
-405.853271,225.494385,770.233154,1.505779
-433.593750,191.802979,753.387451,1.506519
-454.833984,162.231445,746.704102,1.507260
-456.665039,159.301758,744.506836,1.508000
-439.270020,172.668457,737.457275,1.508741
-418.121338,218.994141,780.303955,1.509481
-365.753174,236.572266,796.142578,1.510222
-323.822021,254.974365,844.482422,1.510961
-332.611084,245.269775,892.364502,1.511712
-359.527588,238.861084,936.676025,1.512454
-356.964111,233.184814,994.537354,1.513194
-368.957520,228.515625,1012.023926,1.513934
-356.323242,238.677979,1023.284912,1.514674
-323.272705,249.023438,1010.925293,1.515424
-326.477051,223.114014,1001.129150,1.516165
-301.025391,192.993164,955.902100,1.516905
-322.174072,164.703369,918.914795,1.517646
-321.258545,109.954834,862.518311,1.518396
-328.582764,82.580566,830.200195,1.519137
-362.915039,42.114258,830.657959,1.519877
-358.154297,13.183594,820.129395,1.520617
-357.788086,21.240234,824.798584,1.521367
-324.096680,9.796143,827.545166,1.522108
-306.427002,11.901855,826.263428,1.522848
-313.110352,2.746582,818.756104,1.523589
-298.278809,0.823975,805.755615,1.524337
-301.483154,-13.458252,797.332764,1.525079
-285.644531,-31.860352,792.663574,1.525820
-287.750244,-56.488037,785.614014,1.526560
-288.940430,-50.903320,783.966064,1.527313
-286.926270,-55.938721,765.563965,1.528053
-276.855469,-64.453125,758.148193,1.528794
-283.996582,-74.340820,759.063721,1.529534
-285.369873,-69.580078,738.372803,1.530285
-289.398193,-71.777344,740.386963,1.531025
-288.391113,-75.714111,728.851318,1.531766
-303.131104,-89.355469,719.970703,1.532506
-292.236328,-92.651367,718.780518,1.533255
-307.525635,-77.453613,713.653564,1.533995
-322.540283,-3.570557,648.468018,1.534735
-339.202881,-59.326172,623.291016,1.535571
-354.400635,-112.243652,661.560059,1.536312
-437.988281,-108.581543,626.495361,1.537052
-355.865479,-123.413086,621.093750,1.537792
-410.247803,-98.876953,622.833252,1.538541
-333.068848,-97.503662,638.854980,1.539281
-354.583740,-78.186035,667.785645,1.540022
-323.547363,-55.206299,637.847900,1.540762
-327.575684,-55.664062,652.221680,1.541511
-335.723877,-80.566406,683.990479,1.542252
-319.427490,-56.854248,672.363281,1.542992
-286.468506,-39.093018,686.187744,1.543732
-285.278320,-46.142578,701.751709,1.544473
-273.284912,-35.247803,703.765869,1.545213
-241.058350,-4.943848,698.730469,1.545954
-247.924805,-0.091553,702.941895,1.546693
-244.445801,1.373291,707.794189,1.547434
-245.819092,10.070801,693.878174,1.548174
-240.509033,16.387939,696.624756,1.548914
-227.233887,21.514893,713.836670,1.549654
-209.014893,21.057129,708.251953,1.550395
-200.866699,19.042969,713.562012,1.551135
-209.197998,36.895752,718.231201,1.551875
-183.288574,37.170410,701.660156,1.552615
-189.788818,45.959473,681.060791,1.553363
-194.824219,45.684814,657.897949,1.554104
-218.078613,39.825439,647.552490,1.554844
-227.233887,6.958008,653.869629,1.555585
-238.220215,4.669189,646.820068,1.556333
-214.965820,2.746582,638.305664,1.557076
-220.275879,-10.803223,644.714355,1.557828
-212.127686,-5.859375,647.003174,1.558576
-204.528809,-7.781982,637.207031,1.559322
-200.958252,-12.451172,642.517090,1.560061
-202.972412,-7.141113,636.566162,1.560801
-202.056885,-18.768311,632.904053,1.561541
-191.436768,-32.409668,628.875732,1.562281
-188.507080,-28.564453,615.142822,1.563023
-181.915283,-21.972656,616.516113,1.563776
-174.041748,-14.099121,612.854004,1.564522
-181.091309,-6.500244,585.113525,1.565273
-175.872803,-7.781982,577.056885,1.566014
-196.105957,-27.282715,570.831299,1.566754
-200.592041,-27.282715,567.626953,1.567494
-201.141357,-20.690918,570.739746,1.568253
-196.380615,-29.022217,570.556641,1.568995
-185.577393,-13.275146,568.176270,1.569735
-166.442871,-9.338379,582.366943,1.570477
-146.026611,-2.014160,589.508057,1.571227
-138.885498,-4.394531,608.551025,1.571967
-124.053955,17.852783,599.395752,1.572709
-116.455078,36.529541,606.903076,1.573451
-103.729248,44.494629,614.593506,1.574201
-96.496582,56.121826,606.262207,1.574942
-95.581055,57.586670,617.797852,1.575682
-92.926025,66.925049,632.080078,1.576422
-126.342773,85.784912,620.727539,1.577170
-124.328613,99.426270,632.263184,1.577912
-173.492432,110.412598,646.453857,1.578652
-208.374023,104.187012,646.820068,1.579393
-221.282959,129.913330,610.565186,1.580142
-171.478271,133.941650,664.855957,1.580882
-148.773193,123.596191,839.080811,1.581622
-153.167725,198.852539,864.532471,1.582362
-140.991211,192.077637,869.750977,1.583113
-172.668457,180.450439,851.989746,1.583853
-237.121582,142.089844,794.403076,1.584593
-287.750244,129.272461,769.042969,1.585333
-306.518555,189.331055,726.470947,1.586074
-349.182129,212.402344,696.624756,1.586816
-321.258545,182.647705,726.104736,1.587556
-348.083496,157.928467,723.999023,1.588297
-340.759277,178.802490,712.738037,1.589038
-345.977783,160.217285,714.294434,1.589778
-371.704102,164.154053,696.807861,1.590518
-349.548340,161.132812,724.914551,1.591258
-285.827637,162.048340,701.477051,1.591999
-262.939453,165.802002,691.314697,1.592739
-214.324951,177.886963,682.434082,1.593479
-196.014404,191.345215,655.151367,1.594219
-224.761963,196.105957,623.840332,1.594969
-241.516113,176.239014,616.149902,1.595710
-266.052246,147.033691,578.247070,1.596451
-306.427002,135.040283,572.296143,1.597191
-319.519043,119.476318,555.084229,1.597940
-324.005127,125.610352,551.879883,1.598682
-322.082520,127.899170,551.422119,1.599422
-350.189209,126.617432,549.591064,1.600163
-333.984375,114.532471,539.520264,1.600906
-337.280273,102.264404,543.731689,1.601652
-329.498291,99.517822,549.682617,1.602393
-333.526611,102.264404,541.259766,1.603133
-335.723877,102.081299,551.147461,1.603873
-344.329834,92.376709,542.083740,1.604628
-352.020264,84.777832,541.717529,1.605368
-365.386963,75.622559,547.393799,1.606109
-390.838623,59.051514,541.442871,1.606944
-379.943848,59.600830,528.076172,1.607685
-359.619141,16.296387,553.894043,1.608424
-405.944824,-15.289307,593.444824,1.609164
-340.209961,55.389404,561.767578,1.609905
-327.026367,69.946289,589.141846,1.610645
-298.828125,51.177979,616.241455,1.611385
-294.616699,70.953369,604.522705,1.612125
-326.202393,73.059082,610.839844,1.612867
-281.982422,95.397949,624.206543,1.613606
-303.131104,107.299805,584.930420,1.614346
-335.083008,89.996338,583.282471,1.615086
-347.076416,69.488525,565.429688,1.615836
-342.315674,85.144043,523.681641,1.616576
-341.033936,94.390869,526.702881,1.617317
-331.329346,88.531494,538.879395,1.618057
-360.534668,85.327148,530.822754,1.618797
-342.590332,97.045898,525.787354,1.619538
-331.604004,119.018555,534.210205,1.620279
-318.603516,157.196045,513.702393,1.621021
-302.124023,175.872803,528.717041,1.621761
-314.117432,186.126709,530.364990,1.622501
-285.461426,226.135254,492.828369,1.623239
-304.779053,241.241455,471.588135,1.623978
-315.765381,247.467041,474.060059,1.624717
-328.399658,256.072998,454.284668,1.625456
-339.660645,259.185791,442.474365,1.626195
-349.639893,280.426025,426.544189,1.626934
-357.421875,299.011230,422.882080,1.627673
-366.302490,309.356689,430.114746,1.628426
-353.302002,343.872070,458.312988,1.629178
-347.076416,361.450195,492.095947,1.629923
-343.322754,380.401611,511.596680,1.630669
-337.371826,399.353027,546.020508,1.631408
-337.371826,394.775391,576.782227,1.632147
-250.396729,436.523438,719.421387,1.632886
-186.676025,472.595215,786.987305,1.633626
-193.267822,495.941162,800.811768,1.634378
-214.233398,495.941162,818.572998,1.635125
-214.874268,491.271973,776.550293,1.635873
-290.496826,520.294189,789.001465,1.636618
-312.561035,527.526855,783.233643,1.637357
-353.302002,520.385742,784.790039,1.638096
-387.725830,529.632568,785.064697,1.638836
-388.641357,531.829834,817.199707,1.639595
-386.444092,536.041260,811.706543,1.640336
-512.329102,539.703369,826.354980,1.641075
-492.095947,546.295166,834.411621,1.641814
-548.675537,558.654785,853.271484,1.642562
-576.873779,582.916260,856.750488,1.643301
-578.247070,576.507568,872.406006,1.644042
-598.846436,584.564209,890.533447,1.644782
-595.001221,585.021973,899.505615,1.645530
-592.163086,592.163086,911.132812,1.646269
-581.909180,591.796875,910.858154,1.647008
-557.647705,593.627930,916.351318,1.647748
-541.717529,593.170166,914.337158,1.648488
-541.259766,583.923340,912.963867,1.649227
-523.315430,577.056885,898.590088,1.649966
-510.131836,569.824219,880.004883,1.650706
-493.835449,573.394775,873.687744,1.651445
-479.736328,567.626953,846.954346,1.652185
-465.820312,570.281982,817.749023,1.652925
-447.875977,564.331055,798.065186,1.653664
-437.255859,551.330566,762.817383,1.654404
-431.304932,554.626465,745.239258,1.655143
-427.917480,543.823242,721.984863,1.655882
-418.945312,534.393311,687.469482,1.656621
-438.812256,547.576904,695.159912,1.657360
-424.255371,556.823730,692.871094,1.658110
-449.890137,540.618896,688.201904,1.658850
-392.761230,535.949707,708.251953,1.659602
-351.013184,528.900146,696.716309,1.660347
-331.512451,536.682129,760.070801,1.661086
-258.453369,592.895508,819.396973,1.661826
-247.741699,636.749268,831.024170,1.662565
-191.619873,643.432617,847.045898,1.663305
-264.221191,624.389648,819.213867,1.664045
-275.299072,603.149414,777.740479,1.664785
-331.512451,600.219727,752.105713,1.665524
-339.477539,607.910156,717.041016,1.666263
-372.894287,563.781738,724.182129,1.667017
-333.709717,557.098389,723.449707,1.667757
-367.126465,565.979004,749.816895,1.668496
-303.863525,597.473145,738.464355,1.669235
-305.786133,623.931885,752.471924,1.669987
-283.721924,620.178223,764.648438,1.670727
-256.896973,609.741211,778.289795,1.671467
-256.805420,603.790283,782.867432,1.672206
-251.403809,611.480713,778.930664,1.672955
-264.404297,621.734619,758.789062,1.673695
-272.186279,615.325928,758.331299,1.674434
-262.207031,626.220703,732.696533,1.675173
-270.721436,630.157471,713.653564,1.675923
-283.538818,629.791260,706.970215,1.676662
-291.687012,629.882812,696.990967,1.677469
-295.257568,635.925293,692.871094,1.678210
-276.214600,637.573242,696.166992,1.678950
-279.235840,651.214600,709.625244,1.679690
-254.058838,658.813477,712.554932,1.680430
-246.185303,665.954590,712.463379,1.681169
-243.621826,691.864014,713.104248,1.681909
-230.255127,695.892334,714.935303,1.682648
-240.142822,710.906982,703.948975,1.683389
-238.403320,710.998535,680.877686,1.684140
-238.128662,716.308594,702.392578,1.684895
-279.418945,716.949463,694.519043,1.685651
-268.157959,716.857910,685.455322,1.686406
-297.271729,730.316162,692.138672,1.687167
-302.764893,741.760254,705.047607,1.687918
-316.131592,746.978760,718.322754,1.688657
-328.399658,760.528564,731.689453,1.689397
-342.407227,757.781982,752.197266,1.690136
-347.442627,768.035889,742.858887,1.690875
-357.879639,781.311035,762.451172,1.691614
-366.027832,781.951904,756.408691,1.692353
-375.915527,779.296875,748.443604,1.693093
-378.753662,789.550781,750.823975,1.693835
-384.246826,798.065186,746.520996,1.694584
-390.838623,810.607910,740.844727,1.695329
-383.056641,824.249268,744.323730,1.696068
-384.887695,839.172363,739.288330,1.696808
-389.465332,854.003906,744.140625,1.697547
-382.415771,869.476318,750.183105,1.698286
-386.627197,885.681152,755.859375,1.699026
-385.894775,899.780273,760.986328,1.699768
-395.782471,909.210205,756.591797,1.700518
-421.325684,928.802490,766.021729,1.701265
-397.064209,945.465088,770.690918,1.702042
-403.564453,952.331543,767.852783,1.702783
-411.712646,976.043701,760.070801,1.703522
-403.472900,974.761963,771.240234,1.704261
-411.621094,985.382080,776.458740,1.705001
-407.775879,993.530273,799.621582,1.705740
-398.620605,1018.524170,812.072754,1.706486
-421.600342,1031.250000,826.812744,1.707234
-399.719238,1044.250488,837.158203,1.707984
-405.212402,1068.511963,846.771240,1.708728
-407.318115,1068.695068,856.567383,1.709468
-422.332764,1069.793701,864.624023,1.710208
-434.967041,1075.195312,868.835449,1.710959
-430.114746,1084.350586,881.378174,1.711704
-419.677734,1100.830078,890.991211,1.712443
-399.169922,1109.161377,909.393311,1.713182
-401.733398,1115.661621,912.414551,1.713930
-438.537598,1114.746094,923.034668,1.714671
-438.995361,1111.633301,921.020508,1.715411
-449.707031,1115.203857,921.020508,1.716150
-463.623047,1117.218018,920.196533,1.716900
-472.229004,1119.232178,929.809570,1.717639
-472.320557,1108.703613,931.823730,1.718379
-479.278564,1137.542725,949.676514,1.719119
-489.074707,1141.571045,954.162598,1.719859
-491.729736,1137.908936,964.691162,1.720599
-478.088379,1133.880615,981.903076,1.721338
-470.947266,1117.767334,992.889404,1.722077
-463.348389,1127.197266,999.847412,1.722817
-451.995850,1121.154785,1000.946045,1.723556
-406.768799,1107.788086,1001.129150,1.724295
-378.112793,1108.154297,1011.291504,1.725035
-355.407715,1092.132568,1018.341064,1.725785
-315.307617,1073.638916,1013.671875,1.726525
-301.666260,1071.533203,986.846924,1.727265
-300.201416,1055.603027,1018.615723,1.728005
-299.926758,1033.172607,1030.334473,1.728754
-305.419922,1040.496826,1031.982422,1.729494
-318.420410,1019.805908,1030.517578,1.730234
-319.244385,1019.531250,1017.517090,1.730973
-341.217041,998.565674,1011.932373,1.731722
-338.836670,967.529297,1006.072998,1.732462
-354.400635,939.514160,1008.819580,1.733202
-337.921143,913.238525,1012.756348,1.733941
-327.758789,901.245117,1005.889893,1.734680
-300.109863,886.138916,1000.946045,1.735419
-292.144775,894.836426,1000.854492,1.736159
-285.278320,892.272949,999.755859,1.736898
-273.834229,886.322021,979.064941,1.737637
-299.560547,857.757568,944.549561,1.738377
-315.582275,850.433350,938.598633,1.739116
-322.174072,820.678711,899.139404,1.739855
-329.498291,812.530518,876.068115,1.740605
-324.645996,805.938721,870.941162,1.741344
-318.054199,796.234131,865.905762,1.742083
-312.194824,786.346436,864.532471,1.742822
-277.587891,785.705566,870.941162,1.743563
-275.848389,774.993896,866.363525,1.744302
-262.939453,762.176514,869.567871,1.745041
-259.643555,744.140625,846.130371,1.745780
-254.699707,747.161865,842.559814,1.746520
-269.714355,732.696533,819.854736,1.747339
-264.038086,706.054688,789.825439,1.748080
-264.678955,705.230713,776.275635,1.748820
-255.523682,689.849854,762.451172,1.749560
-247.650146,692.413330,738.739014,1.750300
-233.367920,675.567627,730.224609,1.751039
-224.853516,658.538818,726.104736,1.751779
-209.014893,663.024902,715.484619,1.752518
-191.162109,653.503418,691.680908,1.753257
-188.323975,641.418457,680.328369,1.753996
-165.161133,639.678955,676.025391,1.754736
-158.569336,621.917725,655.426025,1.755475
-159.118652,634.002686,652.770996,1.756214
-152.435303,616.882324,630.615234,1.756953
-143.280029,619.354248,612.396240,1.757692
-147.399902,610.656738,603.149414,1.758441
-143.096924,604.064941,584.381104,1.759181
-135.498047,609.741211,579.620361,1.759920
-125.610352,605.987549,562.316895,1.760660
-117.645264,617.889404,552.703857,1.761400
-119.659424,612.213135,545.196533,1.762140
-108.947754,617.065430,533.843994,1.762879
-111.694336,617.980957,532.379150,1.763619
-96.862793,618.072510,524.322510,1.764358
-86.883545,629.333496,531.372070,1.765097
-83.038330,643.615723,517.547607,1.765836
-76.354980,653.045654,523.590088,1.766575
-70.587158,674.194336,530.090332,1.767314
-55.206299,668.060303,529.174805,1.768054
-31.219482,676.666260,540.802002,1.768793
-51.544189,688.476562,536.956787,1.769532
-79.833984,694.976807,535.858154,1.770292
-72.875977,726.104736,558.288574,1.771062
-96.679688,747.161865,602.783203,1.771826
-125.152588,762.542725,617.156982,1.772600
-127.075195,796.783447,661.834717,1.773373
-131.011963,811.065674,684.082031,1.774114
-141.540527,830.749512,682.434082,1.774854
-132.385254,848.419189,717.773438,1.775594
-138.793945,834.686279,745.788574,1.776349
-145.935059,861.419678,759.063721,1.777097
-150.512695,861.968994,788.543701,1.777846
-165.435791,857.482910,797.882080,1.778590
-183.746338,873.321533,828.460693,1.779356
-185.119629,874.786377,851.348877,1.780098
-218.170166,885.681152,858.947754,1.780837
-217.437744,891.906738,874.145508,1.781577
-242.706299,877.532959,904.357910,1.782327
-268.798828,880.279541,897.033691,1.783067
-277.496338,860.778809,910.217285,1.783807
-288.482666,869.659424,917.541504,1.784550
-312.103271,866.088867,916.076660,1.785303
-314.392090,856.201172,933.105469,1.786043
-335.632324,851.440430,927.703857,1.786783
-342.407227,843.841553,919.738770,1.787523
-366.210938,841.644287,921.020508,1.788263
-389.831543,813.812256,915.435791,1.788993
-398.986816,805.297852,902.984619,1.789724
-407.867432,787.078857,895.477295,1.790454
-414.550781,764.648438,867.187500,1.791197
-414.459229,749.450684,823.883057,1.791938
-395.141602,738.922119,820.495605,1.792678
-376.556396,719.421387,794.219971,1.793418
-336.730957,715.759277,774.078369,1.794165
-302.398682,690.124512,731.323242,1.794905
-291.137695,675.933838,708.435059,1.795645
-307.342529,645.080566,704.956055,1.796385
-312.469482,633.178711,688.934326,1.797135
-316.406250,635.833740,679.046631,1.797876
-313.476562,631.988525,676.757812,1.798616
-312.744141,625.762939,654.510498,1.799356
-312.561035,621.002197,657.348633,1.800105
-307.342529,603.332520,640.686035,1.800846
-300.933838,610.565186,614.868164,1.801586
-300.842285,590.240479,626.220703,1.802332
-300.750732,574.951172,609.466553,1.803086
-296.447754,575.683594,602.783203,1.803827
-310.913086,571.929932,584.564209,1.804568
-310.546875,565.795898,569.824219,1.805308
-308.715820,563.598633,555.999756,1.806057
-312.744141,567.993164,550.689697,1.806797
-305.145264,561.676025,542.083740,1.807537
-305.419922,568.267822,528.625488,1.808277
-300.384521,570.465088,507.476807,1.809018
-312.835693,578.521729,502.716064,1.809757
-310.089111,584.381104,489.074707,1.810497
-325.653076,573.577881,477.539062,1.811237
-338.470459,593.078613,474.792480,1.811978
-335.906982,594.177246,462.341309,1.812718
-342.773438,605.712891,448.425293,1.813458
-354.766846,612.304688,444.213867,1.814198
-352.478027,615.234375,442.199707,1.814940
-367.950439,627.227783,444.946289,1.815680
-368.591309,645.629883,448.059082,1.816420
-365.936279,648.834229,456.665039,1.817160
-362.365723,649.749756,468.933105,1.817910
-355.133057,632.812500,483.856201,1.818738
-360.168457,665.222168,493.560791,1.819479
-346.893311,672.088623,511.413574,1.820219
-355.957031,681.610107,538.146973,1.820970
-347.900391,690.948486,540.802002,1.821711
-346.984863,714.843750,561.950684,1.822451
-346.435547,718.505859,571.746826,1.823191
-353.759766,731.048584,591.339111,1.823941
-349.731445,736.541748,602.691650,1.824682
-368.408203,748.352051,610.565186,1.825422
-368.133545,765.289307,609.283447,1.826162
-368.682861,770.050049,624.938965,1.826912
-379.028320,782.409668,636.840820,1.827652
-381.408691,781.036377,627.319336,1.828392
-380.218506,789.093018,632.171631,1.829132
-376.739502,791.198730,633.636475,1.829882
-376.464844,794.494629,636.474609,1.830622
-372.619629,806.945801,634.094238,1.831362
-376.739502,816.192627,629.333496,1.832101
-367.675781,823.059082,640.411377,1.832850
-363.464355,822.052002,647.827148,1.833591
-373.168945,819.946289,644.439697,1.834332
-377.014160,814.361572,636.291504,1.835072
-386.260986,820.404053,620.819092,1.835813
-407.684326,819.305420,610.290527,1.836553
-413.726807,823.059082,591.522217,1.837293
-417.938232,840.362549,590.423584,1.838033
-422.607422,821.868896,588.592529,1.838773
-416.107178,820.587158,585.388184,1.839513
-403.747559,816.833496,565.612793,1.840260
-383.056641,808.868408,587.951660,1.841010
-374.725342,823.883057,593.627930,1.841759
-351.379395,866.363525,595.825195,1.842505
-392.578125,960.205078,583.740234,1.843245
-408.599854,955.535889,546.386719,1.843985
-436.157227,1220.581055,523.773193,1.844728
-337.188721,764.099121,408.233643,1.845470
-333.984375,832.489014,597.564697,1.846225
-630.249023,818.847656,589.416504,1.846970
-473.785400,728.576660,609.649658,1.847738
-522.308350,882.751465,673.736572,1.848482
-421.875000,706.787109,583.557129,1.849222
-368.957520,971.374512,714.294434,1.849963
-460.052490,912.231445,638.580322,1.850715
-340.118408,867.187500,615.142822,1.851455
-366.394043,854.370117,696.533203,1.852195
-417.938232,763.366699,628.509521,1.852935
-330.780029,849.151611,726.562500,1.853685
-415.924072,816.101074,685.455322,1.854424
-330.780029,829.742432,639.862061,1.855164
-367.492676,779.022217,613.403320,1.855906
-243.713379,748.168945,571.655273,1.856663
-343.231201,765.289307,568.725586,1.857404
-336.547852,749.633789,536.773682,1.858144
-349.090576,734.069824,524.597168,1.858884
-383.789062,726.013184,502.624512,1.859652
-325.836182,695.617676,497.406006,1.860409
-323.181152,706.787109,517.364502,1.861163
-322.174072,686.096191,514.434814,1.861923
-260.650635,681.335449,524.871826,1.862713
-276.763916,680.145264,530.548096,1.863475
-242.156982,688.201904,528.900146,1.864221
-213.226318,671.630859,535.583496,1.864961
-227.691650,668.792725,525.054932,1.865728
-206.359863,672.454834,514.068604,1.866469
-179.260254,642.791748,537.048340,1.867209
-175.872803,648.651123,536.865234,1.867949
-152.435303,643.066406,536.041260,1.868699
-130.096436,639.770508,515.441895,1.869440
-118.835449,625.488281,524.505615,1.870180
-122.497559,638.854980,519.012451,1.870920
-113.159180,642.974854,489.990234,1.871673
-102.355957,635.284424,491.180420,1.872413
-123.687744,619.720459,464.080811,1.873153
-133.209229,606.353760,461.517334,1.873893
-124.511719,589.508057,456.390381,1.874643
-131.103516,601.959229,436.523438,1.875384
-116.729736,613.586426,434.417725,1.876124
-105.651855,620.910645,440.460205,1.876864
-87.982178,633.728027,434.509277,1.877616
-89.630127,658.264160,435.607910,1.878356
-73.699951,678.222656,432.312012,1.879096
-83.221436,685.729980,406.036377,1.879836
-73.699951,691.680908,419.128418,1.880586
-80.932617,694.335938,404.571533,1.881326
-77.453613,703.308105,394.042969,1.882066
-95.581055,704.406738,374.816895,1.882807
-91.003418,705.871582,376.647949,1.883557
-93.475342,735.260010,375.000000,1.884297
-102.539062,820.861816,347.167969,1.885038
-140.167236,739.196777,334.808350,1.885778
-92.926025,752.838135,389.282227,1.886529
-81.665039,818.572998,350.372314,1.887269
-136.596680,835.327148,322.082520,1.888009
-92.010498,860.961914,351.837158,1.888750
-74.615479,897.857666,389.190674,1.889577
-138.061523,915.435791,386.352539,1.890319
-85.693359,791.748047,419.586182,1.891059
-48.339844,836.059570,473.236084,1.891799
-131.469727,885.314941,429.565430,1.892548
-143.188477,896.118164,516.540527,1.893288
-85.052490,916.259766,551.605225,1.894028
-139.984131,899.414062,517.730713,1.894768
-157.196045,917.083740,544.372559,1.895518
-94.299316,890.075684,571.746826,1.896258
-127.166748,897.308350,610.473633,1.896998
-122.955322,903.167725,599.670410,1.897738
-134.948730,948.211670,608.642578,1.898487
-138.153076,977.233887,639.221191,1.899228
-133.575439,973.297119,649.475098,1.899968
-129.547119,983.276367,656.524658,1.900708
-141.906738,993.347168,652.404785,1.901457
-135.681152,965.332031,653.961182,1.902198
-158.111572,907.928467,703.857422,1.902938
-198.852539,885.040283,701.202393,1.903678
-238.586426,888.427734,644.714355,1.904428
-287.750244,878.448486,591.979980,1.905168
-324.645996,850.250244,561.950684,1.905908
-357.879639,819.946289,524.688721,1.906648
-368.499756,819.030762,508.850098,1.907397
-356.048584,790.191650,510.223389,1.908137
-390.380859,785.064697,516.998291,1.908877
-272.460938,796.508789,487.060547,1.909617
-280.700684,792.755127,519.653320,1.910367
-205.261230,768.310547,535.583496,1.911106
-153.350830,769.958496,496.765137,1.911851
-146.118164,785.430908,493.927002,1.912600
-135.406494,788.360596,476.989746,1.913377
-128.265381,780.212402,440.368652,1.914126
-175.872803,783.691406,397.247314,1.914866
-180.175781,792.205811,359.985352,1.915606
-243.438721,802.642822,301.116943,1.916363
-255.249023,816.650391,234.924316,1.917119
-280.151367,814.819336,239.135742,1.917866
-327.392578,792.114258,209.014893,1.918615
-306.701660,793.212891,200.866699,1.919380
-289.123535,822.052002,204.254150,1.920122
-281.524658,855.651855,201.324463,1.920863
-277.679443,861.053467,219.268799,1.921604
-247.650146,861.602783,254.425049,1.922354
-240.783691,889.343262,267.608643,1.923094
-182.006836,926.788330,307.067871,1.923835
-167.358398,936.218262,330.322266,1.924575
-150.146484,936.401367,343.872070,1.925324
-119.201660,947.479248,377.471924,1.926063
-103.363037,963.409424,392.669678,1.926805
-133.758545,984.283447,405.303955,1.927544
-97.320557,993.347168,409.149170,1.928294
-112.518311,950.592041,438.446045,1.929034
-51.727295,991.607666,549.957275,1.929773
-118.469238,1023.559570,503.540039,1.930513
-167.541504,1033.721924,496.673584,1.931262
-136.322021,1005.340576,545.837402,1.932002
-113.708496,1005.981445,553.527832,1.932741
-167.633057,1030.242920,558.380127,1.933485
-166.809082,1042.694092,571.289062,1.934238
-126.800537,1075.469971,572.204590,1.934978
-167.266846,1098.449707,558.746338,1.935719
-150.329590,1103.027344,612.030029,1.936459
-131.286621,1103.027344,618.896484,1.937212
-148.956299,1116.394043,606.170654,1.937953
-162.872314,1110.351562,612.487793,1.938692
-135.864258,1102.111816,651.763916,1.939432
-155.364990,1095.611572,648.925781,1.940178
-150.421143,1092.224121,648.559570,1.940918
-148.132324,1099.914551,676.208496,1.941657
-151.153564,1109.161377,681.152344,1.942397
-144.195557,1098.815918,698.913574,1.943147
-148.956299,1083.618164,715.942383,1.943887
-129.180908,1084.625244,708.160400,1.944626
-132.019043,1100.463867,699.554443,1.945366
-125.152588,1091.308594,716.033936,1.946115
-107.574463,1078.491211,703.765869,1.946855
-112.518311,1079.498291,646.087646,1.947595
-113.616943,1077.117920,622.009277,1.948335
-99.060059,1041.595459,612.579346,1.949083
-95.581055,1014.770508,606.628418,1.949823
-100.067139,990.142822,590.240479,1.950563
-99.700928,981.811523,563.598633,1.951303
-128.906250,970.367432,548.858643,1.952052
-131.561279,942.993164,526.519775,1.952792
-149.139404,912.780762,508.483887,1.953531
-160.766602,893.371582,495.483398,1.954271
-161.315918,866.180420,480.377197,1.955020
-165.435791,853.912354,486.145020,1.955759
-160.125732,803.558350,491.729736,1.956499
-155.364990,788.452148,488.891602,1.957238
-137.695312,782.135010,474.700928,1.957987
-111.328125,776.824951,471.313477,1.958728
-101.531982,780.303955,470.397949,1.959468
-92.285156,779.846191,454.559326,1.960290
-72.509766,762.542725,440.277100,1.961042
-68.572998,722.534180,419.311523,1.961782
-85.418701,710.540771,412.261963,1.962522
-94.665527,683.349609,382.324219,1.963261
-89.172363,681.976318,336.273193,1.964010
-91.552734,673.187256,340.759277,1.964749
-97.229004,642.150879,303.497314,1.965489
-39.001465,625.671387,280.609131,1.966229
17.211914,601.409912,244.720459,1.966978
16.204834,589.233398,227.966309,1.967718
32.409668,570.648193,217.895508,1.968458
65.643311,579.803467,191.619873,1.969197
90.820312,566.528320,176.330566,1.969946
29.022217,565.063477,172.027588,1.970686
35.156250,564.147949,148.315430,1.971425
38.269043,577.972412,147.674561,1.972164
7.965088,608.276367,116.912842,1.972913
-12.725830,614.227295,107.116699,1.973653
-11.810303,663.299561,130.737305,1.974393
-32.409668,694.427490,104.644775,1.975132
-43.945312,705.780029,100.158691,1.975881
-133.300781,708.892822,90.179443,1.976621
-152.435303,697.174072,68.939209,1.977362
-229.614258,693.328857,50.994873,1.978101
-262.298584,695.892334,22.888184,1.978851
-289.764404,700.744629,-3.662109,1.979591
-278.869629,712.463379,14.648438,1.980330
-272.735596,723.815918,-4.211426,1.981069
-300.842285,746.795654,-23.620605,1.981817
-300.567627,792.572021,-32.135010,1.982562
-327.026367,784.423828,-38.818359,1.983312
-329.406738,813.079834,-38.543701,1.984062
-316.589355,823.333740,-45.135498,1.984830
-294.891357,842.193604,-50.079346,1.985571
-282.531738,843.383789,-37.536621,1.986310
-288.116455,860.961914,-31.860352,1.987050
-292.327881,915.710449,-32.867432,1.987839
-333.526611,987.396240,-78.094482,1.988601
-392.578125,1006.072998,-155.822754,1.989347
-418.487549,1048.461914,-159.942627,1.990093
-435.150146,999.023438,-190.338135,1.990856
-336.181641,978.973389,-217.346191,1.991597
-170.013428,1038.024902,-207.092285,1.992336
-388.458252,1085.998535,-213.867188,1.993075
-457.763672,1122.436523,-240.417480,1.993825
-366.485596,1140.014648,-229.980469,1.994565
-454.650879,1155.303955,-175.964355,1.995305
-445.678711,1187.255859,-191.711426,1.996044
-427.734375,1234.863281,-175.598145,1.996793
-514.617920,1240.264893,-153.259277,1.997535
-505.645752,1267.913818,-150.695801,1.998276
-500.885010,1296.661377,-164.978027,1.999015
-487.152100,1443.511963,-130.462646,1.999765
-509.490967,1343.170166,-130.004883,2.000506
-732.696533,1232.849121,-120.758057,2.001245
-602.600098,1233.673096,-139.251709,2.001985
-580.902100,1258.026123,-138.244629,2.002735
-642.517090,1270.111084,-141.723633,2.003474
-543.914795,1366.333008,-111.785889,2.004214
-514.343262,1378.967285,-88.897705,2.004954
-537.231445,1348.114014,-87.890625,2.005702
-558.837891,1365.417480,-82.489014,2.006442
-520.111084,1378.967285,-105.102539,2.007185
-472.412109,1385.742188,-115.447998,2.007926
-505.279541,1319.458008,-111.328125,2.008679
-609.008789,1331.817627,-103.729248,2.009420
-761.260986,1244.842529,-104.461670,2.010160
-856.384277,1285.949707,-101.531982,2.010900
-708.892822,1280.181885,-120.483398,2.011655
-611.297607,1279.449463,-139.617920,2.012396
-593.994141,1298.034668,-133.209229,2.013137
-100.158691,702.941895,-42.388916,2.013876
174.957275,1309.387207,159.393311,2.014626
-595.825195,1064.666748,207.916260,2.015366
-73.333740,1393.890381,183.288574,2.016107
-219.085693,1399.291992,201.599121,2.016846
-461.608887,1013.305664,246.551514,2.017595
186.950684,1421.447754,246.276855,2.018335
-485.687256,1217.468262,263.031006,2.019075
53.009033,1158.508301,256.805420,2.019815
217.071533,1348.571777,250.671387,2.020564
-407.775879,1129.577637,266.052246,2.021304
-66.833496,1341.888428,231.536865,2.022044
6.225586,1345.001221,244.628906,2.022783
-47.515869,1243.377686,267.150879,2.023532
263.946533,1345.092773,304.229736,2.024272
-20.416260,1254.821777,347.351074,2.025012
177.703857,1193.481445,413.360596,2.025751
132.843018,1352.691650,440.093994,2.026501
95.855713,1367.614746,507.843018,2.027241
63.262939,115.173340,1464.385986,2.027981
-1609.863281,1155.212402,1748.748779,2.028721
-367.584229,1018.707275,1479.125977,2.029474
665.588379,1177.093506,1050.750732,2.030214
852.813721,1454.772949,934.020996,2.031034
-256.896973,1133.972168,1011.932373,2.031774
-457.672119,1117.675781,754.852295,2.032524
-50.354004,1294.097900,568.450928,2.033264
-160.583496,1355.987549,447.601318,2.034004
-622.009277,1336.212158,403.930664,2.034743
-763.916016,1319.000244,326.385498,2.035494
89.996338,1459.442139,412.078857,2.036234
2861.297607,1713.500977,480.377197,2.036974
2069.915771,1489.379883,391.845703,2.037714
-837.158203,1396.179199,377.380371,2.038463
-1365.875244,1346.832275,281.707764,2.039212
-1157.775879,1278.991699,149.963379,2.039967
473.968506,1341.247559,68.206787,2.040722
1559.967041,1349.761963,-80.657959,2.041510
1174.804688,1290.893555,-94.482422,2.042268
-841.186523,1093.505859,-17.486572,2.043022
-542.541504,1095.611572,23.620605,2.043782
293.518066,1148.803711,-57.861328,2.044544
1290.893555,1229.187012,-94.299316,2.045308
463.073730,1101.837158,-233.184814,2.046076
-191.802979,1019.897461,-323.181152,2.046832
-379.211426,993.988037,-365.386963,2.047606
382.781982,964.050293,-470.764160,2.048374
586.303711,920.562744,-587.219238,2.049140
217.987061,929.077148,-657.073975,2.049948
-979.705811,880.737305,-330.780029,2.050708
-960.388184,935.668945,-19.683838,2.051467
-568.176270,997.467041,18.127441,2.052216
871.307373,1164.916992,-42.846680,2.052980
1070.800781,1071.075439,-125.885010,2.053739
-75.988770,1003.692627,-167.266846,2.054486
-642.150879,977.416992,-209.838867,2.055235
-326.843262,999.023438,-350.372314,2.055997
566.436768,1094.512939,-490.722656,2.056738
777.099609,1266.265869,-688.110352,2.057477
1450.195312,1114.654541,-318.878174,2.058217
-464.630127,917.175293,93.658447,2.058968
-1233.306885,1147.521973,128.631592,2.059708
-770.507812,1186.340332,77.270508,2.060463
826.721191,1129.669189,2.563477,2.061210
920.654297,1258.483887,-189.788818,2.061984
-213.684082,1206.390381,-245.086670,2.062730
-621.368408,1169.036865,-402.740479,2.063470
-289.581299,1155.670166,-532.928467,2.064210
-289.581299,1166.290283,-564.697266,2.064962
-482.025146,893.463135,-94.940186,2.065701
-6.042480,964.874268,-66.009521,2.066441
575.866699,1218.200684,-119.110107,2.067180
573.852539,1292.633057,-234.558105,2.067931
-11.535645,1272.125244,-315.124512,2.068674
-303.039551,1328.979492,-433.044434,2.069414
1179.107666,1285.766602,-241.058350,2.070153
1355.438232,1271.209717,-129.272461,2.070903
-330.780029,1018.798828,297.454834,2.071643
-1667.724609,1221.588135,256.988525,2.072383
-1417.327881,1298.858643,83.862305,2.073123
-803.466797,1188.903809,-112.060547,2.073886
1504.577637,1485.809326,-127.716064,2.074627
2577.117920,1394.531250,113.342285,2.075368
1529.205322,1323.120117,83.953857,2.076109
-1572.784424,1108.428955,306.976318,2.076860
-2121.276855,1160.888672,199.127197,2.077601
-2337.982178,1134.155273,74.981689,2.078343
-1559.234619,1120.422363,-466.552734,2.079084
729.583740,1148.712158,-430.572510,2.079834
2410.217285,1242.462158,-487.976074,2.080576
1888.458252,1078.857422,-605.438232,2.081317
-601.593018,915.985107,-520.660400,2.082058
-1118.316650,963.500977,-377.288818,2.082843
-695.983887,1038.299561,-328.125000,2.083584
271.820068,1322.570801,-306.518555,2.084336
11.993408,1390.319824,-245.727539,2.085098
-285.552979,1406.158447,-102.447510,2.085887
-471.496582,1354.888916,-23.712158,2.086649
-363.739014,1305.725098,88.256836,2.087407
-407.958984,1306.823730,76.629639,2.088167
-342.224121,1297.760010,-37.902832,2.088945
-161.499023,1416.412354,78.094482,2.089688
2226.562500,2533.264160,2999.908447,2.090429
2999.908447,2999.908447,2999.908447,2.091170
2999.908447,2999.908447,2999.908447,2.091920
-1739.868164,2783.111572,-649.017334,2.092660
-1628.173828,772.430420,-3000.000000,2.093401
-1183.135986,-130.279541,-3000.000000,2.094143
-611.572266,-393.493652,-1893.127441,2.094893
-1427.124023,288.574219,-1786.193848,2.095634
-1794.158936,915.985107,-272.369385,2.096376
900.421143,2038.970947,2999.908447,2.097117
2460.571289,2243.774414,1546.783447,2.097869
454.925537,1494.049072,-230.987549,2.098611
-1291.992188,679.687500,-1490.386963,2.099352
-1472.167969,489.074707,-1147.888184,2.100093
-679.687500,735.717773,-120.849609,2.100935
-194.183350,1397.644043,224.121094,2.101677
1063.385010,1485.626221,266.693115,2.102417
543.548584,1272.125244,-19.042969,2.103158
38.635254,1110.443115,-470.581055,2.103908
-717.315674,882.843018,-594.635010,2.104650
-509.033203,946.289062,-272.735596,2.105391
-388.824463,1065.307617,-38.177490,2.106132
-306.884766,1240.539551,105.468750,2.106882
-252.410889,1168.853760,-171.386719,2.107623
-312.835693,1047.912598,-344.512939,2.108364
-162.322998,907.379150,-459.777832,2.109105
-115.081787,932.922363,-327.941895,2.109855
-133.026123,1059.539795,-238.952637,2.110595
-112.609863,1099.639893,-164.978027,2.111336
-144.104004,1079.132080,-264.678955,2.112077
-385.437012,967.346191,-529.541016,2.112827
-465.087891,929.534912,-504.364014,2.113569
-375.091553,924.499512,-425.079346,2.114310
-267.974854,978.332520,-343.139648,2.115050
-239.685059,998.748779,-319.610596,2.115799
-218.078613,1018.981934,-330.963135,2.116541
-201.599121,983.642578,-422.698975,2.117282
-155.364990,953.155518,-447.326660,2.118022
-141.906738,937.591553,-524.230957,2.118772
-132.476807,930.816650,-505.279541,2.119513
