ACC_X,ACC_Y,ACC_Z,Time
-33.691406,839.721680,505.645752,0.000132
-39.550781,846.771240,504.180908,0.000886
-34.881592,844.116211,500.885010,0.001630
-35.522461,845.672607,497.131348,0.002372
-32.501221,847.686768,502.441406,0.003113
-35.797119,842.468262,504.364014,0.003854
-34.698486,843.933105,503.631592,0.004594
-34.973145,839.721680,495.300293,0.005334
-34.423828,838.348389,499.969482,0.006075
-29.846191,839.172363,499.053955,0.006815
-35.247803,839.355469,498.229980,0.007556
-39.093018,846.588135,505.279541,0.008296
-41.748047,834.777832,497.039795,0.009092
-38.818359,840.087891,493.469238,0.009843
-30.670166,835.968018,489.990234,0.010584
-37.445068,832.305908,494.293213,0.011325
-36.712646,842.102051,495.208740,0.012066
-42.846680,838.531494,488.067627,0.012806
-33.416748,839.080811,490.997314,0.013547
-32.226562,834.503174,488.800049,0.014287
-34.698486,838.073730,472.686768,0.015039
-33.416748,836.059570,496.490479,0.015780
-34.332275,837.341309,490.447998,0.016521
-32.318115,833.862305,488.800049,0.017262
-33.325195,850.616455,493.286133,0.018014
-33.233643,841.278076,494.293213,0.018755
-37.628174,843.566895,497.772217,0.019496
-40.740967,846.405029,501.159668,0.020236
-35.888672,849.975586,500.427246,0.020983
-33.691406,857.116699,502.716064,0.021726
-31.311035,856.933594,516.998291,0.022466
-37.078857,853.088379,512.969971,0.023206
-32.684326,853.546143,512.145996,0.023947
-33.325195,854.827881,509.948730,0.024687
-29.205322,862.976074,520.751953,0.025427
-29.205322,858.673096,521.575928,0.026167
-33.325195,860.504150,518.096924,0.026917
-29.388428,860.870361,522.766113,0.027659
-31.677246,867.279053,514.709473,0.028399
-33.416748,858.306885,519.012451,0.029140
-34.057617,862.518311,522.033691,0.029881
-34.240723,857.025146,519.195557,0.030622
-29.937744,855.651855,520.111084,0.031363
-27.008057,856.750488,526.794434,0.032103
-23.895264,848.876953,528.533936,0.032845
-32.775879,865.814209,520.660400,0.033588
-26.367188,874.786377,496.032715,0.034329
-24.444580,871.948242,521.575928,0.035068
-27.099609,859.680176,516.998291,0.035809
-25.817871,866.180420,520.843506,0.036549
-29.754639,863.159180,517.913818,0.037290
-28.015137,861.877441,522.033691,0.038030
-31.402588,865.997314,517.456055,0.038771
-34.240723,864.074707,518.829346,0.039512
-33.874512,865.722656,518.280029,0.040254
-27.465820,868.194580,519.470215,0.040994
-29.937744,846.954346,518.280029,0.041736
-32.958984,862.518311,524.230957,0.042477
-28.289795,863.250732,526.336670,0.043217
-31.311035,864.532471,524.871826,0.043957
-30.670166,873.596191,521.118164,0.044699
-28.747559,885.589600,524.414062,0.045440
-29.479980,863.342285,519.561768,0.046180
-28.564453,867.645264,525.787354,0.046920
-27.191162,863.250732,525.329590,0.047661
-25.909424,868.469238,518.096924,0.048418
-23.712158,864.990234,525.787354,0.049158
-24.536133,860.504150,518.737793,0.049899
-24.902344,859.222412,517.547607,0.050651
-21.240234,862.701416,514.892578,0.051396
-20.874023,860.778809,514.251709,0.052139
-28.656006,856.750488,507.019043,0.052880
-23.895264,856.475830,511.413574,0.053620
-23.254395,855.926514,505.828857,0.054358
-26.458740,846.954346,503.723145,0.055114
-18.859863,849.243164,500.061035,0.055863
-29.113770,845.397949,500.793457,0.056620
-26.824951,842.468262,502.899170,0.057368
-22.430420,844.299316,497.222900,0.058114
-29.205322,839.447021,502.258301,0.058857
-26.000977,839.538574,501.068115,0.059640
-24.993896,844.116211,503.082275,0.060487
-26.458740,848.693848,500.518799,0.061322
-33.782959,843.566895,505.554199,0.062103
-33.782959,849.060059,503.814697,0.062873
-32.318115,847.686768,501.525879,0.063686
-33.782959,848.785400,503.814697,0.064590
-40.740967,853.637695,511.413574,0.065370
-43.853760,849.426270,507.476807,0.066255
-45.684814,849.975586,505.187988,0.067084
-42.938232,850.341797,511.596680,0.067850
-41.198730,857.116699,513.061523,0.068633
-40.649414,860.870361,517.547607,0.069397
-46.325684,854.919434,520.294189,0.070188
-54.656982,851.989746,517.272949,0.070947
-52.276611,849.884033,519.378662,0.071721
-52.642822,858.947754,516.998291,0.072515
-56.121826,858.398438,523.498535,0.073395
-67.291260,862.609863,521.575928,0.074139
-55.114746,866.088867,523.132324,0.074877
-52.551270,866.088867,523.590088,0.075615
-53.833008,845.306396,525.970459,0.076348
-51.086426,866.821289,523.864746,0.077082
-57.586670,873.779297,528.350830,0.077818
-60.516357,873.870850,535.491943,0.078581
-60.974121,876.251221,532.745361,0.079353
-61.157227,874.237061,528.625488,0.080118
-63.720703,850.708008,538.146973,0.080928
-60.974121,871.856689,533.935547,0.081736
-62.622070,874.969482,529.174805,0.082518
-67.382812,871.582031,525.146484,0.083302
-64.910889,866.363525,523.864746,0.084051
-65.460205,865.997314,521.209717,0.084827
-63.629150,865.814209,518.096924,0.085640
-62.713623,865.081787,512.420654,0.086410
-63.354492,854.553223,510.131836,0.087156
-67.016602,850.982666,506.286621,0.087900
-67.840576,846.862793,496.582031,0.088645
-59.783936,853.271484,507.293701,0.089461
-62.896729,855.560303,502.532959,0.090220
-55.480957,848.052979,505.279541,0.090989
-62.988281,847.137451,511.688232,0.091804
-66.741943,835.784912,510.498047,0.092550
-60.791016,848.510742,508.392334,0.093295
-57.861328,848.419189,511.322021,0.094039
-61.614990,844.940186,514.343262,0.094798
-56.945801,836.883545,505.279541,0.095543
-54.199219,847.412109,513.519287,0.096287
-54.656982,843.933105,505.279541,0.097031
-58.502197,837.432861,501.708984,0.097786
-58.227539,838.348389,495.483398,0.098530
-50.262451,835.144043,501.800537,0.099275
-53.009033,839.813232,497.039795,0.100019
-54.382324,842.926025,496.215820,0.100774
-47.607422,833.404541,487.701416,0.101518
-49.896240,829.010010,501.342773,0.102262
-49.438477,831.848145,487.792969,0.103006
-56.304932,836.242676,485.412598,0.103767
-56.304932,828.918457,483.581543,0.104512
-53.100586,824.798584,489.532471,0.105256
-48.156738,817.565918,485.137939,0.106001
-52.001953,823.883057,482.757568,0.106757
-53.741455,798.706055,481.933594,0.107502
-49.438477,814.178467,481.567383,0.108244
-46.875000,816.192627,480.651855,0.108979
-43.670654,816.375732,480.926514,0.109742
-48.706055,816.375732,472.778320,0.110487
-50.170898,807.495117,474.609375,0.111231
-47.698975,805.389404,467.926025,0.111975
-43.762207,802.825928,473.876953,0.112739
-49.713135,811.889648,473.327637,0.113484
-47.424316,806.213379,472.595215,0.114228
-53.558350,808.502197,465.637207,0.114972
-51.727295,803.009033,459.594727,0.115718
-52.185059,805.114746,465.179443,0.116462
-49.713135,802.917480,465.911865,0.117206
-47.515869,800.811768,461.334229,0.117950
-44.128418,807.495117,466.918945,0.118696
-51.727295,806.213379,464.721680,0.119431
-49.987793,803.192139,468.292236,0.120165
-50.445557,809.783936,466.461182,0.120900
-45.776367,811.981201,468.017578,0.121643
-48.706055,810.333252,472.229004,0.122387
-50.994873,813.720703,469.573975,0.123131
-28.656006,824.157715,473.052979,0.123876
-52.093506,821.594238,475.891113,0.124627
-53.375244,824.340820,485.595703,0.125371
-48.889160,830.200195,478.271484,0.126115
-57.586670,837.341309,485.778809,0.126859
-56.304932,828.826904,492.187500,0.127603
-53.009033,843.933105,493.835449,0.128347
-59.417725,837.799072,493.469238,0.129091
-57.220459,850.433350,505.920410,0.129835
-58.319092,853.179932,498.504639,0.130580
-64.544678,852.172852,496.124268,0.131324
-52.276611,855.743408,507.019043,0.132068
-60.699463,852.355957,507.659912,0.132813
-53.833008,853.271484,499.420166,0.133557
-58.776855,860.778809,506.286621,0.134302
-57.952881,865.264893,499.694824,0.135046
-53.009033,863.800049,504.730225,0.135790
-56.671143,872.406006,510.772705,0.136545
-58.319092,853.454590,513.244629,0.137289
-59.600830,869.201660,509.490967,0.138033
-59.051514,875.885010,518.829346,0.138777
-56.762695,873.321533,516.998291,0.139522
-63.079834,876.983643,519.836426,0.140266
-67.565918,877.624512,526.336670,0.141010
-63.903809,883.209229,526.519775,0.141754
-62.530518,891.082764,535.125732,0.142498
-59.509277,885.040283,531.738281,0.143253
-69.763184,895.935059,538.696289,0.143997
-65.826416,888.519287,533.203125,0.144741
-73.791504,887.969971,537.963867,0.145485
-74.249268,890.899658,538.970947,0.146240
-71.044922,899.688721,539.794922,0.147080
-63.537598,892.913818,535.125732,0.147828
-63.446045,894.927979,527.526855,0.148573
-72.235107,893.829346,529.815674,0.149318
-70.404053,885.498047,537.322998,0.150062
-69.580078,882.202148,530.090332,0.150806
-69.946289,875.427246,525.421143,0.151550
-71.685791,881.561279,518.829346,0.152310
-73.242188,878.814697,496.948242,0.153055
-73.974609,875.152588,515.716553,0.153799
-76.995850,869.659424,510.223389,0.154543
-77.911377,859.405518,498.962402,0.155290
-82.031250,869.842529,504.730225,0.156025
-76.446533,863.616943,513.153076,0.156759
-73.150635,866.180420,502.532959,0.157494
-71.319580,858.306885,498.596191,0.158254
-82.946777,856.567383,503.265381,0.158999
-80.932617,860.321045,497.222900,0.159743
-74.981689,860.137939,493.194580,0.160488
-83.129883,847.503662,487.792969,0.161243
-79.833984,844.757080,490.997314,0.161988
-74.981689,841.918945,481.842041,0.162732
-79.010010,846.679688,490.997314,0.163476
-75.439453,846.313477,498.962402,0.164231
-82.214355,835.418701,487.609863,0.164975
-74.523926,843.658447,487.335205,0.165720
-78.186035,849.243164,490.631104,0.166473
-79.650879,834.320068,497.039795,0.167245
-78.002930,830.108643,486.968994,0.168054
-70.037842,822.235107,491.912842,0.168802
-75.439453,832.489014,489.440918,0.169550
-75.714111,844.207764,481.475830,0.170294
-72.143555,844.573975,486.236572,0.171039
-69.946289,831.390381,480.926514,0.171783
-65.002441,830.932617,484.954834,0.172527
-74.157715,828.552246,488.891602,0.173272
-66.925049,833.038330,483.581543,0.174080
-66.741943,832.397461,487.518311,0.174903
-59.600830,833.496094,482.940674,0.175698
-58.227539,831.573486,486.785889,0.176450
-57.037354,828.826904,484.130859,0.177196
-55.023193,840.637207,487.243652,0.177940
-51.818848,838.348389,481.567383,0.178687
-54.840088,835.968018,481.658936,0.179479
-55.755615,831.939697,478.637695,0.180216
-58.776855,835.784912,489.532471,0.180950
-56.396484,838.897705,489.349365,0.181754
-52.917480,834.503174,489.257812,0.182504
-56.671143,833.129883,499.145508,0.183261
-53.649902,843.383789,494.659424,0.184028
-45.593262,841.186523,488.342285,0.184823
-46.966553,862.792969,488.433838,0.185587
-39.093018,847.045898,504.821777,0.186348
-45.684814,836.883545,495.849609,0.187110
-37.536621,840.087891,489.715576,0.187947
-46.691895,848.052979,497.497559,0.188711
-41.381836,845.947266,512.786865,0.189477
-39.459229,846.496582,501.251221,0.190237
-41.839600,851.165771,507.843018,0.190985
-43.762207,852.722168,503.631592,0.191730
-44.128418,844.116211,500.976562,0.192474
-34.240723,850.708008,512.878418,0.193218
-40.008545,852.813721,507.659912,0.193963
-34.057617,861.511230,515.441895,0.194706
-41.015625,863.800049,514.801025,0.195450
-40.557861,860.595703,519.927979,0.196213
-34.790039,859.405518,520.019531,0.196980
-37.628174,861.785889,523.132324,0.197777
-27.557373,861.785889,526.794434,0.198522
-31.311035,874.877930,525.238037,0.199267
-30.395508,876.525879,540.802002,0.200012
-34.881592,866.638184,534.393311,0.200756
-31.402588,877.349854,532.745361,0.201501
-32.592773,874.145508,530.090332,0.202253
-29.296875,879.089355,536.682129,0.202988
-32.775879,878.173828,540.618896,0.203777
-29.479980,876.159668,539.978027,0.204512
-34.698486,876.892090,538.421631,0.205263
-24.078369,872.863770,535.858154,0.206006
-34.149170,869.842529,535.491943,0.206749
-31.585693,876.525879,536.407471,0.207492
-34.606934,873.138428,532.745361,0.208246
-29.205322,880.462646,545.104980,0.208981
-26.367188,872.955322,537.780762,0.209715
-32.135010,875.701904,541.351318,0.210449
-32.135010,871.398926,541.442871,0.211187
-37.902832,870.391846,536.956787,0.211931
-33.142090,870.300293,535.491943,0.212674
-36.804199,872.131348,525.329590,0.213417
-36.712646,873.321533,538.879395,0.214166
-41.015625,874.328613,527.893066,0.214910
-38.543701,864.807129,523.223877,0.215653
-34.881592,882.476807,526.336670,0.216395
-40.100098,870.849609,522.583008,0.217148
-42.114258,865.356445,524.139404,0.217891
-35.614014,867.370605,524.780273,0.218634
-44.036865,865.447998,532.653809,0.219398
-45.043945,863.250732,527.435303,0.220141
-40.557861,874.328613,528.442383,0.220970
-46.051025,866.638184,527.893066,0.221714
-36.987305,863.067627,528.076172,0.222458
-43.853760,861.877441,531.097412,0.223200
-43.304443,863.433838,526.336670,0.223943
-49.438477,869.018555,530.639648,0.224686
-51.269531,867.462158,531.829834,0.225429
-49.346924,857.116699,531.188965,0.226171
-47.058105,862.976074,529.449463,0.226914
-55.480957,864.074707,530.456543,0.227657
-51.086426,863.891602,516.906738,0.228400
-50.811768,874.328613,527.160645,0.229143
-45.776367,871.032715,526.977539,0.229886
-46.600342,865.173340,525.054932,0.230725
-40.191650,861.694336,529.174805,0.231469
-46.051025,859.497070,528.076172,0.232213
-52.734375,854.278564,524.871826,0.232956
-51.818848,858.673096,521.942139,0.233699
-49.346924,861.785889,518.554688,0.234442
-45.501709,856.933594,519.653320,0.235186
-51.818848,854.003906,509.399414,0.235929
-53.009033,847.229004,513.427734,0.236672
-49.346924,846.221924,509.582520,0.237414
-50.170898,845.397949,513.244629,0.238158
-51.544189,844.299316,507.843018,0.238901
-48.339844,842.742920,509.307861,0.239644
-50.811768,837.249756,502.258301,0.240388
-48.339844,841.003418,500.335693,0.241141
-49.804688,841.552734,496.765137,0.241903
-46.966553,839.630127,498.870850,0.242655
-46.234131,841.827393,494.934082,0.243398
-42.297363,836.975098,489.257812,0.244141
-42.297363,837.615967,488.616943,0.244917
-42.846680,835.601807,489.532471,0.245661
-36.804199,828.369141,493.377686,0.246403
-39.093018,822.601318,491.729736,0.247146
-44.952393,821.960449,484.039307,0.247889
-48.706055,823.425293,488.250732,0.248631
-40.832520,831.390381,489.349365,0.249374
-43.395996,820.312500,481.567383,0.250194
-36.987305,822.692871,489.166260,0.250969
-41.748047,818.847656,484.405518,0.251728
-40.100098,814.544678,498.504639,0.252472
-39.459229,812.988281,489.257812,0.253238
-36.804199,824.157715,489.898682,0.253981
-41.748047,825.714111,485.595703,0.254724
-44.860840,819.946289,482.940674,0.255466
-38.818359,820.678711,485.687256,0.256218
-36.987305,820.129395,489.990234,0.256961
-40.557861,821.228027,490.081787,0.257706
-34.698486,820.587158,481.658936,0.258450
-43.487549,827.636719,489.166260,0.259203
-38.360596,823.883057,497.863770,0.259944
-47.241211,826.354980,473.693848,0.260685
-47.790527,826.812744,513.427734,0.261439
-45.501709,830.291748,494.384766,0.262196
-43.945312,825.256348,505.462646,0.262937
-41.015625,828.826904,507.019043,0.263678
-38.909912,821.868896,508.300781,0.264435
-43.395996,831.207275,505.828857,0.265191
-38.177490,835.418701,514.160156,0.265936
-68.023682,832.397461,514.892578,0.266680
-48.431396,835.235596,514.617920,0.267424
-49.713135,821.868896,516.632080,0.268178
-51.086426,829.284668,519.470215,0.268923
-54.840088,832.397461,509.674072,0.269667
-51.635742,834.594727,513.244629,0.270411
-53.009033,837.524414,517.272949,0.271165
-54.199219,841.918945,513.336182,0.271910
-55.114746,839.355469,502.807617,0.272653
-61.614990,835.235596,504.364014,0.273397
-55.847168,842.468262,512.420654,0.274163
-55.938721,839.904785,513.336182,0.274908
-63.537598,842.651367,502.349854,0.275652
-72.235107,844.665527,508.117676,0.276397
-65.460205,843.841553,510.864258,0.277150
-58.868408,838.165283,516.723633,0.277895
-55.572510,839.080811,536.773682,0.278639
-59.692383,841.003418,519.653320,0.279383
-60.791016,845.581055,510.406494,0.280132
-55.847168,848.327637,517.913818,0.280976
-53.741455,849.700928,517.547607,0.281712
-59.051514,843.292236,519.927979,0.282451
-61.614990,841.918945,516.723633,0.283195
-54.748535,848.785400,520.660400,0.283938
-55.114746,849.243164,518.371582,0.284681
-53.833008,848.510742,521.759033,0.285424
-52.551270,847.045898,522.857666,0.286174
-49.621582,842.376709,525.329590,0.286917
-45.227051,846.496582,530.364990,0.287661
-47.241211,851.440430,520.568848,0.288404
-54.656982,852.355957,512.786865,0.289157
-57.220459,850.524902,520.751953,0.289901
-53.649902,848.602295,520.935059,0.290644
-48.431396,847.412109,523.681641,0.291387
-51.361084,844.482422,520.385742,0.292140
-47.332764,847.412109,525.146484,0.292884
-50.079346,848.693848,517.639160,0.293713
-50.720215,850.341797,517.822266,0.294457
-41.198730,838.165283,515.258789,0.295211
-42.938232,847.412109,515.899658,0.295955
-44.036865,844.940186,517.456055,0.296701
-36.071777,854.736328,523.132324,0.297445
-36.804199,850.982666,515.808105,0.298202
-41.748047,852.630615,518.920898,0.298945
-43.212891,847.961426,519.012451,0.299688
-37.353516,846.130371,520.111084,0.300431
-46.875000,840.087891,518.554688,0.301185
-40.740967,840.362549,522.399902,0.301928
-42.022705,846.954346,515.075684,0.302671
-39.916992,851.165771,506.744385,0.303467
-38.726807,839.263916,517.272949,0.304212
-37.994385,844.116211,517.730713,0.304954
-36.529541,846.862793,516.632080,0.305726
-38.909912,849.884033,517.364502,0.306514
-35.339355,856.018066,522.308350,0.307266
-27.374268,821.319580,515.808105,0.308056
-40.832520,850.799561,519.378662,0.308799
-43.304443,844.390869,510.955811,0.309579
-42.480469,847.229004,521.209717,0.310402
-42.755127,848.327637,523.956299,0.311164
-42.938232,856.201172,524.139404,0.311909
-46.325684,846.496582,515.167236,0.312687
-50.903320,848.236084,516.998291,0.313514
-48.065186,847.595215,519.195557,0.314277
-54.107666,846.038818,515.167236,0.315078
-47.698975,845.397949,507.751465,0.315835
-53.009033,843.383789,509.490967,0.316600
-52.185059,842.742920,510.681152,0.317356
-51.452637,840.362549,506.195068,0.318162
-49.163818,836.700439,507.568359,0.318908
-46.051025,836.242676,508.941650,0.319651
-52.368164,826.354980,506.652832,0.320409
-50.354004,828.460693,507.019043,0.321171
-52.001953,830.749512,499.603271,0.321988
-45.959473,829.101562,496.398926,0.322746
-52.917480,832.031250,498.229980,0.323525
-50.720215,827.178955,489.990234,0.324278
-53.009033,819.763184,489.166260,0.325022
-48.706055,824.157715,492.919922,0.325766
-54.748535,828.552246,487.060547,0.326522
-43.762207,823.699951,492.462158,0.327266
-46.691895,821.228027,490.447998,0.328011
-53.924561,822.509766,489.440918,0.328756
-51.086426,823.699951,494.110107,0.329512
-44.219971,819.763184,492.828369,0.330258
-49.713135,830.017090,486.145020,0.331002
-45.959473,824.340820,487.243652,0.331747
-45.867920,823.699951,490.447998,0.332527
-49.713135,823.425293,480.010986,0.333273
-46.234131,824.066162,479.736328,0.334018
-44.769287,811.798096,477.813721,0.334762
-42.572021,811.798096,483.581543,0.335524
-45.043945,813.629150,482.666016,0.336269
-45.684814,815.917969,482.208252,0.337071
-44.403076,818.664551,475.891113,0.337828
-41.931152,798.797607,479.644775,0.338599
-43.762207,823.425293,485.229492,0.339344
-36.621094,817.291260,476.898193,0.340089
-37.719727,815.002441,483.306885,0.340833
-39.184570,824.249268,491.363525,0.341581
-43.670654,825.622559,491.638184,0.342317
-33.233643,832.489014,493.011475,0.343051
-23.620605,824.249268,493.743896,0.343786
-41.473389,832.855225,494.750977,0.344539
-43.945312,826.904297,492.736816,0.345282
-41.931152,827.636719,497.955322,0.346026
-48.522949,830.657959,511.505127,0.346769
-52.093506,832.855225,507.751465,0.347520
-44.219971,842.193604,511.871338,0.348281
-52.734375,834.777832,499.328613,0.349066
-47.790527,841.186523,503.814697,0.349810
-49.896240,848.510742,506.652832,0.350564
-43.579102,852.996826,512.786865,0.351307
-50.994873,852.722168,515.899658,0.352050
-53.192139,848.236084,510.223389,0.352793
-54.199219,852.905273,521.118164,0.353545
-52.459717,850.799561,522.125244,0.354288
-55.755615,850.067139,518.188477,0.355031
-40.557861,859.222412,515.075684,0.355773
-52.001953,850.616455,511.047363,0.356526
-51.361084,858.581543,520.935059,0.357269
-50.994873,859.405518,522.491455,0.358011
-44.860840,854.370117,521.667480,0.358754
-46.142578,861.877441,524.597168,0.359507
-50.262451,865.447998,532.196045,0.360250
-55.480957,863.433838,533.294678,0.360996
-58.044434,866.546631,525.695801,0.361774
-55.847168,870.574951,529.449463,0.362527
-55.938721,874.969482,535.308838,0.363270
-65.185547,875.152588,532.928467,0.364013
-62.988281,878.173828,538.055420,0.364756
-62.164307,864.440918,536.590576,0.365509
-64.727783,860.778809,530.914307,0.366253
-61.431885,873.779297,527.984619,0.366995
-62.164307,846.862793,523.498535,0.367831
-66.650391,863.525391,529.724121,0.368587
-64.178467,856.842041,520.385742,0.369330
-62.805176,859.405518,523.681641,0.370073
-71.685791,856.018066,519.561768,0.370857
-61.614990,853.637695,514.160156,0.371621
-60.607910,852.996826,537.780762,0.372366
-60.058594,853.363037,513.244629,0.373109
-62.896729,846.954346,515.350342,0.373852
-61.981201,846.313477,512.420654,0.374611
-57.769775,851.074219,510.131836,0.375354
-63.079834,844.024658,507.385254,0.376096
-65.185547,840.270996,506.286621,0.376839
-52.825928,832.580566,503.723145,0.377588
-60.058594,840.728760,507.293701,0.378330
-60.424805,839.355469,497.039795,0.379073
-64.086914,835.418701,501.525879,0.379816
-62.713623,831.756592,503.631592,0.380568
-59.600830,832.031250,503.082275,0.381312
-49.072266,830.108643,498.596191,0.382054
-47.515869,822.418213,484.039307,0.382797
-48.156738,822.692871,487.152100,0.383549
-44.860840,819.396973,487.609863,0.384292
-39.825439,819.030762,486.328125,0.385034
-44.128418,809.600830,483.398438,0.385777
-47.698975,817.108154,481.658936,0.386546
-45.227051,815.093994,477.905273,0.387295
-45.318604,809.967041,473.968506,0.388066
-44.677734,815.460205,480.010986,0.388813
-42.572021,816.833496,477.172852,0.389576
-33.416748,821.868896,481.475830,0.390320
-34.973145,820.037842,475.341797,0.391063
-33.508301,818.023682,473.968506,0.391805
-33.691406,816.741943,475.341797,0.392577
-34.698486,838.989258,480.285645,0.393335
-32.867432,828.918457,486.968994,0.394085
-30.120850,833.129883,483.764648,0.394857
-28.015137,824.890137,483.581543,0.395674
-20.690918,830.200195,488.708496,0.396418
-26.000977,827.362061,489.807129,0.397162
-22.796631,830.841064,487.609863,0.397905
-20.965576,839.996338,495.849609,0.398657
-17.852783,832.397461,492.370605,0.399401
-15.930176,835.784912,486.145020,0.400143
-20.141602,845.123291,503.723145,0.400886
-21.697998,845.123291,500.335693,0.401638
-16.204834,846.588135,505.371094,0.402382
-24.902344,845.123291,504.180908,0.403125
-22.613525,855.010986,507.843018,0.403869
-28.381348,857.849121,518.188477,0.404632
-28.564453,863.891602,514.434814,0.405376
-33.325195,864.624023,523.773193,0.406120
-34.515381,861.877441,536.499023,0.406862
-32.409668,871.307373,536.041260,0.407619
-33.233643,873.413086,537.322998,0.408371
-34.698486,882.751465,546.844482,0.409124
-35.064697,879.272461,544.464111,0.409890
-33.782959,887.695312,550.506592,0.410654
-43.304443,885.681152,547.576904,0.411398
-37.719727,889.801025,552.795410,0.412141
-40.832520,891.906738,547.851562,0.412884
-47.149658,888.610840,553.802490,0.413666
-45.776367,893.188477,552.886963,0.414410
-43.945312,898.681641,548.767090,0.415153
-50.079346,897.583008,553.344727,0.415896
-26.824951,894.744873,538.879395,0.416650
-45.410156,885.498047,540.802002,0.417393
-40.466309,884.216309,539.154053,0.418135
-40.466309,889.434814,538.238525,0.418878
-46.875000,888.519287,533.569336,0.419628
-49.438477,882.568359,531.188965,0.420397
-45.318604,888.153076,530.548096,0.421139
-48.522949,882.751465,529.724121,0.421886
-51.269531,874.053955,517.730713,0.422655
-46.600342,876.708984,513.336182,0.423400
-48.889160,874.969482,523.864746,0.424144
-67.382812,875.518799,521.026611,0.424888
-52.734375,876.525879,515.441895,0.425642
-53.833008,870.574951,528.625488,0.426387
-46.691895,873.046875,518.737793,0.427131
-51.635742,868.835449,523.681641,0.427876
-69.763184,860.961914,523.315430,0.428630
-55.114746,859.954834,525.878906,0.429374
-52.093506,861.968994,525.604248,0.430119
-55.114746,861.145020,522.857666,0.430863
-46.142578,859.771729,508.483887,0.431616
-48.248291,862.792969,514.801025,0.432361
-49.438477,860.504150,514.343262,0.433105
-48.248291,846.771240,505.279541,0.433850
-45.959473,853.912354,511.230469,0.434604
-52.551270,854.187012,512.237549,0.435349
-46.783447,849.884033,509.948730,0.436093
-51.452637,855.285645,507.019043,0.436836
-49.987793,852.081299,501.342773,0.437591
-50.811768,856.018066,500.701904,0.438335
-41.473389,852.264404,503.814697,0.439079
-40.740967,845.581055,501.159668,0.439823
-35.522461,825.897217,501.800537,0.440660
-32.775879,847.412109,502.441406,0.441404
-41.198730,842.742920,498.687744,0.442149
-35.614014,846.130371,503.540039,0.442893
-42.480469,845.123291,504.089355,0.443657
-42.205811,851.348877,494.018555,0.444401
-47.515869,844.665527,494.293213,0.445146
-40.374756,844.573975,499.328613,0.445894
-36.712646,850.982666,514.068604,0.446651
-32.135010,845.581055,505.828857,0.447396
-28.930664,838.256836,507.019043,0.448141
-35.064697,846.038818,497.497559,0.448885
-34.515381,846.038818,497.222900,0.449640
-30.853271,848.419189,499.053955,0.450384
-43.853760,840.362549,491.546631,0.451129
-34.881592,838.165283,482.025146,0.451872
-35.705566,832.397461,480.560303,0.452628
-28.564453,832.946777,492.553711,0.453372
-32.501221,838.989258,481.842041,0.454116
-31.768799,830.657959,486.694336,0.454860
-29.846191,832.397461,491.455078,0.455615
-24.444580,840.454102,483.856201,0.456521
-21.148682,848.419189,494.842529,0.457270
-22.338867,838.073730,494.476318,0.458014
-28.106689,838.989258,488.525391,0.458774
-26.184082,839.263916,496.948242,0.459519
-18.218994,845.214844,490.081787,0.460263
-23.986816,842.285156,497.589111,0.461007
-24.169922,850.067139,495.483398,0.461757
-19.134521,848.144531,498.138428,0.462499
-29.205322,849.334717,503.723145,0.463253
-28.564453,854.187012,503.723145,0.463993
-24.169922,854.278564,510.864258,0.464766
-28.747559,862.060547,508.850098,0.465510
-31.127930,863.433838,511.688232,0.466253
-35.156250,862.335205,513.427734,0.466996
-36.346436,862.518311,517.272949,0.467752
-38.909912,868.835449,520.660400,0.468557
-38.635254,870.574951,524.871826,0.469312
-38.269043,868.835449,532.928467,0.470080
-43.304443,874.053955,534.851074,0.470849
-48.980713,877.075195,539.154053,0.471593
-38.177490,890.075684,534.393311,0.472336
-40.466309,882.751465,540.252686,0.473078
-50.811768,876.251221,535.675049,0.473835
-50.537109,883.300781,541.259766,0.474578
-46.234131,884.582520,543.182373,0.475321
-55.480957,885.040283,534.393311,0.476063
-55.114746,883.575439,532.836914,0.476815
-54.473877,884.216309,536.682129,0.477558
-47.515869,881.835938,543.457031,0.478303
-51.269531,887.329102,545.013428,0.479047
-45.867920,882.019043,538.055420,0.479801
-49.713135,881.927490,532.653809,0.480544
-48.522949,884.307861,534.667969,0.481287
-46.600342,887.603760,531.188965,0.482030
-50.354004,879.180908,539.886475,0.482780
-46.783447,883.392334,533.203125,0.483522
-55.572510,880.737305,530.639648,0.484263
-45.410156,873.504639,534.667969,0.485004
-56.762695,876.159668,519.012451,0.485767
-50.079346,871.032715,520.660400,0.486512
-53.283691,870.941162,515.167236,0.487261
-51.635742,861.328125,509.124756,0.488056
-57.678223,864.990234,512.603760,0.488802
-49.072266,867.187500,511.871338,0.489546
-47.698975,862.792969,517.272949,0.490304
-47.607422,858.581543,522.216797,0.491050
-37.170410,864.532471,518.188477,0.491794
-45.043945,869.201660,515.808105,0.492538
-68.664551,857.116699,520.843506,0.493282
-45.318604,869.934082,517.822266,0.494026
-51.635742,854.827881,520.385742,0.494771
-54.473877,861.236572,511.047363,0.495515
-47.790527,859.130859,514.434814,0.496259
-53.375244,858.764648,514.251709,0.497004
-54.199219,858.856201,515.991211,0.497748
-48.797607,860.778809,509.857178,0.498492
-48.248291,864.349365,515.441895,0.499236
-51.086426,864.440918,517.547607,0.499988
-52.185059,856.750488,514.160156,0.500732
-51.361084,859.405518,518.463135,0.501476
-51.818848,857.849121,519.561768,0.502221
-58.776855,856.658936,518.463135,0.502970
-55.206299,852.355957,518.188477,0.503712
-53.100586,855.102539,519.561768,0.504449
-53.833008,849.426270,511.138916,0.505183
-49.438477,859.130859,509.124756,0.505925
-46.875000,843.933105,519.012451,0.506671
-52.551270,855.102539,519.012451,0.507415
-54.382324,853.729248,508.758545,0.508215
-56.488037,857.574463,506.286621,0.508960
-58.319092,844.665527,512.603760,0.509704
-51.910400,849.517822,512.329102,0.510448
-47.149658,855.651855,493.469238,0.511193
-56.396484,847.869873,509.948730,0.511950
-48.797607,846.038818,502.899170,0.512694
-50.354004,854.644775,504.913330,0.513438
-49.530029,852.172852,508.941650,0.514259
-48.797607,851.989746,508.117676,0.515018
-55.297852,854.827881,504.364014,0.515762
-53.741455,846.221924,502.716064,0.516506
-51.452637,847.778320,505.462646,0.517250
-43.853760,841.918945,490.905762,0.517995
-42.663574,842.742920,496.307373,0.518739
-49.896240,845.581055,505.828857,0.519483
-53.009033,839.080811,495.758057,0.520228
-46.417236,838.439941,495.758057,0.520973
-47.515869,837.799072,498.046875,0.521718
-44.860840,837.432861,492.004395,0.522462
-38.635254,834.136963,494.476318,0.523206
-43.212891,835.235596,493.743896,0.523963
-44.677734,829.010010,497.955322,0.524708
-50.811768,834.228516,500.152588,0.525452
-42.663574,835.144043,497.406006,0.526197
-48.339844,836.334229,501.800537,0.526941
-43.487549,828.002930,497.222900,0.527686
-49.438477,834.594727,474.792480,0.528430
-51.452637,830.474854,496.124268,0.529174
-43.121338,835.052490,496.398926,0.529929
-43.029785,832.305908,499.603271,0.530674
-48.980713,840.728760,495.758057,0.531418
-47.698975,842.926025,496.765137,0.532162
-47.241211,838.165283,499.420166,0.532915
-45.684814,838.073730,504.180908,0.533661
-52.001953,839.721680,497.039795,0.534413
-46.966553,839.996338,498.962402,0.535162
-50.262451,845.581055,497.589111,0.535951
-41.564941,850.799561,506.927490,0.536692
-69.580078,845.581055,514.068604,0.537427
-48.614502,856.292725,517.639160,0.538161
-47.973633,854.919434,506.469727,0.538896
-49.438477,858.398438,514.434814,0.539664
-51.177979,853.729248,517.639160,0.540441
-56.030273,856.018066,516.723633,0.541263
-51.452637,852.172852,515.441895,0.542095
-53.466797,856.567383,522.033691,0.542875
-55.206299,860.137939,525.238037,0.543620
-52.001953,859.405518,527.069092,0.544364
-52.093506,853.179932,517.272949,0.545165
-59.509277,857.757568,514.984131,0.545915
-54.931641,854.827881,506.835938,0.546659
-58.227539,848.602295,507.202148,0.547402
-51.086426,850.616455,522.491455,0.548159
-56.304932,851.715088,516.265869,0.548902
-47.515869,861.145020,521.118164,0.549645
-57.861328,852.905273,522.125244,0.550388
-59.875488,858.581543,526.519775,0.551154
-58.044434,864.440918,525.604248,0.551901
-53.741455,866.638184,521.575928,0.552646
-61.157227,861.602783,524.230957,0.553391
-58.410645,858.032227,518.280029,0.554150
-59.692383,864.715576,515.533447,0.554894
-60.882568,858.581543,524.230957,0.555638
-53.375244,863.250732,521.942139,0.556382
-56.488037,864.532471,523.681641,0.557137
-60.516357,862.426758,525.512695,0.557881
-66.284180,865.264893,530.639648,0.558626
-62.713623,859.405518,526.611328,0.559370
-66.833496,855.377197,521.026611,0.560124
-66.558838,865.539551,523.590088,0.560869
-61.065674,866.088867,521.850586,0.561670
-63.262939,858.306885,519.836426,0.562415
-60.882568,859.497070,523.132324,0.563170
-55.023193,859.680176,527.801514,0.563915
-58.685303,861.053467,532.562256,0.564659
-57.678223,855.010986,524.047852,0.565404
-58.044434,864.440918,523.773193,0.566160
-64.727783,850.799561,519.470215,0.566906
-59.234619,853.729248,518.554688,0.567650
-64.361572,853.454590,516.906738,0.568395
-58.135986,851.257324,526.153564,0.569149
-57.037354,850.158691,515.625000,0.569894
-55.664062,846.954346,520.568848,0.570641
-53.009033,853.271484,517.639160,0.571385
-60.974121,845.214844,516.448975,0.572139
-62.530518,848.968506,520.477295,0.572883
-59.051514,845.214844,523.223877,0.573627
-61.981201,846.313477,523.864746,0.574371
-61.065674,846.313477,520.294189,0.575139
-63.354492,840.545654,521.759033,0.575898
-52.459717,849.609375,511.505127,0.576642
-51.727295,845.214844,520.111084,0.577386
-52.276611,841.918945,519.653320,0.578140
-55.114746,846.221924,522.033691,0.578885
-47.882080,843.383789,523.590088,0.579629
-53.009033,839.355469,519.927979,0.580374
-48.614502,831.756592,517.181396,0.581128
-55.480957,832.031250,514.709473,0.581872
-54.565430,829.559326,522.125244,0.582616
-48.156738,823.242188,509.765625,0.583361
-38.726807,822.875977,504.730225,0.584115
-38.635254,829.284668,505.371094,0.584859
-42.663574,826.995850,498.962402,0.585604
-38.177490,825.714111,500.244141,0.586348
-40.832520,821.411133,504.730225,0.587190
-39.367676,819.671631,502.349854,0.587935
-32.775879,814.910889,498.962402,0.588680
-34.332275,814.361572,495.117188,0.589424
-32.409668,813.171387,496.490479,0.590178
-31.494141,811.431885,495.849609,0.590922
-29.022217,811.889648,494.750977,0.591666
-27.557373,808.776855,491.088867,0.592411
-32.043457,808.227539,498.779297,0.593165
-36.895752,817.199707,497.772217,0.593910
-34.057617,805.755615,496.398926,0.594654
-28.381348,801.452637,487.426758,0.595400
-28.564453,803.100586,487.335205,0.596157
-28.656006,807.861328,492.645264,0.596902
-24.353027,798.980713,484.405518,0.597646
-18.218994,806.854248,488.433838,0.598390
-23.162842,808.319092,486.236572,0.599156
-25.177002,806.854248,490.447998,0.599901
-32.043457,801.910400,491.455078,0.600645
-21.057129,816.833496,495.941162,0.601389
-16.387939,815.917969,500.885010,0.602143
-11.718750,812.255859,499.511719,0.602887
-17.944336,810.699463,495.025635,0.603631
-18.402100,806.854248,498.962402,0.604376
-18.768311,814.727783,498.870850,0.605130
-17.486572,811.065674,498.870850,0.605931
-10.894775,816.284180,501.983643,0.606666
-12.817383,822.326660,503.723145,0.607401
-12.634277,818.389893,504.180908,0.608177
-15.197754,817.016602,497.314453,0.608927
-8.422852,828.643799,506.744385,0.609702
-6.866455,824.157715,502.807617,0.610449
-14.739990,825.439453,511.505127,0.611216
-13.458252,822.143555,506.103516,0.611961
-12.817383,827.362061,507.019043,0.612705
-15.380859,834.869385,508.392334,0.613450
-20.965576,829.650879,514.984131,0.614203
-20.782471,827.453613,506.927490,0.614948
-22.338867,833.953857,507.659912,0.615692
-21.423340,833.038330,523.223877,0.616437
-28.289795,835.601807,515.075684,0.617191
-28.930664,836.517334,519.104004,0.617936
-26.000977,835.968018,523.590088,0.618680
-27.099609,837.341309,519.287109,0.619424
-31.494141,834.045410,523.956299,0.620177
-37.719727,840.545654,528.076172,0.620921
-35.614014,834.136963,525.787354,0.621666
-39.367676,841.369629,526.794434,0.622410
-36.621094,838.073730,523.315430,0.623164
-40.100098,845.489502,524.963379,0.623909
-38.909912,843.383789,516.174316,0.624655
-37.170410,845.123291,517.913818,0.625399
-40.283203,840.545654,522.216797,0.626155
-46.325684,840.362549,513.427734,0.626900
-46.142578,844.848633,516.815186,0.627644
-46.783447,843.383789,515.258789,0.628388
-51.818848,839.721680,518.463135,0.629143
-55.206299,846.405029,519.104004,0.629887
-52.825928,848.419189,519.378662,0.630631
-53.009033,847.229004,518.371582,0.631375
-58.776855,849.151611,525.146484,0.632129
-61.340332,852.264404,521.484375,0.632864
-67.199707,852.172852,518.188477,0.633598
-65.551758,852.722168,518.005371,0.634332
-70.404053,862.243652,523.681641,0.635110
-74.615479,854.553223,538.879395,0.635852
-76.812744,853.637695,524.414062,0.636592
-74.249268,858.581543,530.914307,0.637340
-74.066162,865.173340,535.125732,0.638095
-74.890137,861.145020,527.343750,0.638839
-78.186035,861.785889,523.773193,0.639582
-70.129395,851.440430,528.533936,0.640325
-79.742432,858.489990,535.034180,0.641078
-74.432373,859.588623,532.379150,0.641821
-76.538086,861.328125,531.738281,0.642564
-75.439453,857.299805,530.181885,0.643307
-78.826904,854.461670,521.942139,0.644059
-76.354980,847.503662,529.083252,0.644803
-73.333740,850.067139,521.392822,0.645545
-83.129883,846.313477,522.583008,0.646288
-73.608398,849.426270,516.723633,0.647041
-77.819824,849.517822,511.230469,0.647880
-77.362061,850.250244,513.885498,0.648625
-73.150635,845.489502,513.793945,0.649368
-73.333740,849.334717,512.054443,0.650200
-79.284668,841.735840,502.716064,0.650944
-74.707031,847.045898,506.195068,0.651717
-75.439453,830.474854,514.068604,0.652493
-72.052002,840.270996,512.512207,0.653254
-69.580078,840.362549,508.117676,0.653997
-73.791504,846.130371,509.674072,0.654740
-71.502686,836.883545,508.117676,0.655482
-71.228027,821.411133,506.011963,0.656235
-69.946289,836.151123,502.441406,0.656978
-69.122314,842.926025,504.455566,0.657720
-72.052002,839.080811,503.814697,0.658463
-64.453125,828.918457,498.504639,0.659215
-64.727783,825.164795,507.202148,0.659959
-67.108154,837.066650,506.469727,0.660788
-59.326172,833.679199,503.723145,0.661531
-67.199707,831.573486,502.441406,0.662285
-66.925049,837.982178,503.265381,0.663028
-58.959961,841.552734,504.821777,0.663770
-64.361572,838.439941,501.251221,0.664513
-64.086914,838.439941,504.180908,0.665266
-67.840576,842.010498,506.835938,0.666009
-63.720703,844.299316,508.758545,0.666752
-62.164307,842.926025,515.441895,0.667494
-58.685303,840.362549,493.286133,0.668246
-61.431885,848.052979,513.153076,0.668989
-61.340332,844.207764,505.828857,0.669732
-56.213379,847.320557,514.343262,0.670475
-52.551270,847.229004,508.026123,0.671228
-54.107666,844.482422,505.462646,0.671971
-58.227539,848.052979,513.702393,0.672714
-57.312012,820.404053,507.934570,0.673456
-56.854248,845.764160,502.807617,0.674216
-51.544189,838.256836,509.582520,0.674959
-44.311523,840.637207,508.392334,0.675702
-52.917480,838.439941,507.019043,0.676446
-49.530029,846.954346,505.554199,0.677207
-44.128418,857.025146,514.343262,0.677951
-46.051025,843.017578,510.589600,0.678694
-37.902832,840.087891,515.716553,0.679556
-41.473389,847.229004,514.709473,0.680307
-41.839600,850.799561,520.202637,0.681111
-45.959473,854.553223,516.357422,0.681879
-46.600342,850.708008,517.456055,0.682660
-39.276123,846.130371,511.596680,0.683435
-43.395996,843.292236,519.927979,0.684182
-43.395996,843.292236,518.646240,0.684925
-44.128418,846.771240,516.906738,0.685669
-35.156250,855.010986,520.751953,0.686505
-42.114258,846.496582,523.681641,0.687251
-42.663574,847.686768,529.724121,0.687997
-37.078857,846.496582,522.674561,0.688786
-36.163330,841.369629,520.568848,0.689591
-35.797119,854.187012,524.230957,0.690337
-35.797119,858.398438,530.914307,0.691080
-37.445068,852.447510,525.146484,0.691840
-32.958984,855.834961,532.470703,0.692584
-40.649414,854.553223,530.181885,0.693326
-45.227051,845.306396,521.942139,0.694069
-38.452148,845.306396,526.794434,0.694818
-36.254883,846.679688,526.245117,0.695561
-36.346436,846.679688,525.878906,0.696304
-36.621094,846.771240,523.773193,0.697047
-38.909912,848.327637,526.336670,0.697801
-33.599854,848.052979,523.956299,0.698545
-38.360596,848.968506,522.949219,0.699287
-40.100098,849.426270,526.519775,0.700030
-37.078857,849.517822,522.674561,0.700875
-41.473389,847.778320,520.935059,0.701628
-44.403076,856.018066,524.230957,0.702470
-39.276123,857.757568,530.548096,0.703223
-42.663574,859.771729,531.280518,0.703990
-43.212891,858.673096,533.294678,0.704794
-38.452148,857.940674,533.020020,0.705538
-47.973633,863.433838,538.604736,0.706281
-42.846680,867.736816,543.823242,0.707035
-51.177979,868.377686,539.520264,0.707778
-45.959473,877.990723,549.224854,0.708520
-46.417236,876.983643,545.928955,0.709263
-49.530029,872.131348,553.436279,0.710037
-50.811768,880.096436,547.210693,0.710784
-45.410156,877.166748,540.985107,0.711529
-47.882080,870.758057,561.401367,0.712285
-52.368164,873.870850,547.943115,0.713030
-39.367676,876.525879,541.534424,0.713828
-52.276611,870.758057,536.499023,0.714574
-49.346924,868.927002,533.935547,0.715331
-57.495117,861.328125,536.499023,0.716076
-52.734375,866.455078,528.717041,0.716820
-52.093506,868.927002,536.041260,0.717565
-50.354004,866.271973,528.991699,0.718309
-53.100586,859.588623,524.047852,0.719053
-66.741943,859.588623,540.435791,0.719798
-52.917480,855.010986,530.364990,0.720542
-53.192139,865.356445,532.196045,0.721296
-65.093994,857.940674,534.851074,0.722041
-59.326172,869.384766,524.597168,0.722785
-57.586670,870.391846,532.836914,0.723529
-50.445557,863.433838,539.154053,0.724280
-58.319092,864.074707,537.689209,0.725024
-55.938721,866.180420,533.477783,0.725768
-55.664062,868.377686,532.745361,0.726512
-52.459717,865.631104,538.055420,0.727318
-56.671143,889.343262,536.499023,0.728063
-53.375244,870.025635,534.851074,0.728807
-58.135986,868.194580,534.118652,0.729551
-57.861328,862.976074,529.907227,0.730296
-55.023193,861.053467,537.048340,0.731090
-55.847168,863.891602,536.865234,0.731835
-53.558350,867.919922,532.379150,0.732579
-54.016113,866.271973,532.196045,0.733339
-54.931641,858.306885,530.639648,0.734171
-60.333252,858.489990,533.935547,0.734915
-57.861328,864.807129,531.463623,0.735659
-57.495117,857.574463,530.273438,0.736418
-54.107666,848.510742,532.745361,0.737162
-58.502197,855.194092,532.745361,0.737906
-58.593750,850.982666,532.196045,0.738651
-58.685303,847.961426,517.913818,0.739404
-51.361084,852.172852,528.076172,0.740149
-57.769775,848.419189,523.681641,0.740892
-52.825928,843.200684,522.399902,0.741636
-50.903320,841.644287,520.385742,0.742389
-52.368164,836.517334,518.646240,0.743133
-44.403076,834.136963,518.005371,0.743878
-46.783447,826.629639,514.617920,0.744622
-44.036865,836.517334,514.251709,0.745387
-49.804688,831.390381,515.991211,0.746115
-48.065186,829.833984,516.357422,0.746861
-48.706055,830.841064,510.314941,0.747605
-46.875000,831.939697,509.216309,0.748362
-42.938232,829.376221,515.258789,0.749107
-69.671631,825.439453,511.413574,0.749851
-53.924561,829.193115,510.314941,0.750595
-54.565430,822.784424,509.307861,0.751350
-55.297852,843.566895,509.216309,0.752095
-39.184570,827.545166,510.589600,0.752840
-50.811768,821.319580,493.652344,0.753584
-57.037354,824.340820,502.441406,0.754359
-53.741455,814.453125,503.173828,0.755121
-50.079346,815.368652,500.061035,0.755942
-45.684814,820.404053,499.603271,0.756690
-40.466309,816.009521,499.237061,0.757511
-46.051025,823.699951,505.737305,0.758256
-43.395996,815.093994,498.779297,0.759000
-43.395996,812.896729,499.969482,0.759744
-41.381836,815.551758,500.793457,0.760498
-45.959473,809.509277,504.089355,0.761246
-48.522949,818.115234,501.800537,0.762025
-49.896240,818.572998,504.089355,0.762777
-51.910400,814.727783,502.899170,0.763549
-48.889160,817.382812,500.518799,0.764300
-47.882080,819.488525,502.258301,0.765044
-51.727295,814.361572,502.990723,0.765788
-59.967041,821.594238,506.103516,0.766549
-50.537109,818.664551,505.187988,0.767293
-54.565430,816.558838,513.610840,0.768037
-50.354004,813.171387,503.173828,0.768829
-48.980713,818.664551,500.793457,0.769590
-44.311523,821.502686,505.371094,0.770334
-46.691895,799.346924,501.434326,0.771078
-44.860840,833.038330,508.026123,0.771828
-52.093506,829.010010,505.004883,0.772583
-48.706055,830.383301,509.674072,0.773327
-56.854248,828.826904,503.082275,0.774071
-60.058594,826.629639,509.765625,0.774815
-58.044434,832.672119,515.075684,0.775569
-63.446045,837.341309,514.160156,0.776313
-60.882568,831.848145,518.646240,0.777058
-56.030273,837.799072,521.209717,0.777810
-52.734375,840.179443,521.759033,0.778596
-52.551270,841.186523,527.893066,0.779340
-63.079834,838.989258,527.160645,0.780084
-55.206299,843.566895,530.090332,0.780828
-60.791016,838.714600,525.329590,0.781582
-58.044434,836.334229,523.132324,0.782326
-55.389404,840.362549,518.737793,0.783070
-57.403564,837.707520,513.793945,0.783814
-60.974121,838.989258,524.871826,0.784570
-58.410645,839.355469,525.878906,0.785314
-57.678223,836.700439,523.498535,0.786058
-54.290771,845.306396,519.927979,0.786801
-53.009033,840.179443,516.906738,0.787552
-49.896240,848.236084,522.857666,0.788296
-49.896240,847.778320,523.223877,0.789040
-59.783936,845.764160,518.737793,0.789783
-64.910889,847.869873,516.265869,0.790538
-66.558838,842.926025,515.716553,0.791282
-57.861328,839.630127,513.610840,0.792089
-58.776855,820.678711,514.343262,0.792831
-62.896729,842.468262,515.808105,0.793597
-66.467285,836.425781,511.505127,0.794345
-66.284180,834.960938,515.441895,0.795088
-62.072754,839.447021,516.540527,0.795832
-58.868408,838.989258,515.991211,0.796585
-59.234619,835.235596,513.244629,0.797329
-55.206299,828.643799,519.653320,0.798072
-59.967041,836.608887,493.194580,0.798816
-53.283691,841.735840,520.111084,0.799561
-59.417725,838.073730,520.294189,0.800295
-60.607910,838.806152,516.265869,0.801029
-63.812256,841.461182,519.012451,0.801764
-69.122314,839.355469,523.864746,0.802511
-60.333252,834.869385,520.660400,0.803245
-66.650391,841.369629,525.421143,0.803979
-64.178467,845.031738,525.054932,0.804712
-70.587158,843.109131,521.942139,0.805464
-72.601318,841.003418,517.730713,0.806199
-70.404053,842.468262,524.871826,0.806958
-49.255371,846.221924,524.230957,0.807778
-62.896729,844.482422,518.646240,0.808526
-70.312500,846.496582,525.695801,0.809260
-73.425293,842.285156,523.864746,0.809994
-72.143555,845.123291,524.963379,0.810727
-81.207275,843.475342,525.970459,0.811472
-69.763184,836.334229,523.773193,0.812222
-75.256348,834.045410,527.343750,0.812968
-75.347900,835.784912,522.491455,0.813714
-69.213867,837.799072,521.209717,0.814539
-64.178467,837.158203,515.625000,0.815305
-69.488525,840.911865,525.329590,0.816133
-72.509766,836.791992,518.188477,0.816906
-66.558838,846.313477,518.463135,0.817673
-68.939209,835.235596,516.357422,0.818428
-68.389893,830.291748,529.724121,0.819227
-60.424805,830.932617,521.575928,0.820016
-67.291260,830.932617,513.427734,0.820776
-64.636230,834.320068,513.427734,0.821561
-62.988281,827.545166,518.005371,0.822348
-60.516357,826.904297,515.991211,0.823257
-64.544678,826.171875,512.237549,0.824035
-66.925049,821.685791,507.934570,0.824817
-60.241699,815.734863,505.920410,0.825635
-57.312012,826.538086,503.173828,0.826408
-64.910889,816.558838,502.990723,0.827151
-64.636230,812.072754,499.786377,0.827898
-68.389893,812.805176,506.195068,0.828670
-59.051514,813.171387,501.892090,0.829455
-51.635742,814.636230,507.110596,0.830203
-52.093506,807.220459,501.251221,0.830943
-53.009033,800.354004,496.582031,0.831702
-47.607422,800.811768,498.962402,0.832458
-46.417236,800.903320,488.891602,0.833231
-47.790527,804.840088,489.990234,0.833974
-50.354004,794.494629,484.588623,0.834717
-50.262451,817.565918,485.137939,0.835471
-45.501709,797.790527,480.651855,0.836214
-45.593262,791.473389,482.025146,0.836957
-41.198730,785.888672,481.292725,0.837703
-42.388916,788.818359,482.208252,0.838528
-49.530029,796.051025,480.560303,0.839329
-49.255371,793.579102,480.102539,0.840129
-45.227051,797.058105,473.327637,0.840897
-44.586182,791.107178,483.032227,0.841642
-38.726807,796.417236,476.531982,0.842385
-45.227051,797.882080,482.849121,0.843128
-43.945312,802.001953,481.109619,0.843871
-41.839600,801.635742,480.102539,0.844613
-43.670654,812.622070,493.194580,0.845357
-43.853760,820.129395,487.335205,0.846100
-50.994873,809.600830,490.905762,0.846843
-47.241211,814.178467,498.046875,0.847586
-43.945312,822.326660,513.427734,0.848328
-42.755127,825.073242,514.160156,0.849071
-46.417236,829.010010,518.920898,0.849863
-52.917480,834.686279,519.927979,0.850610
-55.938721,828.826904,525.146484,0.851353
-53.283691,830.108643,532.379150,0.852095
-54.473877,847.137451,530.548096,0.852838
-54.199219,830.749512,523.864746,0.853581
-53.649902,829.650879,529.083252,0.854323
-49.804688,843.750000,525.054932,0.855066
-50.720215,845.214844,530.456543,0.855809
-57.403564,837.615967,532.653809,0.856552
-53.833008,841.827393,528.717041,0.857294
-52.734375,846.588135,526.885986,0.858037
-57.678223,845.123291,526.245117,0.858917
-50.628662,845.031738,531.372070,0.859662
-50.628662,847.045898,530.456543,0.860405
-53.283691,848.876953,531.738281,0.861183
-55.572510,838.439941,529.632568,0.861926
-52.185059,848.327637,522.491455,0.862669
-55.938721,843.017578,529.632568,0.863412
-50.262451,842.193604,531.005859,0.864155
-54.473877,843.566895,530.548096,0.864914
-48.980713,835.968018,524.505615,0.865714
-53.100586,837.249756,525.238037,0.866460
-51.269531,840.362549,526.885986,0.867203
-42.297363,839.996338,521.759033,0.867962
-37.536621,843.109131,526.153564,0.868705
-35.064697,837.890625,526.336670,0.869448
-36.895752,837.158203,521.301270,0.870190
-38.909912,825.073242,519.653320,0.870958
-44.677734,833.129883,509.490967,0.871701
-48.614502,827.545166,505.371094,0.872444
-39.459229,825.988770,510.772705,0.873186
-36.437988,819.671631,507.110596,0.873939
-35.339355,824.157715,509.765625,0.874682
-37.170410,822.235107,507.476807,0.875425
-35.156250,817.016602,507.843018,0.876167
-24.719238,823.150635,504.089355,0.876922
-33.050537,820.037842,508.117676,0.877665
-24.078369,833.038330,504.364014,0.878408
-31.219482,814.453125,505.462646,0.879151
-34.881592,825.164795,506.011963,0.879894
-37.811279,818.847656,508.026123,0.880637
-31.585693,822.784424,518.554688,0.881499
-24.627686,834.960938,518.737793,0.882287
-37.261963,835.876465,525.604248,0.883047
-28.472900,834.045410,527.069092,0.883790
-28.106689,836.608887,532.104492,0.884532
-35.705566,839.355469,534.759521,0.885275
-33.508301,844.116211,529.449463,0.886027
-35.156250,838.897705,529.449463,0.886770
-29.479980,845.123291,535.675049,0.887513
-31.219482,839.447021,539.245605,0.888255
-26.550293,847.869873,541.534424,0.889006
-27.923584,857.574463,541.717529,0.889746
-29.296875,853.271484,536.041260,0.890486
-31.402588,840.637207,534.393311,0.891227
-31.219482,845.855713,530.181885,0.891995
-35.980225,848.785400,536.773682,0.892741
-36.437988,851.165771,535.034180,0.893485
-36.437988,845.764160,538.421631,0.894229
-32.318115,841.918945,531.921387,0.894989
-33.325195,844.482422,531.921387,0.895735
-33.782959,850.799561,536.865234,0.896479
-32.501221,840.545654,532.836914,0.897223
-30.670166,854.827881,535.308838,0.897979
-38.269043,849.975586,543.457031,0.898724
-38.818359,849.884033,540.802002,0.899468
-30.853271,845.581055,542.266846,0.900212
-39.184570,839.904785,531.555176,0.900974
-32.501221,847.961426,533.020020,0.901795
-36.254883,843.750000,536.224365,0.902544
-31.494141,834.777832,526.062012,0.903300
-33.874512,838.897705,531.097412,0.904076
-26.824951,842.926025,531.555176,0.904737
-44.311523,831.115723,526.519775,0.905482
-36.529541,833.496094,518.829346,0.906226
-36.254883,839.813232,514.343262,0.906990
-34.973145,832.946777,510.864258,0.907734
-33.508301,828.735352,508.392334,0.908478
-38.818359,833.496094,510.131836,0.909221
-24.902344,833.129883,507.934570,0.909975
-41.839600,833.404541,509.490967,0.910759
-41.107178,830.108643,511.779785,0.911518
-42.388916,824.981689,505.645752,0.912269
-36.987305,828.277588,508.209229,0.913063
-41.839600,829.010010,510.498047,0.913813
-45.135498,835.601807,516.357422,0.914557
-37.994385,832.489014,515.350342,0.915301
-33.508301,836.975098,516.723633,0.916057
-39.642334,836.425781,510.314941,0.916801
-44.769287,838.348389,520.660400,0.917545
-42.297363,839.813232,520.935059,0.918289
-37.261963,839.996338,520.751953,0.919037
-36.346436,848.693848,523.864746,0.919773
-45.043945,844.299316,536.682129,0.920507
-43.304443,845.214844,526.794434,0.921241
-48.522949,853.271484,520.477295,0.922003
-38.818359,852.539062,523.132324,0.922746
-43.762207,848.968506,520.477295,0.923488
-45.959473,850.982666,523.132324,0.924230
-50.720215,860.412598,519.836426,0.924982
-52.551270,857.574463,515.716553,0.925725
-58.502197,861.328125,520.477295,0.926467
-56.030273,866.271973,513.153076,0.927210
-44.952393,867.462158,521.942139,0.927963
-49.255371,863.342285,529.907227,0.928706
-49.255371,863.891602,528.442383,0.929449
-50.720215,864.349365,528.900146,0.930192
-49.072266,868.011475,539.154053,0.930943
-47.607422,868.560791,536.407471,0.931686
-57.128906,865.356445,527.069092,0.932428
-54.565430,875.244141,541.717529,0.933171
-51.177979,873.596191,537.414551,0.933930
-66.192627,880.371094,545.837402,0.934695
-57.128906,869.201660,533.203125,0.935442
-63.262939,875.335693,538.238525,0.936186
-61.248779,871.032715,535.308838,0.936942
-57.128906,875.610352,530.273438,0.937686
-55.755615,873.596191,533.386230,0.938430
-56.304932,876.251221,531.188965,0.939174
-55.297852,876.708984,530.914307,0.939928
-52.093506,876.251221,536.865234,0.940672
-56.762695,877.075195,527.984619,0.941415
-50.903320,875.885010,529.632568,0.942159
-59.509277,876.708984,535.034180,0.942903
-58.868408,875.152588,543.365479,0.943637
-63.171387,876.892090,539.520264,0.944372
-61.157227,875.427246,541.442871,0.945106
-67.108154,874.603271,555.725098,0.945872
-79.559326,871.398926,534.576416,0.946615
-74.066162,879.730225,534.393311,0.947357
-75.988770,874.237061,533.752441,0.948099
-75.164795,872.039795,540.893555,0.948851
-62.713623,877.258301,536.956787,0.949623
-68.389893,881.378174,535.766602,0.950378
-65.643311,873.687744,529.083252,0.951120
-66.741943,887.512207,535.217285,0.951873
-64.636230,870.483398,535.858154,0.952615
-59.600830,872.589111,527.618408,0.953365
-59.692383,863.342285,535.308838,0.954199
-67.108154,866.363525,531.372070,0.955051
-61.981201,864.349365,557.922363,0.955794
-69.030762,866.363525,535.217285,0.956537
-64.361572,850.341797,530.639648,0.957280
-63.262939,860.229492,532.836914,0.958023
-75.439453,863.800049,536.865234,0.958766
-72.052002,861.694336,536.956787,0.959509
-76.080322,861.328125,537.872314,0.960252
-75.439453,889.068604,541.625977,0.960995
-71.319580,864.166260,537.231445,0.961737
-71.411133,872.680664,540.435791,0.962479
-64.361572,866.088867,528.808594,0.963229
-71.777344,863.342285,529.083252,0.963972
-64.727783,860.321045,522.857666,0.964714
-65.277100,861.419678,526.519775,0.965456
-60.241699,859.771729,522.033691,0.966208
-57.678223,853.454590,494.110107,0.966951
-54.473877,854.553223,513.793945,0.967693
-50.811768,850.616455,512.329102,0.968436
-53.375244,857.940674,513.793945,0.969179
-55.389404,855.285645,515.167236,0.969922
-55.389404,852.905273,518.646240,0.970665
-46.417236,850.158691,516.998291,0.971407
-52.001953,865.356445,525.970459,0.972149
-52.459717,845.947266,526.336670,0.972902
-47.424316,843.566895,514.984131,0.973645
-57.952881,843.292236,535.125732,0.974387
-59.967041,844.940186,518.646240,0.975140
-55.480957,838.348389,510.589600,0.975919
-57.220459,839.721680,505.187988,0.976723
-55.664062,842.376709,512.786865,0.977468
-50.079346,835.510254,505.371094,0.978210
-50.994873,836.883545,497.406006,0.978972
-53.833008,841.003418,491.455078,0.979715
-46.051025,842.193604,502.166748,0.980457
-49.438477,835.235596,506.378174,0.981200
-43.395996,828.002930,497.589111,0.981952
-40.100098,831.848145,504.913330,0.982688
-42.572021,826.995850,497.955322,0.983423
-45.959473,830.108643,496.948242,0.984157
-49.255371,829.833984,499.328613,0.984913
-49.255371,828.826904,493.652344,0.985655
-52.185059,831.939697,486.968994,0.986398
-53.833008,825.988770,496.490479,0.987204
-53.558350,825.439453,490.631104,0.987959
-50.445557,827.911377,490.447998,0.988706
-45.318604,830.200195,492.004395,0.989476
-44.860840,819.213867,497.039795,0.990221
-50.170898,823.059082,486.236572,0.990961
-50.720215,829.833984,497.772217,0.991702
-43.304443,826.171875,499.603271,0.992462
-41.839600,835.784912,493.011475,0.993227
-34.332275,832.305908,499.145508,0.993970
-36.621094,831.756592,507.934570,0.994712
-44.128418,830.108643,490.905762,0.995455
-44.769287,827.911377,495.758057,0.996197
-42.205811,835.235596,498.870850,0.996939
-47.790527,837.432861,503.448486,0.997681
-44.403076,836.151123,502.990723,0.998423
-55.572510,840.820312,506.561279,0.999165
-55.572510,839.080811,517.547607,0.999973
-55.297852,833.770752,513.061523,1.000747
-50.354004,842.834473,504.180908,1.001490
-47.332764,838.806152,517.181396,1.002232
-49.255371,841.094971,517.089844,1.002975
-52.734375,854.461670,514.068604,1.003717
-52.093506,848.876953,517.822266,1.004459
-47.973633,850.982666,522.949219,1.005202
-52.734375,849.700928,518.829346,1.005945
-51.544189,850.524902,509.765625,1.006687
-55.480957,851.165771,518.096924,1.007490
-47.698975,850.250244,522.125244,1.008235
-54.016113,853.271484,522.216797,1.008975
-52.734375,857.940674,522.125244,1.009791
-53.009033,863.983154,529.998779,1.010534
-54.290771,861.145020,535.217285,1.011297
-53.100586,859.680176,531.738281,1.012040
-43.487549,863.983154,532.012939,1.012782
-57.037354,856.018066,531.463623,1.013525
-53.558350,868.469238,538.879395,1.014267
-57.861328,872.863770,531.097412,1.015010
-58.227539,873.870850,533.020020,1.015752
-59.967041,866.455078,534.027100,1.016494
-58.410645,861.328125,535.400391,1.017235
-59.417725,859.863281,533.477783,1.017977
-63.446045,860.321045,523.132324,1.018718
-60.516357,859.222412,526.702881,1.019460
-56.579590,864.257812,522.674561,1.020202
-59.875488,862.152100,525.970459,1.020944
-59.509277,855.102539,514.160156,1.021686
-50.720215,858.306885,523.956299,1.022428
-55.664062,852.447510,517.639160,1.023172
-59.783936,859.588623,527.893066,1.023914
-61.248779,850.982666,517.913818,1.024655
-60.699463,855.102539,516.448975,1.025397
-54.016113,854.187012,517.913818,1.026147
-59.600830,854.461670,512.878418,1.026889
-58.868408,845.489502,515.808105,1.027748
-61.706543,852.264404,508.850098,1.028493
-54.565430,851.440430,521.118164,1.029249
-53.192139,846.038818,513.061523,1.029991
-49.438477,843.383789,524.780273,1.030807
-52.185059,848.327637,518.646240,1.031659
-50.354004,855.743408,527.343750,1.032419
-50.537109,849.060059,522.674561,1.033162
-51.452637,848.876953,526.153564,1.033904
-48.706055,849.792480,518.371582,1.034646
-46.508789,851.531982,518.646240,1.035398
-48.431396,851.074219,496.398926,1.036140
-47.973633,848.968506,516.632080,1.036882
-49.255371,848.602295,525.146484,1.037624
-52.276611,847.686768,523.773193,1.038376
-55.206299,850.158691,521.575928,1.039118
-53.283691,844.116211,519.927979,1.039860
-50.445557,846.496582,528.808594,1.040602
-47.607422,851.165771,531.646729,1.041354
-46.508789,852.905273,529.541016,1.042096
-45.684814,853.179932,533.203125,1.042838
-37.536621,856.842041,524.780273,1.043581
-41.473389,851.165771,528.625488,1.044335
-45.593262,851.898193,522.033691,1.045080
-40.557861,850.616455,522.949219,1.045822
-47.698975,862.243652,524.597168,1.046565
-50.170898,863.342285,529.541016,1.047319
-37.811279,858.123779,523.223877,1.048062
-44.494629,856.567383,521.667480,1.048898
-43.121338,855.834961,522.399902,1.049664
-45.867920,849.334717,519.836426,1.050454
-41.748047,848.327637,514.343262,1.051198
-47.058105,850.341797,521.667480,1.051941
-44.128418,849.975586,521.026611,1.052683
-51.910400,845.214844,515.533447,1.053437
-45.227051,847.686768,516.998291,1.054180
-41.564941,838.439941,510.040283,1.055045
-42.114258,847.045898,512.237549,1.055804
-48.889160,846.130371,507.934570,1.056553
-53.833008,847.686768,508.117676,1.057325
-46.783447,845.947266,513.244629,1.058068
-43.212891,839.904785,535.125732,1.058811
-44.311523,845.764160,515.441895,1.059554
-41.198730,822.692871,513.244629,1.060297
-47.698975,849.334717,508.758545,1.061039
-47.515869,836.242676,509.124756,1.061781
-45.410156,842.285156,508.209229,1.062530
-46.966553,838.256836,506.744385,1.063290
-44.219971,838.623047,512.420654,1.064073
-51.086426,839.904785,505.645752,1.064841
-46.966553,844.207764,512.786865,1.065586
-43.487549,835.693359,518.005371,1.066329
-40.649414,832.122803,518.737793,1.067072
-43.212891,838.256836,513.885498,1.067843
-23.986816,837.158203,508.209229,1.068611
-40.466309,839.630127,507.659912,1.069370
-41.198730,834.320068,505.371094,1.070118
-45.684814,836.700439,510.040283,1.070889
-35.522461,832.122803,516.357422,1.071635
-40.191650,836.517334,509.948730,1.072378
-38.543701,831.481934,512.512207,1.073118
-37.261963,842.285156,507.110596,1.073863
-32.501221,834.320068,502.624512,1.074607
-41.656494,830.474854,508.941650,1.075349
-42.388916,824.340820,508.758545,1.076091
-43.487549,829.650879,503.448486,1.076834
-41.564941,829.284668,500.885010,1.077576
-40.649414,824.340820,511.322021,1.078319
-36.895752,833.129883,503.997803,1.079061
-38.818359,824.707031,509.857178,1.079817
-41.656494,832.305908,508.483887,1.080560
-40.008545,830.474854,511.779785,1.081302
-36.895752,834.503174,512.969971,1.082044
-40.008545,833.129883,518.188477,1.082738
-35.797119,846.405029,522.216797,1.083480
-40.191650,836.151123,522.857666,1.084223
-40.191650,840.179443,527.160645,1.084965
-40.191650,845.489502,532.745361,1.085719
-50.170898,844.299316,527.343750,1.086502
-46.051025,844.757080,548.034668,1.087245
-43.212891,850.341797,535.308838,1.087988
-44.769287,842.468262,534.301758,1.088731
-35.064697,853.454590,545.379639,1.089473
-36.163330,846.221924,536.773682,1.090215
-45.318604,852.081299,532.562256,1.090957
-38.726807,853.637695,535.308838,1.091700
-33.782959,852.813721,535.217285,1.092443
-41.839600,851.348877,532.928467,1.093185
-41.839600,854.095459,533.660889,1.093927
-38.726807,853.637695,534.942627,1.094670
-46.142578,850.341797,535.125732,1.095412
-45.776367,846.679688,535.675049,1.096154
-39.825439,848.968506,536.315918,1.096960
-41.015625,854.461670,537.139893,1.097704
-47.149658,849.884033,533.477783,1.098446
-41.839600,846.679688,527.343750,1.099210
-44.586182,853.820801,525.604248,1.099966
-38.452148,842.742920,526.519775,1.100722
-47.515869,841.552734,525.695801,1.101572
-42.572021,845.581055,521.301270,1.102316
-43.579102,843.109131,511.230469,1.103058
-47.790527,835.693359,513.885498,1.103817
-40.374756,837.707520,516.448975,1.104560
-38.726807,835.510254,513.153076,1.105303
-38.452148,843.292236,512.969971,1.106045
-39.550781,838.989258,514.251709,1.106798
-38.635254,831.024170,511.230469,1.107540
-33.508301,841.644287,516.540527,1.108282
-39.642334,842.102051,513.610840,1.109025
-40.466309,839.080811,517.547607,1.109777
-38.635254,838.714600,521.850586,1.110519
-37.261963,838.623047,517.456055,1.111261
-66.009521,829.925537,516.357422,1.112003
-38.726807,834.686279,514.709473,1.112755
-44.677734,837.524414,513.977051,1.113498
-43.212891,829.467773,507.751465,1.114241
-33.966064,832.672119,506.103516,1.114983
-39.733887,826.446533,503.997803,1.115735
-46.417236,825.439453,498.229980,1.116477
-46.325684,825.439453,497.955322,1.117220
-50.354004,826.354980,501.068115,1.117962
-40.924072,827.362061,488.342285,1.118714
-45.318604,823.059082,498.870850,1.119458
-46.691895,818.023682,498.779297,1.120200
-33.966064,828.186035,498.046875,1.120947
-36.163330,830.566406,493.103027,1.121713
-38.726807,827.911377,493.194580,1.122484
-44.860840,828.094482,500.976562,1.123231
-46.508789,824.707031,497.589111,1.123974
-35.339355,831.207275,503.082275,1.124732
-43.579102,843.017578,508.209229,1.125475
-43.395996,835.418701,506.011963,1.126217
-40.374756,833.312988,506.835938,1.126959
-41.473389,838.714600,515.808105,1.127702
-33.782959,840.728760,515.991211,1.128444
-34.149170,847.778320,516.082764,1.129187
-36.437988,851.165771,518.005371,1.129929
-41.839600,851.898193,517.272949,1.130672
-44.677734,856.292725,529.266357,1.131414
-51.727295,843.383789,520.294189,1.132157
-45.867920,861.053467,527.801514,1.132899
-48.797607,855.285645,528.167725,1.133649
-47.058105,860.046387,532.196045,1.134392
-54.748535,850.158691,527.801514,1.135134
-54.290771,857.482910,533.935547,1.135877
-49.163818,852.813721,532.287598,1.136620
-53.283691,851.440430,534.942627,1.137360
-45.410156,858.123779,534.759521,1.138100
-50.628662,862.243652,534.393311,1.138861
-48.522949,867.919922,530.548096,1.139719
-50.445557,861.328125,532.196045,1.140480
-48.248291,862.060547,531.646729,1.141229
-49.896240,862.060547,533.386230,1.141998
-51.177979,871.398926,535.766602,1.142768
-58.319092,866.271973,532.745361,1.143512
-55.297852,867.095947,539.337158,1.144255
-54.016113,865.631104,538.879395,1.144997
-52.459717,869.934082,535.491943,1.145750
-57.861328,871.307373,536.041260,1.146493
-49.163818,872.589111,540.527344,1.147235
-59.509277,875.976562,543.457031,1.147978
-55.572510,882.110596,547.485352,1.148730
-52.459717,881.103516,540.710449,1.149472
-63.262939,873.138428,541.717529,1.150215
-61.981201,876.251221,548.583984,1.150957
-59.143066,880.096436,548.217773,1.151709
-55.938721,876.800537,542.633057,1.152451
-56.396484,878.173828,543.640137,1.153193
-60.424805,873.962402,540.252686,1.153935
-54.748535,876.892090,542.449951,1.154687
-58.868408,876.159668,544.006348,1.155430
-56.854248,876.525879,529.632568,1.156172
-56.304932,883.483887,529.449463,1.156914
-54.931641,874.053955,532.836914,1.157654
-55.206299,873.504639,533.843994,1.158418
-54.016113,859.588623,533.660889,1.159163
-53.649902,863.616943,531.280518,1.159906
-53.100586,862.335205,536.499023,1.160708
-53.833008,862.060547,530.548096,1.161453
-51.544189,863.067627,526.885986,1.162196
-54.382324,858.947754,521.850586,1.162938
-52.093506,862.976074,524.047852,1.163698
-55.206299,860.870361,526.153564,1.164441
-56.304932,862.335205,524.505615,1.165183
-54.290771,851.989746,518.737793,1.165925
-50.811768,854.370117,525.787354,1.166677
-54.016113,851.165771,523.773193,1.167420
-44.586182,853.912354,514.984131,1.168161
-53.833008,853.820801,517.913818,1.168903
-50.811768,850.891113,514.434814,1.169655
-45.867920,848.052979,512.786865,1.170397
-53.375244,850.982666,512.145996,1.171140
-46.234131,851.623535,506.378174,1.171882
-45.684814,843.383789,508.026123,1.172627
-45.227051,849.151611,492.370605,1.173362
-48.522949,846.221924,514.984131,1.174191
-53.833008,846.862793,516.174316,1.174928
-45.318604,850.433350,522.766113,1.175687
-50.720215,850.158691,516.998291,1.176430
-48.706055,844.665527,522.949219,1.177178
-50.537109,850.616455,518.737793,1.177943
-50.262451,844.024658,521.484375,1.178696
-47.973633,851.348877,525.878906,1.179439
-51.361084,845.581055,521.484375,1.180181
-50.079346,848.510742,518.371582,1.180923
-53.558350,850.982666,525.329590,1.181675
-48.980713,852.081299,528.808594,1.182417
-58.410645,846.313477,520.568848,1.183159
-56.396484,855.560303,525.512695,1.183901
-61.157227,851.898193,534.393311,1.184652
-58.868408,855.285645,527.984619,1.185395
-61.614990,860.687256,533.294678,1.186137
-63.903809,865.539551,536.773682,1.186879
-59.143066,860.504150,534.027100,1.187630
-56.304932,849.700928,534.851074,1.188372
-48.614502,862.884521,535.217285,1.189114
-54.565430,851.715088,536.865234,1.189857
-46.051025,854.461670,535.400391,1.190608
-45.227051,858.398438,537.597656,1.191351
-60.333252,860.321045,530.822754,1.192093
-56.671143,848.693848,540.161133,1.192835
-56.854248,854.553223,544.647217,1.193587
-59.783936,855.834961,534.667969,1.194332
-59.509277,848.876953,538.330078,1.195082
-54.382324,845.947266,539.703369,1.195829
-55.755615,847.045898,539.703369,1.196587
-54.931641,848.419189,540.252686,1.197335
-44.036865,847.137451,541.534424,1.198077
-46.691895,842.285156,536.865234,1.198820
-53.741455,843.933105,533.020020,1.199575
-51.269531,838.989258,531.005859,1.200317
-55.297852,834.411621,532.012939,1.201059
-50.720215,839.538574,531.646729,1.201801
-50.445557,834.136963,533.386230,1.202554
-48.614502,835.235596,523.040771,1.203329
-55.480957,822.692871,517.272949,1.204090
-45.959473,826.080322,515.808105,1.204838
-46.234131,818.939209,511.047363,1.205632
-48.522949,821.685791,512.420654,1.206379
-46.691895,843.566895,511.962891,1.207121
-38.269043,821.044922,513.061523,1.207863
-37.536621,817.657471,506.835938,1.208616
-35.064697,816.925049,510.314941,1.209357
-32.592773,820.495605,516.632080,1.210098
-29.571533,839.263916,514.984131,1.210838
-41.656494,815.917969,514.617920,1.211597
-40.008545,817.749023,511.322021,1.212342
-41.015625,812.438965,507.934570,1.213144
-40.924072,813.537598,502.990723,1.213889
-37.445068,806.121826,511.596680,1.214646
-33.782959,809.417725,509.216309,1.215445
-32.318115,810.607910,534.118652,1.216189
-28.564453,808.319092,509.948730,1.216931
-26.458740,806.854248,511.505127,1.217673
-39.642334,802.551270,522.491455,1.218415
-38.726807,802.368164,512.329102,1.219157
-32.135010,804.382324,516.174316,1.219899
-31.402588,799.255371,512.237549,1.220719
-32.501221,803.192139,502.349854,1.221478
-33.233643,797.149658,502.624512,1.222238
-34.240723,800.170898,505.279541,1.223029
-36.254883,802.093506,504.455566,1.223785
-37.445068,794.586182,505.645752,1.224538
-38.177490,795.593262,504.547119,1.225291
-42.938232,796.875000,505.279541,1.226074
-35.705566,794.952393,510.131836,1.226832
-31.494141,799.072266,504.364014,1.227589
-32.409668,797.698975,509.033203,1.228344
-29.113770,798.522949,506.011963,1.229090
-25.726318,802.734375,506.011963,1.229833
-24.627686,809.967041,506.835938,1.230575
-31.402588,806.121826,502.716064,1.231318
-26.367188,800.445557,513.244629,1.232059
-23.803711,808.044434,510.406494,1.232802
-27.191162,801.361084,508.392334,1.233544
-26.092529,797.607422,510.498047,1.234286
-30.853271,803.466797,512.054443,1.235028
-32.958984,799.987793,502.532959,1.235770
-39.550781,800.628662,507.751465,1.236512
-37.994385,806.030273,505.920410,1.237254
-29.846191,805.938721,511.413574,1.237996
-40.283203,811.706543,504.821777,1.238739
-36.804199,814.453125,510.040283,1.239482
-37.445068,806.762695,502.990723,1.240224
-40.374756,802.917480,506.927490,1.240966
-37.719727,806.854248,509.490967,1.241733
-33.782959,806.396484,504.180908,1.242476
-34.332275,810.607910,502.532959,1.243218
-30.578613,817.291260,511.322021,1.243960
-32.775879,808.044434,512.145996,1.244765
-41.656494,815.002441,500.610352,1.245510
-38.543701,810.241699,508.209229,1.246252
-34.881592,809.234619,509.307861,1.246996
-32.592773,813.262939,510.589600,1.247835
-34.240723,812.438965,535.217285,1.248578
-40.008545,816.101074,510.040283,1.249321
-34.973145,813.995361,512.054443,1.250093
-39.184570,823.516846,518.188477,1.250841
-37.353516,822.143555,523.498535,1.251584
-41.381836,826.354980,496.490479,1.252326
-44.769287,824.066162,519.012451,1.253069
-43.121338,820.220947,522.033691,1.253811
-53.100586,825.347900,522.399902,1.254553
-51.269531,830.200195,529.541016,1.255300
-55.297852,832.489014,526.519775,1.256091
-57.037354,842.193604,531.188965,1.256834
-52.185059,840.270996,532.012939,1.257576
-54.290771,840.179443,537.963867,1.258318
-53.192139,833.312988,530.822754,1.259073
-50.537109,840.911865,529.449463,1.259815
-57.495117,841.827393,532.836914,1.260556
-51.727295,844.390869,532.653809,1.261298
-49.804688,841.094971,535.217285,1.262040
-53.924561,832.214355,537.048340,1.262783
-40.832520,842.742920,531.555176,1.263525
-47.241211,842.376709,538.696289,1.264267
-43.304443,845.123291,545.471191,1.265010
-57.220459,842.468262,544.097900,1.265752
-50.720215,851.531982,545.562744,1.266494
-53.924561,845.672607,541.351318,1.267236
-56.396484,847.412109,542.541504,1.267990
-51.910400,847.595215,541.076660,1.268748
-61.889648,844.024658,541.168213,1.269523
-54.748535,843.292236,536.224365,1.270270
-59.051514,847.686768,538.787842,1.271013
-42.846680,851.531982,548.675537,1.271755
-50.079346,858.398438,547.760010,1.272497
-47.515869,856.109619,530.273438,1.273239
-67.565918,838.806152,526.794434,1.273981
-65.277100,822.967529,514.068604,1.274716
-73.150635,822.052002,506.561279,1.275511
-75.073242,823.883057,491.638184,1.276260
-75.897217,822.601318,490.905762,1.277011
-82.305908,822.601318,487.426758,1.277782
-92.285156,816.284180,473.510742,1.278524
-89.447021,797.607422,478.454590,1.279267
-78.186035,813.720703,475.524902,1.280009
-69.213867,813.720703,487.518311,1.280752
-65.643311,822.143555,514.892578,1.281494
-54.473877,812.164307,504.547119,1.282236
-52.001953,815.826416,511.047363,1.282990
-59.875488,819.580078,514.526367,1.283730
-62.072754,822.143555,503.448486,1.284470
-65.277100,823.974609,504.638672,1.285228
-68.115234,822.235107,511.596680,1.285974
-74.615479,823.516846,518.463135,1.286717
-67.565918,825.714111,517.181396,1.287459
-68.664551,826.995850,523.590088,1.288201
-73.883057,820.953369,516.815186,1.288943
-64.819336,830.841064,519.836426,1.289805
-60.516357,835.052490,515.441895,1.290550
-58.593750,834.869385,506.195068,1.291292
-50.628662,840.820312,509.948730,1.292048
-46.600342,843.017578,505.462646,1.292790
-40.924072,844.207764,510.681152,1.293532
-48.248291,838.714600,507.659912,1.294274
-47.241211,838.256836,511.871338,1.295026
-53.192139,841.918945,508.392334,1.295769
-58.685303,836.151123,509.857178,1.296511
-58.319092,837.341309,519.378662,1.297253
-56.304932,845.764160,517.547607,1.298004
-51.818848,847.869873,518.371582,1.298754
-48.889160,848.144531,515.808105,1.299499
-51.086426,848.144531,520.751953,1.300244
-46.234131,847.686768,527.984619,1.300988
-46.875000,851.074219,523.773193,1.301723
-67.565918,851.715088,528.259277,1.302457
-48.248291,853.912354,523.498535,1.303191
-52.368164,857.025146,527.435303,1.303933
-53.009033,862.060547,537.689209,1.304676
-52.459717,854.278564,532.012939,1.305417
-56.579590,858.398438,529.632568,1.306160
-52.368164,864.349365,528.625488,1.306913
-51.177979,859.039307,525.054932,1.307736
-46.600342,854.003906,527.252197,1.308480
-54.107666,850.982666,518.463135,1.309222
-44.952393,850.433350,521.118164,1.309976
-40.008545,842.651367,525.512695,1.310718
-36.437988,849.975586,527.343750,1.311461
-37.261963,850.799561,515.167236,1.312239
-37.261963,845.855713,513.336182,1.312991
-37.719727,847.320557,513.336182,1.313734
-37.994385,845.672607,511.138916,1.314476
-36.346436,836.517334,510.955811,1.315217
-40.100098,839.447021,510.314941,1.315969
-46.508789,839.630127,515.167236,1.316711
-39.184570,841.918945,509.765625,1.317454
-45.318604,837.432861,513.977051,1.318196
-49.346924,835.144043,509.307861,1.318948
-46.051025,840.820312,511.779785,1.319691
-40.008545,842.834473,521.026611,1.320524
-37.811279,849.700928,521.118164,1.321268
-32.958984,853.179932,518.829346,1.322022
-34.881592,847.412109,515.441895,1.322764
-36.163330,845.764160,518.829346,1.323507
-31.036377,848.327637,514.160156,1.324249
-30.395508,842.376709,516.448975,1.325001
-37.811279,847.595215,520.660400,1.325743
-38.726807,851.898193,522.857666,1.326485
-37.078857,850.799561,516.815186,1.327227
-39.093018,845.672607,509.399414,1.327979
-44.403076,849.334717,517.456055,1.328767
-44.219971,847.961426,523.315430,1.329510
-40.191650,844.207764,524.414062,1.330252
-39.001465,848.236084,522.583008,1.331005
-35.614014,849.151611,531.372070,1.331748
-32.501221,853.546143,528.808594,1.332490
-34.240723,849.151611,531.280518,1.333232
-33.782959,862.152100,528.717041,1.333983
-29.571533,860.046387,520.660400,1.334726
-33.782959,858.489990,524.871826,1.335468
-34.423828,857.482910,522.583008,1.336211
-65.734863,858.398438,520.751953,1.336962
-45.501709,859.039307,520.568848,1.337705
-42.205811,855.377197,516.082764,1.338473
-36.712646,861.145020,521.392822,1.339215
-45.227051,869.201660,530.548096,1.339969
-41.931152,858.581543,527.343750,1.340711
-38.269043,859.863281,527.343750,1.341463
-37.078857,852.539062,520.843506,1.342210
-39.367676,859.588623,526.336670,1.342991
-46.875000,861.053467,517.456055,1.343739
-53.100586,867.004395,526.794434,1.344482
-55.847168,860.046387,527.526855,1.345224
-47.149658,863.342285,521.484375,1.345979
-64.178467,855.377197,520.843506,1.346723
-57.952881,865.081787,525.512695,1.347465
-58.044434,860.961914,521.209717,1.348253
-60.791016,861.511230,518.188477,1.349034
-58.502197,858.856201,517.547607,1.349827
-53.466797,859.497070,520.843506,1.350596
-61.431885,856.292725,520.385742,1.351339
-57.769775,855.651855,520.385742,1.352104
-59.051514,852.081299,512.786865,1.352852
-58.044434,854.003906,510.406494,1.353593
-59.783936,853.363037,511.322021,1.354335
-59.783936,856.567383,515.625000,1.355087
-59.234619,853.820801,514.434814,1.355828
-60.699463,852.539062,515.350342,1.356568
-52.734375,852.355957,511.047363,1.357316
-54.382324,851.257324,538.787842,1.358075
-53.466797,855.926514,517.089844,1.358817
-55.480957,852.172852,519.836426,1.359559
-50.811768,849.700928,522.949219,1.360302
-55.389404,850.433350,515.991211,1.361054
-52.001953,850.616455,515.808105,1.361796
-53.009033,849.609375,513.793945,1.362538
-45.867920,865.264893,519.287109,1.363280
-55.572510,842.742920,513.610840,1.364032
-52.368164,845.489502,513.336182,1.364774
-45.135498,852.996826,513.702393,1.365517
-53.192139,841.735840,508.666992,1.366259
-45.684814,837.890625,509.582520,1.367011
-37.902832,851.806641,514.892578,1.367753
-43.029785,832.946777,507.110596,1.368495
-43.670654,843.475342,508.209229,1.369237
-41.931152,838.439941,506.561279,1.369989
-44.219971,837.524414,503.356934,1.370731
-40.832520,838.989258,502.258301,1.371473
-40.924072,837.890625,503.448486,1.372215
-44.403076,843.200684,511.322021,1.372975
-43.029785,837.707520,509.490967,1.373710
-36.621094,845.306396,511.596680,1.374443
-39.642334,842.926025,513.519287,1.375177
-40.100098,844.665527,512.329102,1.375933
-41.290283,846.313477,521.301270,1.376675
-44.036865,853.454590,520.751953,1.377492
-36.529541,855.377197,521.575928,1.378235
-37.170410,856.018066,524.871826,1.378988
-35.156250,856.292725,528.442383,1.379730
-39.093018,864.349365,530.822754,1.380472
-35.156250,865.814209,528.350830,1.381214
-39.642334,858.947754,537.506104,1.381963
-36.254883,862.701416,533.752441,1.382722
-35.339355,859.405518,537.689209,1.383465
-38.360596,859.771729,541.625977,1.384235
-35.980225,865.081787,536.865234,1.384980
-28.289795,870.941162,556.549072,1.385723
-32.867432,869.750977,535.675049,1.386467
-34.423828,889.434814,535.125732,1.387212
-44.311523,865.173340,532.012939,1.387956
-43.487549,864.257812,534.118652,1.388700
-40.832520,861.419678,560.668945,1.389445
-34.332275,864.074707,538.879395,1.390189
-33.508301,863.342285,540.527344,1.390933
-36.346436,866.363525,538.238525,1.391676
-31.860352,863.433838,535.583496,1.392420
-28.381348,863.983154,561.676025,1.393163
-31.036377,860.595703,536.315918,1.394013
-23.254395,864.349365,543.090820,1.394759
-1.190186,855.743408,539.978027,1.395503
-25.451660,854.095459,533.477783,1.396254
-21.606445,844.848633,524.597168,1.396989
-26.000977,855.377197,519.744873,1.397755
-25.177002,864.715576,526.428223,1.398538
-24.902344,849.700928,531.646729,1.399317
-14.190674,860.870361,532.745361,1.400060
-15.838623,860.321045,557.373047,1.400802
-20.141602,854.553223,533.569336,1.401544
-28.564453,844.573975,523.956299,1.402297
-40.740967,838.806152,519.470215,1.403040
-36.529541,842.102051,518.096924,1.403782
-40.008545,848.968506,515.167236,1.404525
-30.578613,851.989746,507.659912,1.405277
-33.508301,847.320557,497.772217,1.406019
-45.410156,841.461182,491.638184,1.406761
-43.670654,838.531494,482.025146,1.407503
-56.213379,836.700439,491.180420,1.408255
-55.664062,835.327148,502.166748,1.408998
-36.437988,838.165283,516.998291,1.409740
-30.303955,837.982178,520.111084,1.410509
-22.521973,840.637207,518.920898,1.411263
-16.754150,839.447021,518.188477,1.412006
-33.508301,837.524414,518.829346,1.412748
-39.001465,836.700439,517.089844,1.413492
-36.621094,834.960938,510.681152,1.414263
-31.677246,837.615967,507.751465,1.415015
-35.705566,830.383301,505.828857,1.415784
-36.895752,833.312988,513.061523,1.416528
-35.980225,837.890625,510.314941,1.417288
-40.557861,834.686279,510.589600,1.418032
-31.860352,842.010498,512.603760,1.418834
-33.142090,845.123291,509.857178,1.419579
-28.015137,847.778320,522.857666,1.420335
-29.571533,849.700928,518.646240,1.421078
-39.459229,858.306885,518.188477,1.421853
-31.036377,850.433350,524.322510,1.422610
-36.895752,844.116211,529.174805,1.423387
-51.269531,845.031738,526.885986,1.424158
-39.825439,856.201172,526.794434,1.424903
-32.318115,842.559814,526.977539,1.425646
-32.135010,850.250244,526.062012,1.426408
-27.191162,854.919434,533.569336,1.427151
-30.212402,851.165771,528.717041,1.427893
-21.881104,858.215332,533.935547,1.428635
-26.550293,854.003906,529.815674,1.429385
-27.374268,863.342285,536.590576,1.430126
-29.296875,861.694336,546.020508,1.430923
-29.663086,865.264893,539.886475,1.431671
-23.803711,859.405518,541.351318,1.432430
-27.465820,873.046875,542.266846,1.433174
-31.127930,869.018555,546.844482,1.433918
-35.156250,868.927002,552.337646,1.434662
-34.515381,869.842529,543.548584,1.435416
-42.755127,875.610352,552.978516,1.436160
-37.445068,867.004395,555.175781,1.436904
-46.325684,867.279053,544.647217,1.437648
-39.184570,880.371094,547.302246,1.438401
-34.698486,875.976562,542.816162,1.439145
-34.606934,866.821289,549.133301,1.439888
-28.656006,874.420166,548.400879,1.440632
-27.099609,876.251221,543.365479,1.441385
-28.106689,870.574951,553.344727,1.442129
-30.761719,868.103027,555.816650,1.442872
-34.790039,870.117188,545.379639,1.443616
-29.754639,867.462158,551.239014,1.444370
-34.057617,869.201660,547.210693,1.445113
-39.276123,860.687256,550.689697,1.445857
-52.185059,859.588623,545.013428,1.446634
-51.910400,857.757568,536.499023,1.447390
-65.277100,866.088867,530.548096,1.448135
-59.417725,862.060547,532.745361,1.448879
-69.854736,860.321045,531.280518,1.449623
-75.531006,860.229492,526.153564,1.450376
-62.805176,852.355957,514.617920,1.451121
-73.883057,856.933594,511.230469,1.451864
-70.037842,851.806641,515.167236,1.452608
-59.783936,852.081299,523.498535,1.453287
-59.692383,854.644775,524.047852,1.454031
-56.945801,856.475830,527.893066,1.454775
-54.931641,854.644775,521.942139,1.455519
-55.480957,850.799561,517.547607,1.456271
-58.135986,845.947266,520.385742,1.457015
-54.748535,842.285156,521.392822,1.457759
-57.952881,838.165283,519.378662,1.458503
-59.692383,830.291748,509.857178,1.459259
-54.473877,832.214355,503.173828,1.460053
-58.868408,828.918457,503.723145,1.460797
-52.093506,842.559814,498.596191,1.461541
-55.206299,829.742432,501.800537,1.462295
-53.558350,820.587158,507.568359,1.463041
-45.501709,824.890137,500.610352,1.463785
-41.381836,822.967529,500.793457,1.464529
-48.614502,826.538086,499.969482,1.465284
-46.875000,824.798584,496.856689,1.466029
-42.938232,826.721191,500.793457,1.466773
-48.522949,834.960938,500.885010,1.467685
-45.867920,823.699951,502.899170,1.468429
-42.205811,828.002930,509.948730,1.469167
-35.705566,828.552246,512.145996,1.469902
-37.628174,836.059570,508.209229,1.470664
-35.980225,839.630127,510.406494,1.471408
-27.099609,834.320068,510.589600,1.472151
-25.085449,835.235596,516.540527,1.472893
-23.437500,834.869385,514.068604,1.473646
-22.979736,837.158203,517.456055,1.474389
-19.409180,835.876465,512.603760,1.475131
-24.169922,841.827393,519.378662,1.475873
-22.430420,833.221436,511.505127,1.476620
-22.247314,832.214355,510.589600,1.477363
-24.993896,834.045410,518.280029,1.478105
-23.162842,830.566406,515.258789,1.478847
-29.479980,832.763672,506.835938,1.479590
-30.761719,831.848145,502.349854,1.480333
-28.472900,833.404541,499.145508,1.481075
-29.022217,837.524414,495.574951,1.481818
-32.135010,835.968018,513.153076,1.482561
-20.965576,830.841064,494.018555,1.483313
-25.726318,837.066650,492.828369,1.484057
-24.169922,838.531494,491.363525,1.484800
-29.754639,837.341309,503.631592,1.485542
-24.627686,839.447021,508.117676,1.486295
-28.930664,841.094971,505.462646,1.487040
-27.557373,841.644287,517.089844,1.487790
-29.205322,841.827393,515.167236,1.488538
-26.367188,843.475342,512.329102,1.489331
-21.881104,847.045898,518.646240,1.490077
-27.191162,846.221924,526.977539,1.490866
-24.169922,847.412109,520.111084,1.491611
-32.775879,847.137451,520.568848,1.492354
-28.564453,846.038818,523.956299,1.493148
-14.465332,850.250244,525.604248,1.493895
-24.536133,852.539062,537.689209,1.494638
-23.254395,856.750488,544.464111,1.495412
-23.529053,851.623535,541.900635,1.496167
-32.867432,845.947266,529.449463,1.496917
-27.648926,850.982666,525.512695,1.497695
-43.853760,847.869873,521.118164,1.498444
-44.219971,850.341797,493.743896,1.499187
-45.410156,856.567383,514.343262,1.499929
-53.741455,851.440430,509.033203,1.500672
-44.769287,840.362549,507.476807,1.501419
-47.058105,847.595215,514.160156,1.502205
-49.621582,852.539062,511.047363,1.502949
-37.353516,849.609375,520.202637,1.503690
-35.339355,852.905273,526.885986,1.504448
-35.430908,852.172852,521.484375,1.505194
-28.930664,854.461670,526.245117,1.505939
-33.966064,848.876953,530.364990,1.506684
-37.628174,848.693848,531.646729,1.507428
-42.755127,850.891113,528.991699,1.508173
-44.036865,849.792480,526.885986,1.508917
-47.973633,850.982666,537.414551,1.509687
-49.896240,853.820801,536.682129,1.510432
-51.544189,848.602295,535.125732,1.511175
-52.825928,853.088379,528.076172,1.511919
-45.959473,852.264404,530.914307,1.512663
-52.825928,847.686768,531.188965,1.513407
-49.530029,852.447510,536.682129,1.514151
-39.276123,858.581543,526.062012,1.514895
-51.269531,846.038818,525.512695,1.515640
-55.480957,845.764160,520.568848,1.516384
-59.143066,843.292236,509.857178,1.517128
-57.586670,844.116211,511.779785,1.517871
-57.861328,838.989258,516.632080,1.518621
-45.410156,834.320068,510.772705,1.519365
-50.994873,834.320068,508.941650,1.520110
-59.509277,835.968018,503.906250,1.520854
-52.459717,829.101562,506.286621,1.521598
-60.699463,828.002930,506.195068,1.522342
-59.692383,836.517334,510.040283,1.523086
-53.192139,830.749512,511.322021,1.523830
-60.241699,836.608887,512.054443,1.524584
-54.473877,832.763672,506.561279,1.525328
-68.572998,830.657959,503.082275,1.526073
-62.530518,829.650879,510.772705,1.526816
-68.664551,829.376221,509.490967,1.527594
-63.079834,825.164795,513.153076,1.528431
-66.925049,827.178955,505.828857,1.529178
-66.375732,831.390381,504.364014,1.529922
-62.072754,839.996338,502.807617,1.530682
-57.037354,839.813232,493.560791,1.531426
-61.614990,834.594727,503.082275,1.532170
-59.783936,831.573486,499.145508,1.532915
-54.382324,832.397461,508.850098,1.533660
-60.974121,825.622559,506.469727,1.534404
-51.452637,832.031250,497.955322,1.535148
-56.396484,835.968018,503.082275,1.535897
-52.459717,836.975098,504.272461,1.536641
-51.452637,839.538574,500.518799,1.537385
-54.565430,840.820312,504.547119,1.538182
-53.741455,835.784912,500.976562,1.538927
-51.818848,832.763672,503.448486,1.539672
-47.058105,837.524414,497.497559,1.540500
-51.361084,821.685791,495.300293,1.541236
-54.931641,826.171875,496.673584,1.541970
-56.671143,824.157715,491.180420,1.542736
-56.854248,822.967529,515.441895,1.543480
-42.846680,842.926025,504.730225,1.544222
-55.297852,834.869385,495.849609,1.544965
-43.762207,830.566406,500.885010,1.545718
-50.628662,834.228516,490.264893,1.546461
-56.488037,831.756592,495.025635,1.547203
-46.234131,841.918945,504.821777,1.547945
-47.515869,839.355469,498.138428,1.548697
-43.945312,837.158203,499.237061,1.549440
-44.860840,835.418701,499.694824,1.550182
-49.163818,838.531494,501.800537,1.550925
-48.248291,832.855225,496.948242,1.551677
-49.255371,848.510742,511.413574,1.552419
-48.522949,846.405029,508.117676,1.553195
-41.290283,847.320557,517.822266,1.553939
-46.508789,850.067139,515.258789,1.554692
-44.128418,846.313477,511.962891,1.555434
-43.579102,845.397949,515.441895,1.556177
-48.614502,840.911865,509.857178,1.556919
-43.579102,845.214844,517.181396,1.557670
-42.205811,846.862793,514.251709,1.558414
-44.860840,850.067139,504.455566,1.559156
-47.149658,849.700928,506.378174,1.559899
-45.318604,853.454590,508.026123,1.560652
-45.135498,848.052979,514.892578,1.561403
-42.938232,844.757080,512.145996,1.562152
-45.959473,838.348389,508.392334,1.562924
-42.663574,848.602295,511.871338,1.563692
-32.226562,851.348877,520.294189,1.564436
-45.776367,846.130371,517.272949,1.565179
-44.952393,852.722168,521.118164,1.565922
-44.403076,852.264404,525.512695,1.566674
-43.212891,856.475830,526.245117,1.567417
-48.156738,861.877441,523.590088,1.568247
-48.156738,858.398438,531.188965,1.568996
-58.044434,859.039307,529.724121,1.569777
-43.212891,866.271973,535.034180,1.570548
-44.677734,864.349365,532.928467,1.571291
-54.016113,863.891602,530.090332,1.572033
-52.093506,866.729736,532.196045,1.572808
-53.009033,862.152100,535.675049,1.573566
-57.403564,863.250732,531.005859,1.574321
-49.346924,857.666016,532.745361,1.575110
-52.917480,856.750488,524.322510,1.575890
-45.593262,859.130859,523.773193,1.576644
-44.128418,855.743408,519.744873,1.577440
-43.579102,854.095459,519.195557,1.578207
-38.452148,851.623535,515.167236,1.579003
-43.395996,844.757080,510.223389,1.579833
-39.184570,843.200684,507.843018,1.580594
-41.290283,832.672119,507.110596,1.581354
-37.719727,842.376709,499.053955,1.582123
-38.635254,838.989258,498.962402,1.583004
-31.311035,832.397461,500.427246,1.583823
-37.170410,840.270996,503.265381,1.584625
-39.642334,831.939697,502.899170,1.585412
-37.170410,830.017090,497.039795,1.586170
-44.860840,825.073242,499.603271,1.586971
-32.775879,828.735352,496.582031,1.587737
-33.142090,820.770264,493.011475,1.588480
-32.318115,821.411133,491.729736,1.589241
-26.733398,821.777344,495.758057,1.589984
-30.487061,823.333740,498.229980,1.590738
-23.254395,814.544678,489.257812,1.591481
-28.839111,816.558838,486.236572,1.592224
-34.423828,810.424805,484.130859,1.592967
-33.966064,812.805176,493.927002,1.593720
-28.289795,813.262939,514.801025,1.594463
-29.663086,822.052002,492.004395,1.595206
-30.395508,818.664551,487.792969,1.596055
-32.226562,817.565918,481.109619,1.596814
-27.099609,812.255859,491.180420,1.597558
-30.670166,816.284180,490.722656,1.598300
-28.747559,817.199707,490.081787,1.599043
-18.859863,819.763184,493.286133,1.599796
-21.423340,825.622559,489.807129,1.600539
-22.796631,834.503174,498.321533,1.601281
-17.761230,825.897217,497.314453,1.602024
-27.099609,830.474854,498.596191,1.602777
-25.726318,834.869385,506.469727,1.603520
-24.902344,828.552246,497.955322,1.604262
-21.697998,826.446533,501.159668,1.605004
-23.162842,839.721680,503.173828,1.605754
-24.810791,840.728760,506.011963,1.606519
-27.557373,843.383789,512.237549,1.607267
-30.578613,842.285156,510.955811,1.608051
-25.085449,847.229004,515.533447,1.608796
-23.529053,842.559814,514.068604,1.609540
-22.613525,845.123291,512.329102,1.610284
-27.374268,831.848145,509.765625,1.611030
-28.472900,839.996338,504.638672,1.611774
-27.099609,843.475342,512.145996,1.612518
-28.198242,841.552734,505.096436,1.613262
-28.472900,832.946777,507.843018,1.614006
-27.191162,836.334229,503.082275,1.614843
-29.846191,836.425781,506.469727,1.615638
-30.578613,830.749512,507.110596,1.616381
-29.022217,836.151123,506.011963,1.617139
-29.571533,840.179443,505.096436,1.617882
-20.233154,844.116211,509.765625,1.618625
-28.930664,836.242676,508.026123,1.619367
-26.275635,838.165283,499.969482,1.620122
-28.839111,838.348389,498.413086,1.620865
-22.247314,847.045898,513.702393,1.621608
-19.866943,842.285156,516.448975,1.622351
-18.951416,835.693359,507.202148,1.623105
-17.669678,836.425781,513.610840,1.623847
-29.937744,834.045410,508.209229,1.624590
-17.120361,836.883545,510.681152,1.625354
-18.493652,830.200195,514.434814,1.626110
-18.859863,835.418701,513.610840,1.626854
-17.578125,830.383301,508.392334,1.627597
-14.648438,831.115723,503.723145,1.628339
-16.204834,831.481934,508.483887,1.629091
-14.648438,826.263428,497.406006,1.629835
-8.880615,831.756592,501.983643,1.630577
-5.950928,832.031250,498.779297,1.631319
-3.845215,834.960938,502.166748,1.632094
5.401611,834.136963,510.406494,1.632840
2.655029,834.411621,503.906250,1.633590
-0.640869,835.327148,503.631592,1.634340
4.486084,834.960938,500.335693,1.635116
-0.091553,843.292236,499.053955,1.635860
3.936768,843.109131,506.011963,1.636603
0.366211,844.299316,514.892578,1.637346
1.556396,845.947266,512.878418,1.638098
-1.007080,846.954346,513.153076,1.638841
3.021240,852.081299,507.110596,1.639583
10.894775,856.292725,507.293701,1.640326
13.916016,847.869873,507.568359,1.641078
6.317139,859.954834,493.469238,1.641820
-0.457764,864.074707,514.892578,1.642565
-1.556396,855.102539,520.202637,1.643310
-1.007080,858.306885,537.872314,1.644086
-11.260986,856.475830,513.793945,1.644842
-19.409180,854.919434,522.583008,1.645591
-17.486572,859.680176,515.991211,1.646363
-24.536133,862.335205,526.245117,1.647136
-24.536133,864.990234,525.238037,1.647881
-23.254395,872.222900,528.076172,1.648623
-33.050537,863.067627,524.963379,1.649366
-30.487061,860.870361,528.259277,1.650119
-33.142090,863.067627,519.653320,1.650860
-35.797119,850.524902,520.019531,1.651604
-37.261963,860.778809,515.899658,1.652355
-44.403076,858.306885,512.786865,1.653112
-35.888672,857.116699,513.336182,1.653857
-39.276123,853.271484,509.490967,1.654600
-40.008545,859.771729,494.293213,1.655345
-40.466309,861.877441,498.504639,1.656099
-38.269043,857.391357,493.194580,1.656843
-37.994385,861.419678,497.131348,1.657587
-44.677734,850.158691,502.166748,1.658331
-47.058105,846.130371,500.518799,1.659085
-58.319092,845.764160,504.089355,1.659830
-61.798096,846.588135,497.314453,1.660574
-62.988281,848.052979,498.413086,1.661318
-68.664551,854.644775,487.701416,1.662078
-71.685791,852.996826,489.349365,1.662860
-63.262939,858.215332,496.215820,1.663608
-72.875977,850.250244,491.180420,1.664342
-48.522949,853.820801,496.490479,1.665105
-67.565918,849.884033,493.286133,1.665849
-67.382812,840.911865,486.419678,1.666593
-63.995361,847.961426,492.736816,1.667338
-59.051514,847.320557,491.821289,1.668092
-57.586670,850.799561,490.539551,1.668837
-48.614502,851.257324,472.229004,1.669581
-52.093506,851.715088,476.898193,1.670325
-61.614990,866.821289,487.518311,1.671079
-60.699463,846.221924,482.666016,1.671823
-65.002441,856.109619,488.800049,1.672567
-66.925049,853.088379,499.786377,1.673311
-63.171387,858.581543,494.750977,1.674064
-67.932129,881.103516,502.258301,1.674808
-55.297852,865.264893,509.674072,1.675552
-64.453125,862.701416,516.082764,1.676296
-66.925049,864.624023,515.716553,1.677049
-58.227539,868.011475,515.533447,1.677794
-57.769775,871.856689,518.829346,1.678538
-58.319092,880.645752,519.836426,1.679282
-55.572510,874.969482,529.998779,1.680035
-54.016113,868.835449,530.181885,1.680779
-56.579590,873.046875,528.076172,1.681523
-47.790527,873.504639,523.681641,1.682267
-44.860840,878.540039,527.526855,1.683012
-40.649414,874.511719,515.441895,1.683747
-38.909912,881.195068,497.863770,1.684481
-41.839600,882.293701,521.759033,1.685276
-31.311035,873.413086,520.935059,1.686037
-33.142090,868.469238,515.258789,1.686782
-29.571533,877.716064,520.111084,1.687527
-29.663086,878.631592,521.118164,1.688369
-26.733398,875.335693,529.174805,1.689129
-22.430420,876.892090,523.040771,1.689873
-19.958496,867.645264,525.421143,1.690618
-23.712158,875.976562,527.801514,1.691362
-22.338867,873.321533,529.907227,1.692115
-13.549805,872.406006,531.005859,1.692860
-14.282227,877.349854,530.181885,1.693604
-14.099121,874.786377,524.139404,1.694348
-13.458252,873.962402,518.463135,1.695101
-3.845215,879.089355,525.787354,1.695845
-4.119873,873.413086,521.484375,1.696589
-2.014160,872.497559,528.076172,1.697333
-7.415771,874.237061,521.850586,1.698086
-3.021240,881.103516,527.801514,1.698830
1.556396,876.892090,531.097412,1.699573
7.965088,875.152588,530.456543,1.700317
13.275146,875.061035,537.689209,1.701072
12.359619,874.786377,537.689209,1.701860
6.225586,881.286621,531.646729,1.702605
14.923096,878.723145,535.125732,1.703349
17.395020,877.899170,537.872314,1.704101
11.627197,878.448486,543.273926,1.704845
10.620117,880.187988,539.886475,1.705589
13.641357,885.223389,541.534424,1.706333
13.092041,878.448486,542.083740,1.707078
20.141602,886.322021,541.259766,1.707812
18.218994,885.223389,539.611816,1.708555
17.852783,886.779785,539.154053,1.709293
16.845703,884.033203,541.809082,1.710102
22.338867,881.378174,547.302246,1.710852
21.972656,878.631592,546.661377,1.711594
27.008057,886.047363,550.872803,1.712336
21.423340,883.941650,548.492432,1.713092
27.648926,879.272461,537.597656,1.713835
21.057129,877.624512,545.104980,1.714577
25.451660,877.349854,545.471191,1.715320
24.719238,873.046875,547.668457,1.716072
27.465820,873.229980,543.823242,1.716814
26.550293,870.574951,535.675049,1.717557
42.938232,872.955322,538.696289,1.718300
25.085449,874.053955,535.858154,1.719054
26.733398,863.159180,535.034180,1.719797
30.029297,861.145020,529.724121,1.720540
30.303955,860.412598,537.963867,1.721351
27.832031,857.666016,524.139404,1.722211
31.677246,857.208252,524.871826,1.722988
25.360107,857.482910,520.385742,1.723739
28.472900,850.799561,521.209717,1.724481
24.902344,850.982666,532.012939,1.725253
24.444580,843.750000,524.597168,1.726039
25.543213,848.052979,518.920898,1.726795
23.803711,841.278076,515.075684,1.727557
25.268555,841.827393,524.322510,1.728300
18.035889,834.045410,515.167236,1.729042
17.761230,836.425781,517.272949,1.729785
13.824463,837.982178,516.082764,1.730528
10.437012,833.587646,514.984131,1.731348
9.155273,830.841064,514.251709,1.732092
5.859375,831.756592,509.033203,1.732835
9.155273,826.171875,508.300781,1.733577
11.627197,836.242676,508.117676,1.734320
13.275146,832.489014,508.758545,1.735062
17.761230,830.932617,500.610352,1.735804
10.528564,825.439453,495.666504,1.736547
10.162354,834.045410,503.814697,1.737289
11.810303,830.932617,502.075195,1.738031
15.014648,831.573486,502.349854,1.738774
12.359619,832.855225,504.272461,1.739516
18.035889,834.869385,504.913330,1.740258
18.676758,839.447021,497.589111,1.741001
19.592285,855.651855,499.877930,1.741743
24.627686,849.334717,508.666992,1.742486
46.783447,848.602295,507.568359,1.743229
23.162842,855.010986,506.744385,1.743972
28.656006,848.419189,501.983643,1.744714
25.909424,854.003906,511.047363,1.745464
18.402100,853.363037,502.990723,1.746207
40.557861,856.384277,508.117676,1.746949
28.106689,852.996826,505.645752,1.747692
21.240234,853.820801,505.279541,1.748435
27.282715,852.355957,517.822266,1.749177
22.247314,856.567383,515.533447,1.749919
25.817871,857.116699,521.484375,1.750662
14.190674,858.032227,514.617920,1.751404
8.148193,866.180420,531.646729,1.752156
9.796143,871.398926,536.865234,1.752899
-2.197266,871.673584,543.273926,1.753641
-19.409180,868.011475,541.168213,1.754383
-2.838135,869.934082,547.485352,1.755140
-10.070801,866.455078,547.027588,1.755881
-12.725830,887.054443,557.556152,1.756621
-16.571045,873.962402,549.407959,1.757377
-9.796143,866.638184,549.133301,1.758133
-6.866455,865.905762,542.724609,1.758876
-0.549316,866.455078,544.372559,1.759618
-10.437012,860.412598,537.689209,1.760362
-4.943848,855.560303,532.653809,1.761114
-1.739502,850.067139,522.491455,1.761856
-3.936768,850.433350,513.977051,1.762689
-5.218506,840.270996,503.906250,1.763433
-12.084961,840.362549,503.448486,1.764175
-7.415771,841.186523,495.849609,1.764918
-4.302979,822.143555,497.955322,1.765712
-9.613037,842.376709,501.800537,1.766457
-11.901855,837.341309,494.018555,1.767200
-11.993408,834.228516,514.343262,1.767942
-16.113281,839.996338,505.187988,1.768748
-15.563965,847.229004,504.547119,1.769531
-18.310547,837.066650,504.821777,1.770274
-22.338867,844.299316,514.526367,1.771017
-43.853760,832.214355,505.371094,1.771759
-28.289795,832.214355,500.610352,1.772512
-27.557373,833.404541,500.427246,1.773255
-26.550293,833.953857,503.631592,1.773997
-28.930664,832.214355,498.596191,1.774740
-26.641846,836.059570,493.286133,1.775494
-32.592773,824.798584,487.060547,1.776242
-30.395508,825.714111,490.814209,1.776984
-36.529541,826.812744,490.173340,1.777726
-30.303955,819.488525,485.046387,1.778478
-20.599365,828.094482,493.927002,1.779221
-21.697998,829.010010,499.237061,1.779964
-20.874023,833.496094,502.349854,1.780706
-21.881104,839.447021,496.215820,1.781450
-24.169922,834.228516,500.152588,1.782266
-25.360107,843.383789,510.223389,1.783026
-27.557373,836.608887,516.998291,1.783776
-32.684326,838.623047,503.356934,1.784544
-34.149170,843.933105,508.850098,1.785288
-34.790039,866.729736,508.941650,1.786031
-33.782959,849.243164,512.054443,1.786773
-31.585693,846.862793,519.287109,1.787526
-40.100098,849.609375,519.561768,1.788269
-38.177490,847.045898,519.012451,1.789011
-39.459229,858.398438,518.737793,1.789754
-34.332275,854.919434,513.427734,1.790517
-28.381348,851.989746,518.005371,1.791272
-20.599365,862.884521,522.674561,1.792021
-33.782959,851.257324,515.716553,1.792794
-30.670166,851.440430,515.808105,1.793559
-30.395508,845.214844,536.407471,1.794303
-32.775879,854.644775,513.610840,1.795045
-31.219482,851.440430,515.625000,1.795788
-38.909912,849.517822,514.892578,1.796541
-42.938232,852.722168,520.202637,1.797283
-42.205811,852.905273,528.900146,1.798026
-31.127930,853.820801,526.794434,1.798769
-37.353516,850.524902,527.252197,1.799538
-40.374756,850.433350,516.265869,1.800284
-35.614014,847.595215,524.139404,1.801027
-32.867432,825.073242,518.463135,1.801770
-31.402588,847.503662,517.089844,1.802529
-32.592773,841.918945,516.082764,1.803277
-31.402588,822.052002,511.962891,1.804046
-32.043457,838.806152,508.850098,1.804789
-6.958008,831.115723,505.737305,1.805543
-27.099609,829.467773,497.497559,1.806286
-21.606445,834.411621,508.026123,1.807029
-22.521973,825.805664,501.159668,1.807771
-24.627686,824.707031,492.828369,1.808524
-18.676758,825.531006,496.673584,1.809267
-19.958496,821.960449,470.581055,1.810010
-17.578125,813.446045,489.624023,1.810752
-21.697998,816.375732,490.814209,1.811504
-20.965576,819.122314,492.919922,1.812247
-18.402100,816.741943,497.314453,1.812990
-24.444580,806.488037,488.800049,1.813732
-18.493652,815.093994,490.081787,1.814484
-26.184082,812.164307,492.462158,1.815227
-20.141602,814.453125,488.891602,1.815970
-17.669678,807.586670,486.236572,1.816712
-21.240234,816.192627,483.947754,1.817465
-16.754150,807.861328,480.743408,1.818209
-14.465332,817.016602,483.398438,1.818951
-14.007568,807.678223,473.785400,1.819693
-14.923096,808.593750,489.807129,1.820445
-13.824463,817.932129,468.841553,1.821187
-13.366699,809.875488,493.011475,1.821930
-11.169434,812.438965,494.384766,1.822673
-7.049561,814.453125,487.335205,1.823424
-10.894775,817.199707,488.616943,1.824167
-12.542725,818.939209,492.736816,1.824909
-12.817383,818.481445,493.835449,1.825652
-6.774902,824.981689,492.919922,1.826399
-10.620117,819.122314,488.616943,1.827142
-8.880615,823.425293,483.398438,1.827885
-11.169434,827.728271,485.961914,1.828628
-15.930176,823.425293,486.877441,1.829376
-12.634277,817.749023,490.173340,1.830117
-9.338379,817.932129,493.377686,1.830880
-9.704590,820.037842,513.427734,1.831657
-13.549805,836.242676,501.342773,1.832414
-12.908936,835.784912,503.723145,1.833159
-9.246826,831.665039,504.730225,1.833903
-12.176514,831.115723,505.828857,1.834647
-13.732910,827.178955,507.293701,1.835400
-17.486572,829.284668,511.688232,1.836237
-16.937256,835.418701,510.498047,1.836981
-12.359619,833.129883,510.314941,1.837724
-12.268066,835.327148,509.033203,1.838479
-5.767822,840.728760,507.202148,1.839222
-8.239746,830.200195,505.828857,1.839965
-9.246826,837.707520,513.153076,1.840707
-15.106201,836.608887,508.026123,1.841458
-20.416260,830.749512,498.962402,1.842201
-12.908936,831.573486,508.575439,1.842943
-12.725830,836.517334,504.821777,1.843685
-12.451172,834.045410,503.997803,1.844438
-16.754150,834.869385,504.730225,1.845180
-16.845703,838.256836,505.279541,1.845923
-18.402100,842.102051,509.857178,1.846665
-18.035889,833.862305,512.237549,1.847417
-13.641357,841.278076,513.244629,1.848160
-9.521484,841.186523,522.857666,1.848902
-16.479492,841.827393,516.448975,1.849644
-24.993896,842.468262,503.814697,1.850397
-27.832031,843.566895,514.251709,1.851140
-27.648926,838.989258,514.892578,1.851882
-23.803711,850.341797,513.702393,1.852625
-23.620605,849.609375,512.145996,1.853387
-25.817871,844.940186,516.815186,1.854130
-18.310547,845.306396,514.068604,1.854873
-31.585693,845.031738,517.456055,1.855616
-20.599365,847.229004,514.801025,1.856386
-26.367188,847.412109,525.054932,1.857135
-26.733398,845.672607,525.329590,1.857921
-29.388428,854.370117,516.540527,1.858665
-28.015137,851.898193,512.878418,1.859429
-29.663086,846.862793,514.526367,1.860172
-33.233643,843.841553,517.364502,1.860915
-28.198242,854.003906,513.336182,1.861658
-25.177002,849.151611,516.632080,1.862410
-28.930664,846.130371,508.300781,1.863153
-25.726318,849.243164,511.047363,1.863895
-32.043457,845.489502,510.681152,1.864638
-25.360107,844.757080,508.850098,1.865390
-27.465820,843.750000,501.251221,1.866133
-34.881592,838.897705,502.441406,1.866904
-29.846191,842.834473,508.392334,1.867659
-29.571533,845.672607,512.054443,1.868442
-25.360107,843.566895,507.019043,1.869214
-24.536133,842.010498,510.772705,1.869959
-22.888184,842.010498,506.286621,1.870703
-31.127930,845.855713,510.223389,1.871476
-34.881592,838.623047,503.082275,1.872217
-32.775879,836.517334,506.835938,1.872957
-25.177002,841.644287,500.518799,1.873718
-22.613525,836.975098,505.554199,1.874476
-27.008057,829.101562,506.286621,1.875220
-28.198242,830.291748,503.448486,1.876031
-20.599365,831.848145,505.737305,1.876778
-22.155762,834.777832,502.075195,1.877536
-18.127441,845.489502,501.983643,1.878280
-15.472412,835.693359,495.849609,1.879024
-17.028809,838.714600,498.596191,1.879768
-22.247314,834.503174,504.364014,1.880523
-20.324707,841.552734,501.800537,1.881267
-17.486572,836.425781,502.349854,1.882011
-18.310547,838.439941,501.525879,1.882755
-23.620605,838.806152,506.103516,1.883508
-20.690918,845.672607,503.173828,1.884253
-17.486572,843.658447,512.695312,1.884997
-16.021729,839.538574,515.258789,1.885740
-17.028809,842.468262,511.230469,1.886493
-10.345459,843.200684,505.920410,1.887237
-9.613037,847.229004,513.336182,1.887982
-8.605957,853.820801,515.350342,1.888726
-18.127441,853.088379,514.343262,1.889478
-15.014648,860.137939,519.470215,1.890223
-22.521973,851.623535,517.639160,1.890967
-12.725830,861.602783,531.555176,1.891711
-7.781982,843.750000,537.506104,1.892465
-8.880615,865.997314,534.301758,1.893208
-13.458252,864.624023,527.069092,1.893952
-14.465332,864.624023,558.288574,1.894696
-12.817383,867.279053,547.393799,1.895448
-7.690430,872.680664,545.562744,1.896192
-17.028809,866.088867,540.618896,1.896934
-4.943848,875.061035,544.372559,1.897679
-10.620117,876.159668,547.119141,1.898439
-6.866455,872.863770,541.442871,1.899182
-2.655029,868.743896,544.647217,1.899925
-6.774902,872.039795,543.273926,1.900667
1.922607,867.187500,539.611816,1.901419
0.823975,864.074707,556.457520,1.902162
1.922607,870.849609,532.287598,1.902906
-5.035400,867.462158,526.977539,1.903648
-3.845215,868.377686,528.350830,1.904425
1.831055,862.060547,528.076172,1.905243
-3.479004,858.764648,521.118164,1.905986
-0.915527,861.602783,525.878906,1.906728
-5.126953,852.905273,522.766113,1.907482
-5.126953,860.412598,518.554688,1.908225
-6.500244,859.222412,524.230957,1.908968
2.746582,852.264404,516.265869,1.909858
-4.211426,850.067139,521.392822,1.910603
19.226074,854.278564,520.568848,1.911347
-0.732422,852.355957,520.202637,1.912091
5.035400,857.116699,523.223877,1.912834
-3.295898,856.018066,513.885498,1.913577
0.183105,845.306396,506.927490,1.914319
15.289307,846.221924,514.160156,1.915062
11.444092,845.123291,515.899658,1.915805
5.493164,852.264404,509.582520,1.916548
4.577637,846.862793,511.505127,1.917291
11.627197,853.729248,514.892578,1.918033
9.338379,842.285156,514.526367,1.918776
11.352539,847.778320,515.350342,1.919519
7.965088,850.341797,526.336670,1.920261
10.711670,843.383789,514.160156,1.921003
2.105713,851.715088,518.188477,1.921759
6.866455,855.926514,514.343262,1.922671
7.232666,853.546143,522.033691,1.923416
2.929688,850.891113,519.287109,1.924159
7.690430,854.278564,529.541016,1.924911
4.577637,850.158691,534.942627,1.925654
5.218506,848.052979,532.196045,1.926397
9.246826,857.208252,530.090332,1.927140
4.211426,864.257812,529.357910,1.927883
2.380371,856.292725,534.210205,1.928626
3.662109,857.482910,524.322510,1.929369
-1.831055,857.482910,527.984619,1.930122
7.324219,857.299805,531.646729,1.930888
-1.007080,860.046387,531.372070,1.931661
1.281738,862.701416,528.350830,1.932405
2.105713,863.525391,529.083252,1.933147
4.119873,859.680176,533.203125,1.933893
5.218506,867.736816,521.118164,1.934718
5.493164,863.891602,525.787354,1.935462
-1.464844,864.898682,525.146484,1.936205
-1.556396,873.687744,526.611328,1.936968
1.098633,868.377686,523.773193,1.937710
-1.831055,868.286133,536.132812,1.938453
-6.774902,863.983154,523.498535,1.939195
-13.092041,863.250732,519.927979,1.940005
-12.908936,871.215820,517.822266,1.940773
-12.084961,868.194580,518.188477,1.941547
-7.598877,874.145508,519.287109,1.942292
-9.155273,873.138428,525.512695,1.943055
-15.838623,870.666504,526.428223,1.943799
-19.958496,873.138428,525.238037,1.944542
-15.014648,867.736816,518.829346,1.945285
-19.409180,865.173340,521.850586,1.946037
-11.077881,862.152100,523.406982,1.946796
-14.831543,864.532471,517.089844,1.947540
-19.226074,868.927002,520.751953,1.948284
-12.542725,866.455078,515.716553,1.949039
-17.669678,864.440918,524.230957,1.949783
-17.211914,867.187500,526.702881,1.950526
-17.303467,866.088867,521.759033,1.951268
-16.571045,845.031738,519.561768,1.952022
-23.712158,865.905762,529.174805,1.952765
-28.656006,866.180420,519.653320,1.953508
-26.733398,863.800049,520.843506,1.954252
-32.867432,862.884521,509.033203,1.955005
-30.761719,863.433838,517.639160,1.955748
-27.099609,859.039307,506.652832,1.956490
-46.875000,861.877441,516.174316,1.957233
-29.479980,858.489990,534.027100,1.957984
-15.197754,855.285645,517.822266,1.958728
-19.042969,853.637695,511.138916,1.959471
-20.874023,860.870361,507.110596,1.960213
-16.662598,855.010986,507.751465,1.960965
-10.253906,854.553223,503.173828,1.961708
-15.014648,859.313965,499.420166,1.962451
-21.881104,860.778809,504.730225,1.963194
-26.458740,858.947754,508.575439,1.963956
-20.233154,853.820801,504.272461,1.964699
-23.803711,852.905273,492.279053,1.965433
-24.078369,861.877441,516.265869,1.966167
-24.261475,856.018066,515.350342,1.966924
-24.261475,851.989746,519.836426,1.967667
-21.789551,857.940674,514.343262,1.968409
-27.008057,855.926514,522.216797,1.969152
-31.036377,867.095947,523.773193,1.969895
-21.697998,864.166260,519.104004,1.970638
-20.874023,861.145020,516.632080,1.971380
-18.310547,867.187500,515.258789,1.972123
-21.514893,865.814209,497.131348,1.972875
-20.233154,858.306885,509.124756,1.973619
-22.888184,863.525391,515.899658,1.974361
-19.866943,864.532471,518.554688,1.975104
-21.789551,867.736816,511.871338,1.975884
-21.789551,860.961914,524.505615,1.976628
-29.754639,865.264893,514.892578,1.977371
-27.099609,866.912842,512.237549,1.978115
-24.536133,865.997314,521.942139,1.978892
-20.690918,865.447998,531.738281,1.979637
-17.303467,857.025146,522.216797,1.980380
-25.726318,865.814209,523.773193,1.981123
-16.113281,862.884521,517.181396,1.981878
-16.296387,861.877441,521.667480,1.982621
-16.204834,853.912354,519.378662,1.983364
-42.480469,856.384277,521.392822,1.984106
-22.613525,862.976074,531.188965,1.984953
-18.402100,854.736328,519.744873,1.985697
-23.162842,861.694336,514.068604,1.986440
-21.606445,865.539551,516.265869,1.987182
-18.493652,862.152100,515.808105,1.987935
-24.444580,864.624023,512.237549,1.988679
-24.993896,864.532471,510.772705,1.989421
-22.613525,859.222412,508.850098,1.990164
-23.254395,856.292725,509.307861,1.990916
-22.430420,854.919434,511.138916,1.991659
-22.430420,854.095459,502.166748,1.992402
-24.536133,858.581543,512.695312,1.993201
-23.620605,851.531982,515.533447,1.993994
-22.705078,849.792480,516.723633,1.994738
-21.972656,846.130371,512.969971,1.995481
-20.965576,840.087891,503.631592,1.996225
-27.008057,843.750000,508.575439,1.996997
-22.796631,820.953369,506.835938,1.997746
-18.127441,847.869873,511.871338,1.998488
-16.021729,837.249756,502.258301,1.999231
-18.859863,843.750000,510.955811,1.999985
-14.739990,843.658447,504.913330,2.000729
-20.324707,820.770264,500.061035,2.001472
-22.521973,836.151123,497.314453,2.002214
-19.042969,838.439941,504.730225,2.002973
-16.937256,827.636719,508.117676,2.003726
-17.303467,836.608887,504.272461,2.004476
-14.923096,831.298828,499.511719,2.005245
-19.226074,836.425781,496.307373,2.006011
-21.331787,837.890625,494.384766,2.006755
-22.796631,833.679199,494.659424,2.007499
-23.986816,846.679688,495.758057,2.008242
-5.767822,839.263916,494.293213,2.008996
-21.606445,838.165283,498.321533,2.009739
-14.373779,836.975098,502.166748,2.010482
-14.099121,842.193604,500.152588,2.011259
-18.859863,840.270996,502.990723,2.012034
-19.775391,835.876465,494.842529,2.012784
-19.317627,834.228516,494.567871,2.013553
-18.676758,839.080811,497.222900,2.014298
-21.148682,838.897705,503.997803,2.015070
-17.028809,834.960938,504.455566,2.015813
-19.226074,838.348389,502.258301,2.016556
-18.585205,842.468262,494.659424,2.017299
-23.071289,833.404541,491.271973,2.018050
-22.338867,839.538574,502.075195,2.018793
-28.198242,841.278076,501.708984,2.019536
-27.099609,836.059570,501.159668,2.020279
-26.367188,841.461182,501.892090,2.021029
-22.888184,843.200684,494.659424,2.021843
-24.444580,831.848145,494.567871,2.022592
-23.345947,827.911377,493.927002,2.023335
-22.796631,834.503174,497.039795,2.024115
-24.353027,825.347900,497.680664,2.024860
-22.430420,835.144043,492.645264,2.025602
-18.127441,835.693359,488.616943,2.026411
-22.613525,822.418213,492.462158,2.027155
-21.881104,828.277588,485.046387,2.027898
-20.050049,819.305420,514.434814,2.028640
-19.409180,833.770752,496.124268,2.029384
-21.423340,831.848145,495.758057,2.030127
-22.064209,830.566406,497.497559,2.030870
-20.416260,830.108643,496.490479,2.031612
-19.042969,830.291748,488.708496,2.032363
-22.796631,825.988770,489.349365,2.033106
-21.881104,830.932617,495.941162,2.033849
-27.282715,828.094482,495.483398,2.034592
-30.120850,827.178955,492.645264,2.035335
-28.198242,827.087402,481.842041,2.036078
-26.550293,830.657959,488.708496,2.036821
-33.416748,832.763672,488.525391,2.037564
-28.656006,823.516846,485.321045,2.038307
-29.022217,827.819824,485.687256,2.039051
-27.008057,826.538086,480.285645,2.039793
-31.677246,830.291748,481.018066,2.040535
-28.015137,825.531006,486.328125,2.041277
-33.599854,823.150635,482.849121,2.042030
-25.634766,828.552246,476.348877,2.042773
-32.318115,827.087402,480.102539,2.043515
-32.135010,827.453613,482.482910,2.044257
-32.775879,826.629639,483.489990,2.045007
-35.247803,827.545166,487.060547,2.045749
-35.247803,832.214355,484.222412,2.046504
-41.564941,834.594727,491.088867,2.047249
-34.149170,831.207275,492.462158,2.048011
-37.170410,840.728760,497.863770,2.048754
-35.614014,834.869385,491.638184,2.049497
-27.099609,847.961426,495.849609,2.050240
-34.240723,845.031738,499.420166,2.050993
-30.853271,845.489502,504.089355,2.051736
-34.606934,841.644287,505.279541,2.052478
-39.093018,844.665527,501.068115,2.053221
-31.494141,843.017578,498.413086,2.053972
-28.106689,839.538574,506.561279,2.054712
-30.944824,844.482422,504.089355,2.055482
-26.184082,848.144531,503.906250,2.056230
-26.916504,849.792480,511.230469,2.056975
-29.571533,848.510742,508.575439,2.057816
-26.916504,849.609375,504.455566,2.058561
-25.543213,846.679688,507.568359,2.059325
-26.184082,852.264404,502.899170,2.060069
-22.338867,850.341797,506.652832,2.060812
-26.641846,843.292236,511.322021,2.061549
-21.423340,852.813721,513.336182,2.062307
-24.719238,851.257324,506.195068,2.063051
-25.360107,851.165771,513.244629,2.063795
-26.184082,820.953369,511.413574,2.064539
-27.008057,845.031738,515.808105,2.065283
-29.846191,843.841553,512.695312,2.066017
-29.846191,847.320557,507.202148,2.066751
-21.514893,855.651855,516.906738,2.067485
-28.747559,852.539062,510.681152,2.068244
-17.669678,848.968506,511.505127,2.068987
-24.627686,843.017578,499.694824,2.069729
-21.514893,844.207764,507.934570,2.070472
-21.057129,838.897705,494.842529,2.071224
-14.831543,839.080811,501.708984,2.071967
-20.324707,850.616455,500.610352,2.072709
-12.817383,836.425781,490.447998,2.073451
-14.465332,843.383789,514.434814,2.074204
-11.993408,841.278076,489.257812,2.074978
-10.528564,838.989258,489.532471,2.075722
-17.120361,840.179443,495.208740,2.076464
-20.050049,839.996338,501.434326,2.077217
-15.014648,837.066650,500.427246,2.077962
-5.310059,840.911865,499.969482,2.078709
-6.591797,829.650879,498.962402,2.079522
-9.063721,836.242676,503.173828,2.080296
-5.859375,828.643799,502.441406,2.081039
-12.268066,832.489014,505.645752,2.081781
-8.056641,839.630127,504.638672,2.082523
-7.873535,838.073730,508.483887,2.083275
-7.324219,865.905762,505.554199,2.084048
-11.260986,842.651367,492.370605,2.084865
-13.641357,835.052490,496.582031,2.085615
-5.676270,844.940186,501.525879,2.086408
-9.521484,842.376709,494.384766,2.087155
-9.521484,843.750000,493.560791,2.087897
-2.838135,848.785400,497.680664,2.088639
-4.760742,844.390869,501.068115,2.089395
0.732422,845.306396,512.420654,2.090137
1.556396,842.102051,517.547607,2.090883
-0.823975,847.503662,514.251709,2.091626
23.254395,846.130371,513.336182,2.092381
6.408691,852.996826,518.646240,2.093123
2.655029,846.496582,524.505615,2.093864
-3.204346,849.700928,520.019531,2.094608
-0.457764,853.912354,530.273438,2.095370
-3.662109,854.095459,526.977539,2.096114
-1.007080,848.968506,523.132324,2.096855
-2.746582,858.032227,527.435303,2.097597
-3.204346,855.651855,525.695801,2.098411
-7.690430,857.208252,533.386230,2.099155
-1.739502,857.757568,527.069092,2.099896
3.295898,851.257324,530.822754,2.100638
5.493164,851.440430,520.843506,2.101391
2.471924,857.757568,525.787354,2.102133
1.373291,848.968506,522.033691,2.102875
9.521484,849.792480,520.660400,2.103616
5.310059,851.348877,524.688721,2.104368
5.218506,849.792480,522.766113,2.105110
11.535645,846.313477,523.773193,2.105852
-0.183105,841.918945,526.153564,2.106594
4.669189,855.834961,526.336670,2.107347
-4.394531,845.764160,523.681641,2.108090
7.598877,854.370117,524.414062,2.108832
-1.647949,854.095459,520.294189,2.109574
-8.056641,847.595215,521.759033,2.110325
0.457764,848.419189,525.695801,2.111068
-3.387451,846.038818,520.477295,2.111810
-4.852295,842.193604,523.040771,2.112552
0.091553,845.672607,514.343262,2.113304
-3.845215,840.911865,518.554688,2.114048
-9.887695,851.440430,517.639160,2.114790
-1.190186,837.524414,501.983643,2.115532
-6.866455,839.263916,506.561279,2.116283
-6.317139,846.130371,512.786865,2.117025
0.274658,842.651367,501.892090,2.117767
-9.979248,842.193604,500.701904,2.118509
-7.781982,843.292236,503.723145,2.119261
-15.106201,835.784912,497.772217,2.120002
-12.908936,835.510254,500.335693,2.120745
-16.571045,835.693359,502.990723,2.121487
-9.246826,836.059570,498.962402,2.122249
-12.908936,831.665039,498.046875,2.122991
-13.458252,831.207275,498.596191,2.123758
-22.338867,831.848145,494.750977,2.124514
-20.690918,830.474854,487.426758,2.125263
-20.690918,829.925537,494.384766,2.126006
-12.725830,828.369141,493.652344,2.126749
-15.106201,830.474854,490.173340,2.127491
-21.789551,832.031250,493.652344,2.128241
-19.683838,831.756592,494.018555,2.128981
-18.859863,829.101562,487.518311,2.129721
-20.324707,822.601318,491.088867,2.130461
-17.211914,825.714111,491.088867,2.131228
-10.437012,830.108643,491.912842,2.132065
-7.598877,827.270508,486.328125,2.132810
-6.774902,829.559326,490.173340,2.133553
-12.634277,825.897217,491.821289,2.134309
-6.958008,841.278076,486.328125,2.135054
-5.767822,837.249756,484.039307,2.135798
-9.246826,831.298828,494.750977,2.136541
-6.134033,835.144043,496.215820,2.137286
-2.655029,839.630127,496.856689,2.138020
-9.429932,836.791992,495.849609,2.138754
-7.049561,834.228516,492.187500,2.139488
-7.232666,833.129883,488.342285,2.140247
-8.972168,835.510254,496.673584,2.141008
-15.014648,831.390381,489.440918,2.141763
-4.394531,838.806152,501.434326,2.142518
-4.852295,843.475342,496.490479,2.143288
-4.669189,844.024658,499.786377,2.144042
-0.823975,843.292236,490.356445,2.144796
-2.380371,847.412109,494.659424,2.145550
-5.218506,835.968018,498.596191,2.146384
0.091553,846.954346,494.384766,2.147142
1.556396,849.151611,496.398926,2.147896
3.753662,847.686768,497.314453,2.148656
1.007080,850.799561,504.455566,2.149436
-4.302979,853.729248,497.589111,2.150194
-3.112793,852.813721,492.736816,2.150834
-10.986328,865.997314,510.131836,2.151607
-0.549316,866.088867,513.061523,2.152394
-9.155273,866.729736,511.596680,2.153194
