ACC_X,ACC_Y,ACC_Z,Time
-549.682617,330.139160,765.838623,0.000151
-549.774170,327.117920,760.253906,0.000925
-547.851562,331.787109,761.169434,0.001692
-550.231934,329.498291,760.620117,0.002438
-552.795410,326.934814,762.268066,0.003184
-550.506592,340.576172,759.246826,0.003930
-550.415039,335.815430,758.056641,0.004687
-549.591064,333.251953,750.183105,0.005433
-550.781250,333.801270,761.352539,0.006178
-554.351807,334.625244,763.092041,0.006924
-548.583984,337.829590,760.070801,0.007669
-550.872803,337.097168,754.119873,0.008404
-552.612305,339.019775,766.021729,0.009140
-553.161621,336.547852,758.605957,0.009875
-556.182861,337.097168,768.310547,0.010672
-552.703857,333.160400,755.584717,0.011418
-553.161621,332.061768,756.225586,0.012163
-559.844971,334.350586,766.937256,0.012908
-561.035156,335.632324,768.402100,0.013662
-562.225342,341.125488,767.028809,0.014407
-552.154541,334.716797,758.605957,0.015171
-554.168701,333.984375,765.289307,0.015918
-555.541992,338.012695,760.528564,0.016662
-555.450439,332.519531,766.754150,0.017407
-560.302734,333.618164,764.556885,0.018151
-562.133789,332.702637,759.704590,0.018897
-568.542480,338.653564,760.162354,0.019642
-561.584473,334.716797,762.359619,0.020386
-564.880371,332.427979,758.239746,0.021131
-559.936523,327.484131,759.887695,0.021875
-565.429688,327.484131,764.373779,0.022610
-564.605713,349.731445,765.106201,0.023345
-569.915771,332.794189,761.901855,0.024079
-567.810059,326.934814,756.866455,0.024814
-575.775146,331.970215,755.584717,0.025575
-563.049316,329.956055,759.246826,0.026319
-560.852051,306.427002,760.894775,0.027056
-564.056396,319.976807,758.789062,0.027791
-564.239502,329.315186,759.429932,0.028565
-573.394775,326.202393,748.352051,0.029326
-566.253662,330.688477,747.161865,0.030100
-567.169189,329.315186,757.049561,0.030899
-568.176270,333.984375,755.310059,0.031650
-562.316895,326.385498,752.197266,0.032426
-574.035645,321.533203,757.415771,0.033210
-573.486328,324.005127,764.465332,0.034035
-571.563721,338.470459,759.155273,0.034800
-567.901611,327.575684,752.197266,0.035557
-570.007324,321.350098,758.697510,0.036311
-581.359863,328.125000,755.584717,0.037137
-574.218750,321.624756,758.972168,0.037904
-573.669434,321.441650,759.979248,0.038659
-572.021484,328.948975,758.422852,0.039460
-575.408936,316.223145,750.274658,0.040223
-575.592041,320.526123,750.366211,0.040977
-581.085205,312.377930,752.380371,0.041746
-580.718994,313.659668,748.901367,0.042512
-580.261230,302.856445,752.471924,0.043257
-580.718994,311.645508,750.823975,0.044006
-581.726074,315.856934,747.711182,0.044751
-578.247070,321.716309,757.690430,0.045510
-587.402344,308.349609,746.154785,0.046254
-580.078125,309.814453,751.281738,0.046999
-579.803467,309.356689,754.760742,0.047745
-582.824707,313.293457,750.549316,0.048500
-583.648682,305.786133,748.718262,0.049245
-586.853027,307.525635,750.366211,0.049991
-588.775635,308.349609,749.816895,0.050736
-588.317871,311.553955,750.274658,0.051480
-565.887451,308.349609,748.260498,0.052215
-587.036133,314.575195,748.718262,0.052949
-584.197998,302.215576,754.394531,0.053684
-583.648682,296.539307,745.971680,0.054452
-587.219238,291.870117,749.176025,0.055195
-589.508057,303.405762,748.626709,0.055937
-587.036133,299.102783,740.844727,0.056680
-593.536377,301.849365,749.084473,0.057435
-593.353271,300.659180,750.915527,0.058177
-598.297119,298.553467,742.950439,0.058920
-599.121094,301.116943,752.838135,0.059662
-594.360352,298.645020,748.626709,0.060415
-590.332031,306.976318,750.732422,0.061187
-595.916748,300.567627,743.316650,0.061952
-599.212646,300.109863,744.964600,0.062704
-599.212646,294.525146,743.499756,0.063458
-597.564697,295.715332,744.323730,0.064193
-597.839355,292.510986,747.161865,0.064928
-599.212646,300.109863,747.802734,0.065662
-597.106934,300.659180,753.845215,0.066440
-599.121094,308.258057,730.316162,0.067185
-600.402832,299.194336,746.795654,0.067930
-597.564697,294.982910,752.471924,0.068675
-605.712891,296.813965,751.739502,0.069431
-598.937988,299.560547,747.528076,0.070176
-598.480225,298.187256,744.873047,0.070921
-602.233887,288.940430,746.429443,0.071778
-611.572266,287.475586,746.429443,0.072514
-604.339600,289.306641,749.084473,0.073249
-604.156494,291.320801,748.077393,0.073983
-602.050781,289.855957,750.366211,0.074723
-607.452393,292.968750,741.302490,0.075467
-602.233887,288.665771,747.802734,0.076210
-607.818604,294.891357,743.499756,0.076953
-604.156494,287.658691,737.274170,0.077696
-610.382080,288.574219,745.330811,0.078439
-608.551025,285.736084,742.401123,0.079183
-600.311279,291.229248,742.950439,0.079925
-609.375000,288.299561,738.830566,0.080668
-602.783203,283.355713,740.753174,0.081422
-615.966797,280.242920,738.006592,0.082166
-604.980469,286.102295,739.288330,0.082909
-608.001709,288.116455,741.119385,0.083652
-608.276367,285.919189,741.485596,0.084405
-614.318848,285.552979,744.506836,0.085148
-609.283447,282.531738,746.337891,0.085892
-609.008789,281.433105,737.731934,0.086635
-607.177734,280.517578,742.767334,0.087388
-588.592529,292.419434,733.978271,0.088132
-606.079102,286.560059,734.436035,0.088875
-611.297607,290.588379,742.767334,0.089618
-608.825684,262.756348,753.479004,0.090373
-606.536865,291.503906,746.337891,0.091116
-606.536865,281.616211,740.203857,0.091859
-602.050781,277.679443,742.858887,0.092602
-599.487305,286.651611,737.365723,0.093356
-602.142334,295.166016,751.739502,0.094100
-609.191895,292.785645,755.676270,0.094843
-604.888916,293.060303,753.753662,0.095586
-599.853516,298.278809,754.486084,0.096340
-603.149414,287.933350,748.901367,0.097083
-604.980469,304.595947,748.352051,0.097826
-600.769043,292.785645,742.492676,0.098569
-596.099854,290.679932,746.704102,0.099322
-599.395752,287.933350,727.752686,0.100065
-600.219727,286.010742,742.492676,0.100809
-601.776123,294.525146,747.161865,0.101552
-599.853516,297.912598,747.344971,0.102306
-604.339600,296.997070,753.387451,0.103049
-600.402832,301.391602,753.936768,0.103792
-593.902588,293.243408,748.352051,0.104535
-593.261719,298.187256,752.563477,0.105288
-592.071533,297.180176,752.655029,0.106032
-590.332031,301.757812,757.781982,0.106775
-592.529297,306.060791,756.866455,0.107518
-586.944580,306.152344,762.084961,0.108270
-595.825195,299.652100,760.711670,0.109014
-589.416504,310.913086,764.099121,0.109758
-591.522217,297.271729,749.542236,0.110500
-592.803955,296.081543,758.605957,0.111254
-591.430664,294.067383,752.105713,0.111997
-589.233398,299.194336,760.620117,0.112740
-592.895508,308.990479,758.880615,0.113483
-585.845947,301.666260,752.655029,0.114236
-585.388184,295.898438,753.204346,0.114979
-586.303711,298.278809,747.619629,0.115722
-584.930420,292.602539,755.676270,0.116466
-583.557129,303.771973,753.662109,0.117218
-576.232910,302.673340,757.873535,0.117961
-576.324463,295.257568,747.436523,0.118704
-582.275391,296.264648,742.218018,0.119447
-579.620361,296.722412,748.809814,0.120199
-584.472656,300.567627,750.823975,0.120943
-576.141357,302.398682,747.711182,0.121686
-582.824707,306.152344,747.528076,0.122429
-578.155518,300.750732,745.697021,0.123182
-582.824707,305.145264,745.605469,0.123925
-576.873779,298.919678,746.063232,0.124668
-572.296143,300.109863,759.704590,0.125411
-580.627441,293.334961,749.359131,0.126164
-568.267822,302.581787,751.647949,0.126908
-570.190430,298.370361,750.549316,0.127651
-572.113037,300.292969,749.725342,0.128394
-571.746826,299.560547,748.901367,0.129147
-574.035645,298.278809,748.352051,0.129890
-572.387695,304.138184,752.929688,0.130633
-577.606201,299.011230,755.676270,0.131377
-581.451416,298.278809,749.633789,0.132127
-571.472168,299.194336,749.267578,0.132861
-571.838379,307.983398,749.633789,0.133595
-569.091797,303.955078,751.373291,0.134333
-570.648193,300.567627,746.520996,0.135076
-565.795898,294.525146,750.732422,0.135819
-567.901611,300.567627,749.084473,0.136562
-569.641113,300.201416,744.049072,0.137305
-570.007324,305.053711,750.000000,0.138049
-563.415527,305.969238,748.168945,0.138791
-563.964844,302.398682,748.443604,0.139534
-570.098877,301.300049,744.506836,0.140277
-565.338135,306.793213,746.612549,0.141022
-571.105957,302.673340,750.915527,0.141766
-567.993164,298.645020,759.796143,0.142592
-544.921875,311.920166,746.154785,0.143337
-567.535400,308.532715,745.605469,0.144090
-560.394287,301.849365,747.344971,0.144834
-558.563232,306.427002,749.633789,0.145577
-568.359375,307.159424,746.063232,0.146320
-585.021973,307.342529,753.112793,0.147055
-560.760498,306.610107,752.380371,0.147798
-563.873291,312.194824,754.394531,0.148543
-561.950684,308.349609,745.147705,0.149287
-563.964844,315.948486,749.725342,0.150048
-564.514160,307.525635,749.908447,0.150795
-558.013916,316.864014,757.324219,0.151578
-559.204102,312.561035,750.274658,0.152324
-555.725098,318.511963,754.943848,0.153086
-553.894043,314.758301,770.416260,0.153831
-557.373047,311.920166,748.443604,0.154575
-559.387207,313.842773,756.134033,0.155320
-559.112549,306.518555,754.302979,0.156075
-556.732178,312.561035,752.197266,0.156820
-562.225342,311.828613,746.704102,0.157565
-560.852051,322.998047,750.274658,0.158309
-562.591553,322.906494,759.429932,0.159054
-561.492920,311.553955,753.753662,0.159789
-562.133789,318.237305,750.915527,0.160523
-560.760498,320.159912,757.232666,0.161258
-560.302734,317.047119,756.774902,0.162014
-557.739258,323.089600,750.640869,0.162755
-560.302734,313.568115,749.542236,0.163495
-560.668945,321.441650,758.422852,0.164236
-558.471680,316.040039,757.965088,0.164995
-561.584473,317.230225,757.141113,0.165752
-552.703857,318.878174,757.598877,0.166501
-549.682617,322.723389,757.324219,0.167293
-558.746338,324.188232,758.789062,0.168066
-557.922363,320.983887,760.345459,0.168811
-554.718018,317.687988,759.796143,0.169556
-552.795410,324.096680,753.021240,0.170300
-553.436279,322.998047,758.789062,0.171055
-550.506592,323.455811,756.500244,0.171800
-557.006836,333.068848,753.021240,0.172548
-554.992676,336.639404,757.049561,0.173365
-551.147461,328.125000,764.648438,0.174209
-543.914795,325.103760,760.345459,0.174965
-542.907715,325.469971,754.211426,0.175735
-546.203613,333.435059,756.774902,0.176480
-543.273926,334.350586,753.295898,0.177256
-545.654297,332.885742,759.338379,0.178027
-549.865723,336.547852,750.091553,0.178806
-545.745850,333.984375,754.302979,0.179528
-547.485352,335.632324,759.246826,0.180280
-542.999268,334.442139,757.873535,0.181028
-538.879395,333.892822,763.000488,0.181773
-546.112061,335.540771,764.831543,0.182518
-543.914795,331.878662,759.796143,0.183263
-547.943115,335.632324,759.796143,0.184033
-546.203613,336.456299,758.331299,0.184795
-550.506592,338.653564,751.647949,0.185545
-553.253174,338.287354,758.972168,0.186316
-550.506592,333.984375,761.810303,0.187086
-552.246094,341.583252,761.627197,0.187832
-545.104980,337.829590,760.162354,0.188577
-548.767090,340.850830,759.613037,0.189321
-547.851562,333.801270,759.521484,0.190089
-545.288086,337.188721,771.697998,0.190855
-556.274414,334.808350,763.366699,0.191614
-554.534912,339.752197,764.923096,0.192362
-547.485352,341.217041,753.845215,0.193154
-553.527832,336.547852,763.092041,0.193908
-553.253174,343.780518,758.331299,0.194652
-552.978516,348.175049,756.774902,0.195397
-556.091309,334.442139,753.112793,0.196154
-554.718018,339.477539,755.767822,0.196900
-550.781250,343.139648,756.225586,0.197644
-554.901123,341.491699,755.584717,0.198389
-555.816650,338.378906,753.845215,0.199144
-558.288574,344.421387,758.789062,0.199889
-554.534912,342.590332,757.141113,0.200634
-561.676025,344.604492,759.246826,0.201378
-552.246094,344.146729,758.789062,0.202124
-556.091309,346.710205,758.422852,0.202859
-561.950684,338.928223,757.781982,0.203594
-560.028076,346.069336,764.648438,0.204328
-558.654785,341.217041,759.796143,0.205088
-555.633545,341.583252,761.169434,0.205833
-555.541992,347.167969,761.169434,0.206577
-555.358887,342.681885,756.591797,0.207322
-555.267334,338.104248,761.901855,0.208076
-550.231934,335.540771,759.246826,0.208821
-562.866211,346.435547,761.901855,0.209566
-563.873291,341.949463,764.648438,0.210311
-552.062988,350.463867,765.472412,0.211065
-539.520264,348.175049,758.239746,0.211809
-558.288574,347.351074,758.697510,0.212554
-562.866211,344.146729,757.965088,0.213299
-558.197021,371.978760,756.225586,0.214043
-565.246582,345.428467,764.831543,0.214882
-566.436768,344.879150,765.747070,0.215616
-561.218262,348.083496,766.845703,0.216351
-563.598633,348.175049,761.901855,0.217121
-566.528320,351.379395,764.190674,0.217866
-566.802979,351.562500,765.472412,0.218610
-566.528320,348.266602,760.162354,0.219355
-558.837891,347.167969,766.479492,0.220100
-561.035156,345.336914,794.677734,0.220834
-563.781738,347.534180,767.486572,0.221569
-560.760498,351.287842,761.718750,0.222303
-564.514160,350.646973,766.296387,0.223059
-560.394287,355.682373,770.782471,0.223803
-570.281982,352.386475,767.028809,0.224548
-566.345215,351.837158,765.655518,0.225293
-561.859131,349.639893,762.725830,0.226047
-558.746338,347.442627,763.458252,0.226790
-563.232422,349.090576,772.979736,0.227536
-561.767578,353.027344,764.190674,0.228281
-564.056396,353.576660,766.021729,0.229037
-562.500000,352.203369,766.571045,0.229783
-559.295654,348.632812,772.064209,0.230527
-568.450928,349.822998,768.035889,0.231272
-565.429688,345.062256,764.831543,0.232030
-566.345215,351.287842,771.148682,0.232775
-566.711426,349.365234,765.380859,0.233528
-561.401367,353.942871,769.317627,0.234271
-557.281494,345.520020,766.387939,0.235048
-562.500000,346.984863,766.845703,0.235821
-560.119629,347.076416,764.739990,0.236568
-558.837891,344.970703,764.556885,0.237314
-565.887451,345.977783,756.500244,0.238058
-558.471680,347.534180,766.021729,0.238804
-563.049316,354.309082,770.507812,0.239548
-564.331055,351.837158,760.162354,0.240369
-560.394287,350.830078,760.803223,0.241136
-559.478760,348.449707,764.923096,0.241906
-560.668945,345.520020,759.796143,0.242652
-562.866211,349.548340,760.986328,0.243418
-565.063477,340.301514,760.986328,0.244162
-567.810059,343.322754,763.824463,0.244907
-559.020996,346.160889,766.204834,0.245651
-562.408447,346.252441,756.225586,0.246405
-564.971924,343.322754,766.479492,0.247150
-563.415527,349.639893,761.901855,0.247895
-567.443848,342.498779,750.823975,0.248639
-568.817139,348.358154,775.177002,0.249383
-568.450928,341.217041,769.042969,0.250118
-570.190430,341.217041,763.183594,0.250852
-562.774658,340.942383,766.937256,0.251588
-566.986084,348.724365,769.500732,0.252351
-563.781738,341.583252,759.155273,0.253097
-563.964844,337.188721,767.395020,0.253841
-570.007324,340.759277,761.352539,0.254585
-572.753906,334.167480,761.535645,0.255235
-569.641113,332.427979,758.789062,0.255980
-574.218750,329.956055,762.817383,0.256725
-568.542480,333.251953,756.958008,0.257470
-567.626953,331.512451,747.528076,0.258224
-572.937012,328.491211,754.394531,0.258969
-573.852539,330.596924,754.394531,0.259713
-575.958252,325.653076,750.183105,0.260458
-571.655273,324.279785,748.809814,0.261202
-569.824219,323.547363,750.915527,0.261936
-568.817139,321.624756,744.049072,0.262671
-569.915771,319.793701,744.140625,0.263405
-572.387695,317.687988,750.549316,0.264172
-576.782227,318.511963,749.908447,0.264917
-580.352783,308.990479,751.281738,0.265661
-576.873779,313.568115,748.535156,0.266405
-576.507568,319.244385,753.387451,0.267149
-574.218750,315.490723,744.232178,0.267884
-572.387695,316.589355,746.612549,0.268618
-576.599121,321.533203,749.084473,0.269353
-580.261230,315.399170,748.352051,0.270108
-576.690674,313.751221,744.689941,0.270874
-576.232910,315.307617,746.246338,0.271621
-575.408936,312.835693,750.823975,0.272372
-581.909180,309.082031,746.154785,0.273133
-573.760986,316.864014,751.281738,0.273878
-580.261230,310.089111,749.725342,0.274622
-575.408936,305.053711,749.450684,0.275366
-580.718994,312.011719,751.373291,0.276121
-580.718994,309.722900,745.513916,0.276865
-585.754395,309.631348,752.380371,0.277610
-582.733154,315.399170,752.563477,0.278355
-587.585449,306.793213,746.978760,0.278965
-588.226318,307.800293,742.950439,0.279700
-590.789795,304.412842,746.154785,0.280434
-587.310791,305.877686,742.492676,0.281168
-590.423584,304.504395,747.070312,0.281927
-593.811035,308.258057,750.732422,0.282671
-593.444824,297.088623,747.894287,0.283415
-585.754395,299.652100,753.021240,0.284076
-588.409424,293.426514,746.429443,0.284723
-588.043213,295.623779,745.330811,0.285567
-598.022461,299.835205,738.006592,0.286312
-597.656250,302.947998,743.041992,0.287057
-598.297119,301.116943,737.274170,0.287820
-590.972900,295.074463,742.950439,0.288566
-591.613770,291.595459,732.147217,0.289310
-591.156006,290.496826,739.105225,0.290054
-589.508057,294.158936,738.372803,0.290800
-589.782715,290.771484,740.020752,0.291535
-586.578369,295.166016,745.880127,0.292269
-580.261230,292.053223,748.626709,0.293004
-576.690674,292.602539,748.077393,0.293766
-575.592041,290.679932,752.380371,0.294511
-573.669434,307.617188,754.669189,0.295255
-568.267822,299.652100,752.288818,0.296000
-566.436768,291.229248,754.669189,0.296755
-563.873291,295.715332,751.647949,0.297500
-566.802979,297.363281,756.134033,0.298244
-557.556152,301.391602,753.479004,0.298989
-583.557129,305.511475,754.119873,0.299744
-556.915283,308.898926,754.028320,0.300489
-558.197021,312.561035,767.761230,0.301233
-557.556152,311.828613,756.225586,0.301977
-554.626465,312.194824,763.732910,0.302721
-553.527832,313.934326,763.732910,0.303456
-554.443359,313.568115,758.605957,0.304190
-554.443359,311.645508,759.246826,0.304924
-557.739258,311.279297,764.648438,0.305691
-548.583984,320.800781,772.430420,0.306440
-548.950195,318.969727,764.923096,0.307190
-553.070068,320.892334,764.190674,0.307970
-557.647705,320.892334,769.958496,0.308743
-555.816650,318.969727,768.127441,0.309489
-558.471680,320.159912,763.641357,0.310234
-554.534912,318.878174,770.690918,0.310979
-550.140381,319.885254,768.768311,0.311765
-548.767090,322.540283,767.852783,0.312522
-555.999756,318.328857,765.014648,0.313308
-561.126709,315.307617,758.422852,0.314085
-557.098389,322.906494,765.014648,0.314830
-555.908203,317.687988,765.380859,0.315575
-559.112549,304.412842,761.901855,0.316326
-560.760498,317.596436,756.408691,0.317084
-560.302734,320.892334,763.092041,0.317828
-559.020996,310.729980,766.204834,0.318572
-565.063477,311.645508,754.669189,0.319317
-562.408447,310.821533,758.697510,0.320023
-557.464600,311.553955,757.873535,0.320768
-561.767578,307.342529,755.767822,0.321513
-568.359375,305.419922,759.613037,0.322258
-561.492920,307.525635,752.746582,0.323006
-560.852051,307.434082,758.880615,0.323741
-558.105469,300.384521,765.197754,0.324476
-562.133789,307.250977,747.436523,0.325210
-565.155029,302.764893,745.880127,0.325969
-570.465088,306.884766,751.647949,0.326714
-566.162109,301.574707,749.176025,0.327458
-565.979004,303.222656,752.655029,0.328203
-567.443848,301.116943,748.992920,0.328958
-563.873291,298.187256,742.858887,0.329702
-567.535400,301.391602,739.654541,0.330447
-576.141357,294.525146,742.034912,0.331191
-573.303223,301.116943,744.598389,0.331945
-570.098877,301.391602,743.133545,0.332690
-578.155518,295.898438,747.070312,0.333435
-570.648193,294.799805,746.795654,0.334180
-572.021484,289.031982,741.302490,0.334917
-572.753906,291.687012,744.873047,0.335651
-576.782227,295.623779,744.781494,0.336386
-573.669434,292.510986,733.703613,0.337120
-576.599121,294.799805,735.168457,0.337886
-582.458496,291.229248,738.647461,0.338630
-574.951172,290.496826,739.929199,0.339375
-575.317383,293.243408,738.372803,0.340120
-579.986572,298.370361,744.873047,0.340859
-577.514648,296.081543,738.830566,0.341594
-582.550049,295.806885,741.210938,0.342328
-584.106445,290.222168,737.457275,0.343062
-578.521729,294.250488,735.900879,0.343802
-577.880859,300.201416,734.710693,0.344546
-574.310303,295.623779,734.344482,0.345289
-578.430176,293.792725,704.956055,0.346032
-577.423096,294.708252,733.428955,0.346776
-584.381104,295.806885,735.168457,0.347519
-583.007812,284.637451,729.034424,0.348262
-585.754395,287.933350,731.689453,0.349005
-588.409424,285.919189,736.175537,0.349748
-583.923340,290.954590,735.443115,0.350491
-584.564209,296.081543,732.971191,0.351234
-579.620361,298.828125,736.358643,0.351977
-582.092285,302.764893,734.985352,0.352720
-578.887939,292.144775,738.830566,0.353463
-580.261230,294.342041,731.872559,0.354206
-578.613281,297.271729,732.330322,0.354949
-576.507568,306.427002,732.238770,0.355692
-582.275391,306.701660,738.372803,0.356540
-573.944092,305.145264,736.724854,0.357284
-570.465088,310.363770,744.415283,0.358026
-580.902100,315.124512,748.535156,0.358770
-578.521729,317.230225,748.901367,0.359513
-576.873779,319.427490,745.697021,0.360256
-577.789307,314.666748,750.732422,0.360999
-574.310303,320.159912,752.471924,0.361749
-572.662354,316.680908,757.141113,0.362513
-572.570801,322.906494,757.324219,0.363258
-569.549561,322.448730,756.134033,0.364002
-572.296143,316.040039,757.781982,0.364757
-568.084717,318.969727,763.183594,0.365502
-570.190430,324.554443,758.331299,0.366247
-573.577881,316.497803,756.225586,0.367003
-568.725586,330.871582,766.571045,0.367760
-563.781738,330.688477,763.824463,0.368505
-564.697266,331.420898,760.894775,0.369250
-568.084717,327.026367,755.859375,0.369995
-567.443848,326.019287,766.754150,0.370739
-562.683105,328.765869,764.007568,0.371473
-558.837891,331.878662,768.585205,0.372208
-561.767578,325.195312,767.852783,0.372942
-569.732666,325.561523,766.937256,0.373701
-570.556641,331.878662,769.226074,0.374445
-569.549561,333.618164,757.324219,0.375190
-568.084717,334.716797,757.873535,0.375934
-565.063477,333.618164,760.711670,0.376689
-572.296143,331.604004,766.662598,0.377433
-570.007324,340.759277,764.373779,0.378224
-567.443848,330.596924,761.352539,0.378985
-570.373535,341.217041,759.338379,0.379775
-567.993164,337.005615,766.571045,0.380582
-566.436768,335.998535,764.648438,0.381329
-568.084717,346.435547,762.176514,0.382073
-569.458008,333.343506,772.155762,0.382902
-568.084717,337.371826,768.768311,0.383674
-566.436768,339.752197,760.070801,0.384451
-568.450928,333.892822,756.958008,0.385231
-566.894531,333.160400,761.627197,0.385976
-576.599121,331.512451,764.007568,0.386720
-571.380615,331.146240,760.070801,0.387464
-572.113037,334.442139,760.711670,0.388219
-544.189453,328.674316,763.183594,0.388964
-569.641113,331.146240,764.831543,0.389708
-564.880371,335.449219,766.204834,0.390452
-568.634033,338.653564,772.613525,0.391196
-566.070557,335.083008,776.184082,0.391930
-568.084717,333.709717,773.803711,0.392664
-571.929932,337.280273,776.092529,0.393400
-571.563721,332.794189,772.521973,0.394144
-569.824219,338.104248,772.888184,0.394889
-574.676514,338.104248,771.789551,0.395634
-573.944092,331.695557,761.169434,0.396378
-573.120117,342.407227,761.444092,0.397123
-579.711914,328.399658,761.169434,0.397868
-570.190430,330.871582,759.979248,0.398612
-571.746826,326.751709,761.535645,0.399356
-572.021484,333.435059,759.246826,0.400111
-571.380615,330.413818,757.415771,0.400856
-567.810059,333.709717,760.528564,0.401600
-572.296143,330.322266,765.380859,0.402345
-577.331543,318.328857,762.725830,0.403083
-579.071045,327.667236,753.112793,0.403817
-575.500488,324.188232,754.486084,0.404552
-583.374023,320.251465,752.197266,0.405286
-584.655762,325.469971,743.865967,0.406040
-583.374023,328.033447,748.718262,0.406784
-583.465576,327.026367,750.457764,0.407529
-584.930420,323.089600,753.570557,0.408273
-576.690674,331.237793,751.831055,0.409018
-578.063965,327.026367,753.112793,0.409762
-581.726074,322.265625,750.366211,0.410507
-576.873779,322.357178,751.007080,0.411252
-577.514648,325.103760,755.493164,0.412046
-577.880859,328.125000,761.535645,0.412783
-577.972412,322.631836,760.803223,0.413518
-580.902100,313.659668,753.570557,0.414252
-581.542969,345.336914,756.042480,0.415057
-580.261230,328.491211,755.767822,0.415802
-566.894531,331.054688,757.232666,0.416547
-588.043213,323.913574,760.803223,0.417291
-581.176758,328.857422,756.866455,0.418092
-575.225830,326.934814,753.845215,0.418837
-571.655273,306.152344,751.739502,0.419582
-573.211670,329.498291,756.408691,0.420327
-575.866699,331.970215,755.950928,0.421084
-577.239990,331.420898,749.542236,0.421717
-580.078125,334.350586,761.077881,0.422463
-579.162598,323.730469,754.486084,0.423207
-581.085205,322.082520,748.443604,0.423961
-579.162598,329.681396,752.288818,0.424706
-573.486328,306.060791,750.000000,0.425450
-581.909180,341.308594,758.331299,0.426194
-574.310303,332.702637,758.605957,0.426948
-578.430176,337.005615,755.950928,0.427692
-571.563721,327.850342,760.711670,0.428535
-570.739746,336.181641,768.585205,0.429279
-571.380615,332.977295,760.711670,0.430013
-573.303223,328.857422,748.077393,0.430748
-568.908691,332.336426,760.620117,0.431483
-566.711426,331.878662,753.936768,0.432238
-570.190430,340.209961,767.578125,0.432983
-569.274902,336.639404,762.359619,0.433727
-568.359375,336.639404,756.225586,0.434472
-568.359375,339.477539,768.402100,0.435216
-568.267822,331.787109,756.958008,0.435970
-560.852051,339.111328,758.972168,0.436705
-557.464600,327.941895,761.718750,0.437440
-554.809570,337.097168,766.571045,0.438174
-559.844971,326.934814,756.134033,0.438934
-566.162109,329.956055,752.197266,0.439679
-562.957764,335.723877,754.028320,0.440423
-561.035156,332.794189,751.922607,0.441167
-560.394287,330.413818,750.000000,0.441912
-559.936523,327.575684,754.394531,0.442647
-554.077148,334.350586,757.690430,0.443381
-563.781738,328.857422,760.711670,0.444115
-564.422607,337.463379,763.641357,0.444885
-557.464600,330.871582,763.000488,0.445628
-554.992676,340.759277,766.571045,0.446371
-564.605713,320.251465,758.605957,0.447114
-560.394287,330.413818,757.873535,0.447865
-566.345215,324.737549,750.915527,0.448608
-562.225342,328.125000,759.613037,0.449358
-555.999756,327.026367,754.486084,0.450108
-562.774658,334.533691,762.359619,0.450910
-562.316895,326.751709,755.767822,0.451656
-560.577393,331.054688,759.338379,0.452401
-555.541992,329.681396,764.465332,0.453146
-557.189941,324.462891,762.542725,0.453906
-554.077148,327.941895,757.232666,0.454684
-554.351807,327.667236,764.556885,0.455441
-555.816650,329.864502,754.669189,0.456210
-555.633545,332.061768,759.246826,0.456957
-563.232422,329.315186,752.838135,0.457701
-558.837891,329.956055,760.620117,0.458446
-553.344727,323.089600,757.965088,0.459191
-549.774170,326.660156,756.408691,0.459935
-556.823730,328.125000,758.789062,0.460680
-558.471680,323.822021,756.683350,0.461424
-551.422119,328.765869,755.126953,0.462181
-553.436279,317.871094,756.225586,0.462915
-554.718018,314.392090,757.690430,0.463649
-550.781250,318.054199,748.168945,0.464383
-551.239014,313.385010,750.000000,0.465125
-555.450439,319.152832,748.168945,0.465871
-547.576904,318.969727,753.479004,0.466616
-550.231934,322.082520,747.161865,0.467360
-553.894043,321.166992,745.239258,0.468106
-558.471680,325.012207,752.197266,0.468851
-553.161621,317.596436,757.507324,0.469595
-553.344727,316.314697,756.683350,0.470340
-560.577393,323.822021,758.789062,0.471085
-564.880371,317.687988,753.479004,0.471830
-562.500000,316.497803,753.204346,0.472575
-563.049316,320.892334,753.662109,0.473319
-551.239014,316.864014,747.619629,0.474063
-558.746338,316.589355,751.007080,0.474841
-560.394287,315.673828,748.626709,0.475590
-561.401367,315.216064,754.669189,0.476335
-557.281494,309.631348,749.450684,0.477096
-557.739258,313.751221,753.845215,0.477841
-553.253174,311.279297,754.669189,0.478585
-559.753418,309.082031,751.647949,0.479330
-583.557129,318.237305,750.457764,0.480083
-558.380127,315.856934,747.528076,0.480828
-557.830811,319.702148,748.718262,0.481572
-562.133789,311.462402,750.274658,0.482316
-556.823730,309.814453,756.774902,0.483060
-561.676025,311.645508,753.753662,0.483795
-566.345215,317.047119,754.760742,0.484529
-566.986084,317.321777,754.119873,0.485264
-565.521240,323.364258,750.000000,0.486047
-559.478760,316.497803,751.098633,0.486792
-562.316895,317.687988,754.028320,0.487536
-570.556641,320.983887,749.816895,0.488281
-568.725586,317.138672,751.556396,0.489035
-563.690186,310.638428,755.584717,0.489780
-564.147949,306.060791,750.091553,0.490524
-562.866211,311.828613,750.640869,0.491269
-563.415527,314.483643,751.556396,0.492030
-567.626953,311.279297,751.739502,0.492776
-572.662354,313.659668,749.633789,0.493520
-566.436768,316.040039,749.359131,0.494264
-563.964844,312.103271,749.359131,0.495020
-564.147949,318.145752,751.007080,0.495765
-561.767578,321.624756,747.619629,0.496510
-563.049316,313.385010,741.760254,0.497254
-563.049316,319.244385,758.697510,0.497999
-567.352295,329.681396,752.746582,0.498733
-561.859131,319.244385,755.493164,0.499569
-566.528320,320.068359,752.014160,0.500304
-567.718506,319.885254,761.718750,0.501066
-566.162109,314.758301,755.218506,0.501811
-569.824219,318.603516,752.471924,0.502555
-571.563721,312.835693,730.499268,0.503300
-569.183350,319.427490,751.098633,0.504055
-562.591553,317.871094,753.112793,0.504799
-564.514160,324.462891,752.288818,0.505544
-568.450928,323.822021,753.387451,0.506288
-567.260742,319.244385,756.134033,0.507043
-570.648193,326.477051,749.084473,0.507787
-569.732666,319.519043,753.845215,0.508531
-567.169189,322.723389,748.352051,0.509275
-563.049316,318.145752,747.619629,0.510019
-572.845459,318.695068,755.493164,0.510754
-570.831299,320.343018,756.408691,0.511489
-569.824219,326.843262,762.359619,0.512223
-568.176270,319.793701,758.331299,0.512991
-572.113037,318.237305,749.633789,0.513735
-567.993164,328.216553,759.429932,0.514479
-573.120117,323.272705,759.887695,0.515222
-567.260742,318.603516,754.394531,0.515977
-564.971924,326.019287,758.056641,0.516721
-570.922852,326.934814,755.035400,0.517463
-571.838379,327.209473,766.845703,0.518206
-570.190430,325.469971,762.359619,0.518959
-577.423096,322.448730,758.422852,0.519703
-569.000244,323.638916,761.169434,0.520446
-560.943604,319.610596,754.577637,0.521190
-571.380615,318.878174,758.605957,0.522030
-573.852539,324.096680,753.021240,0.522783
-570.648193,325.561523,760.162354,0.523526
-565.338135,320.251465,761.444092,0.524291
-563.323975,322.357178,753.295898,0.525034
-570.190430,322.265625,750.274658,0.525777
-571.746826,329.681396,760.894775,0.526528
-567.443848,323.730469,752.014160,0.527312
-566.802979,317.047119,754.760742,0.528071
-571.655273,316.223145,730.957031,0.528841
-565.155029,313.018799,759.155273,0.529587
-565.795898,321.990967,754.302979,0.530349
-559.570312,318.328857,755.310059,0.531090
-573.120117,314.483643,763.183594,0.531831
-570.831299,312.377930,759.155273,0.532574
-568.450928,310.913086,758.514404,0.533340
-584.014893,316.497803,754.119873,0.534086
-571.014404,312.744141,754.669189,0.534830
-573.394775,312.927246,751.373291,0.535575
-568.634033,312.194824,754.119873,0.536320
-573.120117,312.377930,757.965088,0.537055
-574.768066,309.265137,751.007080,0.537789
-571.655273,311.462402,753.753662,0.538526
-570.648193,313.293457,757.232666,0.539280
-571.472168,314.392090,759.155273,0.540014
-567.810059,309.539795,758.056641,0.540749
-569.458008,311.920166,754.669189,0.541483
-578.887939,306.243896,752.380371,0.542242
-577.606201,305.145264,750.549316,0.542988
-572.204590,307.617188,749.176025,0.543732
-579.528809,306.335449,747.436523,0.544477
-576.416016,304.962158,739.562988,0.545222
-576.232910,296.997070,742.492676,0.545966
-572.113037,311.279297,752.014160,0.546711
-566.253662,304.870605,748.077393,0.547455
-570.648193,307.159424,754.486084,0.548194
-574.951172,304.504395,746.704102,0.548928
-572.479248,305.694580,748.535156,0.549662
-570.465088,306.793213,751.922607,0.550396
-570.739746,312.011719,756.866455,0.551141
-572.113037,298.187256,749.084473,0.551886
-571.197510,308.349609,752.746582,0.552631
-568.267822,315.399170,756.225586,0.553376
-565.429688,308.349609,747.344971,0.554116
-569.183350,307.525635,756.683350,0.554850
-571.380615,302.764893,754.119873,0.555585
-578.796387,310.089111,752.838135,0.556319
-568.450928,311.370850,755.035400,0.557058
-576.599121,313.201904,755.218506,0.557802
-578.430176,311.920166,758.605957,0.558552
-570.281982,307.617188,752.380371,0.559336
-569.183350,307.067871,745.788574,0.560100
-561.584473,309.082031,745.788574,0.560846
-570.373535,308.166504,746.520996,0.561591
-568.725586,308.441162,750.457764,0.562336
-563.964844,307.434082,753.845215,0.563091
-561.950684,312.103271,753.387451,0.563836
-570.556641,315.490723,755.493164,0.564581
-566.619873,312.835693,753.295898,0.565326
-569.366455,318.511963,755.493164,0.566070
-574.676514,313.476562,753.112793,0.566804
-571.563721,315.032959,755.218506,0.567557
-565.979004,321.075439,754.669189,0.568302
-568.084717,319.702148,754.119873,0.569058
-566.253662,316.589355,773.254395,0.569802
-568.359375,323.272705,755.950928,0.570676
-564.514160,320.068359,759.063721,0.571421
-540.985107,319.427490,763.092041,0.572178
-557.739258,321.350098,765.472412,0.572923
-563.964844,316.040039,757.232666,0.573668
-565.429688,321.441650,757.873535,0.574413
-563.598633,323.730469,758.514404,0.575157
-540.069580,314.849854,754.394531,0.575891
-560.668945,321.075439,754.577637,0.576625
-567.169189,319.152832,753.021240,0.577360
-556.915283,319.427490,755.401611,0.578119
-562.408447,320.983887,761.169434,0.578864
-539.794922,323.730469,754.211426,0.579609
-567.535400,325.927734,759.613037,0.580354
-563.049316,329.681396,762.176514,0.581108
-558.013916,332.611084,756.683350,0.581853
-557.098389,328.582764,754.486084,0.582597
-550.506592,326.751709,758.148193,0.583342
-559.295654,327.209473,765.655518,0.584097
-564.239502,328.033447,753.570557,0.584842
-559.387207,334.167480,761.260986,0.585587
-555.541992,328.674316,757.415771,0.586331
-560.119629,321.075439,751.739502,0.587076
-557.189941,324.645996,757.415771,0.587811
-553.161621,322.265625,760.620117,0.588546
-554.443359,330.596924,755.035400,0.589280
-561.126709,326.019287,756.500244,0.590051
-561.950684,316.040039,751.647949,0.590796
-560.577393,324.371338,758.789062,0.591541
-559.570312,322.906494,762.268066,0.592288
-559.570312,331.329346,757.781982,0.593060
-555.267334,330.688477,747.161865,0.593813
-563.140869,325.195312,753.936768,0.594601
-559.661865,331.787109,753.662109,0.595346
-558.563232,317.779541,751.190186,0.596109
-559.844971,319.793701,751.831055,0.596857
-563.049316,325.561523,754.302979,0.597627
-558.837891,322.174072,761.627197,0.598389
-561.218262,328.948975,734.161377,0.599175
-573.577881,329.498291,757.415771,0.599926
-541.809082,323.730469,761.352539,0.600671
-561.676025,313.568115,751.922607,0.601417
-560.211182,321.899414,762.817383,0.602163
-566.070557,326.477051,765.289307,0.602908
-562.591553,325.286865,760.986328,0.603653
-539.245605,325.653076,763.092041,0.604415
-557.373047,322.906494,761.260986,0.605160
-567.443848,327.392578,754.119873,0.605904
-564.788818,323.547363,755.584717,0.606649
-571.014404,327.850342,757.049561,0.607391
-568.176270,323.730469,762.817383,0.608125
-569.549561,323.272705,755.218506,0.608859
-566.253662,324.645996,761.810303,0.609593
-571.929932,310.546875,751.190186,0.610345
-565.338135,321.807861,762.451172,0.611090
-573.120117,328.765869,755.493164,0.611834
-571.929932,324.645996,754.028320,0.612579
-571.289062,318.420410,758.514404,0.613323
-572.753906,317.779541,748.168945,0.614067
-567.535400,327.758789,755.401611,0.614812
-578.338623,317.687988,751.190186,0.615557
-578.338623,311.187744,746.978760,0.616302
-580.352783,316.131592,750.000000,0.617057
-586.669922,313.842773,746.795654,0.617801
-584.655762,311.645508,739.837646,0.618545
-576.965332,316.406250,744.140625,0.619290
-578.887939,317.687988,744.323730,0.620033
-576.599121,303.955078,747.253418,0.620767
-584.197998,311.370850,745.971680,0.621501
-583.648682,311.187744,750.274658,0.622235
-580.993652,307.708740,745.971680,0.623002
-586.303711,316.223145,753.479004,0.623748
-582.824707,315.948486,744.689941,0.624492
-589.782715,313.201904,747.070312,0.625281
-592.254639,312.103271,751.922607,0.626016
-587.310791,308.624268,752.105713,0.626750
-588.317871,314.300537,749.084473,0.627484
-588.043213,309.722900,746.429443,0.628224
-584.930420,307.708740,745.239258,0.628968
-582.916260,313.293457,752.746582,0.629713
-587.768555,310.546875,755.035400,0.630457
-591.888428,313.934326,745.422363,0.631205
-593.994141,312.927246,749.359131,0.631997
-590.972900,311.187744,753.112793,0.632743
-587.768555,313.476562,753.753662,0.633488
-589.691162,316.223145,751.007080,0.634312
-596.191406,314.025879,746.795654,0.635059
-591.979980,305.969238,748.077393,0.635804
-592.254639,311.645508,746.063232,0.636548
-596.740723,312.927246,745.239258,0.637350
-591.522217,312.377930,752.471924,0.638097
-592.529297,314.208984,758.148193,0.638842
-590.881348,313.293457,751.831055,0.639636
-595.184326,320.343018,750.823975,0.640373
-593.170166,319.427490,746.337891,0.641108
-586.578369,314.666748,761.993408,0.641939
-583.923340,315.673828,752.105713,0.642685
-581.726074,317.413330,752.838135,0.643430
-580.535889,328.216553,756.500244,0.644174
-574.768066,329.132080,762.725830,0.644955
-577.056885,329.956055,757.232666,0.645717
-575.775146,325.378418,759.613037,0.646467
-580.535889,329.681396,756.866455,0.647248
-577.239990,328.674316,762.908936,0.647993
-573.028564,329.589844,759.155273,0.648753
-577.423096,327.117920,762.725830,0.649551
-577.789307,328.308105,764.007568,0.650321
-574.310303,328.399658,765.747070,0.651067
-571.197510,330.047607,764.923096,0.651811
-570.190430,332.519531,755.035400,0.652556
-567.810059,330.780029,757.507324,0.653301
-572.479248,333.160400,762.817383,0.654092
-569.274902,331.787109,766.479492,0.654840
-577.972412,326.019287,768.035889,0.655585
-573.211670,329.772949,756.866455,0.656330
-576.232910,332.519531,754.486084,0.657075
-566.711426,335.723877,764.556885,0.657820
-568.908691,332.794189,765.014648,0.658564
-574.951172,330.047607,766.204834,0.659309
-576.232910,333.251953,767.028809,0.660065
-574.127197,328.948975,761.810303,0.660810
-572.753906,331.695557,759.063721,0.661554
-573.303223,326.110840,767.303467,0.662299
-574.310303,324.371338,760.345459,0.663049
-574.951172,330.047607,759.613037,0.663791
-582.092285,321.899414,759.429932,0.664568
-570.098877,322.082520,763.275146,0.665319
-573.303223,329.040527,755.859375,0.666065
-572.296143,326.293945,757.232666,0.666810
-574.951172,334.808350,763.183594,0.667579
-577.697754,327.209473,758.331299,0.668382
-581.176758,324.279785,762.908936,0.669164
-578.155518,316.406250,763.732910,0.669923
-581.634521,328.582764,760.620117,0.670673
-580.261230,330.413818,759.796143,0.671440
-573.669434,327.209473,760.253906,0.672176
-569.091797,319.702148,753.479004,0.672909
-579.254150,317.047119,754.760742,0.673643
-574.859619,317.504883,752.929688,0.674392
-576.873779,322.631836,750.274658,0.675127
-580.261230,320.159912,760.528564,0.675861
-575.683594,319.793701,756.591797,0.676621
-576.141357,317.138672,753.112793,0.677390
-573.486328,319.335938,755.310059,0.678137
-576.324463,316.772461,751.464844,0.678882
-579.162598,314.300537,754.486084,0.679627
-575.683594,315.490723,745.880127,0.680385
-574.218750,317.687988,753.753662,0.681130
-574.310303,316.314697,754.486084,0.681875
-578.247070,313.385010,754.669189,0.682619
-575.683594,304.779053,757.232666,0.683363
-579.986572,308.990479,747.619629,0.684098
-583.648682,306.701660,747.802734,0.684833
-578.338623,312.927246,744.598389,0.685567
-579.162598,308.349609,743.682861,0.686330
-573.577881,308.715820,742.767334,0.687075
-576.782227,302.581787,745.330811,0.687820
-577.239990,301.574707,749.633789,0.688565
-576.965332,309.997559,744.232178,0.689317
-574.310303,305.419922,746.978760,0.690061
-579.528809,302.032471,746.246338,0.690806
-575.958252,309.265137,739.288330,0.691551
-577.056885,308.990479,746.154785,0.692305
-579.254150,302.307129,744.689941,0.693066
-585.479736,305.511475,745.056152,0.693848
-573.852539,306.793213,749.542236,0.694594
-581.359863,306.152344,743.591309,0.695260
-580.444336,295.715332,743.408203,0.696048
-579.620361,323.272705,737.548828,0.696786
-582.000732,300.750732,737.823486,0.697520
-577.697754,306.152344,743.957520,0.698280
-578.430176,304.504395,738.647461,0.699025
-581.359863,303.222656,744.232178,0.699770
-580.535889,302.215576,742.858887,0.700515
-580.627441,305.694580,743.408203,0.701270
-574.493408,308.532715,749.450684,0.702015
-573.303223,300.659180,728.393555,0.702760
-572.845459,307.250977,744.415283,0.703504
-572.662354,301.208496,743.865967,0.704249
-576.232910,307.250977,745.147705,0.704984
-572.570801,311.645508,751.647949,0.705718
-569.915771,313.934326,731.048584,0.706452
-570.190430,307.434082,751.098633,0.707240
-562.133789,311.279297,748.718262,0.708034
-569.824219,309.906006,747.528076,0.708793
-568.084717,315.216064,754.486084,0.709541
-570.190430,327.026367,755.493164,0.710387
-569.732666,313.934326,755.493164,0.711142
-568.450928,312.103271,755.126953,0.711900
-572.479248,315.673828,749.176025,0.712678
-562.866211,317.871094,749.633789,0.713424
-567.535400,307.708740,744.873047,0.714287
-565.338135,316.314697,750.549316,0.715033
-567.077637,312.469482,746.887207,0.715795
-565.704346,310.638428,746.337891,0.716539
-565.887451,309.997559,750.000000,0.717284
-565.887451,312.194824,747.619629,0.718029
-565.063477,312.927246,743.499756,0.718661
-569.091797,309.539795,753.204346,0.719396
-569.458008,312.744141,751.831055,0.720131
-567.077637,319.519043,759.704590,0.720865
-565.338135,323.638916,762.634277,0.721647
-566.070557,314.575195,754.394531,0.722392
-564.880371,310.272217,756.317139,0.723137
-569.732666,311.279297,758.697510,0.723881
-565.429688,316.406250,753.021240,0.724636
-560.211182,313.018799,759.796143,0.725381
-568.267822,311.920166,757.415771,0.726125
-564.880371,317.779541,752.105713,0.726870
-561.767578,321.990967,758.514404,0.727624
-568.359375,321.624756,758.697510,0.728369
-571.014404,320.526123,757.781982,0.729114
-573.760986,322.082520,756.774902,0.729859
-568.084717,316.864014,752.563477,0.730548
-569.641113,320.617676,757.965088,0.731293
-576.782227,319.793701,764.923096,0.732038
-576.324463,322.265625,760.894775,0.732782
-574.584961,325.927734,755.767822,0.733578
-572.570801,318.145752,755.126953,0.734331
-572.021484,319.610596,758.148193,0.735120
-573.303223,319.152832,763.916016,0.735871
-570.648193,320.892334,756.958008,0.736635
-564.056396,319.702148,757.781982,0.737381
-573.120117,318.878174,758.880615,0.738126
-574.218750,317.230225,766.296387,0.738870
-570.739746,316.497803,753.753662,0.739673
-569.732666,317.596436,759.796143,0.740458
-573.028564,316.772461,762.359619,0.741247
-572.204590,318.603516,759.613037,0.742035
-571.380615,326.293945,762.268066,0.742784
-575.042725,319.519043,764.282227,0.743579
-574.951172,312.469482,753.570557,0.744326
-572.479248,313.842773,755.950928,0.745071
-575.042725,315.216064,763.824463,0.745816
-565.979004,319.335938,758.056641,0.746561
-576.690674,320.617676,759.429932,0.747305
-570.373535,318.511963,757.507324,0.748065
-582.092285,320.983887,759.521484,0.748811
-578.521729,316.314697,752.014160,0.749555
-584.106445,311.462402,749.450684,0.750354
-584.197998,309.539795,749.267578,0.751106
-586.578369,310.546875,750.732422,0.751851
-578.796387,319.885254,754.669189,0.752713
-584.197998,314.208984,749.816895,0.753461
-572.662354,308.715820,749.725342,0.754360
-579.620361,312.103271,745.147705,0.755202
-582.824707,310.180664,751.464844,0.755948
-582.641602,311.737061,752.563477,0.756697
-585.571289,303.588867,750.732422,0.757441
-587.310791,310.180664,751.464844,0.758185
-585.754395,313.201904,755.676270,0.758928
-583.099365,312.011719,746.795654,0.759671
-583.557129,312.652588,743.682861,0.760426
-583.648682,309.906006,752.380371,0.761169
-576.049805,315.582275,752.746582,0.761913
-580.169678,314.483643,745.056152,0.762656
-582.550049,316.314697,749.450684,0.763409
-586.578369,313.842773,757.965088,0.764153
-579.986572,313.751221,753.204346,0.764897
-571.746826,314.758301,753.936768,0.765640
-577.056885,314.941406,755.310059,0.766392
-574.127197,320.159912,749.725342,0.767198
-579.711914,317.138672,751.007080,0.767942
-579.437256,316.772461,755.767822,0.768686
-569.366455,319.702148,754.943848,0.769429
-582.733154,320.068359,759.338379,0.770173
-577.239990,316.864014,754.852295,0.770916
-575.958252,305.877686,748.077393,0.771659
-569.824219,309.631348,753.112793,0.772415
-578.247070,305.877686,748.077393,0.773159
-568.725586,312.377930,756.317139,0.773902
-576.232910,314.849854,755.676270,0.774730
-574.127197,312.286377,753.112793,0.775498
-563.323975,310.272217,747.436523,0.776286
-562.408447,321.258545,756.134033,0.777051
-567.077637,316.955566,749.084473,0.777840
-568.084717,317.871094,753.753662,0.778605
-566.619873,312.652588,745.513916,0.779373
-556.365967,313.293457,747.711182,0.780128
-565.704346,308.990479,752.929688,0.780944
-566.253662,316.589355,753.570557,0.781797
-557.556152,316.040039,755.401611,0.782585
-558.654785,310.455322,754.119873,0.783350
-557.739258,310.455322,748.718262,0.784220
-565.521240,322.631836,751.373291,0.785008
-561.035156,317.871094,758.422852,0.785770
-557.464600,314.025879,743.865967,0.786757
-564.605713,319.244385,752.655029,0.787529
-562.408447,322.357178,750.091553,0.788295
-561.309814,319.061279,747.070312,0.789136
-557.647705,317.687988,753.204346,0.789909
-557.281494,316.680908,757.965088,0.790671
-554.168701,313.110352,749.633789,0.791476
-561.950684,322.265625,746.520996,0.792288
-560.028076,323.730469,748.260498,0.793035
-550.872803,314.300537,752.838135,0.793773
-555.175781,317.504883,747.344971,0.794537
-552.703857,308.807373,770.050049,0.795270
-555.450439,316.406250,750.183105,0.796000
-557.098389,320.983887,758.972168,0.796730
-554.809570,316.040039,758.056641,0.797484
-557.556152,320.983887,756.317139,0.798238
-555.999756,317.871094,756.408691,0.798971
-554.718018,322.357178,755.126953,0.799702
-558.380127,323.089600,750.549316,0.800453
-557.464600,324.829102,754.394531,0.801183
-560.028076,320.159912,760.986328,0.801914
-560.028076,321.624756,758.148193,0.802644
-557.922363,324.554443,755.950928,0.803404
-559.570312,326.110840,755.859375,0.804145
-564.239502,322.082520,753.845215,0.804886
-564.514160,324.096680,753.021240,0.805629
-560.943604,327.026367,748.809814,0.806387
-559.387207,327.575684,759.246826,0.807157
-568.084717,324.188232,757.965088,0.807908
-572.845459,324.005127,731.048584,0.808650
-564.971924,325.103760,762.908936,0.809391
-566.802979,323.272705,756.958008,0.810132
-570.739746,322.540283,752.471924,0.810872
-572.753906,326.751709,759.063721,0.811613
-571.655273,326.385498,754.119873,0.812384
-573.028564,317.596436,759.246826,0.813138
-575.042725,323.547363,759.246826,0.813950
-568.267822,322.357178,750.183105,0.814719
-570.465088,324.096680,752.929688,0.815459
-572.479248,329.223633,758.331299,0.816200
-578.979492,320.983887,753.662109,0.816940
-576.782227,326.843262,751.281738,0.817694
-572.021484,329.589844,753.204346,0.818435
-579.162598,333.160400,759.338379,0.819176
-576.416016,322.723389,753.387451,0.819917
-574.310303,324.920654,755.218506,0.820591
-577.880859,325.653076,750.732422,0.821323
-573.944092,322.265625,747.802734,0.822053
-576.873779,327.667236,754.760742,0.822784
-577.514648,326.110840,759.338379,0.823545
-577.789307,322.814941,760.253906,0.824286
-608.459473,327.575684,756.134033,0.825027
-579.711914,332.244873,754.028320,0.825767
-580.993652,333.618164,760.894775,0.826519
-586.578369,350.006104,758.148193,0.827260
-580.261230,325.195312,755.218506,0.828000
-578.613281,331.054688,749.816895,0.828741
-576.416016,330.322266,759.796143,0.829495
-579.345703,331.512451,759.521484,0.830236
-580.627441,328.308105,757.415771,0.830976
-584.197998,327.667236,761.535645,0.831717
-587.219238,327.941895,751.647949,0.832455
-585.571289,322.814941,759.429932,0.833186
-582.092285,322.357178,752.197266,0.833916
-570.648193,324.371338,754.302979,0.834647
-581.359863,324.371338,756.134033,0.835407
-582.183838,326.568604,752.288818,0.836148
-583.648682,324.188232,751.556396,0.836889
-582.183838,326.751709,754.302979,0.837630
-573.577881,325.103760,748.626709,0.838379
-569.732666,321.899414,752.380371,0.839120
-581.726074,327.850342,762.084961,0.839861
-574.035645,326.019287,758.789062,0.840601
-572.845459,321.624756,750.457764,0.841342
-575.958252,324.371338,756.408691,0.842073
-580.810547,328.582764,751.190186,0.842804
-579.895020,318.695068,750.823975,0.843535
-572.387695,333.251953,765.380859,0.844286
-573.028564,330.230713,757.324219,0.845025
-578.155518,326.751709,760.528564,0.845764
-579.895020,329.223633,761.901855,0.846503
-568.359375,327.484131,757.781982,0.847253
-575.317383,327.575684,757.415771,0.847992
-570.007324,325.927734,764.099121,0.848732
-568.084717,326.568604,761.444092,0.849471
-574.768066,349.182129,761.169434,0.850222
-570.739746,329.132080,760.803223,0.850961
-572.753906,327.941895,745.147705,0.851700
-568.908691,326.934814,753.570557,0.852439
-573.028564,328.582764,761.718750,0.853188
-576.141357,327.209473,753.021240,0.853928
-574.493408,322.357178,751.922607,0.854667
-571.746826,327.026367,755.493164,0.855426
-571.655273,322.814941,756.866455,0.856179
-568.084717,319.427490,751.281738,0.856920
-572.204590,321.533203,757.049561,0.857752
-570.922852,320.068359,759.796143,0.858493
-571.655273,315.948486,752.655029,0.859245
-574.310303,323.181152,753.112793,0.859986
-574.035645,347.534180,756.225586,0.860727
-572.479248,330.871582,757.232666,0.861467
-572.479248,325.103760,757.232666,0.862208
-579.803467,327.026367,761.627197,0.862939
-573.486328,325.103760,756.774902,0.863669
-569.641113,329.406738,761.627197,0.864400
-572.937012,329.132080,758.697510,0.865154
-567.077637,321.533203,753.387451,0.865891
-572.296143,322.814941,761.627197,0.866628
-565.338135,330.047607,762.268066,0.867378
-568.908691,330.322266,753.204346,0.868137
-566.528320,326.202393,758.880615,0.868878
-579.071045,324.371338,761.444092,0.869619
-575.408936,334.625244,756.317139,0.870360
-572.021484,332.519531,756.591797,0.871111
-575.225830,325.836182,760.528564,0.871851
-577.880859,324.371338,752.563477,0.872592
-575.317383,326.477051,753.295898,0.873333
-575.958252,327.117920,753.112793,0.874074
-575.866699,328.582764,759.338379,0.874805
-574.859619,328.948975,753.204346,0.875536
-576.873779,307.159424,753.479004,0.876266
-573.852539,331.329346,754.760742,0.877023
-576.141357,326.934814,757.049561,0.877786
-572.662354,321.716309,757.415771,0.878545
-568.725586,324.005127,757.141113,0.879289
-567.810059,325.012207,749.267578,0.880020
-570.190430,329.772949,756.683350,0.880751
-576.873779,325.561523,764.099121,0.881482
-574.951172,318.420410,762.542725,0.882214
-580.078125,324.371338,762.176514,0.882945
-576.049805,320.800781,758.056641,0.883675
-580.261230,316.406250,758.789062,0.884406
-580.535889,321.075439,753.387451,0.885172
-567.443848,316.314697,757.690430,0.885928
-575.683594,318.328857,754.119873,0.886672
-579.895020,311.737061,754.211426,0.887425
-579.071045,313.842773,750.549316,0.888082
-579.345703,316.406250,752.746582,0.888823
-574.035645,313.385010,753.845215,0.889564
-577.056885,311.370850,753.662109,0.890304
-572.204590,315.856934,751.831055,0.891074
-573.852539,319.702148,754.760742,0.891817
-567.718506,318.695068,759.246826,0.892557
-574.035645,313.293457,755.950928,0.893298
-568.817139,303.771973,751.098633,0.894053
-580.078125,311.828613,750.549316,0.894795
-575.958252,319.335938,749.450684,0.895535
-572.021484,311.828613,748.443604,0.896276
-572.021484,311.920166,758.605957,0.897018
-572.387695,313.201904,758.789062,0.897748
-564.880371,315.948486,749.267578,0.898479
-569.000244,306.884766,749.359131,0.899210
-563.781738,324.829102,756.774902,0.899969
-568.542480,311.279297,753.112793,0.900710
-569.549561,306.152344,773.071289,0.901450
-565.429688,304.595947,752.838135,0.902191
-566.253662,310.272217,755.767822,0.902942
-565.795898,312.561035,751.281738,0.903683
-565.155029,311.279297,758.148193,0.904424
-572.662354,309.539795,751.464844,0.905165
-570.098877,310.913086,747.985840,0.905915
-565.429688,310.729980,756.866455,0.906655
-561.492920,315.307617,756.958008,0.907396
-566.436768,320.251465,746.337891,0.908135
-565.795898,319.976807,754.669189,0.908875
-566.253662,312.561035,756.500244,0.909606
-543.090820,316.772461,761.169434,0.910336
-563.690186,309.539795,754.943848,0.911067
-565.612793,307.525635,755.493164,0.911826
-560.668945,317.230225,757.873535,0.912567
-563.873291,316.497803,753.845215,0.913307
-558.105469,311.096191,753.662109,0.914048
-556.732178,315.307617,752.105713,0.914788
-563.232422,307.342529,757.415771,0.915520
-563.781738,312.377930,747.894287,0.916250
-563.598633,311.279297,744.964600,0.916981
-560.943604,313.842773,755.310059,0.917776
-562.225342,308.441162,753.295898,0.918562
-562.225342,307.617188,754.852295,0.919302
-562.683105,310.089111,745.239258,0.920043
-567.077637,317.321777,745.147705,0.920783
-567.626953,316.223145,751.556396,0.921524
-563.964844,311.370850,753.112793,0.922264
-540.893555,318.420410,753.570557,0.923005
-572.753906,313.110352,751.190186,0.923745
-572.204590,320.892334,752.655029,0.924485
-565.063477,317.047119,758.239746,0.925226
-569.091797,307.525635,758.605957,0.925965
-540.802002,311.004639,751.739502,0.926696
-562.774658,315.399170,755.493164,0.927427
-566.986084,318.054199,756.225586,0.928241
-564.880371,314.483643,753.479004,0.929002
-569.824219,306.610107,757.049561,0.929743
-568.267822,308.990479,749.633789,0.930501
-576.324463,314.941406,757.965088,0.931242
-565.155029,305.236816,751.922607,0.931995
-575.683594,313.018799,746.795654,0.932736
-575.134277,309.906006,751.556396,0.933477
-562.957764,316.772461,748.443604,0.934218
-567.077637,307.342529,749.450684,0.934968
-569.458008,307.159424,746.246338,0.935708
-569.824219,311.553955,753.936768,0.936449
-565.063477,308.898926,756.134033,0.937189
-569.824219,312.652588,754.669189,0.937933
-566.711426,316.864014,748.626709,0.938664
-567.901611,315.216064,753.021240,0.939395
-568.267822,306.793213,751.190186,0.940126
-568.450928,311.828613,746.520996,0.940861
-563.507080,310.638428,750.183105,0.941602
-567.260742,310.638428,756.683350,0.942342
-565.704346,307.342529,754.394531,0.943083
-565.795898,309.265137,752.197266,0.943823
-544.189453,302.581787,751.647949,0.944581
-566.802979,302.581787,745.422363,0.945339
-565.795898,312.561035,748.626709,0.946080
-567.535400,301.483154,753.936768,0.946838
-564.056396,308.807373,745.422363,0.947579
-568.450928,305.786133,748.077393,0.948319
-576.049805,306.060791,751.922607,0.949060
-569.915771,306.701660,753.570557,0.949821
-566.528320,306.976318,745.971680,0.950590
-564.147949,303.039551,749.359131,0.951358
-565.155029,302.490234,746.429443,0.952123
-573.303223,308.990479,749.267578,0.952917
-568.267822,313.201904,750.732422,0.953678
-568.542480,281.890869,753.112793,0.954491
-575.317383,302.673340,748.992920,0.955261
-570.190430,312.561035,756.225586,0.956047
-574.310303,300.750732,751.831055,0.956817
-573.852539,304.412842,751.098633,0.957583
-569.732666,308.990479,750.091553,0.958368
-570.648193,309.082031,752.014160,0.959118
-564.697266,316.680908,754.119873,0.959859
-564.331055,310.638428,756.958008,0.960599
-563.415527,316.131592,753.936768,0.961360
-564.331055,312.561035,753.845215,0.962102
-565.429688,311.737061,750.366211,0.962842
-570.190430,316.314697,755.218506,0.963583
-575.317383,315.582275,756.317139,0.964327
-574.768066,316.497803,754.760742,0.965060
-574.035645,316.680908,754.760742,0.965791
-570.831299,318.328857,750.274658,0.966521
-571.014404,312.835693,750.732422,0.967280
-573.760986,312.103271,747.985840,0.968017
-574.401855,307.250977,749.542236,0.968754
-568.084717,316.406250,751.739502,0.969518
-567.077637,315.673828,754.119873,0.970299
-574.768066,308.898926,753.753662,0.971060
-573.394775,308.441162,752.380371,0.971818
-575.775146,311.828613,753.112793,0.972574
-573.486328,314.300537,752.197266,0.973353
-571.380615,310.089111,754.943848,0.974112
-572.662354,310.729980,752.014160,0.974869
-579.254150,314.758301,752.380371,0.975632
-581.085205,311.828613,751.556396,0.976384
-574.310303,304.595947,727.844238,0.977135
-574.310303,310.546875,751.098633,0.977870
-576.965332,304.962158,758.148193,0.978647
-580.718994,310.089111,752.288818,0.979390
-572.204590,308.990479,749.359131,0.980130
-570.648193,310.638428,754.943848,0.980870
-575.042725,310.638428,751.281738,0.981608
-570.648193,308.532715,756.683350,0.982339
-577.789307,311.645508,752.014160,0.983070
-573.577881,313.110352,749.908447,0.983801
-574.310303,312.469482,754.028320,0.984536
-581.268311,307.983398,752.197266,0.985277
-580.810547,318.237305,755.859375,0.986018
-583.007812,311.370850,751.922607,0.986762
-576.416016,314.758301,757.690430,0.987502
-578.247070,315.582275,752.929688,0.988233
-584.106445,320.800781,751.647949,0.988965
-582.366943,314.849854,752.929688,0.989696
-580.444336,318.969727,753.021240,0.990426
-575.408936,316.223145,754.028320,0.991171
-576.599121,316.497803,749.267578,0.991910
-581.726074,316.864014,749.816895,0.992650
-584.289551,313.201904,749.816895,0.993397
-577.148438,315.490723,754.302979,0.994137
-576.873779,308.715820,754.394531,0.994876
-580.535889,317.596436,746.520996,0.995641
-576.782227,322.174072,757.049561,0.996393
-577.606201,317.230225,761.535645,0.997135
-578.247070,315.856934,756.866455,0.997875
-580.169678,319.427490,760.162354,0.998616
-576.324463,318.145752,766.113281,0.999366
-580.352783,314.392090,756.317139,1.000195
-572.570801,323.547363,730.041504,1.000937
-580.810547,321.258545,753.295898,1.001677
-575.134277,316.223145,754.211426,1.002411
-580.718994,318.328857,758.514404,1.003142
-580.261230,322.082520,754.486084,1.003873
-573.211670,319.885254,760.345459,1.004604
-574.676514,320.800781,759.887695,1.005344
-574.951172,325.195312,751.464844,1.006085
-575.775146,327.301025,753.845215,1.006826
-576.965332,320.983887,756.134033,1.007566
-574.768066,327.026367,754.394531,1.008306
-578.063965,322.540283,750.000000,1.009046
-576.690674,317.413330,756.408691,1.009787
-575.317383,312.835693,744.506836,1.010527
-577.331543,319.702148,749.359131,1.011267
-577.789307,325.378418,751.098633,1.012007
-574.035645,328.308105,754.669189,1.012747
-579.345703,315.032959,756.225586,1.013488
-579.345703,314.208984,756.317139,1.014223
-579.803467,320.068359,752.929688,1.014954
-580.627441,313.842773,758.605957,1.015685
-575.408936,315.582275,755.676270,1.016415
-572.662354,316.406250,756.591797,1.017153
-576.782227,318.695068,750.732422,1.017892
-574.493408,317.596436,756.500244,1.018675
-577.239990,318.695068,757.141113,1.019415
-578.063965,320.068359,753.845215,1.020172
-576.782227,322.998047,769.775391,1.020916
-577.056885,326.843262,763.366699,1.021685
-575.775146,330.688477,763.549805,1.022431
-576.599121,326.477051,754.943848,1.023191
-580.444336,320.434570,757.232666,1.023936
-579.254150,330.230713,753.570557,1.024710
-579.345703,320.251465,755.310059,1.025466
-574.310303,325.286865,758.331299,1.026224
-570.007324,327.392578,753.479004,1.026962
-575.958252,323.730469,755.310059,1.027692
-575.683594,322.631836,748.809814,1.028445
-568.267822,325.561523,752.105713,1.029176
-574.584961,329.040527,753.753662,1.029906
-585.296631,323.089600,761.444092,1.030637
-582.458496,323.364258,756.317139,1.031383
-574.035645,326.934814,761.260986,1.032113
-574.859619,322.082520,745.697021,1.032844
-577.697754,316.223145,748.168945,1.033574
-576.232910,324.737549,751.922607,1.034321
-579.803467,318.603516,753.387451,1.035052
-581.268311,331.329346,753.112793,1.035782
-581.909180,317.779541,750.732422,1.036514
-580.261230,315.399170,752.380371,1.037274
-570.739746,312.194824,752.929688,1.038015
-572.296143,324.462891,752.197266,1.038756
-575.592041,326.843262,760.894775,1.039496
-573.028564,320.343018,750.183105,1.040247
-568.176270,322.265625,757.781982,1.040988
-573.394775,326.202393,757.507324,1.041729
-571.655273,324.645996,754.852295,1.042469
-569.000244,319.152832,757.415771,1.043219
-575.592041,326.843262,752.746582,1.043959
-581.909180,319.061279,756.042480,1.044700
-575.042725,314.758301,752.655029,1.045440
-573.760986,319.702148,752.014160,1.046181
-575.592041,323.547363,757.873535,1.046912
-573.852539,325.836182,752.380371,1.047643
-577.331543,327.667236,753.662109,1.048374
-578.887939,321.075439,746.612549,1.049133
-571.380615,324.188232,755.950928,1.049873
-574.768066,322.540283,751.556396,1.050613
-567.077637,325.195312,762.359619,1.051353
-572.113037,324.920654,750.183105,1.052094
-567.901611,322.174072,747.436523,1.052838
-567.169189,323.181152,753.479004,1.053571
-573.669434,321.807861,753.570557,1.054319
-567.443848,320.617676,746.429443,1.055076
-572.479248,318.328857,743.957520,1.055817
-567.443848,318.511963,751.922607,1.056557
-561.309814,325.378418,755.859375,1.057295
-576.049805,328.399658,756.500244,1.058057
-569.641113,320.709229,755.035400,1.058798
-567.443848,319.702148,756.591797,1.059539
-564.697266,316.589355,754.028320,1.060279
-569.000244,325.561523,755.126953,1.061029
-577.331543,317.962646,760.711670,1.061771
-568.084717,321.990967,752.563477,1.062530
-576.965332,321.533203,754.119873,1.063271
-577.331543,322.998047,728.576660,1.064024
-574.218750,315.856934,753.936768,1.064764
-566.802979,315.124512,753.021240,1.065504
-569.915771,317.596436,752.471924,1.066245
-569.183350,325.653076,757.690430,1.067011
-579.345703,321.441650,748.443604,1.067752
-571.655273,325.927734,752.380371,1.068493
-576.324463,327.575684,751.281738,1.069241
-573.577881,329.864502,759.613037,1.069982
-579.895020,323.181152,753.479004,1.070809
-570.007324,321.441650,759.246826,1.071568
-567.993164,319.061279,751.007080,1.072310
-570.922852,327.301025,753.387451,1.073051
-571.197510,328.033447,754.211426,1.073792
-574.584961,324.645996,759.338379,1.074532
-571.014404,325.836182,756.683350,1.075272
-570.007324,321.899414,755.035400,1.076012
-569.732666,325.103760,761.901855,1.076753
-570.373535,321.716309,763.824463,1.077493
-568.634033,320.343018,752.471924,1.078228
-568.542480,321.533203,757.873535,1.078959
-570.281982,323.638916,757.507324,1.079689
-569.183350,319.519043,750.091553,1.080420
-573.486328,318.237305,754.211426,1.081154
-566.619873,318.969727,761.901855,1.081896
-561.767578,320.251465,750.732422,1.082637
-566.619873,321.166992,756.225586,1.083377
-573.120117,317.687988,751.098633,1.084118
-577.606201,314.300537,751.464844,1.084859
-577.056885,323.089600,743.682861,1.085599
-576.965332,321.990967,747.528076,1.086339
-564.697266,328.308105,753.204346,1.087080
-569.641113,324.005127,752.197266,1.087820
-572.021484,317.321777,755.859375,1.088561
-575.592041,320.892334,750.366211,1.089301
-576.141357,317.962646,756.408691,1.090060
-577.514648,318.328857,753.845215,1.090791
-576.141357,323.181152,753.570557,1.091522
-569.458008,319.976807,757.415771,1.092259
-566.253662,320.251465,752.838135,1.093016
-572.570801,308.349609,754.577637,1.093757
-568.542480,320.159912,752.471924,1.094487
-572.570801,319.335938,749.450684,1.095218
-569.458008,315.948486,753.112793,1.095991
-572.662354,310.729980,752.838135,1.096798
-569.000244,315.124512,754.760742,1.097565
-572.570801,321.258545,752.655029,1.098313
-571.289062,317.321777,755.950928,1.099053
-565.338135,324.920654,753.021240,1.099794
-570.007324,319.976807,751.922607,1.100534
-572.296143,314.117432,752.655029,1.101274
-578.155518,316.497803,756.958008,1.102015
-576.873779,322.082520,753.753662,1.102755
-576.599121,313.751221,755.584717,1.103496
-571.380615,320.068359,753.570557,1.104254
-568.450928,316.406250,751.373291,1.104985
-570.922852,319.152832,765.380859,1.105716
-575.225830,309.906006,759.704590,1.106447
-570.922852,320.251465,762.817383,1.107181
-566.802979,315.124512,758.422852,1.107924
-565.704346,312.377930,759.429932,1.108664
-572.387695,310.546875,751.647949,1.109405
-569.274902,319.702148,748.626709,1.110145
-561.492920,326.477051,754.669189,1.110886
-564.056396,315.216064,748.535156,1.111626
-567.352295,320.617676,750.640869,1.112367
-566.894531,323.638916,752.105713,1.113107
-571.655273,325.561523,757.873535,1.113848
-569.641113,320.251465,750.457764,1.114589
-566.162109,329.589844,752.746582,1.115329
-562.957764,327.209473,760.711670,1.116077
-567.443848,317.321777,752.105713,1.116808
-563.873291,328.674316,764.556885,1.117538
-562.500000,324.829102,759.704590,1.118269
-570.831299,328.491211,758.331299,1.119019
-563.598633,332.794189,766.387939,1.119795
-577.606201,330.230713,765.289307,1.120536
-575.958252,325.378418,757.690430,1.121277
-571.197510,329.589844,752.655029,1.122036
-568.267822,330.230713,758.239746,1.122776
-566.619873,329.956055,761.535645,1.123516
-561.950684,329.772949,761.352539,1.124256
-566.070557,333.251953,759.246826,1.124997
-572.753906,330.871582,763.092041,1.125727
-576.324463,334.167480,759.246826,1.126458
-574.768066,332.977295,758.605957,1.127189
-566.436768,333.160400,758.880615,1.127920
-573.486328,328.491211,760.345459,1.128651
-568.908691,329.681396,763.366699,1.129382
-572.113037,325.744629,759.979248,1.130139
-572.937012,323.272705,756.225586,1.130887
-563.598633,330.596924,767.578125,1.131628
-572.937012,333.618164,763.549805,1.132368
-566.711426,326.110840,758.605957,1.133109
-570.922852,326.019287,761.627197,1.133859
-568.817139,332.885742,755.584717,1.134600
-569.458008,332.061768,756.683350,1.135340
-570.739746,327.941895,760.894775,1.136080
-576.416016,328.125000,760.528564,1.136822
-576.049805,330.963135,759.521484,1.137553
-567.901611,319.793701,763.458252,1.138310
-572.113037,323.089600,761.901855,1.139051
-569.458008,321.533203,757.507324,1.139792
-572.845459,330.596924,759.429932,1.140528
-570.831299,324.005127,763.183594,1.141344
-572.479248,319.702148,760.162354,1.142075
-568.634033,320.343018,758.514404,1.142832
-570.190430,323.730469,765.289307,1.143573
-569.458008,321.807861,755.767822,1.144314
-571.838379,328.399658,759.063721,1.145054
-571.929932,328.491211,755.401611,1.145794
-562.500000,321.716309,762.725830,1.146525
-564.056396,327.758789,760.803223,1.147256
-562.225342,316.680908,753.662109,1.147986
-561.767578,320.800781,755.676270,1.148742
-565.704346,312.011719,761.169434,1.149483
-568.267822,319.061279,753.479004,1.150223
-564.605713,315.582275,755.859375,1.150964
-569.915771,312.469482,755.676270,1.151717
-565.795898,309.997559,761.810303,1.152459
-568.084717,312.561035,764.648438,1.153199
-568.359375,314.666748,754.119873,1.153940
-565.155029,313.751221,751.281738,1.154691
-566.802979,309.265137,746.612549,1.155432
-567.810059,312.103271,752.014160,1.156173
-565.795898,312.011719,752.471924,1.156913
-565.338135,309.356689,743.682861,1.157654
-559.661865,321.258545,744.140625,1.158384
-556.732178,312.286377,750.823975,1.159115
-564.056396,311.004639,750.274658,1.159845
-563.323975,316.131592,747.619629,1.160606
-557.189941,315.307617,751.647949,1.161345
-558.380127,327.667236,745.330811,1.162084
-565.612793,314.483643,749.359131,1.162831
-560.485840,311.920166,751.556396,1.163597
-561.309814,303.131104,754.852295,1.164365
-557.006836,313.751221,757.049561,1.165112
-560.211182,317.596436,754.394531,1.165852
-563.507080,317.047119,748.809814,1.166612
-560.943604,313.476562,728.393555,1.167351
-560.577393,308.532715,742.218018,1.168090
-559.478760,310.821533,750.732422,1.168829
-561.950684,313.201904,754.119873,1.169575
-564.147949,304.229736,752.105713,1.170312
-564.788818,308.258057,752.655029,1.171061
-563.049316,317.138672,749.176025,1.171797
-563.964844,310.913086,753.295898,1.172552
-566.070557,311.645508,753.479004,1.173298
-584.381104,310.455322,750.183105,1.174052
-559.753418,312.652588,749.267578,1.174821
-564.422607,312.561035,741.760254,1.175551
-564.331055,308.624268,744.689941,1.176282
-560.760498,316.680908,750.000000,1.177012
-559.936523,305.236816,752.563477,1.177759
-560.668945,309.448242,748.992920,1.178490
-566.070557,307.800293,748.809814,1.179220
-560.852051,307.434082,746.795654,1.179950
-558.746338,309.631348,750.091553,1.180698
-570.556641,308.715820,744.598389,1.181430
-567.626953,313.934326,747.802734,1.182160
-569.000244,314.300537,727.386475,1.182891
-568.725586,312.561035,738.739014,1.183648
-566.802979,320.526123,741.302490,1.184388
-565.429688,322.357178,746.337891,1.185127
-563.049316,318.878174,745.971680,1.185866
-564.422607,316.314697,749.725342,1.186615
-571.197510,319.519043,746.795654,1.187355
-573.028564,321.350098,756.958008,1.188094
-569.183350,325.378418,752.380371,1.188833
-572.937012,320.617676,746.520996,1.189579
-571.014404,319.885254,749.725342,1.190316
-566.345215,325.744629,745.239258,1.191062
-572.204590,322.906494,745.513916,1.191804
-570.831299,340.484619,750.549316,1.192546
-573.669434,324.188232,756.042480,1.193277
-572.021484,321.716309,747.253418,1.194008
-577.606201,322.906494,753.387451,1.194738
-571.289062,329.406738,751.190186,1.195496
-569.000244,327.117920,756.317139,1.196237
-565.063477,322.082520,763.641357,1.196977
-575.225830,329.315186,756.591797,1.197718
-574.676514,327.026367,758.605957,1.198468
-574.584961,322.631836,758.239746,1.199209
-576.599121,329.589844,754.302979,1.199950
-569.274902,328.308105,761.718750,1.200691
-572.387695,326.660156,756.958008,1.201432
-575.042725,323.547363,764.373779,1.202162
-572.021484,329.406738,762.634277,1.202893
-578.430176,332.061768,757.232666,1.203624
-574.584961,329.315186,757.873535,1.204375
-569.732666,326.110840,764.007568,1.205114
-568.634033,305.877686,761.535645,1.205853
-578.338623,327.209473,759.429932,1.206592
-578.155518,325.378418,759.155273,1.207340
-578.613281,327.117920,760.894775,1.208079
-577.697754,334.625244,755.950928,1.208819
-577.423096,337.005615,758.697510,1.209558
-579.071045,330.047607,749.725342,1.210307
-574.859619,325.927734,757.690430,1.211047
-576.690674,304.779053,763.092041,1.211875
-577.423096,321.624756,764.282227,1.212635
-581.359863,324.188232,764.739990,1.213396
-580.352783,323.272705,760.620117,1.214137
-579.803467,317.413330,757.415771,1.214877
-574.768066,322.906494,762.725830,1.215635
-580.169678,320.983887,761.993408,1.216386
-570.007324,326.385498,756.958008,1.217126
-569.274902,328.216553,757.324219,1.217866
-566.802979,324.371338,759.613037,1.218606
-572.662354,325.286865,761.077881,1.219357
-571.838379,324.645996,759.338379,1.220098
-573.211670,330.230713,766.845703,1.220838
-579.345703,328.125000,769.500732,1.221578
-572.845459,330.688477,762.176514,1.222319
-572.845459,330.871582,759.338379,1.223050
-570.922852,324.462891,754.394531,1.223781
-573.211670,326.019287,751.281738,1.224511
-576.049805,328.491211,753.662109,1.225268
-572.937012,328.033447,758.148193,1.226009
-571.655273,331.970215,766.937256,1.226750
-577.056885,318.603516,760.528564,1.227490
-568.908691,325.653076,752.014160,1.228240
-573.120117,324.371338,754.119873,1.228980
-570.007324,326.477051,753.204346,1.229721
-566.711426,326.202393,766.754150,1.230461
-572.479248,326.934814,763.641357,1.231211
-571.563721,324.737549,757.965088,1.231952
-567.443848,323.364258,757.507324,1.232697
-570.281982,333.801270,765.106201,1.233443
-573.028564,326.843262,753.662109,1.234223
-564.880371,323.181152,757.141113,1.234972
-574.035645,318.420410,757.049561,1.235713
-575.683594,319.885254,753.845215,1.236454
-572.296143,320.251465,763.916016,1.237229
-576.416016,351.470947,764.831543,1.237980
-570.648193,312.103271,756.774902,1.238746
-571.197510,317.779541,758.697510,1.239517
-578.338623,318.328857,756.774902,1.240258
-578.796387,317.504883,757.232666,1.240998
-572.662354,316.406250,765.472412,1.241738
-566.436768,322.631836,759.613037,1.242488
-572.021484,316.680908,760.803223,1.243229
-565.979004,320.251465,743.957520,1.243969
-567.626953,320.617676,754.669189,1.244709
-574.493408,315.307617,755.584717,1.245450
-578.979492,327.667236,753.662109,1.246181
-575.408936,319.519043,756.500244,1.246912
-566.070557,314.758301,759.155273,1.247643
-567.718506,315.216064,754.028320,1.248402
-573.211670,319.976807,751.831055,1.249144
-581.451416,318.511963,757.598877,1.249884
-579.711914,319.976807,751.190186,1.250625
-570.831299,319.885254,751.556396,1.251375
-575.866699,322.906494,743.316650,1.252116
-572.937012,316.314697,746.612549,1.252856
-576.690674,316.955566,748.443604,1.253596
-576.873779,312.927246,752.014160,1.254346
-574.859619,317.230225,748.077393,1.255087
-570.098877,315.765381,753.204346,1.255828
-576.141357,311.096191,758.422852,1.256568
-565.521240,315.032959,750.366211,1.257308
-568.908691,313.934326,745.513916,1.258039
-575.866699,319.335938,744.598389,1.258769
-577.880859,321.899414,744.689941,1.259499
-579.528809,307.434082,732.788086,1.260258
-576.965332,309.356689,747.894287,1.260999
-574.951172,306.976318,750.549316,1.261738
-577.239990,307.891846,745.788574,1.262478
-579.071045,307.891846,747.070312,1.263231
-577.514648,311.553955,738.464355,1.263972
-575.225830,310.729980,746.978760,1.264712
-578.613281,311.645508,740.753174,1.265453
-575.683594,305.694580,748.352051,1.266190
-568.450928,308.258057,747.528076,1.266920
-564.422607,316.223145,749.084473,1.267651
-577.880859,312.011719,750.274658,1.268381
-574.768066,317.230225,753.295898,1.269131
-574.310303,320.434570,756.500244,1.269870
-568.450928,320.526123,753.662109,1.270609
-566.528320,317.962646,750.640869,1.271348
-574.493408,316.864014,758.514404,1.272097
-571.197510,323.089600,755.859375,1.272837
-564.239502,321.350098,754.669189,1.273576
-566.436768,317.413330,754.943848,1.274315
-571.472168,314.666748,752.288818,1.275064
-570.281982,320.251465,754.302979,1.275803
-565.338135,312.835693,753.570557,1.276542
-563.690186,319.244385,752.105713,1.277282
-571.014404,320.892334,751.190186,1.278031
-584.197998,314.575195,750.732422,1.278770
-570.831299,315.124512,762.359619,1.279509
-570.831299,316.314697,758.056641,1.280248
-568.542480,324.829102,753.112793,1.280997
-565.155029,319.152832,760.711670,1.281764
-569.366455,318.420410,752.288818,1.282506
-570.373535,321.990967,755.493164,1.283335
-571.105957,323.913574,749.176025,1.284092
-571.746826,321.807861,750.274658,1.284833
-569.274902,317.504883,753.295898,1.285574
-568.359375,321.166992,759.155273,1.286315
-558.013916,313.201904,749.176025,1.287065
-565.246582,325.927734,755.493164,1.287806
-561.584473,320.526123,761.901855,1.288546
-571.289062,318.054199,754.486084,1.289286
-574.035645,320.159912,750.457764,1.290026
-568.634033,320.800781,758.880615,1.290757
-571.929932,320.434570,756.500244,1.291488
-560.302734,321.441650,760.620117,1.292218
-569.641113,314.941406,763.366699,1.292975
-564.697266,324.920654,762.908936,1.293716
-558.380127,320.526123,760.437012,1.294456
-561.859131,316.589355,752.380371,1.295196
-562.866211,317.871094,752.746582,1.295946
-569.000244,313.751221,743.499756,1.296687
-566.345215,317.413330,746.520996,1.297427
-561.676025,322.448730,748.077393,1.298168
-566.253662,322.540283,756.774902,1.298918
-562.408447,316.131592,755.767822,1.299659
-565.246582,315.490723,745.422363,1.300409
-557.922363,308.441162,755.218506,1.301176
-563.507080,310.638428,742.309570,1.301925
-563.415527,321.258545,751.556396,1.302666
-564.971924,310.729980,751.373291,1.303405
-563.323975,311.553955,754.119873,1.304179
-559.936523,312.103271,748.718262,1.304925
-563.232422,310.455322,753.112793,1.305691
-563.964844,310.363770,752.563477,1.306438
-573.852539,313.110352,745.056152,1.307187
-566.894531,318.878174,753.845215,1.307930
-568.450928,315.582275,755.126953,1.308671
-565.429688,317.687988,730.590820,1.309411
-564.514160,323.547363,752.380371,1.310163
-572.387695,315.856934,748.077393,1.310904
-568.450928,315.032959,754.486084,1.311644
-569.641113,312.652588,751.556396,1.312385
-567.077637,320.800781,754.486084,1.313126
-574.310303,314.941406,748.260498,1.313857
-570.648193,321.533203,753.479004,1.314630
-570.556641,310.363770,750.274658,1.315380
-572.021484,314.392090,754.119873,1.316169
-573.852539,315.856934,754.669189,1.316945
-583.465576,310.546875,748.901367,1.317698
-579.620361,315.307617,754.028320,1.318462
-580.261230,314.300537,749.633789,1.319202
-584.564209,315.673828,750.640869,1.319933
-579.162598,318.878174,750.000000,1.320664
-578.979492,330.139160,748.443604,1.321408
-585.388184,313.018799,747.436523,1.322139
-572.753906,314.849854,747.528076,1.322870
-580.535889,311.920166,744.140625,1.323633
-581.909180,319.885254,744.689941,1.324379
-581.176758,326.751709,746.978760,1.325123
-581.909180,320.068359,746.154785,1.325856
-581.176758,325.378418,747.894287,1.326587
-580.078125,318.786621,752.380371,1.327352
-578.521729,321.258545,756.042480,1.328094
-580.810547,329.956055,754.119873,1.328835
-579.254150,324.554443,750.823975,1.329575
-579.895020,323.455811,753.112793,1.330327
-576.599121,319.519043,752.838135,1.331068
-581.268311,316.589355,750.091553,1.331808
-582.275391,320.617676,750.915527,1.332549
-574.676514,322.174072,754.394531,1.333290
-568.450928,325.195312,754.302979,1.334020
-573.303223,324.645996,751.647949,1.334751
-576.782227,323.272705,755.035400,1.335482
-573.394775,322.998047,752.014160,1.336243
-571.929932,326.660156,754.486084,1.336984
-578.979492,326.934814,751.739502,1.337725
-577.514648,329.772949,759.063721,1.338465
-579.895020,325.469971,758.789062,1.339216
-580.169678,326.110840,759.613037,1.339957
-571.929932,333.160400,756.866455,1.340697
-566.986084,328.216553,763.824463,1.341438
-568.542480,306.701660,755.859375,1.342179
-572.113037,328.216553,754.486084,1.342910
-575.500488,326.843262,754.577637,1.343640
-570.190430,325.927734,752.014160,1.344371
-570.922852,324.462891,759.521484,1.345114
-568.450928,307.800293,759.704590,1.345845
-571.380615,328.033447,763.824463,1.346575
-564.971924,325.561523,759.796143,1.347306
-571.563721,330.780029,757.965088,1.348060
-561.950684,321.899414,759.429932,1.348801
-557.464600,343.414307,760.620117,1.349542
-565.429688,332.153320,757.049561,1.350283
-567.443848,327.392578,761.993408,1.351034
-560.943604,328.948975,756.774902,1.351775
-565.338135,323.638916,758.331299,1.352516
-561.767578,329.223633,755.859375,1.353256
-552.795410,322.998047,759.887695,1.354095
-562.042236,337.463379,758.239746,1.354837
-572.479248,325.286865,758.972168,1.355579
-565.612793,330.230713,767.852783,1.356320
-560.485840,327.209473,762.176514,1.357072
-553.802490,328.582764,756.408691,1.357814
-565.429688,328.399658,758.514404,1.358561
-563.873291,323.547363,752.655029,1.359302
-566.345215,323.181152,762.268066,1.360053
-566.345215,330.413818,762.084961,1.360794
-562.133789,335.266113,755.767822,1.361535
-565.704346,331.604004,750.366211,1.362277
-567.352295,325.653076,762.634277,1.363027
-565.704346,330.139160,760.162354,1.363769
-563.507080,331.604004,764.556885,1.364510
-572.113037,331.970215,760.803223,1.365251
-572.753906,327.026367,769.500732,1.365991
-571.197510,324.737549,760.437012,1.366721
-576.049805,324.920654,764.190674,1.367452
-572.845459,330.139160,757.415771,1.368183
-573.944092,330.139160,758.789062,1.368937
-579.162598,351.013184,759.704590,1.369678
-573.211670,328.308105,757.232666,1.370419
-576.049805,326.385498,757.141113,1.371161
-573.669434,324.371338,762.359619,1.371912
-575.775146,332.702637,752.838135,1.372654
-575.317383,321.166992,764.648438,1.373395
-575.225830,329.498291,757.781982,1.374136
-573.028564,329.589844,756.591797,1.374889
-568.084717,321.075439,744.506836,1.375660
-574.310303,318.878174,751.007080,1.376413
-570.465088,322.082520,748.443604,1.377153
-569.824219,320.343018,760.345459,1.377894
-575.500488,320.709229,755.950928,1.378635
-574.676514,320.709229,758.422852,1.379376
-577.697754,310.363770,753.753662,1.380119
-579.803467,317.871094,758.239746,1.380860
-576.232910,321.716309,757.324219,1.381601
-573.303223,315.582275,755.859375,1.382349
-571.472168,320.617676,771.697998,1.383110
-579.071045,312.377930,756.866455,1.383862
-579.345703,320.251465,749.084473,1.384674
-578.430176,324.279785,752.838135,1.385443
-584.381104,317.687988,754.760742,1.386224
-583.648682,311.370850,746.429443,1.386981
-578.247070,312.652588,757.690430,1.387736
-578.338623,313.568115,758.331299,1.388497
-584.747314,317.047119,755.401611,1.389285
-575.134277,321.258545,752.563477,1.390033
-578.887939,311.645508,755.035400,1.390775
-576.782227,319.519043,759.429932,1.391517
-572.113037,314.483643,759.979248,1.392267
-575.958252,318.878174,751.007080,1.392998
-572.021484,322.998047,752.563477,1.393728
-567.718506,310.638428,760.070801,1.394459
-573.944092,309.814453,756.774902,1.395220
-573.577881,312.286377,748.901367,1.395962
-571.472168,310.638428,753.021240,1.396703
-569.732666,315.032959,750.915527,1.397445
-571.563721,305.694580,754.028320,1.398186
-571.380615,317.413330,750.915527,1.398937
-569.641113,307.708740,741.943359,1.399671
-569.915771,302.947998,747.344971,1.400505
-567.077637,304.595947,746.704102,1.401253
-561.035156,302.398682,751.647949,1.401994
-562.591553,306.060791,749.725342,1.402735
-569.732666,304.138184,739.013672,1.403475
-572.753906,300.567627,741.851807,1.404216
-565.521240,304.046631,748.626709,1.404957
-566.162109,298.095703,742.767334,1.405698
-564.971924,305.694580,751.190186,1.406436
-561.401367,326.202393,740.478516,1.407166
-556.091309,299.468994,741.119385,1.407896
-556.823730,300.201416,747.070312,1.408626
-560.577393,297.454834,747.619629,1.409359
-555.175781,305.969238,746.063232,1.410089
-560.028076,298.919678,737.731934,1.410820
-554.718018,303.131104,748.077393,1.411551
-554.443359,300.933838,740.295410,1.412284
-552.886963,295.715332,741.302490,1.413026
-552.703857,304.595947,749.084473,1.413767
-555.725098,296.356201,752.380371,1.414508
-557.373047,306.610107,750.915527,1.415248
-560.485840,305.236816,756.500244,1.415989
-562.500000,305.053711,755.584717,1.416730
-559.570312,308.441162,748.809814,1.417471
-553.253174,309.906006,755.035400,1.418223
-551.696777,314.483643,755.493164,1.418955
-555.084229,311.096191,745.697021,1.419685
-552.886963,311.553955,754.211426,1.420416
-559.936523,306.427002,753.662109,1.421147
-554.901123,313.110352,750.000000,1.421900
-559.387207,314.392090,748.168945,1.422640
-554.809570,315.582275,749.084473,1.423379
-551.971436,320.159912,750.549316,1.424119
-554.718018,316.314697,752.655029,1.424994
-556.091309,310.363770,761.627197,1.425785
-559.844971,312.652588,762.725830,1.426527
-553.436279,320.983887,759.063721,1.427285
-555.816650,316.497803,759.796143,1.428026
-558.929443,309.997559,756.774902,1.428767
-557.647705,316.406250,757.965088,1.429508
-558.288574,320.709229,756.225586,1.430260
-564.147949,311.370850,758.514404,1.431001
-566.528320,314.483643,764.190674,1.431741
-570.556641,320.434570,754.302979,1.432482
-569.183350,311.096191,755.218506,1.433223
-561.035156,319.976807,759.887695,1.433954
-562.316895,321.899414,762.268066,1.434684
-556.823730,317.779541,757.141113,1.435415
-562.957764,314.300537,756.866455,1.436171
-563.049316,314.117432,761.077881,1.436913
-563.323975,319.152832,756.500244,1.437654
-572.845459,318.237305,758.972168,1.438395
-568.084717,319.885254,756.683350,1.439145
-568.542480,320.251465,753.570557,1.439886
-564.788818,318.878174,759.063721,1.440627
-567.443848,319.610596,755.401611,1.441367
-561.584473,322.448730,753.936768,1.442118
-563.690186,323.822021,758.148193,1.442859
-566.070557,322.814941,755.218506,1.443600
-563.781738,312.744141,756.500244,1.444341
-565.979004,319.061279,748.992920,1.445081
-564.422607,320.800781,754.394531,1.445813
-571.105957,309.265137,754.669189,1.446550
-566.802979,315.673828,758.056641,1.447307
-576.232910,318.145752,756.408691,1.448082
-573.944092,320.617676,747.528076,1.448823
-573.852539,318.420410,758.239746,1.449564
-570.465088,305.694580,761.535645,1.450305
-573.486328,318.786621,758.697510,1.451055
-564.422607,315.673828,755.218506,1.451796
-566.802979,311.462402,755.035400,1.452537
-570.648193,311.920166,748.901367,1.453277
-568.359375,318.237305,746.520996,1.454018
-562.133789,312.835693,745.239258,1.454748
-567.352295,318.145752,757.049561,1.455517
-573.486328,316.406250,752.105713,1.456268
-563.781738,314.483643,748.626709,1.457032
-565.429688,304.779053,745.147705,1.457778
-562.957764,305.969238,751.373291,1.458517
-572.753906,309.722900,751.739502,1.459328
-571.929932,326.293945,748.901367,1.460069
-569.732666,315.399170,754.028320,1.460809
-570.190430,306.518555,752.288818,1.461548
-572.113037,303.680420,740.936279,1.462300
-566.162109,310.455322,743.408203,1.463037
-572.113037,304.504395,753.936768,1.463773
-571.197510,308.898926,742.492676,1.464524
-574.859619,305.511475,747.894287,1.465281
-574.768066,304.412842,751.281738,1.466012
-571.380615,308.807373,746.978760,1.466742
-581.176758,301.574707,753.662109,1.467473
-579.162598,307.342529,751.739502,1.468222
-573.028564,303.955078,756.774902,1.468953
-573.669434,308.807373,748.168945,1.469684
-576.141357,308.624268,753.387451,1.470415
-586.578369,302.581787,756.042480,1.471158
-590.881348,305.603027,746.795654,1.471888
-584.106445,307.617188,745.880127,1.472618
-588.500977,309.722900,748.992920,1.473349
-593.994141,299.011230,746.612549,1.474092
-598.388672,297.546387,744.323730,1.474822
-591.613770,300.933838,748.260498,1.475553
-600.585938,291.229248,755.035400,1.476283
-603.698730,295.806885,753.479004,1.477022
-604.156494,291.046143,739.746094,1.477753
-610.931396,283.996582,742.492676,1.478483
-619.995117,283.264160,740.844727,1.479214
-612.304688,285.095215,746.246338,1.479974
-621.734619,275.939941,736.907959,1.480714
-626.678467,272.094727,738.281250,1.481455
-635.925293,268.432617,729.217529,1.482196
-633.911133,274.291992,734.710693,1.482936
-641.693115,268.249512,735.626221,1.483668
-647.369385,268.066406,742.492676,1.484398
-655.609131,262.756348,741.668701,1.485129
-655.426025,262.390137,732.238770,1.485882
-667.602539,252.227783,739.288330,1.486624
-666.412354,248.748779,707.794189,1.487365
-668.426514,254.150391,737.915039,1.488105
-670.166016,244.995117,725.921631,1.488855
-677.490234,238.677979,726.196289,1.489597
-670.440674,248.748779,722.808838,1.490338
-668.609619,243.896484,726.013184,1.491103
-667.236328,233.367920,727.203369,1.491856
-670.623779,239.044189,733.245850,1.492597
-665.588379,241.424561,727.203369,1.493338
-670.989990,238.861084,731.506348,1.494079
-681.701660,231.170654,733.337402,1.494830
-681.976318,229.705811,729.400635,1.495652
-685.638428,230.072021,732.513428,1.496394
-688.659668,228.698730,727.111816,1.497134
-687.927246,229.064941,703.857422,1.497878
-684.082031,232.543945,722.717285,1.498609
-681.243896,227.783203,731.323242,1.499340
-685.546875,220.458984,728.942871,1.500071
-681.243896,210.113525,721.801758,1.500829
-676.483154,225.036621,723.358154,1.501570
-673.278809,226.135254,727.020264,1.502311
-674.926758,222.290039,716.217041,1.503052
-673.461914,223.754883,716.491699,1.503800
-675.292969,216.796875,697.998047,1.504541
-677.398682,218.627930,699.096680,1.505282
-680.328369,221.008301,702.117920,1.506023
-683.807373,222.290039,705.780029,1.506700
-686.370850,230.895996,701.385498,1.507440
-692.047119,231.903076,699.920654,1.508192
-687.377930,235.107422,711.639404,1.508935
-695.434570,234.283447,715.118408,1.509689
-687.927246,239.501953,715.118408,1.510430
-683.990479,242.706299,715.301514,1.511171
-679.138184,250.762939,722.717285,1.511912
-658.172607,244.628906,729.125977,1.512662
-680.694580,248.748779,728.393555,1.513403
-671.722412,247.100830,734.252930,1.514144
-676.116943,275.482178,732.879639,1.514884
-664.581299,253.692627,721.618652,1.515625
-666.503906,258.728027,727.020264,1.516357
-666.229248,252.960205,722.351074,1.517123
-662.841797,243.347168,713.562012,1.517858
-658.721924,244.812012,728.668213,1.518651
-652.038574,244.262695,734.619141,1.519399
-638.946533,250.122070,754.302979,1.520159
-624.755859,248.016357,757.324219,1.520901
-624.389648,253.967285,763.366699,1.521645
-618.347168,258.270264,767.211914,1.522419
-619.445801,253.692627,745.788574,1.523168
-612.487793,255.065918,733.520508,1.523959
-614.410400,245.727539,733.978271,1.524705
-615.142822,236.663818,717.956543,1.525446
-611.938477,229.888916,687.835693,1.526213
-605.163574,220.550537,673.553467,1.526992
-583.465576,219.451904,664.123535,1.527748
-579.162598,213.043213,652.313232,1.528525
-577.789307,208.923340,673.645020,1.529288
-575.500488,205.261230,647.277832,1.530076
-579.345703,205.078125,660.827637,1.530837
-570.190430,206.085205,676.757812,1.531591
-559.478760,217.346191,673.828125,1.532382
-571.197510,218.536377,669.891357,1.533154
-553.985596,204.162598,663.208008,1.533910
-562.591553,214.508057,663.574219,1.534661
-563.690186,209.564209,656.433105,1.535460
-565.704346,208.557129,659.637451,1.536249
-544.555664,213.134766,655.883789,1.537004
-554.260254,204.071045,665.679932,1.537792
-560.119629,211.944580,669.433594,1.538577
-546.478271,220.458984,681.518555,1.539323
-543.457031,221.649170,713.287354,1.540064
-546.936035,224.212646,721.069336,1.540805
-555.908203,228.057861,734.710693,1.541578
-562.683105,211.578369,757.232666,1.542320
-585.113525,227.142334,758.239746,1.543077
-585.388184,234.649658,771.057129,1.543819
-589.416504,253.875732,771.789551,1.544560
-597.473145,232.086182,770.324707,1.545300
-600.860596,209.655762,752.838135,1.546041
-603.332520,213.043213,731.231689,1.546781
-596.282959,211.669922,736.907959,1.547522
-593.536377,209.930420,729.400635,1.548263
-582.275391,195.831299,737.731934,1.549003
-581.634521,198.577881,745.147705,1.549752
-584.197998,198.394775,774.261475,1.550483
-571.289062,200.042725,781.768799,1.551214
-580.352783,206.085205,795.867920,1.551944
-581.359863,211.120605,797.698975,1.552682
-611.846924,216.247559,813.629150,1.553442
-609.466553,214.874268,824.157715,1.554184
-626.495361,211.669922,824.432373,1.554925
-635.833740,211.761475,828.186035,1.555692
-645.904541,204.895020,815.551758,1.556434
-643.066406,203.796387,797.332764,1.557175
-636.383057,190.246582,812.988281,1.557915
-638.397217,190.246582,816.192627,1.558658
-639.862061,184.112549,809.783936,1.559399
-616.882324,185.302734,787.902832,1.560140
-624.023438,181.274414,789.276123,1.560891
-625.396729,161.956787,787.445068,1.561645
-623.931885,154.632568,758.331299,1.562386
-620.544434,150.421143,758.056641,1.563127
-622.741699,137.237549,749.084473,1.563868
-614.868164,126.159668,746.429443,1.564620
-627.227783,110.137939,734.527588,1.565361
-644.348145,113.250732,725.921631,1.566106
-638.946533,104.736328,708.435059,1.566857
-641.876221,105.377197,713.470459,1.567687
-639.038086,97.686768,711.914062,1.568419
-622.558594,96.405029,713.287354,1.569150
-611.572266,94.299316,703.857422,1.569881
-601.776123,91.186523,708.068848,1.570637
-601.593018,71.502686,693.145752,1.571378
-597.015381,79.284668,688.934326,1.572118
-594.635010,81.481934,681.610107,1.572858
-588.958740,80.749512,683.807373,1.573599
-592.163086,78.002930,675.292969,1.574330
-590.240479,82.122803,668.518066,1.575060
-577.514648,84.320068,665.679932,1.575790
-583.557129,79.010010,665.679932,1.576547
-568.359375,72.967529,658.813477,1.577288
-564.422607,74.432373,658.721924,1.578029
-568.908691,68.389893,649.749756,1.578770
-563.781738,72.509766,637.481689,1.579521
-581.451416,63.079834,610.382080,1.580262
-572.479248,60.882568,589.416504,1.581003
-569.366455,62.896729,590.148926,1.581744
-566.894531,51.635742,574.493408,1.582495
-557.647705,48.339844,545.562744,1.583235
-537.414551,63.354492,552.520752,1.583976
-533.020020,56.671143,560.760498,1.584717
-521.667480,60.882568,561.035156,1.585458
-499.145508,60.333252,545.013428,1.586189
-487.335205,64.453125,545.654297,1.586920
-462.341309,88.348389,559.844971,1.587658
-422.424316,83.496094,568.725586,1.588431
-416.107178,88.439941,576.049805,1.589200
-407.775879,94.299316,609.100342,1.589944
-388.641357,105.651855,594.451904,1.590684
-385.711670,98.327637,601.226807,1.591446
-386.901855,97.595215,601.501465,1.592187
-388.549805,95.581055,594.543457,1.592943
-404.388428,102.447510,598.480225,1.593703
-410.888672,95.581055,604.797363,1.594449
-427.459717,117.828369,600.677490,1.595217
-380.035400,136.413574,618.621826,1.595964
-327.575684,129.913330,672.637939,1.596727
-373.535156,137.786865,660.095215,1.597468
-329.132080,168.273926,661.285400,1.598209
-432.128906,142.364502,677.856445,1.598968
-429.565430,118.011475,690.216064,1.599722
-494.293213,124.053955,697.998047,1.600463
-523.773193,131.286621,702.392578,1.601204
-525.512695,132.659912,713.470459,1.601945
-518.188477,134.490967,713.378906,1.602695
-537.963867,135.406494,716.217041,1.603436
-512.969971,138.977051,717.498779,1.604178
-527.435303,142.913818,720.977783,1.604919
-528.808594,140.258789,709.533691,1.605661
-506.011963,161.315918,711.639404,1.606392
-475.158691,190.063477,714.477539,1.607123
-454.559326,208.099365,703.674316,1.607853
-416.381836,207.916260,702.209473,1.608606
-419.403076,215.881348,689.575195,1.609344
-418.212891,222.930908,683.349609,1.610081
-459.045410,200.592041,673.370361,1.610835
-487.701416,191.986084,668.884277,1.611590
-505.004883,180.175781,671.447754,1.612321
-511.596680,192.626953,680.603027,1.613052
-518.371582,187.957764,708.618164,1.613782
-528.533936,176.696777,722.351074,1.614524
-518.280029,175.964355,719.512939,1.615255
-526.977539,187.683105,718.597412,1.615985
-524.780273,192.993164,710.357666,1.616715
-533.477783,196.655273,705.963135,1.617457
-536.590576,190.521240,709.533691,1.618187
-531.738281,172.027588,707.153320,1.618917
-528.900146,177.246094,696.716309,1.619664
-524.963379,173.400879,682.525635,1.620434
-527.709961,190.063477,657.623291,1.621184
-528.808594,189.239502,642.791748,1.621932
-515.441895,198.394775,630.340576,1.622666
-529.174805,197.387695,619.628906,1.623407
-514.984131,211.029053,617.523193,1.624148
-514.434814,205.169678,614.593506,1.624889
-506.652832,224.853516,626.403809,1.625629
-507.751465,229.888916,615.509033,1.626370
-514.801025,228.332520,612.121582,1.627111
-537.780762,234.283447,612.762451,1.627851
-526.794434,245.635986,596.740723,1.628592
-531.005859,246.734619,591.888428,1.629322
-521.301270,241.424561,592.803955,1.630053
-522.491455,246.185303,586.669922,1.630784
-502.807617,242.431641,586.303711,1.631515
-479.919434,218.536377,601.593018,1.632271
-529.357910,165.252686,604.522705,1.633012
-492.553711,216.522217,563.598633,1.633753
-463.623047,239.410400,562.408447,1.634494
-454.559326,247.100830,560.668945,1.635244
-451.904297,228.424072,533.294678,1.635985
-482.025146,221.740723,529.266357,1.636726
-476.440430,225.036621,497.772217,1.637483
-463.714600,228.149414,490.631104,1.638224
-521.850586,209.655762,481.842041,1.639051
-488.433838,220.733643,469.573975,1.639792
-494.201660,240.692139,462.982178,1.640547
-470.672607,248.748779,467.651367,1.641288
-445.587158,249.023438,491.088867,1.642029
-438.079834,254.608154,505.554199,1.642769
-410.064697,258.544922,534.576416,1.643515
-403.656006,264.770508,561.309814,1.644245
-362.457275,270.812988,580.078125,1.644975
-353.668213,276.489258,604.064941,1.645706
-345.153809,280.059814,609.649658,1.646441
-340.759277,290.405273,610.565186,1.647182
-348.449707,298.919678,604.705811,1.647922
-358.612061,293.426514,605.072021,1.648663
-395.324707,283.630371,607.910156,1.649404
-397.979736,285.552979,605.255127,1.650145
-425.445557,287.017822,604.339600,1.650886
-427.551270,292.877197,627.777100,1.651626
-441.741943,293.243408,634.552002,1.652398
-434.875488,298.736572,639.312744,1.653159
-437.805176,314.392090,657.714844,1.653900
-424.987793,310.913086,663.116455,1.654659
-409.606934,318.054199,665.679932,1.655415
-413.269043,327.209473,675.384521,1.656156
-416.015625,321.533203,666.687012,1.656897
-422.424316,316.223145,667.785645,1.657638
-420.776367,322.998047,668.518066,1.658389
-438.812256,320.709229,663.299561,1.659131
-450.988770,322.906494,653.869629,1.659917
-451.629639,326.110840,647.460938,1.660678
-453.094482,332.336426,649.658203,1.661453
-456.481934,337.463379,650.024414,1.662195
-447.509766,343.872070,656.799316,1.662936
-445.678711,346.435547,663.391113,1.663677
-448.059082,359.985352,666.229248,1.664456
-439.361572,359.527588,665.405273,1.665209
-450.531006,370.513916,675.292969,1.665976
-447.326660,379.852295,671.630859,1.666725
-455.566406,377.746582,685.455322,1.667465
-454.833984,373.626709,688.293457,1.668206
-448.059082,375.274658,699.462891,1.668974
-449.249268,390.930176,700.653076,1.669741
-444.946289,395.782471,708.251953,1.670483
-443.389893,406.219482,710.357666,1.671223
-436.523438,406.677246,717.773438,1.671964
-426.727295,405.944824,721.343994,1.672716
-438.171387,409.423828,711.914062,1.673457
-404.388428,403.472900,719.604492,1.674233
-423.431396,396.423340,713.287354,1.674975
-414.276123,396.789551,704.406738,1.675758
-410.980225,394.500732,685.546875,1.676519
-399.810791,396.331787,661.376953,1.677262
-405.853271,397.705078,651.031494,1.678003
-394.500732,391.479492,634.460449,1.678757
-396.972656,380.767822,626.953125,1.679498
-384.613037,376.281738,628.326416,1.680238
-355.316162,385.162354,629.150391,1.680979
-367.950439,388.916016,634.368896,1.681730
-362.915039,388.000488,643.066406,1.682470
-358.245850,400.909424,646.820068,1.683211
-348.083496,408.782959,643.249512,1.683951
-359.069824,419.219971,649.017334,1.684691
-352.661133,422.882080,645.721436,1.685422
-364.746094,431.488037,647.186279,1.686152
-363.098145,454.742432,644.897461,1.686882
-347.808838,454.193115,654.327393,1.687637
-348.358154,459.777832,658.721924,1.688377
-357.330322,465.087891,662.292480,1.689117
-345.245361,489.440918,667.327881,1.689857
-353.210449,496.215820,669.158936,1.690468
-343.322754,514.526367,673.004150,1.691226
-352.386475,523.132324,675.750732,1.691968
-353.942871,535.034180,677.124023,1.692709
-372.344971,545.654297,678.680420,1.693483
-379.943848,553.619385,673.553467,1.694215
-390.106201,563.690186,682.708740,1.694946
-391.479492,572.570801,689.575195,1.695682
-390.655518,581.909180,693.328857,1.696423
-393.585205,588.317871,717.590332,1.697164
-370.239258,607.360840,718.231201,1.697904
-371.978760,629.608154,729.675293,1.698683
-351.745605,646.270752,745.513916,1.699444
-353.576660,637.939453,765.289307,1.700186
-338.378906,672.180176,779.022217,1.700928
-333.709717,688.751221,801.361084,1.701681
-330.230713,700.103760,814.910889,1.702422
-335.449219,728.576660,846.038818,1.703163
-330.780029,763.824463,873.504639,1.703903
-332.153320,757.141113,884.582520,1.704654
-332.519531,775.817871,895.935059,1.705395
-327.758789,782.775879,917.999268,1.706136
-332.336426,800.811768,930.541992,1.706876
-340.942383,812.805176,939.331055,1.707617
-337.280273,816.558838,950.317383,1.708348
-360.900879,824.157715,962.677002,1.709078
-358.703613,831.115723,991.607666,1.709896
-372.894287,837.524414,1002.227783,1.710656
-373.443604,839.996338,1023.559570,1.711397
-389.648438,839.630127,1048.828125,1.712155
-371.154785,838.623047,1063.751221,1.712897
-378.662109,843.200684,1081.146240,1.713649
-379.394531,844.573975,1098.083496,1.714390
-385.070801,838.348389,1105.957031,1.715131
-383.972168,829.376221,1113.281250,1.715889
-392.395020,831.573486,1122.985840,1.716643
-384.613037,818.389893,1121.246338,1.717384
-373.260498,804.382324,1130.767822,1.718143
-363.922119,776.641846,1137.908936,1.718884
-357.788086,775.634766,1128.936768,1.719638
-332.336426,761.077881,1120.330811,1.720379
-322.082520,750.091553,1117.034912,1.721120
-310.913086,730.957031,1117.767334,1.721861
-301.116943,715.393066,1093.872070,1.722613
-296.813965,708.526611,1091.583252,1.723354
-308.258057,690.124512,1082.885742,1.724095
-303.955078,679.870605,1056.152344,1.724836
-324.188232,661.743164,1041.046143,1.725578
-325.927734,634.552002,1001.037598,1.726309
-326.110840,629.516602,978.424072,1.727040
-321.807861,610.839844,952.789307,1.727771
-318.054199,599.853516,920.013428,1.728527
-306.884766,583.648682,915.618896,1.729268
-294.250488,559.020996,904.174805,1.730009
-274.749756,545.013428,903.167725,1.730763
-263.214111,533.386230,904.541016,1.731408
-247.375488,508.209229,883.026123,1.732173
-248.565674,484.588623,871.948242,1.732919
-233.184814,470.764160,868.652344,1.733660
-226.593018,451.171875,838.989258,1.734401
-220.367432,438.903809,826.904297,1.735142
-214.965820,423.431396,818.023682,1.735901
-210.662842,399.993896,799.346924,1.736691
-187.133789,381.774902,791.107178,1.737446
-156.738281,369.415283,777.374268,1.738211
-141.906738,361.541748,758.605957,1.738957
-129.547119,352.203369,751.831055,1.739720
-120.574951,339.660645,744.964600,1.740459
-119.293213,324.188232,715.118408,1.741198
-104.278564,314.758301,711.639404,1.741937
-109.405518,313.659668,681.518555,1.742686
-87.799072,310.455322,664.489746,1.743426
-92.651367,318.511963,640.686035,1.744165
-80.017090,314.025879,614.410400,1.744904
-69.946289,315.582275,608.276367,1.745566
-62.255859,319.152832,584.655762,1.746314
-56.854248,329.772949,565.979004,1.747048
-54.473877,334.259033,563.232422,1.747778
-41.290283,347.900391,556.091309,1.748538
-34.698486,353.759766,558.746338,1.749277
-35.980225,368.408203,549.957275,1.750016
-25.634766,383.056641,531.829834,1.750758
-30.944824,366.394043,526.702881,1.751415
-28.472900,376.373291,516.632080,1.752154
-22.613525,401.092529,506.927490,1.752894
-16.479492,438.354492,508.941650,1.753633
-7.873535,460.693359,508.392334,1.754379
-9.796143,470.397949,506.011963,1.755116
-10.162354,488.708496,506.561279,1.755852
-10.437012,476.257324,531.463623,1.756588
4.211426,486.236572,520.477295,1.757337
10.070801,498.046875,521.484375,1.758070
1.373291,503.997803,548.309326,1.758800
17.944336,397.613525,572.570801,1.759530
46.325684,512.878418,739.562988,1.760280
54.199219,489.624023,695.068359,1.761029
-3.021240,604.888916,693.237305,1.761761
-3.845215,637.573242,709.442139,1.762491
20.782471,659.362793,750.915527,1.763257
14.923096,672.546387,764.831543,1.763990
3.021240,700.012207,803.466797,1.764720
-4.760742,722.625732,840.911865,1.765453
20.416260,722.991943,867.462158,1.766194
10.437012,730.773926,905.273438,1.766935
10.620117,742.767334,911.773682,1.767676
0.366211,772.979736,931.182861,1.768417
11.169434,781.494141,953.796387,1.769158
17.669678,800.994873,972.747803,1.769899
-0.549316,809.143066,1001.953125,1.770640
-12.451172,812.072754,1012.939453,1.771380
3.295898,818.298340,1041.595459,1.772112
-6.042480,819.213867,1074.829102,1.772842
-10.986328,820.495605,1087.371826,1.773572
2.380371,833.404541,1106.231689,1.774303
-9.613037,825.805664,1111.907959,1.775059
-7.141113,833.770752,1125.366211,1.775800
-18.768311,834.686279,1150.451660,1.776558
-3.112793,831.390381,1155.853271,1.777310
-23.071289,829.376221,1163.452148,1.778051
-36.071777,813.903809,1176.635742,1.778792
-14.099121,808.410645,1179.107666,1.779533
-24.444580,782.226562,1169.586182,1.780283
-45.959473,764.739990,1150.909424,1.781109
-98.144531,755.401611,1122.802734,1.781851
-136.322021,733.795166,1050.201416,1.782591
-162.139893,715.393066,990.234375,1.783328
-228.973389,690.124512,979.888916,1.784059
-215.515137,682.708740,950.958252,1.784790
-213.592529,690.948486,939.971924,1.785520
-243.804932,679.687500,905.822754,1.786256
-246.459961,677.764893,891.540527,1.786997
-239.135742,679.046631,818.572998,1.787780
-200.775146,650.115967,740.112305,1.788523
-484.588623,603.973389,687.652588,1.789275
-430.389404,613.220215,677.856445,1.790016
-322.631836,595.642090,638.580322,1.790756
-351.654053,589.324951,642.517090,1.791497
-401.275635,574.951172,634.368896,1.792249
-319.152832,582.275391,626.403809,1.792990
-344.879150,594.177246,620.544434,1.793731
-377.105713,596.832275,602.050781,1.794472
-367.034912,596.923828,597.198486,1.795217
-377.380371,590.057373,593.078613,1.795948
-374.633789,579.254150,582.275391,1.796678
-371.154785,578.430176,576.690674,1.797409
-388.916016,589.782715,580.352783,1.798153
-397.521973,602.233887,577.423096,1.798894
-392.761230,612.396240,567.443848,1.799639
-418.212891,611.206055,581.817627,1.800390
-410.888672,591.339111,596.557617,1.801142
-401.733398,573.486328,614.227295,1.801890
-416.015625,569.091797,651.489258,1.802652
-426.635742,583.557129,649.017334,1.803404
-424.896240,592.254639,664.123535,1.804169
-429.748535,603.149414,667.419434,1.804910
-426.635742,615.051270,687.194824,1.805675
-401.916504,622.192383,705.505371,1.806418
-427.642822,619.903564,713.470459,1.807172
-425.811768,622.833252,725.372314,1.807913
-433.502197,635.101318,731.048584,1.808686
-435.333252,636.016846,732.696533,1.809466
-437.072754,637.756348,735.626221,1.810237
-435.882568,646.362305,737.457275,1.810984
-440.277100,636.840820,734.252930,1.811726
-439.453125,634.552002,733.337402,1.812491
-437.530518,636.840820,733.795166,1.813233
-442.565918,635.101318,747.161865,1.813974
-436.706543,635.559082,751.098633,1.814715
-432.678223,631.347656,751.922607,1.815467
-430.480957,632.354736,752.380371,1.816207
-421.783447,639.953613,750.732422,1.816948
-408.142090,636.749268,746.246338,1.817690
-408.782959,610.931396,734.069824,1.818433
-391.204834,625.030518,729.125977,1.819164
-381.591797,629.241943,710.174561,1.819894
-373.352051,623.016357,708.343506,1.820625
-358.245850,620.361328,691.314697,1.821382
-348.541260,625.762939,679.962158,1.822122
-357.879639,622.467041,682.983398,1.822861
-349.365234,610.473633,673.736572,1.823600
-363.830566,602.874756,669.616699,1.824336
-380.401611,601.043701,655.517578,1.825075
-378.112793,612.030029,644.165039,1.825815
-400.543213,608.917236,644.805908,1.826554
-395.599365,600.952148,629.333496,1.827303
-395.782471,599.761963,626.953125,1.828042
-402.282715,598.205566,621.643066,1.828782
-391.204834,597.198486,622.833252,1.829522
-386.810303,592.803955,621.368408,1.830262
-390.106201,588.867188,610.473633,1.830993
-383.239746,589.965820,605.895996,1.831724
-381.317139,588.592529,598.754883,1.832468
-386.260986,585.388184,599.670410,1.833226
-381.317139,582.092285,595.642090,1.833967
-393.493652,584.381104,593.170166,1.834707
-393.218994,572.021484,589.599609,1.835448
-392.761230,568.359375,578.704834,1.836189
-392.944336,566.802979,575.408936,1.836920
-389.099121,570.739746,571.563721,1.837650
-380.310059,576.049805,566.619873,1.838381
-381.317139,574.951172,563.598633,1.839134
-388.000488,573.760986,560.302734,1.839875
-381.408691,575.225830,561.035156,1.840633
-357.421875,590.332031,546.020508,1.841375
-359.893799,588.867188,509.857178,1.842116
-329.132080,594.451904,500.518799,1.842847
-334.167480,570.465088,492.279053,1.843577
-323.913574,574.676514,473.693848,1.844308
-320.800781,583.465576,470.031738,1.845069
-334.350586,578.063965,459.136963,1.845810
-334.899902,565.155029,457.672119,1.846551
-327.117920,562.042236,445.220947,1.847292
-342.407227,567.352295,440.734863,1.848033
-330.230713,550.872803,421.142578,1.848764
-329.772949,555.725098,422.973633,1.849494
-339.752197,554.626465,434.326172,1.850225
-339.202881,564.697266,413.543701,1.850980
-330.963135,570.465088,417.388916,1.851721
-341.766357,568.359375,409.973145,1.852558
-330.780029,568.817139,424.621582,1.853318
-335.998535,569.183350,420.867920,1.854072
-336.456299,584.381104,420.684814,1.854813
-340.026855,590.972900,420.135498,1.855554
-340.209961,607.269287,421.783447,1.856295
-330.780029,617.706299,418.579102,1.857045
-333.068848,646.087646,435.882568,1.857786
-330.322266,661.285400,444.396973,1.858527
-308.715820,690.399170,465.728760,1.859267
-310.913086,705.139160,478.179932,1.860008
-281.616211,738.830566,494.110107,1.860739
-273.834229,758.422852,527.893066,1.861469
-249.938965,777.282715,551.147461,1.862200
-244.354248,799.438477,599.029541,1.862955
-238.586426,812.988281,617.614746,1.863696
-238.952637,822.967529,620.361328,1.864438
-246.093750,838.623047,650.299072,1.865179
-260.192871,855.926514,659.088135,1.865930
-268.981934,881.378174,670.166016,1.866671
-272.460938,889.068604,699.096680,1.867411
-307.067871,891.448975,712.463379,1.868152
-305.236816,901.428223,716.857910,1.868903
-312.011719,905.548096,729.949951,1.869644
-309.356689,912.506104,765.289307,1.870385
-303.863525,922.851562,786.804199,1.871126
-316.131592,932.830811,790.283203,1.871867
-299.926758,937.133789,840.637207,1.872598
-295.257568,947.845459,873.504639,1.873335
-297.180176,944.366455,879.730225,1.874069
-288.024902,948.028564,908.111572,1.874840
-286.926270,947.937012,920.379639,1.875590
-296.997070,951.782227,926.696777,1.876331
-295.989990,950.958252,916.992188,1.877072
-301.757812,949.401855,928.161621,1.877827
-315.948486,951.141357,923.767090,1.878567
-311.553955,945.648193,935.211182,1.879308
-314.941406,945.281982,937.225342,1.880049
-329.315186,936.218262,941.711426,1.880799
-321.899414,920.196533,935.577393,1.881540
-331.787109,919.921875,924.041748,1.882280
-327.484131,917.266846,918.731689,1.883021
-324.829102,903.533936,891.265869,1.883762
-338.836670,886.779785,888.427734,1.884493
-344.787598,859.680176,868.103027,1.885224
-345.336914,856.475830,831.848145,1.885955
-361.907959,828.094482,827.362061,1.886709
-362.915039,800.903320,793.487549,1.887450
-356.231689,787.445068,786.254883,1.888190
-365.478516,762.084961,755.584717,1.888931
-361.633301,749.816895,719.238281,1.889677
-361.267090,736.816406,704.498291,1.890408
-359.436035,712.005615,675.292969,1.891139
-354.400635,693.237305,657.623291,1.891869
-344.146729,688.110352,641.876221,1.892622
-329.315186,673.095703,639.404297,1.893390
-324.829102,647.094727,615.966797,1.894141
-329.772949,631.622314,590.423584,1.894901
-322.723389,631.439209,581.909180,1.895648
-333.526611,626.220703,548.858643,1.896388
-334.716797,620.178223,532.562256,1.897128
-332.244873,599.761963,523.040771,1.897884
-332.519531,594.635010,504.455566,1.898624
-342.773438,588.043213,493.103027,1.899364
-329.406738,589.324951,469.665527,1.900104
-320.251465,595.092773,455.291748,1.900851
-312.927246,575.866699,419.219971,1.901589
-342.956543,562.957764,379.028320,1.902326
-354.949951,550.506592,350.372314,1.903072
-351.379395,554.626465,315.124512,1.903828
-369.964600,548.126221,313.293457,1.904559
-380.584717,533.660889,316.131592,1.905289
-323.455811,540.161133,307.525635,1.906019
-342.224121,546.569824,309.814453,1.906768
-331.329346,555.999756,344.146729,1.907498
-280.609131,567.352295,351.379395,1.908229
-266.693115,564.422607,388.458252,1.908959
-250.579834,572.479248,417.205811,1.909701
-175.598145,586.395264,456.756592,1.910432
-169.006348,590.332031,496.582031,1.911163
-132.843018,604.431152,506.835938,1.911893
-106.567383,640.319824,540.435791,1.912649
-66.925049,658.081055,538.330078,1.913390
-84.777832,653.045654,532.470703,1.914131
-74.432373,660.644531,539.154053,1.914872
-74.066162,657.073975,537.963867,1.915613
-74.981689,674.926758,531.372070,1.916344
-72.143555,679.687500,526.611328,1.917074
-64.727783,685.546875,533.935547,1.917805
-61.431885,696.899414,537.139893,1.918559
-42.938232,713.195801,538.055420,1.919300
-40.283203,734.710693,551.605225,1.920040
-34.606934,764.739990,566.619873,1.920816
-20.599365,762.451172,574.951172,1.921566
-19.409180,761.535645,588.317871,1.922298
-19.317627,764.465332,603.424072,1.923114
-15.197754,764.190674,612.213135,1.923846
-14.282227,769.317627,621.826172,1.924602
-9.704590,770.965576,655.151367,1.925343
-8.422852,776.641846,641.693115,1.926083
-11.718750,782.318115,654.418945,1.926824
-0.549316,788.818359,659.820557,1.927565
2.471924,796.234131,677.490234,1.928296
-5.126953,802.276611,700.744629,1.929026
13.000488,795.501709,709.350586,1.929756
22.521973,699.371338,773.437500,1.930510
19.775391,800.537109,845.581055,1.931250
13.916016,790.924072,855.926514,1.931989
5.035400,842.651367,844.116211,1.932729
-15.747070,832.397461,846.313477,1.933476
30.120850,830.108643,846.496582,1.934213
21.972656,839.904785,823.791504,1.934961
-22.979736,839.172363,826.263428,1.935695
14.007568,833.770752,835.968018,1.936443
32.958984,814.453125,820.953369,1.937174
45.684814,799.621582,817.474365,1.937905
55.206299,815.643311,827.453613,1.938635
48.797607,814.453125,829.284668,1.939376
68.389893,855.377197,794.860840,1.940107
68.023682,833.679199,730.041504,1.940837
22.430420,806.945801,707.244873,1.941568
40.557861,763.824463,687.286377,1.942325
33.416748,719.238281,640.686035,1.943057
-40.008545,705.871582,607.452393,1.943796
-39.001465,688.751221,569.732666,1.944531
-72.143555,663.391113,521.026611,1.945305
-91.735840,641.784668,474.517822,1.946043
-92.193604,640.594482,463.165283,1.946774
-88.714600,643.341064,440.826416,1.947508
-68.572998,650.756836,431.304932,1.948249
-61.523438,647.552490,424.255371,1.948996
-49.438477,646.453857,403.564453,1.949761
-43.395996,645.538330,389.007568,1.950541
-54.199219,616.149902,371.704102,1.951282
-51.086426,635.375977,360.992432,1.952023
-60.699463,641.876221,348.907471,1.952764
-58.685303,647.003174,335.357666,1.953516
-57.312012,642.242432,337.097168,1.954257
-63.171387,645.812988,313.018799,1.954997
-67.382812,645.355225,307.250977,1.955738
-60.241699,642.059326,295.166016,1.956479
-64.544678,646.453857,293.243408,1.957210
-78.002930,650.756836,296.630859,1.957940
-75.714111,648.101807,293.334961,1.958671
-75.805664,655.426025,291.229248,1.959429
-64.270020,669.433594,288.116455,1.960171
-70.404053,670.440674,299.560547,1.960912
-68.664551,657.348633,299.560547,1.961653
-78.002930,662.384033,310.455322,1.962404
-75.073242,673.828125,315.582275,1.963145
-81.573486,669.982910,322.265625,1.963885
-72.967529,680.145264,328.948975,1.964626
-104.461670,680.603027,323.547363,1.965377
-101.348877,681.518555,329.315186,1.966118
-114.990234,676.300049,327.484131,1.966858
-136.230469,684.814453,332.519531,1.967599
-137.512207,692.413330,333.251953,1.968339
-138.610840,697.265625,332.702637,1.969070
-137.329102,706.878662,319.335938,1.969800
-129.455566,716.583252,317.871094,1.970531
-115.539551,724.273682,311.279297,1.971285
-117.095947,728.485107,318.145752,1.972025
-93.017578,717.041016,310.363770,1.972765
-63.903809,732.238770,305.419922,1.973506
-61.157227,748.168945,300.476074,1.974256
-74.707031,732.330322,303.771973,1.974998
-59.509277,748.077393,294.799805,1.975738
-73.974609,755.310059,260.375977,1.976479
-59.143066,766.571045,282.440186,1.977219
-60.150146,775.451660,257.720947,1.977950
-46.051025,788.360596,250.122070,1.978680
-64.086914,793.029785,239.685059,1.979411
-55.938721,810.058594,194.824219,1.980164
-47.241211,816.101074,153.900146,1.980904
-73.425293,792.755127,117.095947,1.981643
-65.368652,809.417725,105.285645,1.982383
-58.868408,832.946777,77.087402,1.983130
-52.001953,829.742432,48.431396,1.983870
-50.079346,848.876953,44.586182,1.984609
-43.853760,782.043457,45.227051,1.985349
24.536133,768.859863,37.445068,1.986104
-28.472900,801.086426,4.302979,1.986844
-60.607910,838.348389,-30.853271,1.987583
18.768311,841.644287,-43.487549,1.988323
1.373291,821.777344,-50.354004,1.989073
-28.656006,939.697266,-69.580078,1.989812
41.473389,938.507080,-83.038330,1.990551
44.860840,925.598145,-111.877441,1.991290
-35.980225,952.789307,-117.645264,1.992039
-28.198242,928.161621,-160.400391,1.992779
-27.740479,965.423584,-170.837402,1.993518
-25.360107,994.262695,-184.020996,1.994257
-75.531006,998.657227,-209.564209,1.995006
-72.509766,1010.101318,-234.375000,1.995830
-29.113770,1045.806885,-246.917725,1.996570
-49.530029,1069.793701,-284.729004,1.997310
-47.882080,964.965820,-308.441162,1.998061
-101.806641,1133.697510,-338.836670,1.998800
-102.081299,1056.060791,-339.752197,1.999540
-149.871826,1102.386475,-331.329346,2.000280
-138.519287,1130.310059,-314.300537,2.001028
-162.689209,1190.093994,-294.342041,2.001768
-191.894531,1177.001953,-260.742188,2.002507
-207.458496,1229.461670,-208.557129,2.003247
-273.834229,1237.701416,-154.907227,2.003996
-275.024414,1241.546631,-101.074219,2.004736
-260.742188,1200.897217,-93.109131,2.005476
-217.712402,1091.766357,-85.876465,2.006215
-183.746338,1145.233154,98.968506,2.006965
-466.003418,1424.468994,173.583984,2.007704
-12.359619,995.635986,174.774170,2.008444
375.000000,1316.070557,183.380127,2.009183
-378.662109,1089.477539,220.733643,2.009932
482.116699,1269.195557,187.133789,2.010672
353.118896,1392.883301,201.873779,2.011412
-112.792969,1209.136963,195.190430,2.012151
255.889893,1467.590332,178.894043,2.012900
-60.607910,1399.108887,202.880859,2.013639
387.084961,1396.911621,296.813965,2.014379
61.981201,1797.271729,356.964111,2.015119
-73.516846,1803.131104,376.831055,2.015885
346.710205,1651.977539,451.721191,2.016648
-142.913818,-280.883789,1207.946777,2.017397
-1358.459473,422.241211,1820.709229,2.018137
-1959.320068,1299.407959,1756.805420,2.018900
-1535.797119,1557.220459,1293.640137,2.019641
491.821289,2047.027588,903.259277,2.020382
2611.541748,1505.676270,1229.644775,2.021122
2604.583740,2026.611328,1144.409180,2.021872
1943.847656,1789.581299,1025.665283,2.022613
-535.491943,1717.071533,798.065186,2.023354
-1123.718262,1725.677490,742.675781,2.024094
-738.006592,1726.318359,644.165039,2.024835
-294.799805,1748.657227,464.080811,2.025565
784.790039,1745.269775,394.500732,2.026296
954.162598,1666.717529,319.976807,2.027028
483.398438,1649.963379,258.087158,2.027784
-696.350098,1647.033691,331.878662,2.028525
-1054.412842,1570.129395,359.069824,2.029265
-369.964600,1542.663574,345.703125,2.030014
727.478027,1646.850586,243.164062,2.030771
-66.833496,1593.017578,221.557617,2.031518
-550.872803,1714.874268,209.014893,2.032332
-429.290771,1811.920166,110.595703,2.033084
-494.934082,1847.259521,81.207275,2.033825
-508.300781,1775.756836,82.855225,2.034566
-1370.819092,1818.603516,220.275879,2.035307
-3000.000000,1762.115479,264.953613,2.036049
-3000.000000,1796.539307,470.489502,2.036788
-2128.417969,1696.563721,676.391602,2.037529
-1065.765381,1764.312744,627.044678,2.038269
-854.003906,1827.209473,472.869873,2.039001
-584.014893,1837.554932,417.388916,2.039732
-554.901123,1697.479248,409.881592,2.040463
1078.491211,1901.550293,330.688477,2.041193
1499.542236,1896.789551,316.772461,2.041938
494.384766,1829.223633,442.657471,2.042678
-1327.880859,1620.117188,527.984619,2.043417
-886.779785,1548.248291,558.929443,2.044156
62.347412,1581.481934,530.181885,2.044896
1269.744873,1664.245605,436.614990,2.045634
1133.514404,1535.064697,375.915527,2.046374
174.041748,1482.147217,344.970703,2.047113
125.335693,1376.037598,537.506104,2.047861
-320.434570,1309.844971,802.185059,2.048598
-1411.651611,1286.682129,853.271484,2.049334
-999.114990,1407.531738,722.534180,2.050071
484.863281,1455.413818,557.281494,2.050842
-130.187988,1414.672852,494.293213,2.051577
-1198.516846,1315.063477,427.459717,2.052308
-1285.583496,1263.793945,389.190674,2.053039
-1273.956299,1196.228027,380.584717,2.053788
-1222.503662,1080.688477,322.082520,2.054519
-773.529053,1042.968750,267.700195,2.055251
-270.446777,1010.650635,167.083740,2.056013
-39.550781,985.656738,67.016602,2.056763
43.304443,986.846924,8.789062,2.057494
64.178467,935.485840,-106.933594,2.058225
5.401611,908.294678,-252.777100,2.058955
-119.293213,950.958252,-329.681396,2.059725
-93.383789,1038.848877,-465.820312,2.060474
-119.018555,1081.146240,-506.103516,2.061214
-342.132568,1085.449219,-530.639648,2.061955
-516.998291,1107.330322,-582.092285,2.062706
-510.498047,1126.281738,-560.485840,2.063447
-514.343262,1088.378906,-544.738770,2.064187
-506.744385,1043.243408,-563.232422,2.065010
-418.029785,1043.609619,-614.959717,2.065763
-5.126953,1072.082520,-636.108398,2.066504
311.096191,1081.146240,-697.814941,2.067244
331.787109,1030.700684,-751.831055,2.067984
-52.093506,969.268799,-893.463135,2.068724
-603.515625,875.976562,-612.121582,2.069455
-1407.531738,818.572998,-335.083008,2.070186
-548.492432,1072.082520,-48.339844,2.070917
-117.370605,1246.948242,-92.926025,2.071674
-160.766602,1233.306885,-149.230957,2.072415
-442.474365,1037.750244,-345.336914,2.073155
-513.519287,1036.834717,-418.121338,2.073897
-3.845215,1141.937256,-549.224854,2.074662
50.537109,1161.987305,-740.570068,2.075403
-178.070068,1130.767822,-848.510742,2.076144
1421.264648,924.957275,-633.544922,2.076884
1511.993408,795.684814,-467.193604,2.077635
-3.753662,882.659912,-464.263916,2.078376
-1663.055420,1120.880127,-91.369629,2.079116
-1952.636719,1199.615479,-57.495117,2.079857
-1873.352051,1260.864258,-250.946045,2.080607
-1643.188477,1160.705566,-449.981689,2.081348
-1151.641846,1092.681885,-512.420654,2.082088
-626.586914,1223.785400,-611.297607,2.082829
-62.347412,1135.528564,-309.265137,2.083570
66.925049,1220.855713,-172.485352,2.084301
