ACC_X,ACC_Y,ACC_Z,Time
-86.975098,920.013428,358.886719,0.961377
-79.650879,921.020508,358.978271,0.962119
-86.700439,915.893555,362.915039,0.962861
-114.898682,920.10498,356.140137,0.963603
-95.214844,925.048828,341.125488,0.964358
-86.242676,920.74585,351.5625,0.965135
-113.067627,921.020508,349.731445,0.965877
-97.320557,923.400879,355.957031,0.96662
-87.615967,921.661377,357.513428,0.967373
-88.07373,921.295166,361.26709,0.968118
-90.454102,929.443359,364.837646,0.968861
-115.17334,920.10498,358.795166,0.969616
-98.052979,919.006348,355.865479,0.970392
-90.72876,922.393799,363.464355,0.971166
-115.905762,924.224854,359.344482,0.971915
-90.179443,925.323486,361.175537,0.972657
-92.376709,924.133301,368.041992,0.973421
-95.306396,914.245605,366.577148,0.974164
-93.200684,923.309326,364.929199,0.974906
-90.820312,918.914795,358.520508,0.975648
-89.263916,919.006348,355.59082,0.976433
-95.031738,923.858643,352.111816,0.977193
-72.601318,912.414551,353.210449,0.977942
-94.390869,914.0625,343.414307,0.978715
-94.665527,913.238525,346.252441,0.979485
-94.482422,922.027588,344.146729,0.980228
-93.75,920.562744,347.900391,0.98097
-94.299316,921.112061,346.069336,0.981712
-92.834473,917.266846,373.077393,0.982464
-84.869385,908.752441,350.921631,0.983206
-93.75,914.978027,357.23877,0.983948
-95.031738,918.640137,350.921631,0.98469
-92.010498,917.541504,350.738525,0.985445
-96.77124,917.266846,357.23877,0.986188
-100.524902,916.442871,363.647461,0.986931
-100.982666,916.168213,364.654541,0.987673
-99.060059,920.288086,359.527588,0.988425
-101.165771,920.288086,367.218018,0.989167
-99.609375,920.654297,358.337402,0.98991
-93.933105,917.266846,354.58374,0.990652
-102.630615,915.985107,358.612061,0.991403
-99.79248,914.794922,355.133057,0.992145
-99.79248,921.844482,354.125977,0.992887
-103.179932,916.992188,353.302002,0.99363
-106.109619,911.865234,352.020264,0.99438
-100.891113,914.154053,356.781006,0.995121
-104.187012,913.421631,361.724854,0.995861
-110.046387,919.281006,367.492676,0.99662
-111.236572,919.555664,366.30249,0.997376
-111.14502,914.886475,357.971191,0.998119
-102.539062,920.10498,356.506348,0.998861
-106.47583,910.491943,360.443115,0.999603
-100.158691,919.281006,360.168457,1.000366
-94.665527,920.196533,347.900391,1.001108
-100.799561,912.780762,351.013184,1.00185
-96.313477,919.555664,345.52002,1.002592
-92.926025,908.752441,351.837158,1.003343
-91.369629,912.506104,351.287842,1.004085
-92.559814,916.809082,356.323242,1.004827
-95.123291,915.527344,357.971191,1.005569
-92.376709,906.37207,345.245361,1.006321
-89.263916,906.097412,351.5625,1.007063
-91.552734,913.970947,350.830078,1.007804
-91.186523,916.717529,359.344482,1.008546
-98.968506,913.879395,357.513428,1.009297
-89.904785,921.295166,368.041992,1.010039
-88.7146,916.534424,368.499756,1.010781
-85.601807,916.900635,370.880127,1.011519
-90.454102,917.541504,373.99292,1.012272
-77.819824,914.0625,372.436523,1.013014
-82.122803,921.386719,362.823486,1.013756
-74.890137,928.436279,363.647461,1.014499
-73.33374,919.006348,362.823486,1.015241
-80.566406,910.400391,359.161377,1.015983
-74.523926,909.851074,359.344482,1.016725
-77.453613,914.428711,355.682373,1.017468
-73.242188,911.590576,358.703613,1.01821
-83.312988,907.012939,359.619141,1.018953
-77.362061,908.660889,362.548828,1.019695
-78.552246,912.872314,364.837646,1.020519
-70.037842,910.583496,362.915039,1.021394
-81.481934,905.090332,362.091064,1.022139
-68.206787,913.238525,361.633301,1.022881
-64.910889,909.301758,352.844238,1.023622
-64.63623,905.548096,344.696045,1.024373
-67.474365,902.526855,332.336426,1.025115
-70.495605,903.625488,334.716797,1.025857
-65.917969,897.033691,347.442627,1.026599
-68.939209,899.32251,336.639404,1.027335
-74.981689,899.688721,330.047607,1.028077
-75.98877,893.005371,334.533691,1.028819
-74.157715,899.688721,330.13916,1.029562
-73.150635,908.660889,329.406738,1.030315
-70.587158,905.273438,336.364746,1.031058
-67.657471,910.125732,341.583252,1.0318
-63.720703,913.330078,353.57666,1.032543
-66.192627,910.949707,356.323242,1.033285
-67.29126,913.330078,357.421875,1.034028
-66.558838,913.970947,359.25293,1.03477
-71.31958,922.576904,368.682861,1.035512
-65.185547,928.070068,367.675781,1.036254
-61.706543,918.731689,363.098145,1.036997
-67.199707,921.295166,368.041992,1.03774
-67.016602,926.147461,367.858887,1.038482
-66.833496,920.013428,367.767334,1.039224
-63.62915,928.527832,373.260498,1.039966
-62.62207,916.351318,362.457275,1.040708
-64.361572,925.506592,362.915039,1.04145
-62.62207,916.442871,356.414795,1.042226
-69.30542,922.485352,355.682373,1.042979
-71.685791,926.78833,352.661133,1.043734
-70.953369,924.224854,357.330322,1.044486
-47.424316,924.133301,353.57666,1.045249
-64.63623,923.400879,357.879639,1.046019
-62.988281,924.041748,355.407715,1.046812
-53.649902,924.499512,363.28125,1.047621
-50.628662,937.042236,365.112305,1.048404
-62.530518,921.203613,361.26709,1.049153
-62.896729,923.034668,364.013672,1.049899
-57.769775,922.851562,369.873047,1.050642
-57.769775,920.837402,366.760254,1.051409
-47.424316,924.316406,375.183105,1.052158
-56.396484,931.549072,372.619629,1.052903
-54.016113,930.541992,382.141113,1.053649
-52.093506,934.112549,389.923096,1.054421
-57.037354,932.006836,389.73999,1.055166
-52.368164,927.062988,389.373779,1.055913
-54.56543,932.006836,392.578125,1.056661
-57.861328,935.577393,395.324707,1.057431
-59.60083,930.541992,388.549805,1.058194
-56.854248,932.647705,388.549805,1.059026
-58.868408,938.415527,383.056641,1.059825
-53.009033,937.683105,388.73291,1.060612
-55.755615,937.957764,393.859863,1.061404
-52.55127,941.253662,388.916016,1.062159
-53.192139,934.570312,378.204346,1.062913
-51.635742,927.886963,372.436523,1.063716
-46.600342,926.879883,374.267578,1.064462
-55.755615,932.189941,379.852295,1.065204
-51.269531,932.830811,383.605957,1.065946
-51.544189,928.710938,378.936768,1.066703
-58.410645,940.063477,378.204346,1.067445
-54.382324,934.204102,371.429443,1.068187
-59.234619,928.710938,378.387451,1.06893
-55.847168,927.246094,377.288818,1.06968
-51.818848,924.316406,379.669189,1.07042
-57.495117,929.626465,382.965088,1.07116
-57.769775,931.091309,382.873535,1.071922
-57.861328,929.626465,389.282227,1.072678
-58.59375,918.182373,382.232666,1.073421
-59.783936,932.373047,376.281738,1.074163
-62.713623,931.182861,384.155273,1.074905
-66.467285,929.992676,384.338379,1.075658
-63.446045,929.80957,376.831055,1.0764
-64.544678,937.225342,372.98584,1.077142
-63.720703,938.049316,376.922607,1.077885
-64.727783,930.450439,378.479004,1.078642
-62.896729,930.633545,366.394043,1.079385
-60.699463,935.028076,370.788574,1.080127
-64.63623,933.837891,371.887207,1.080869
-67.749023,933.837891,367.858887,1.081623
-72.601318,928.894043,369.598389,1.082366
-68.206787,931.82373,370.697021,1.083108
-68.023682,924.316406,365.844727,1.08385
-71.136475,929.626465,367.218018,1.084615
-70.678711,931.915283,371.246338,1.085358
-77.087402,927.703857,369.140625,1.0861
-77.545166,923.76709,363.922119,1.086842
-74.066162,926.239014,364.929199,1.087593
-75.714111,929.80957,363.830566,1.088335
-70.495605,933.47168,368.31665,1.089078
-75.622559,925.506592,364.379883,1.089821
-79.01001,919.73877,363.189697,1.090572
-78.826904,929.80957,365.386963,1.091313
-70.129395,923.492432,362.27417,1.092055
-72.32666,923.309326,368.95752,1.092797
-71.31958,923.034668,364.471436,1.09355
-78.826904,918.365479,358.795166,1.094377
-75.805664,922.668457,360.443115,1.095118
-75.714111,926.147461,362.091064,1.095861
-64.544678,927.978516,362.915039,1.096611
-71.868896,921.478271,365.936279,1.09736
-69.122314,924.499512,367.950439,1.098106
-70.770264,922.393799,362.640381,1.09885
-72.784424,921.203613,363.006592,1.099605
-76.080322,923.492432,363.739014,1.100349
-78.460693,924.133301,367.858887,1.101093
-73.974609,919.0979,361.26709,1.101837
-74.981689,916.900635,359.25293,1.10259
-74.34082,918.182373,356.140137,1.103334
-68.847656,925.140381,369.140625,1.104078
-68.572998,927.703857,366.30249,1.104821
-73.059082,924.865723,364.471436,1.105574
-69.671631,923.400879,367.950439,1.106318
-67.199707,921.295166,370.605469,1.107062
-70.495605,910.583496,361.358643,1.107805
-67.016602,923.950195,365.661621,1.108513
-68.847656,917.999268,372.344971,1.109257
-73.059082,919.464111,367.858887,1.11
-70.3125,917.816162,369.506836,1.110744
-71.502686,920.74585,370.605469,1.111471
-71.31958,921.936035,374.176025,1.112215
-71.685791,927.337646,372.528076,1.112959
-71.044922,920.928955,364.837646,1.11375
-73.974609,922.210693,366.027832,1.114516
-74.249268,925.415039,366.210938,1.115328
-71.136475,929.80957,362.182617,1.116072
-75.714111,922.302246,370.422363,1.116837
-73.883057,927.612305,369.598389,1.11761
-71.228027,925.415039,369.140625,1.118346
-74.34082,916.992188,368.591309,1.11908
-75.3479,919.006348,375.274658,1.119814
-73.516846,922.027588,376.922607,1.12059
-81.665039,929.534912,369.140625,1.121333
-77.270508,924.957275,374.450684,1.122076
-78.918457,927.520752,379.760742,1.122818
-77.270508,927.429199,377.655029,1.12357
-75.897217,923.034668,376.739502,1.124312
-73.974609,929.626465,375.549316,1.125054
-75.164795,925.231934,374.267578,1.125796
-77.453613,924.865723,374.725342,1.126548
-73.059082,921.75293,369.232178,1.12729
-74.798584,924.77417,393.4021,1.128032
-81.573486,916.625977,377.655029,1.128774
-84.594727,922.210693,372.528076,1.129526
-81.573486,916.900635,360.992432,1.130268
-83.770752,916.625977,356.5979,1.13101
-76.812744,916.07666,358.428955,1.131755
-71.777344,914.703369,360.992432,1.132435
-73.150635,921.020508,359.619141,1.133178
-76.263428,905.914307,354.58374,1.13392
-74.157715,906.188965,357.330322,1.134725
-80.383301,910.400391,356.323242,1.135505
-75.897217,902.160645,354.309082,1.136274
-78.277588,913.238525,355.407715,1.137025
-79.833984,909.484863,353.942871,1.137767
-78.735352,903.442383,353.027344,1.138526
-82.946777,901.611328,352.111816,1.139269
-79.650879,896.30127,352.661133,1.140011
-79.742432,897.491455,354.766846,1.140753
-82.122803,897.30835,352.203369,1.141506
-87.158203,899.230957,348.175049,1.142248
-84.503174,901.062012,346.893311,1.14299
-92.102051,905.456543,345.153809,1.143733
-94.024658,903.167725,354.309082,1.144482
-89.813232,904.632568,353.210449,1.145223
-77.819824,906.738281,361.999512,1.145963
-79.193115,898.773193,351.379395,1.146722
-83.587646,892.63916,358.978271,1.147478
-85.876465,900.238037,355.957031,1.14822
-87.524414,906.555176,358.337402,1.148962
-88.439941,903.808594,357.055664,1.149704
-83.587646,895.6604,353.942871,1.150456
-89.263916,901.611328,349.639893,1.151199
-95.76416,902.984619,350.55542,1.151941
-71.960449,899.963379,350.830078,1.152684
-85.144043,893.096924,345.977783,1.153435
-89.355469,900.695801,338.012695,1.154178
-91.461182,902.160645,349.54834,1.15492
-88.348389,905.181885,346.5271,1.155662
-91.278076,902.618408,349.914551,1.156415
-87.06665,902.984619,356.872559,1.157157
-85.968018,895.477295,354.309082,1.157899
-93.566895,898.681641,353.302002,1.158641
-93.566895,910.858154,356.140137,1.159403
-92.468262,906.738281,361.358643,1.160146
-95.031738,915.161133,369.873047,1.160888
-96.221924,905.273438,353.759766,1.16163
-91.186523,912.506104,366.760254,1.162382
-91.644287,908.752441,365.844727,1.163125
-112.976074,906.188965,367.858887,1.163867
-93.658447,911.682129,371.97876,1.164609
-88.897705,915.435791,366.851807,1.165361
-86.700439,916.992188,360.900879,1.166103
-87.890625,914.154053,359.710693,1.166928
-88.7146,914.428711,359.710693,1.16767
-90.545654,912.231445,354.58374,1.168423
-86.517334,905.273438,355.407715,1.169165
-82.672119,901.153564,357.147217,1.169907
-85.327148,910.03418,357.147217,1.170649
-82.214355,918.548584,363.830566,1.171401
-82.305908,911.04126,365.570068,1.172143
-84.411621,913.330078,361.633301,1.172885
-87.524414,915.344238,363.464355,1.173627
-90.637207,909.393311,360.351562,1.174378
-84.594727,916.992188,361.724854,1.17512
-90.362549,916.992188,366.394043,1.175862
-82.580566,916.351318,371.246338,1.176604
-85.968018,918.640137,372.253418,1.177356
-84.04541,921.661377,368.591309,1.17811
-81.573486,922.027588,364.471436,1.178888
-80.657959,914.611816,359.069824,1.17963
-78.00293,919.281006,360.626221,1.180382
-79.742432,922.119141,359.25293,1.181124
-80.657959,908.752441,354.675293,1.181867
-85.418701,913.879395,355.682373,1.182609
-78.277588,913.146973,361.907959,1.183361
-74.981689,909.484863,361.083984,1.184103
-79.101562,919.372559,354.217529,1.184845
-84.960938,907.562256,357.788086,1.185587
-79.833984,911.865234,362.182617,1.186339
-81.848145,908.203125,361.26709,1.187081
-81.756592,916.442871,365.203857,1.187823
-77.270508,914.520264,360.534668,1.188576
-78.369141,912.506104,361.999512,1.189349
-80.932617,914.154053,358.062744,1.190129
-74.432373,911.499023,360.26001,1.190876
-70.495605,918.640137,358.886719,1.191618
-79.376221,917.266846,364.837646,1.192381
-85.418701,914.703369,355.773926,1.193124
-75.805664,910.949707,358.886719,1.193866
-84.594727,908.843994,351.745605,1.194609
-79.559326,919.464111,359.25293,1.195361
-79.559326,916.168213,349.914551,1.196103
-78.00293,917.358398,353.302002,1.196845
-79.650879,915.161133,352.203369,1.197587
-90.270996,910.491943,353.759766,1.19834
-81.939697,931.732178,347.808838,1.199082
-81.298828,915.252686,347.442627,1.199824
-85.510254,919.73877,349.914551,1.200566
-90.087891,918.914795,347.808838,1.201318
-88.806152,913.421631,356.414795,1.20206
-85.693359,935.028076,359.069824,1.202803
-87.982178,920.013428,356.506348,1.203545
-91.644287,920.196533,354.125977,1.204298
-91.827393,927.703857,352.386475,1.205041
-88.439941,920.654297,349.639893,1.205784
-94.207764,915.344238,358.337402,1.206526
-90.087891,926.879883,357.696533,1.207269
-70.404053,925.140381,361.450195,1.208011
-92.376709,923.217773,364.929199,1.208753
-96.313477,924.133301,364.105225,1.209496
-96.77124,925.415039,357.879639,1.210238
-98.236084,923.400879,356.689453,1.210981
-95.855713,931.915283,361.450195,1.211724
-97.045898,927.062988,358.154297,1.212466
-96.405029,922.76001,356.5979,1.213218
-97.595215,928.070068,354.125977,1.21396
-92.010498,917.266846,351.5625,1.214702
-100.524902,926.239014,351.837158,1.215445
-103.088379,931.732178,361.175537,1.2162
-96.77124,922.027588,355.316162,1.216942
-96.954346,919.281006,361.633301,1.217684
-107.208252,921.844482,357.60498,1.218427
-96.679688,922.576904,359.069824,1.219168
-111.694336,927.246094,365.386963,1.219908
-98.327637,926.330566,365.478516,1.220649
-104.46167,923.675537,362.640381,1.22139
-101.257324,924.316406,370.239258,1.222158
-107.116699,925.78125,364.196777,1.222894
-102.081299,921.386719,360.900879,1.223628
-109.313965,915.710449,357.513428,1.224362
-101.715088,921.203613,357.147217,1.225136
-105.102539,895.751953,351.654053,1.225904
-105.651855,908.294678,346.984863,1.226656
-108.581543,917.633057,352.661133,1.227419
-106.658936,915.710449,329.589844,1.228173
-100.158691,910.675049,345.977783,1.228918
-101.898193,908.111572,347.351074,1.229661
-103.729248,907.653809,347.808838,1.230403
-97.045898,904.815674,349.090576,1.231146
-97.137451,907.836914,349.639893,1.231889
-98.144531,915.06958,351.287842,1.232631
-96.496582,906.555176,353.302002,1.233373
-101.531982,904.083252,355.316162,1.234125
-105.834961,907.37915,352.752686,1.234867
-96.954346,908.660889,357.23877,1.23561
-91.827393,904.174805,348.907471,1.236352
-95.947266,909.942627,349.731445,1.237095
-97.503662,905.456543,356.5979,1.237837
-94.573975,908.203125,357.60498,1.238579
-89.080811,907.012939,364.654541,1.239415
-84.320068,906.463623,360.809326,1.240178
-87.70752,917.541504,354.675293,1.24092
-87.432861,918.09082,359.802246,1.241663
-91.918945,914.0625,353.393555,1.242405
-90.454102,906.738281,356.323242,1.243147
-92.834473,910.308838,360.076904,1.243889
-91.827393,915.161133,356.048584,1.244631
-91.094971,914.0625,358.886719,1.245373
-87.982178,912.414551,364.471436,1.246115
-81.390381,917.08374,365.112305,1.246858
-82.489014,921.020508,363.098145,1.2476
-79.193115,920.288086,366.210938,1.248342
-78.460693,920.10498,366.30249,1.249095
-77.270508,931.091309,372.344971,1.249837
-76.721191,929.351807,369.873047,1.25058
-80.200195,924.865723,369.049072,1.251322
-74.066162,923.034668,382.69043,1.252077
-74.707031,923.126221,353.668213,1.252819
-83.770752,930.908203,379.211426,1.253561
-86.334229,925.689697,376.647949,1.254304
-77.819824,929.260254,380.67627,1.25506
-78.460693,930.267334,371.97876,1.255803
-80.657959,931.274414,369.9646,1.256546
-81.207275,925.231934,368.499756,1.257288
-77.087402,924.224854,372.070312,1.258031
-78.918457,921.936035,360.626221,1.258774
-77.728271,930.084229,368.225098,1.259516
-78.552246,923.309326,394.40918,1.260258
-77.545166,922.943115,372.528076,1.261008
-68.389893,919.006348,373.443604,1.261803
-72.784424,917.449951,370.330811,1.262568
-74.981689,917.724609,374.176025,1.263318
-71.044922,925.689697,366.027832,1.264061
-72.692871,916.717529,372.436523,1.264803
-91.827393,912.414551,372.894287,1.265545
-73.425293,912.963867,369.32373,1.266288
-70.404053,910.766602,365.112305,1.26703
-69.580078,908.843994,355.133057,1.267792
-73.883057,903.533936,353.118896,1.268535
-76.538086,904.449463,359.527588,1.269278
-69.213867,901.794434,363.830566,1.270021
-73.059082,899.963379,354.125977,1.270773
-69.396973,901.33667,353.851318,1.271515
-76.721191,891.815186,356.323242,1.272258
-68.939209,886.047363,355.59082,1.273
-65.917969,880.462646,354.217529,1.273751
-72.875977,896.209717,359.161377,1.274494
-63.995361,879.638672,353.57666,1.275254
-60.516357,895.568848,354.400635,1.275981
-66.009521,889.343262,355.957031,1.276761
-69.213867,886.047363,347.717285,1.277513
-65.368652,885.955811,353.57666,1.278286
-65.093994,883.575439,343.87207,1.279029
-70.404053,885.5896,339.569092,1.279793
-73.059082,886.962891,337.646484,1.280536
-68.023682,883.666992,339.935303,1.281278
-71.777344,882.385254,338.653564,1.282021
-71.868896,877.624512,339.569092,1.282773
-69.396973,883.758545,333.709717,1.283515
-75.3479,877.89917,341.766357,1.284258
-81.573486,875.244141,339.84375,1.285001
-76.080322,880.92041,342.956543,1.285752
-75.164795,886.962891,342.681885,1.286495
-78.00293,883.575439,366.485596,1.287237
-74.981689,881.561279,342.498779,1.287979
-81.298828,885.955811,345.88623,1.288731
-74.066162,884.216309,342.132568,1.289473
-76.080322,890.899658,348.815918,1.290215
-79.193115,895.6604,357.23877,1.290957
-84.503174,891.998291,351.196289,1.291709
-84.411621,895.751953,356.781006,1.292451
-80.291748,891.174316,356.5979,1.293193
-78.918457,894.927979,356.964111,1.293938
-83.404541,895.843506,351.379395,1.294697
-83.221436,895.202637,355.041504,1.295488
-81.390381,898.040771,356.414795,1.29625
-85.876465,892.730713,358.337402,1.297052
-89.996338,886.505127,356.231689,1.297814
-88.165283,893.554688,348.632812,1.298574
-86.151123,901.794434,354.949951,1.29934
-89.813232,902.801514,355.316162,1.300104
-88.348389,903.625488,360.809326,1.300863
-94.482422,904.35791,357.23877,1.301627
-85.327148,906.646729,354.400635,1.302388
-90.820312,908.203125,362.091064,1.303139
-91.552734,914.978027,356.231689,1.303884
-93.383789,905.456543,357.055664,1.304627
-89.630127,907.104492,364.471436,1.30537
-91.278076,906.646729,362.365723,1.306113
-93.566895,904.724121,359.985352,1.306856
-93.475342,908.660889,373.260498,1.307598
-94.299316,907.287598,369.232178,1.30834
-71.868896,907.37915,359.25293,1.309083
-92.834473,906.738281,363.830566,1.309825
-88.348389,903.900146,360.717773,1.310567
-89.447021,902.618408,360.351562,1.311309
-90.087891,903.259277,356.323242,1.312053
-84.594727,907.928467,360.076904,1.312889
-81.298828,900.878906,361.358643,1.313632
-84.320068,896.484375,360.443115,1.314374
-85.784912,890.625,350.55542,1.315117
-86.700439,895.111084,351.104736,1.315859
-83.679199,895.935059,347.53418,1.316601
-75.164795,891.906738,345.52002,1.317343
-80.566406,897.125244,346.069336,1.318099
-79.559326,888.885498,342.041016,1.318842
-80.657959,886.047363,347.076416,1.319584
-76.904297,881.286621,340.393066,1.320327
-75.073242,882.293701,335.632324,1.32111
-75.805664,882.568359,337.921143,1.321854
-78.643799,875.976562,334.350586,1.322596
-78.00293,882.93457,336.364746,1.323338
-73.699951,882.110596,335.174561,1.324081
-69.213867,876.983643,348.083496,1.324823
-69.854736,876.159668,346.984863,1.325565
-70.953369,869.293213,351.837158,1.326308
-71.228027,865.905762,345.428467,1.327059
-67.474365,870.483398,348.083496,1.327801
-73.059082,873.22998,357.879639,1.328543
-76.080322,877.624512,354.58374,1.329285
-73.33374,873.596191,355.865479,1.330028
-75.256348,867.462158,333.984375,1.33077
-74.707031,875.793457,350.463867,1.331513
-73.059082,873.321533,346.252441,1.332255
-62.62207,876.708984,343.87207,1.332998
-54.199219,870.758057,332.702637,1.333771
-58.502197,870.574951,326.293945,1.334528
-59.509277,868.652344,322.357178,1.33533
-65.643311,864.990234,322.540283,1.336079
-62.164307,856.658936,314.758301,1.336821
-54.656982,851.257324,320.617676,1.337564
-59.234619,858.856201,318.42041,1.338306
-60.791016,856.292725,320.43457,1.339048
-50.170898,853.363037,314.849854,1.339791
-48.88916,847.869873,316.40625,1.340533
-47.607422,838.989258,325.927734,1.341276
-47.424316,845.855713,322.08252,1.342018
-53.009033,843.200684,328.582764,1.342781
-47.973633,846.679688,330.780029,1.343523
-40.008545,841.918945,327.11792,1.344266
-43.487549,822.32666,319.610596,1.345045
-45.684814,841.73584,347.259521,1.345804
-53.741455,843.200684,331.14624,1.346609
-36.895752,839.172363,312.37793,1.347367
-52.642822,822.32666,327.667236,1.348119
-40.83252,840.545654,305.877686,1.348889
-61.889648,836.608887,301.66626,1.349633
-46.966553,829.559326,301.574707,1.350377
-51.361084,822.052002,327.484131,1.35114
-61.61499,827.819824,310.72998,1.351884
-63.079834,824.890137,309.814453,1.352626
-63.62915,831.939697,306.70166,1.353369
-67.565918,829.284668,304.321289,1.354112
-73.699951,828.460693,304.779053,1.354854
-66.467285,826.99585,308.532715,1.355596
-66.101074,834.228516,314.758301,1.356339
-78.277588,831.848145,313.476562,1.357082
-71.594238,832.397461,315.216064,1.357825
-67.657471,833.953857,315.582275,1.358567
-98.327637,827.453613,304.504395,1.35931
-112.518311,825.164795,308.807373,1.360052
-128.448486,835.05249,307.70874,1.360794
-161.132812,824.615479,301.849365,1.361535
-165.06958,826.35498,261.566162,1.362278
-177.154541,842.285156,269.805908,1.363021
-189.239502,831.756592,273.010254,1.363763
-193.634033,821.777344,268.066406,1.364505
-203.24707,824.615479,258.544922,1.365248
-205.26123,822.784424,251.403809,1.36599
-195.373535,825.897217,256.896973,1.366743
-189.880371,828.643799,266.052246,1.367486
-171.203613,841.644287,272.55249,1.368228
-141.998291,850.250244,285.003662,1.36897
-133.300781,849.334717,325.836182,1.369721
-97.77832,866.546631,339.294434,1.370461
-82.855225,878.540039,364.013672,1.371202
-69.488525,882.659912,380.310059,1.371972
-46.325684,893.096924,398.4375,1.372718
-43.121338,903.717041,406.311035,1.37346
-42.938232,905.822754,412.261963,1.374203
-71.411133,894.195557,416.748047,1.374945
-72.967529,891.815186,413.085938,1.375688
-104.187012,906.37207,404.937744,1.37643
-118.652344,894.836426,387.908936,1.377172
-130.187988,880.737305,375.549316,1.377915
-153.533936,876.434326,354.034424,1.378669
-155.36499,879.180908,320.343018,1.379412
-165.344238,847.961426,303.039551,1.380155
-156.37207,838.897705,272.003174,1.380897
-150.787354,839.447021,255.706787,1.38165
-146.118164,836.975098,238.586426,1.382393
-148.040771,833.953857,234.008789,1.383135
-123.138428,820.678711,238.037109,1.383878
-120.391846,813.62915,236.938477,1.38463
-113.067627,817.382812,225.128174,1.385458
-103.179932,813.262939,217.895508,1.386201
-98.876953,815.2771,220.001221,1.386943
-84.228516,809.234619,213.95874,1.387699
-66.650391,819.671631,204.803467,1.388441
-76.629639,824.523926,200.22583,1.389184
-72.32666,794.769287,192.169189,1.389926
-60.058594,792.755127,209.381104,1.390679
-66.467285,777.099609,207.824707,1.391422
-72.692871,776.550293,183.47168,1.392164
-79.284668,788.909912,186.950684,1.392906
-70.220947,773.986816,178.436279,1.393532
-74.066162,770.874023,179.351807,1.394275
-76.629639,782.775879,177.79541,1.395017
-84.869385,775.817871,158.203125,1.39576
-99.79248,779.937744,160.583496,1.396509
-85.05249,762.359619,169.921875,1.397252
-91.644287,762.268066,144.012451,1.397995
-86.700439,783.874512,151.977539,1.398737
-94.482422,845.306396,135.223389,1.399489
-73.059082,931.82373,108.856201,1.400231
-157.470703,946.19751,81.298828,1.400973
-121.673584,967.895508,113.983154,1.401715
-134.033203,896.30127,116.821289,1.402467
-178.070068,824.34082,168.548584,1.403209
-114.898682,829.742432,168.457031,1.403952
-126.89209,825.714111,158.843994,1.404694
-121.765137,821.685791,159.210205,1.405503
-126.251221,796.325684,166.07666,1.406244
-44.769287,783.874512,176.879883,1.406995
-89.172363,780.212402,164.520264,1.407741
-73.242188,763.73291,154.724121,1.408555
-57.861328,721.343994,153.900146,1.409308
-60.424805,703.125,163.696289,1.410052
-36.987305,669.799805,160.308838,1.410796
-40.466309,676.025391,143.554688,1.411556
-8.514404,669.342041,130.371094,1.4123
-60.699463,661.92627,122.039795,1.413043
-39.642334,663.208008,123.413086,1.413818
-43.304443,661.2854,116.638184,1.414589
-34.14917,651.123047,110.778809,1.415341
-39.367676,641.235352,105.377197,1.416104
-58.868408,578.063965,125.88501,1.416853
-9.429932,567.260742,125.793457,1.417619
6.225586,599.395752,67.474365,1.418364
-98.052979,660.461426,27.46582,1.419107
-73.516846,678.131104,-32.409668,1.419851
-15.197754,687.561035,-53.649902,1.420604
-62.62207,701.019287,-88.07373,1.421347
-70.770264,685.72998,-137.145996,1.42209
-21.789551,682.800293,-126.800537,1.422836
-21.697998,682.800293,-174.499512,1.423592
-37.628174,721.160889,-200.134277,1.424335
-68.115234,794.586182,-288.757324,1.425079
-70.770264,797.241211,-336.82251,1.425822
-91.644287,820.3125,-350.463867,1.426575
-253.051758,767.303467,-275.939941,1.427321
282.165527,706.237793,-280.700684,1.428066
-240.05127,852.905273,-328.765869,1.42881
-625.305176,765.197754,-361.26709,1.429554
55.114746,795.501709,-421.508789,1.430288
163.238525,825.897217,-458.587646,1.431022
-383.69751,853.546143,-461.425781,1.431756
-153.717041,860.046387,-517.089844,1.432435
-27.832031,917.816162,-580.078125,1.433179
-245.910645,948.669434,-583.92334,1.433921
-309.082031,956.542969,-612.487793,1.434664
-201.507568,970.458984,-604.980469,1.435417
-207.092285,990.509033,-637.115479,1.43616
-248.10791,1011.383057,-626.403809,1.436902
-233.642578,987.487793,-602.325439,1.437645
-237.854004,1006.530762,-575.592041,1.438406
-260.284424,995.727539,-499.328613,1.439193
-302.67334,996.734619,-473.7854,1.439937
-276.031494,1085.266113,-368.499756,1.44068
-377.380371,1098.632812,-342.224121,1.441435
-426.086426,1075.744629,-271.636963,1.442178
-383.972168,1072.998047,-167.449951,1.442921
-396.148682,1109.619141,-118.927002,1.443694
-67.840576,775.726318,-18.493652,1.444447
706.329346,637.207031,217.803955,1.445189
-746.154785,1279.907227,331.512451,1.44593
-901.062012,1019.714355,365.478516,1.446686
799.163818,1222.045898,398.345947,1.447442
-1075.378418,924.591064,413.085938,1.448185
-596.832275,1225.250244,365.020752,1.448928
327.575684,1311.950684,377.288818,1.449671
-546.020508,1063.659668,375.732422,1.450424
126.983643,1294.372559,356.231689,1.451167
470.581055,1376.953125,359.344482,1.451909
325.653076,1494.9646,411.346436,1.452652
-322.998047,1598.876953,442.016602,1.453411
102.905273,1801.300049,491.638184,1.454186
308.898926,1667.266846,577.972412,1.454929
-274.658203,1565.643311,618.347168,1.455672
530.090332,1432.434082,647.277832,1.456558
401.367188,1355.621338,731.323242,1.457301
99.884033,914.337158,940.429688,1.458044
-2051.055908,994.812012,2036.407471,1.458789
-1954.650879,928.619385,1592.376709,1.459532
1202.270508,2221.5271,1143.310547,1.460275
2144.622803,1294.647217,1111.724854,1.461018
1581.02417,1537.811279,1020.996094,1.461761
-283.538818,1448.0896,1134.246826,1.462562
617.156982,1621.856689,800.445557,1.463305
-400.634766,1651.428223,772.338867,1.464048
409.240723,1576.99585,772.979736,1.464793
39.550781,1544.86084,786.16333,1.465535
175.689697,1493.31665,678.314209,1.466278
193.359375,1472.991943,624.755859,1.467021
48.88916,1423.553467,578.613281,1.467765
198.669434,1378.967285,507.293701,1.468507
280.24292,1380.615234,347.259521,1.46925
215.881348,1343.536377,285.552979,1.469993
125.88501,1253.356934,175.415039,1.470735
14.373779,1222.320557,69.30542,1.471492
-1.281738,1187.164307,13.366699,1.472235
-72.052002,1104.309082,-93.017578,1.472977
-171.020508,1087.097168,-132.019043,1.47372
-202.697754,1026.306152,-205.078125,1.474472
-194.18335,990.325928,-257.263184,1.475214
-209.289551,979.797363,-273.101807,1.475977
-202.056885,949.584961,-303.497314,1.476721
-192.718506,955.169678,-307.525635,1.477465
-191.619873,949.035645,-367.767334,1.478207
-248.10791,945.556641,-402.46582,1.478952
-990.692139,944.091797,-290.95459,1.479714
-879.089355,908.843994,-41.8396,1.480471
-564.788818,931.732178,-45.593262,1.481251
-15.106201,1006.256104,-72.692871,1.481997
140.625,1006.347656,-143.280029,1.482765
-57.128906,959.381104,-191.894531,1.483508
-491.455078,887.969971,-320.343018,1.484251
-665.130615,842.74292,-462.615967,1.484993
-749.450684,793.029785,-557.006836,1.485736
-262.207031,795.684814,-751.00708,1.486479
143.737793,922.943115,-829.467773,1.487221
377.655029,732.971191,-271.728516,1.487964
-462.06665,745.880127,-73.791504,1.488706
-1479.858398,967.071533,-29.205322,1.489493
-569.274902,986.297607,-89.355469,1.490236
551.147461,1039.123535,-302.947998,1.490978
1084.075928,1021.087646,-346.618652,1.491732
-271.179199,918.273926,-402.648926,1.492477
-648.651123,901.702881,-407.592773,1.493219
-226.959229,967.803955,-532.836914,1.493962
434.60083,1211.975098,-368.591309,1.494706
2549.285889,1112.731934,-74.523926,1.495449
-678.863525,1757.904053,2756.469727,1.496192
180.633545,2416.717529,2999.908447,1.496953
-416.015625,2761.413574,2999.908447,1.497711
59.967041,1883.880615,957.000732,1.498461
-196.929932,1388.214111,-64.910889,1.499221
-977.874756,779.846191,-1112.823486,1.499969
-1116.210938,759.796143,-1224.517822,1.500712
-1257.385254,853.637695,-1067.596436,1.501455
165.435791,1089.569092,-374.359131,1.502198
1308.746338,1389.770508,41.931152,1.50294
694.42749,1746.368408,1056.060791,1.503683
24.261475,1721.557617,1342.712402,1.504427
-592.346191,1584.228516,1017.242432,1.505169
-783.874512,1177.825928,5.126953,1.505911
-874.87793,1018.52417,-368.31665,1.506653
-915.435791,885.040283,-619.171143,1.507406
-762.084961,1085.632324,-225.036621,1.508148
118.652344,1230.743408,49.713135,1.50889
742.950439,1367.248535,380.859375,1.509632
624.481201,1341.522217,350.372314,1.510384
655.792236,1188.354492,-140.258789,1.511126
685.36377,1037.567139,-528.900146,1.511868
455.200195,980.34668,-533.294678,1.512611
-574.310303,893.829346,-279.23584,1.513362
-834.960938,909.759521,-117.828369,1.514105
-1197.052002,1053.68042,108.764648,1.514847
-1347.198486,1118.682861,103.546143,1.515589
-1367.06543,1119.049072,83.770752,1.516341
-758.789062,1038.116455,61.431885,1.517083
-598.297119,1017.425537,-23.986816,1.517826
-286.743164,985.748291,-160.675049,1.518568
611.297607,1164.550781,-330.780029,1.519318
1995.117188,1111.907959,-467.559814,1.520058
825.98877,872.406006,-626.77002,1.520799
222.015381,814.910889,-587.860107,1.52154
-243.621826,883.575439,-484.130859,1.522345
-622.375488,970.184326,-438.995361,1.52309
-669.525146,962.677002,-407.043457,1.523833
-216.522217,1036.010742,-366.851807,1.524575
113.250732,1049.6521,-296.813965,1.525328
1054.595947,1036.468506,-280.426025,1.526072
1647.674561,794.311523,-70.3125,1.526902
1197.052002,755.584717,-215.881348,1.527645
965.606689,827.636719,-404.937744,1.528389
-112.884521,708.984375,-488.525391,1.529134
-339.752197,720.611572,-358.062744,1.529877
-261.84082,925.048828,-296.905518,1.53062
-415.19165,1049.468994,-172.76001,1.531374
-759.063721,1090.393066,-121.307373,1.532109
-1074.829102,1104.675293,7.049561,1.532843
-1057.70874,1124.084473,111.785889,1.533577
-845.306396,1115.203857,92.651367,1.53434
-707.611084,1103.118896,4.760742,1.535083
-384.796143,1061.279297,-74.615479,1.535825
-331.237793,1015.411377,-229.248047,1.536567
-446.868896,1009.368896,-194.458008,1.537321
-621.368408,1041.137695,-222.290039,1.538064
-679.412842,1063.110352,-352.844238,1.538807
-646.636963,1065.39917,-378.845215,1.53955
-116.546631,939.422607,-302.124023,1.540303
89.904785,906.188965,-312.561035,1.541046
32.13501,913.238525,-341.308594,1.541788
-132.568359,928.344727,-327.301025,1.542531
-297.912598,836.700439,-294.708252,1.543284
1692.901611,1007.080078,-558.563232,1.544027
1724.212646,881.286621,-708.618164,1.544837
906.097412,806.030273,-663.94043,1.54558
-461.975098,875.88501,-617.248535,1.546191
-340.209961,939.422607,-622.283936,1.546934
1349.945068,898.681641,-366.119385,1.547676
1425.292969,828.735352,-167.816162,1.548419
1360.839844,907.745361,-239.135742,1.549171
1217.102051,782.318115,-330.688477,1.549914
210.662842,729.125977,-296.173096,1.55067
-1862.915039,666.503906,-371.612549,1.55142
-2251.647949,751.464844,-668.151855,1.552215
-2190.216064,832.214355,-679.504395,1.552964
-682.800293,1242.645264,779.388428,1.553707
27.648926,1372.924805,1160.797119,1.554449
377.838135,1392.974854,709.80835,1.555205
254.241943,1289.428711,-105.46875,1.555948
215.148926,1247.86377,-180.267334,1.556691
422.698975,1202.911377,-165.435791,1.557434
506.286621,1174.89624,-246.002197,1.558187
609.191895,1089.752197,-309.265137,1.558929
554.992676,999.847412,-520.019531,1.559672
147.491455,974.121094,-505.737305,1.560447
-164.520264,1008.270264,-362.915039,1.561223
-259.368896,1097.351074,-29.296875,1.561972
-391.937256,1151.824951,133.575439,1.562747
-480.010986,1206.02417,325.927734,1.563496
-512.878418,1237.976074,387.084961,1.564262
-574.035645,1212.249756,374.176025,1.565006
-460.418701,1190.002441,232.269287,1.565749
-351.5625,1161.712646,52.001953,1.566492
-50.628662,1132.69043,23.4375,1.56726
21.331787,1066.40625,-159.393311,1.568004
42.84668,1021.362305,-265.960693,1.568747
-33.782959,937.866211,-376.190186,1.56956
-138.977051,915.802002,-276.306152,1.570319
-160.583496,912.231445,-232.452393,1.571062
-130.92041,941.619873,-143.463135,1.571804
-92.651367,976.501465,-123.321533,1.572547
-23.071289,1029.785156,-148.040771,1.573305
86.05957,1050.109863,-187.042236,1.574048
113.983154,1075.561523,-200.683594,1.574848
63.537598,1108.520508,-185.48584,1.575593
-15.74707,1131.225586,-136.138916,1.576336
-29.11377,1135.894775,-113.525391,1.577079
-83.404541,1151.824951,-46.508789,1.577824
-55.206299,1228.179932,111.694336,1.578578
30.395508,1266.265869,137.878418,1.579364
51.177979,1288.879395,120.391846,1.580129
43.304443,1287.872314,50.445557,1.58089
-167.449951,1264.892578,-21.514893,1.581678
-211.486816,1207.580566,3.02124,1.582457
-228.973389,1182.678223,59.692383,1.583217
-235.931396,1170.135498,49.621582,1.584051
-139.61792,1135.345459,50.537109,1.584829
-134.216309,1096.5271,-23.254395,1.585617
-147.674561,1074.09668,-78.094482,1.586379
-82.489014,1032.806396,-107.025146,1.587191
-51.269531,1070.892334,-40.557861,1.587993
-81.115723,1081.329346,-25.360107,1.588743
-167.816162,1074.462891,-66.375732,1.589486
-120.025635,1026.2146,-166.992188,1.590286
-90.637207,1010.192871,-222.198486,1.591115
-87.615967,1011.016846,-223.66333,1.591874
-104.003906,1014.404297,-182.830811,1.592619
-107.48291,1009.735107,-181.640625,1.593362
-64.453125,1001.953125,-234.100342,1.594178
-43.121338,978.881836,-246.09375,1.594921
-13.275146,958.557129,-281.616211,1.595664
80.932617,954.437256,-285.095215,1.596406
82.489014,957.183838,-268.066406,1.597038
25.726318,961.029053,-260.742188,1.597868
-21.148682,974.945068,-245.452881,1.598611
63.720703,984.191895,-242.340088,1.599354
54.016113,983.093262,-268.52417,1.600107
2.655029,935.943604,-295.257568,1.60085
48.706055,936.309814,-268.432617,1.601656
83.129883,950.22583,-269.165039,1.602402
80.932617,950.134277,-277.954102,1.603145
60.241699,924.133301,-310.455322,1.603888
-6.225586,923.583984,-315.673828,1.60463
23.162842,924.682617,-292.96875,1.605381
30.487061,933.563232,-318.786621,1.606125
29.11377,923.492432,-326.202393,1.606867
34.057617,908.294678,-318.328857,1.60761
14.190674,905.36499,-332.702637,1.608426
0.091553,882.751465,-344.87915,1.60917
-4.486084,866.363525,-380.0354,1.609914
4.943848,865.631104,-391.662598,1.610656
7.873535,868.835449,-362.457275,1.611399
-10.71167,873.87085,-339.202881,1.612141
14.923096,876.525879,-304.504395,1.612884
9.613037,854.003906,-313.751221,1.613626
1.464844,839.447021,-332.427979,1.614368
-25.45166,809.783936,-384.155273,1.615111
-27.557373,798.065186,-417.572021,1.615853
13.549805,795.410156,-416.564941,1.616595
28.198242,785.614014,-420.684814,1.617338
47.607422,775.726318,-418.670654,1.61808
60.974121,767.120361,-383.239746,1.618823
56.945801,763.000488,-396.057129,1.619565
10.070801,752.746582,-419.952393,1.620308
-32.226562,729.400635,-441.925049,1.621081
-49.89624,722.076416,-459.960938,1.621837
-70.037842,716.491699,-467.285156,1.622612
-34.240723,722.53418,-411.16333,1.623358
21.606445,713.928223,-429.199219,1.6241
0.457764,681.976318,-468.841553,1.624843
1.464844,665.405273,-458.679199,1.625587
30.578613,676.116943,-453.00293,1.626329
21.606445,655.609131,-533.111572,1.627085
7.69043,638.580322,-563.873291,1.627819
27.374268,640.960693,-517.089844,1.628556
54.107666,652.313232,-487.976074,1.62929
67.657471,659.179688,-471.405029,1.630046
73.608398,651.397705,-479.46167,1.63079
70.678711,649.108887,-487.335205,1.631532
56.57959,655.426025,-575.408936,1.632275
38.085938,651.2146,-591.430664,1.633026
7.049561,654.144287,-575.866699,1.633769
-13.916016,661.376953,-478.179932,1.634511
-6.774902,683.807373,-461.05957,1.635338
-23.895264,672.454834,-499.328613,1.636086
-41.473389,649.658203,-554.992676,1.636828
-58.319092,653.503418,-552.612305,1.637571
-65.826416,688.38501,-550.872803,1.638314
-75.073242,707.794189,-510.040283,1.639081
-95.306396,728.027344,-516.265869,1.639824
-135.955811,742.126465,-546.203613,1.640567
-111.328125,751.00708,-569.549561,1.641347
-152.984619,755.584717,-591.97998,1.642111
-143.463135,789.18457,-533.752441,1.642862
-116.638184,786.346436,-489.074707,1.643637
-25.45166,780.212402,-527.893066,1.644387
267.700195,759.887695,-529.35791,1.645131
406.219482,744.781494,-521.209717,1.645874
655.24292,735.717773,-517.822266,1.646616
769.866943,753.02124,-579.89502,1.64738
791.564941,780.853271,-624.481201,1.648123
703.125,852.264404,-574.951172,1.648865
579.071045,897.491455,-511.322021,1.649608
284.820557,903.35083,-476.348877,1.650351
125.976562,890.075684,-486.694336,1.651094
-257.629395,877.624512,-495.849609,1.651837
-582.91626,907.836914,-480.926514,1.652579
-915.161133,953.24707,-248.840332,1.653322
-749.267578,1042.785645,-189.971924,1.654065
-528.900146,1009.277344,-425.994873,1.654808
-110.687256,996.826172,-507.476807,1.655551
163.330078,967.437744,-448.516846,1.656293
187.5,992.06543,-434.051514,1.657096
158.569336,1015.777588,-429.382324,1.65784
40.557861,1081.878662,-372.344971,1.658584
-57.769775,1101.379395,-355.407715,1.659327
-102.081299,1060.72998,-393.859863,1.66007
-142.181396,1056.518555,-443.115234,1.660813
-152.435303,1092.590332,-432.403564,1.661556
-182.098389,1125.549316,-422.698975,1.662299
-176.147461,1131.500244,-397.43042,1.663042
-185.852051,1109.985352,-355.316162,1.663785
-132.568359,1113.739014,-336.82251,1.664528
-30.853271,1098.815918,-371.704102,1.665271
61.248779,1046.081543,-427.093506,1.666014
170.471191,1040.496826,-454.01001,1.666757
780.029297,962.860107,-488.525391,1.6675
1287.322998,735.717773,-798.88916,1.668243
818.847656,725.280762,-800.720215,1.669076
559.020996,945.465088,-414.367676,1.66982
416.107178,1067.962646,-297.546387,1.670562
-78.369141,1159.332275,-319.061279,1.671306
-167.358398,1146.697998,-434.60083,1.672065
-115.081787,1062.103271,-561.676025,1.672811
-10.803223,1024.108887,-565.246582,1.673554
77.453613,1042.236328,-495.391846,1.674297
136.413574,1066.864014,-420.959473,1.67504
180.999756,1111.816406,-336.639404,1.675783
155.090332,1128.845215,-326.934814,1.676526
105.834961,1143.768311,-371.612549,1.677281
69.030762,1132.69043,-452.362061,1.678077
-23.4375,1132.415771,-452.728271,1.678821
-383.422852,1129.669189,-409.973145,1.679564
-286.376953,1168.121338,-342.773438,1.680308
-20.050049,1190.2771,-345.428467,1.681051
343.231201,1175.354004,-353.942871,1.681794
370.513916,1193.023682,-352.020264,1.682537
224.853516,1177.91748,-349.731445,1.683289
27.648926,1173.797607,-381.317139,1.684031
13.366699,1165.557861,-468.200684,1.684773
122.039795,1173.156738,-492.279053,1.685516
177.79541,1173.614502,-533.203125,1.686259
239.318848,1170.959473,-550.964355,1.687002
198.577881,1149.627686,-576.690674,1.687745
191.711426,1133.148193,-651.2146,1.688488
210.021973,1123.718262,-651.580811,1.689231
219.268799,1121.429443,-695.983887,1.689974
243.896484,1113.098145,-698.0896,1.690717
227.600098,1107.60498,-724.731445,1.691461
199.21875,1109.802246,-703.857422,1.692331
212.768555,1121.795654,-695.343018,1.693094
255.065918,1125.366211,-695.526123,1.69387
253.692627,1167.114258,-675.567627,1.694613
236.480713,1167.938232,-672.729492,1.695358
191.986084,1169.036865,-702.484131,1.696102
178.894043,1175.90332,-621.826172,1.696845
187.591553,1208.953857,-572.753906,1.697588
240.41748,1198.974609,-613.037109,1.698341
214.416504,1197.967529,-650.299072,1.699083
165.527344,1199.249268,-616.607666,1.699826
172.851562,1222.869873,-570.098877,1.700568
200.775146,1255.096436,-581.359863,1.701312
177.79541,1283.111572,-599.029541,1.702055
216.522217,1268.280029,-586.486816,1.702797
199.951172,1275.32959,-624.938965,1.70354
145.294189,1261.688232,-641.601562,1.704285
111.602783,1259.58252,-633.361816,1.705028
118.652344,1288.421631,-635.559082,1.705771
172.119141,1289.245605,-624.298096,1.706517
153.35083,1287.780762,-595.550537,1.707261
158.477783,1286.773682,-671.447754,1.708005
126.617432,1263.793945,-691.680908,1.708748
112.701416,1250.427246,-694.42749,1.709491
139.801025,1289.245605,-664.306641,1.710235
148.31543,1305.541992,-672.546387,1.710978
134.94873,1292.449951,-699.645996,1.711781
146.850586,1297.027588,-705.688477,1.712526
175.323486,1307.830811,-704.956055,1.71328
161.224365,1292.633057,-723.266602,1.714079
121.948242,1291.992188,-710.906982,1.714821
165.161133,1302.978516,-702.850342,1.715564
151.611328,1300.231934,-715.209961,1.716307
77.636719,1306.549072,-696.899414,1.717115
122.406006,1297.943115,-723.815918,1.71792
131.561279,1273.223877,-680.053711,1.718755
69.30542,1270.294189,-706.878662,1.71953
70.037842,1269.012451,-704.406738,1.720311
82.03125,1291.442871,-654.785156,1.721117
100.982666,1296.020508,-628.417969,1.721858
81.390381,1300.506592,-616.424561,1.72259
69.396973,1296.661377,-557.189941,1.723322
34.973145,1300.506592,-542.541504,1.724054
39.276123,1311.49292,-545.196533,1.724836
35.705566,1310.943604,-542.541504,1.725594
29.571533,1285.308838,-544.921875,1.726362
41.931152,1264.160156,-537.780762,1.727112
46.142578,1269.195557,-531.738281,1.727856
72.692871,1259.58252,-526.885986,1.728597
77.362061,1246.856689,-541.992188,1.729339
52.55127,1239.807129,-546.661377,1.73008
60.241699,1198.516846,-562.683105,1.730822
62.988281,1184.967041,-585.571289,1.731566
43.762207,1151.275635,-599.853516,1.732307
39.550781,1142.028809,-605.712891,1.733048
36.437988,1140.472412,-609.649658,1.73379
66.101074,1122.711182,-618.621826,1.734531
87.799072,1105.773926,-653.22876,1.735272
101.44043,1079.406738,-665.679932,1.736013
93.109131,1034.820557,-702.301025,1.736772
71.960449,1016.143799,-747.436523,1.737515
72.143555,1016.143799,-721.984863,1.738257
62.713623,1014.862061,-703.399658,1.738998
50.811768,1006.164551,-707.427979,1.73982
48.797607,1002.593994,-709.716797,1.740553
35.15625,992.248535,-681.518555,1.741284
8.69751,1002.502441,-666.412354,1.742016
12.359619,997.009277,-651.763916,1.742769
21.42334,987.213135,-683.166504,1.74351
40.100098,959.014893,-680.053711,1.744251
32.867432,948.760986,-666.503906,1.744992
-8.514404,938.232422,-663.665771,1.745734
-24.536133,937.591553,-655.517578,1.746475
-11.810303,937.774658,-653.594971,1.747216
-17.39502,936.859131,-655.700684,1.747957
-24.627686,928.985596,-648.925781,1.748692
-58.410645,913.05542,-646.270752,1.749423
-29.571533,897.857666,-647.644043,1.750155
-18.493652,908.38623,-641.326904,1.750886
-2.288818,936.859131,-624.664307,1.751626
-10.528564,925.048828,-609.924316,1.752366
-26.367188,920.013428,-604.797363,1.753108
-44.677734,938.140869,-618.347168,1.753849
-49.804688,944.732666,-605.621338,1.75459
-48.065186,937.408447,-587.402344,1.755331
-11.901855,944.366455,-594.63501,1.756072
-21.331787,942.352295,-589.233398,1.756813
-45.86792,937.5,-592.895508,1.757554
-47.515869,933.197021,-594.818115,1.758295
-55.664062,923.217773,-587.493896,1.759036
-41.931152,931.365967,-577.789307,1.759776
-40.740967,943.359375,-543.731689,1.760529
-43.121338,932.739258,-551.879883,1.76127
-43.670654,930.450439,-528.167725,1.762039
-41.931152,921.112061,-531.738281,1.762821
-13.458252,926.239014,-537.139893,1.763573
-30.578613,925.689697,-544.555664,1.764314
-70.587158,902.618408,-543.823242,1.765056
-90.820312,892.364502,-538.421631,1.765813
-63.720703,904.174805,-536.224365,1.766554
-46.966553,925.506592,-517.822266,1.767295
-49.89624,921.020508,-502.990723,1.768036
-75.256348,892.272949,-529.724121,1.768788
-82.03125,896.118164,-543.457031,1.76953
-96.313477,892.547607,-531.829834,1.770271
-71.411133,890.899658,-511.413574,1.771012
-79.467773,888.885498,-496.948242,1.771763
-73.608398,897.674561,-499.145508,1.772504
-74.432373,878.723145,-502.166748,1.773245
-75.805664,880.554199,-516.082764,1.773985
-89.080811,860.046387,-525.146484,1.774735
-95.581055,846.405029,-543.365479,1.775476
-82.763672,874.511719,-531.921387,1.776219
-84.228516,896.392822,-487.792969,1.776959
-98.968506,884.033203,-478.820801,1.777713
-77.636719,862.792969,-500.976562,1.778454
-58.044434,858.581543,-504.638672,1.779195
-88.348389,872.314453,-487.426758,1.779936
-94.573975,857.849121,-483.673096,1.780686
-101.348877,842.468262,-514.160156,1.781428
-53.192139,842.651367,-475.341797,1.782213
-68.664551,839.080811,-461.700439,1.783022
-74.615479,821.594238,-459.503174,1.783772
-55.847168,798.706055,-470.947266,1.784514
-57.495117,797.424316,-455.474854,1.785255
-56.671143,782.684326,-464.263916,1.785999
-23.529053,759.063721,-479.919434,1.786731
-38.635254,757.598877,-468.017578,1.787462
-40.19165,748.99292,-459.960938,1.788194
-37.902832,758.239746,-456.573486,1.788952
-44.86084,748.626709,-450.98877,1.789693
-43.579102,738.555908,-476.806641,1.790434
-33.782959,732.421875,-478.45459,1.791175
-42.297363,714.752197,-476.348877,1.791917
-42.84668,698.913574,-472.412109,1.792648
-38.085938,701.385498,-466.644287,1.793379
-34.606934,690.216064,-461.700439,1.79411
-35.522461,695.709229,-456.939697,1.794863
-40.557861,693.603516,-444.213867,1.795602
-48.156738,685.913086,-440.460205,1.796342
-17.486572,685.638428,-437.347412,1.797081
-13.183594,685.36377,-430.755615,1.79783
-32.043457,678.314209,-448.516846,1.79857
-49.255371,659.637451,-452.087402,1.79931
-39.550781,673.370361,-432.312012,1.800051
-23.071289,678.68042,-407.409668,1.800801
-22.155762,673.278809,-403.289795,1.801539
-19.226074,678.497314,-412.811279,1.802276
-35.797119,654.968262,-425.628662,1.803029
-14.465332,651.947021,-413.452148,1.803781
-4.577637,650.20752,-415.374756,1.804521
-2.105713,651.397705,-409.698486,1.80526
-7.232666,646.820068,-406.402588,1.806
6.774902,655.426025,-396.606445,1.806751
8.605957,644.439697,-401.916504,1.80749
12.72583,650.482178,-412.078857,1.80823
12.084961,636.749268,-416.290283,1.80897
15.289307,644.989014,-407.775879,1.80972
20.141602,654.144287,-376.556396,1.81046
13.275146,646.728516,-402.008057,1.811284
16.662598,647.460938,-405.395508,1.812025
18.127441,649.56665,-379.760742,1.812777
28.930664,648.834229,-392.303467,1.813517
36.437988,652.22168,-387.634277,1.814257
43.670654,659.545898,-396.697998,1.814997
34.057617,659.362793,-392.944336,1.815747
32.501221,655.883789,-391.662598,1.816487
35.705566,661.651611,-390.563965,1.817228
46.325684,670.715332,-377.197266,1.817968
53.649902,674.285889,-376.556396,1.818718
50.994873,673.461914,-378.295898,1.819459
55.023193,669.616699,-376.373291,1.820199
53.283691,685.72998,-362.27417,1.820939
57.128906,691.772461,-371.887207,1.821689
65.185547,692.41333,-374.450684,1.82243
67.382812,698.181152,-362.548828,1.82317
76.35498,713.562012,-362.823486,1.82391
75.531006,712.82959,-363.830566,1.824661
71.960449,721.343994,-356.964111,1.825402
65.2771,718.87207,-353.759766,1.826143
80.749512,718.963623,-356.689453,1.826883
110.321045,717.315674,-354.125977,1.827636
93.109131,727.203369,-344.146729,1.828376
98.419189,726.196289,-335.632324,1.829116
97.137451,720.428467,-348.632812,1.829856
114.715576,721.5271,-357.330322,1.830611
115.264893,733.062744,-340.759277,1.831378
112.609863,747.528076,-346.5271,1.832159
138.519287,750.183105,-342.498779,1.832943
125.427246,751.281738,-331.695557,1.833684
138.153076,761.993408,-333.984375,1.834425
141.815186,758.422852,-325.653076,1.835165
136.322021,755.401611,-333.618164,1.83592
138.702393,762.359619,-335.632324,1.836661
125.518799,761.810303,-328.948975,1.837402
140.808105,765.380859,-325.10376,1.838142
143.737793,767.120361,-319.793701,1.838893
150.054932,765.655518,-319.152832,1.839633
155.090332,755.67627,-305.603027,1.840374
161.04126,764.007568,-311.645508,1.841114
156.646729,765.289307,-306.793213,1.841866
162.872314,753.936768,-301.940918,1.842607
167.633057,752.471924,-298.553467,1.843347
167.266846,755.310059,-291.046143,1.844105
167.08374,752.746582,-301.483154,1.844795
141.815186,752.746582,-290.679932,1.845569
160.03418,761.260986,-277.038574,1.846311
162.231445,743.865967,-280.334473,1.847042
181.45752,738.830566,-307.617188,1.84781
195.098877,728.393555,-298.64502,1.848543
176.513672,730.041504,-286.468506,1.849274
172.393799,732.421875,-300.933838,1.850005
179.351807,720.336914,-294.616699,1.85075
187.133789,702.209473,-298.736572,1.851481
191.070557,689.849854,-300.842285,1.852212
191.162109,674.01123,-306.335449,1.852943
191.253662,662.109375,-348.724365,1.853686
189.788818,654.602051,-336.82251,1.854417
195.922852,654.968262,-312.835693,1.855148
187.225342,641.51001,-310.821533,1.855879
180.725098,641.235352,-308.990479,1.856636
182.006836,633.911133,-328.857422,1.857378
198.486328,617.431641,-357.60498,1.858119
214.96582,602.325439,-387.176514,1.85886
203.979492,602.508545,-380.218506,1.859602
169.647217,608.551025,-357.60498,1.860333
171.386719,618.255615,-350.738525,1.861064
185.302734,623.199463,-339.935303,1.861795
173.76709,635.101318,-327.392578,1.862583
150.878906,638.671875,-324.371338,1.863323
139.068604,631.713867,-323.272705,1.864063
140.991211,634.277344,-338.378906,1.864802
145.111084,635.192871,-344.512939,1.865552
149.688721,628.875732,-337.921143,1.866292
139.434814,631.164551,-327.392578,1.867032
142.456055,652.954102,-325.653076,1.867771
136.688232,633.636475,-353.302002,1.86852
150.146484,623.657227,-371.704102,1.86926
150.421143,614.318848,-396.148682,1.869999
141.357422,602.69165,-408.599854,1.870739
127.990723,602.142334,-403.930664,1.871488
124.786377,605.163574,-411.529541,1.872228
119.384766,610.198975,-411.712646,1.872968
109.039307,615.142822,-412.628174,1.873707
104.095459,618.530273,-410.15625,1.874457
95.76416,637.573242,-414.642334,1.875196
96.954346,650.20752,-413.17749,1.875936
88.439941,651.580811,-409.423828,1.876676
66.28418,663.574219,-409.698486,1.877424
61.248779,685.089111,-410.705566,1.878163
63.446045,691.314697,-407.958984,1.878903
47.515869,722.625732,-398.895264,1.879642
44.311523,732.23877,-396.331787,1.880391
38.543701,726.013184,-398.712158,1.881131
35.247803,736.724854,-402.46582,1.881871
36.804199,743.865967,-399.810791,1.882695
23.254395,757.141113,-395.41626,1.883447
8.789062,768.859863,-396.240234,1.884186
17.76123,771.697998,-394.592285,1.884926
17.76123,778.198242,-387.634277,1.885667
8.789062,791.290283,-385.620117,1.886452
11.993408,807.128906,-384.521484,1.887193
6.774902,819.396973,-382.598877,1.887924
9.979248,826.35498,-378.387451,1.888691
8.514404,824.157715,-378.936768,1.889422
8.148193,838.256836,-374.908447,1.890153
8.69751,834.686279,-373.718262,1.890894
6.958008,846.496582,-386.627197,1.891629
20.599365,851.806641,-375.183105,1.892373
14.190674,856.658936,-370.239258,1.893107
6.866455,861.236572,-372.436523,1.893853
7.598877,890.167236,-363.28125,1.894584
3.204346,883.850098,-378.479004,1.89538
1.556396,879.638672,-373.077393,1.896172
5.493164,882.476807,-366.577148,1.896814
6.774902,893.463135,-375.640869,1.89759
0.732422,893.463135,-371.520996,1.898365
-4.669189,896.209717,-373.809814,1.899137
-12.908936,901.062012,-369.689941,1.899884
-11.627197,904.632568,-381.958008,1.900631
-18.859863,906.829834,-386.352539,1.901448
-20.507812,910.766602,-380.0354,1.902199
-16.662598,917.08374,-383.422852,1.902941
-18.493652,911.499023,-386.535645,1.903687
-9.796143,914.611816,-385.070801,1.904428
-20.690918,931.365967,-380.493164,1.90517
-17.944336,926.879883,-393.493652,1.905911
-13.916016,922.485352,-390.197754,1.906655
-6.68335,919.647217,-388.000488,1.9074
-8.605957,918.09082,-390.380859,1.90814
-13.275146,923.034668,-388.73291,1.908792
-17.852783,931.45752,-392.578125,1.909559
0.732422,941.345215,-382.415771,1.910354
-8.239746,940.52124,-375.0,1.911099
-7.324219,949.127197,-368.774414,1.911854
-5.584717,931.091309,-370.788574,1.912585
0.457764,925.415039,-369.873047,1.913315
-1.373291,923.400879,-374.450684,1.914046
-5.584717,922.76001,-375.732422,1.914816
-10.620117,921.112061,-382.232666,1.915557
-8.239746,927.429199,-371.612549,1.916297
2.655029,924.957275,-376.00708,1.917037
19.592285,914.337158,-356.323242,1.917788
25.177002,903.808594,-382.324219,1.918526
22.338867,895.202637,-393.676758,1.919263
18.035889,898.040771,-403.106689,1.920014
26.000977,889.068604,-401.550293,1.920759
33.508301,882.293701,-396.972656,1.9215
37.17041,885.223389,-390.289307,1.922242
44.036865,872.039795,-395.599365,1.922983
44.311523,870.483398,-409.881592,1.923724
42.205811,867.553711,-411.529541,1.924465
46.325684,877.441406,-399.902344,1.925206
55.206299,845.855713,-404.205322,1.925948
52.459717,862.792969,-400.543213,1.926689
49.621582,854.46167,-403.656006,1.927429
52.001953,849.884033,-412.261963,1.928171
64.63623,842.285156,-409.240723,1.928919
58.502197,846.405029,-399.536133,1.92965
72.143555,848.236084,-403.106689,1.930381
70.404053,846.862793,-393.127441,1.931112
60.058594,840.545654,-386.901855,1.93185
68.847656,847.229004,-391.662598,1.93259
76.812744,838.806152,-395.141602,1.93333
69.122314,829.650879,-396.697998,1.93407
74.523926,840.454102,-384.063721,1.934825
77.087402,847.595215,-379.02832,1.935568
80.108643,847.229004,-380.126953,1.936308
72.967529,841.094971,-379.760742,1.937048
87.70752,839.355469,-375.274658,1.937803
87.982178,836.425781,-374.450684,1.938543
82.763672,829.559326,-361.358643,1.939281
87.615967,833.404541,-374.176025,1.940045
88.165283,825.622559,-383.148193,1.940785
98.144531,817.840576,-364.746094,1.941525
98.602295,833.129883,-358.703613,1.942265
100.43335,823.242188,-361.26709,1.943015
100.891113,808.59375,-366.394043,1.943768
96.679688,817.565918,-362.182617,1.944509
102.630615,813.903809,-363.372803,1.945249
93.017578,809.234619,-366.760254,1.946014
98.968506,803.833008,-375.0,1.946753
99.243164,807.312012,-378.753662,1.947491
105.102539,800.537109,-384.887695,1.948229
102.081299,807.58667,-367.675781,1.948995
107.299805,806.304932,-372.619629,1.949739
119.293213,804.199219,-379.852295,1.95048
111.236572,801.177979,-384.796143,1.951221
105.194092,798.706055,-364.929199,1.951977
106.292725,806.030273,-369.049072,1.952717
103.912354,810.333252,-368.225098,1.953458
106.109619,810.424805,-363.922119,1.954199
96.954346,800.262451,-373.260498,1.955041
99.42627,798.614502,-375.549316,1.955784
98.327637,800.537109,-373.99292,1.956525
95.031738,810.424805,-370.697021,1.957265
