ACC_X,ACC_Y,ACC_Z,Time
-27.648926,924.316406,307.617188,0.868359
-23.803711,925.231934,305.786133,0.869103
-22.338867,921.478271,303.588867,0.869847
-22.43042,927.612305,310.546875,0.870591
-22.888184,920.013428,300.567627,0.871335
-30.12085,918.640137,305.053711,0.872079
-34.881592,919.372559,305.419922,0.872822
-30.853271,918.914795,301.300049,0.873577
-33.14209,923.675537,302.307129,0.87432
-28.381348,921.386719,300.750732,0.875064
-36.254883,915.618896,293.334961,0.875808
-34.332275,922.943115,305.969238,0.876552
-32.501221,927.978516,305.603027,0.877296
-32.684326,931.365967,295.806885,0.878125
-34.606934,927.79541,292.053223,0.87887
-31.036377,921.112061,296.905518,0.879628
-38.085938,923.217773,302.67334,0.880372
-38.635254,927.886963,299.468994,0.881117
-40.557861,926.971436,303.588867,0.881862
-39.367676,922.76001,296.722412,0.882607
-36.804199,925.506592,295.623779,0.883352
-47.332764,928.894043,296.447754,0.884096
-40.283203,925.598145,298.553467,0.884841
-45.318604,925.231934,297.637939,0.885595
-48.88916,936.309814,306.976318,0.88634
-52.001953,936.401367,303.405762,0.887084
-52.459717,934.47876,309.814453,0.887828
-54.656982,930.450439,304.229736,0.88857
-44.86084,929.626465,303.771973,0.889304
-46.783447,933.380127,299.468994,0.890039
-44.952393,929.534912,306.518555,0.890773
-47.88208,929.901123,304.229736,0.891518
-43.579102,929.443359,300.292969,0.892264
-44.128418,937.5,301.940918,0.893009
-46.508789,933.288574,295.257568,0.893753
-46.783447,929.077148,297.271729,0.894498
-51.818848,935.852051,302.947998,0.895242
-48.065186,934.844971,291.229248,0.895987
-51.361084,933.746338,293.518066,0.896731
-58.227539,938.415527,296.722412,0.897479
-52.185059,941.162109,296.722412,0.89825
-57.128906,939.51416,303.955078,0.899032
-54.56543,933.288574,296.447754,0.899782
-57.769775,938.232422,299.377441,0.900526
-49.346924,937.5,300.384521,0.901271
-47.241211,943.54248,297.454834,0.902015
-49.987793,945.648193,299.01123,0.902759
-54.016113,938.049316,300.65918,0.903503
-54.931641,937.866211,297.454834,0.904265
-49.530029,941.986084,302.032471,0.90501
-46.691895,944.732666,307.342529,0.905754
-44.403076,947.296143,317.962646,0.906498
-56.945801,942.443848,304.962158,0.907252
-57.220459,936.676025,312.835693,0.907996
-46.783447,940.429688,305.69458,0.908741
-51.177979,939.971924,301.483154,0.909486
-53.55835,941.070557,300.476074,0.910245
-45.135498,943.908691,309.906006,0.91099
-43.762207,951.324463,306.976318,0.911734
-47.149658,950.958252,310.272217,0.912479
-52.91748,948.486328,305.786133,0.913233
-49.713135,939.422607,298.187256,0.913977
-48.88916,943.359375,310.36377,0.914721
-42.205811,938.140869,307.617188,0.915466
-48.522949,946.838379,306.518555,0.916248
-55.389404,959.655762,311.645508,0.917166
-55.206299,943.084717,306.427002,0.917929
-44.219971,937.5,313.842773,0.918714
-57.58667,959.838867,309.539795,0.919466
-45.684814,960.388184,301.391602,0.92021
-35.705566,954.25415,309.082031,0.920955
-49.255371,953.704834,304.046631,0.92172
-41.290283,954.711914,300.567627,0.922464
-38.452148,951.324463,299.560547,0.923208
-44.036865,943.817139,298.736572,0.923953
-36.804199,953.704834,313.293457,0.924707
-37.719727,952.880859,311.279297,0.925452
-38.17749,960.754395,323.547363,0.926196
-37.719727,960.021973,323.638916,0.92694
-45.86792,967.071533,332.519531,0.927685
-55.206299,966.430664,327.11792,0.92843
-52.825928,955.169678,345.977783,0.929174
-53.741455,964.324951,332.15332,0.929919
-61.523438,965.332031,313.38501,0.930709
-57.495117,958.465576,311.828613,0.931484
-59.143066,958.374023,308.258057,0.932223
-54.931641,955.810547,303.039551,0.932957
-43.85376,956.726074,306.518555,0.933722
-41.748047,961.212158,307.159424,0.934467
-45.135498,961.303711,306.793213,0.935211
-39.550781,954.25415,309.631348,0.935955
-33.691406,968.62793,321.166992,0.936709
-37.902832,965.240479,317.138672,0.937454
-40.374756,962.310791,325.286865,0.938199
-48.797607,963.684082,320.983887,0.938943
-50.720215,966.796875,321.350098,0.939697
-57.678223,968.444824,326.385498,0.940441
-65.185547,966.339111,317.504883,0.941185
-59.967041,962.677002,316.40625,0.941929
-54.016113,941.070557,316.589355,0.942686
-63.262939,960.113525,310.72998,0.943431
-50.811768,962.677002,315.490723,0.944175
-43.85376,962.127686,314.849854,0.944919
-37.078857,963.867188,305.145264,0.945673
-32.958984,940.612793,308.807373,0.946417
-28.289795,963.867188,310.272217,0.947161
-31.402588,961.94458,311.737061,0.947906
-28.930664,962.95166,313.934326,0.94866
-31.219482,957.275391,311.096191,0.949405
-28.198242,977.69165,311.645508,0.950149
-33.233643,964.96582,314.39209,0.950976
-40.283203,956.634521,307.342529,0.951735
-39.001465,956.451416,303.68042,0.952479
-40.83252,960.9375,308.71582,0.953223
-42.755127,953.796387,313.751221,0.953968
-47.88208,952.331543,309.814453,0.954732
-38.635254,955.810547,314.666748,0.955484
-38.818359,953.613281,313.201904,0.956233
-33.508301,950.683594,316.680908,0.956977
-30.853271,956.176758,323.547363,0.95774
-28.930664,949.951172,314.117432,0.958485
-29.022217,953.063965,312.835693,0.959229
-31.311035,955.718994,309.997559,0.959973
-34.790039,951.324463,307.159424,0.960727
-35.15625,949.310303,309.539795,0.961471
-36.987305,945.831299,307.800293,0.962215
-40.83252,952.514648,305.877686,0.96296
-66.28418,944.641113,306.976318,0.963714
-52.185059,940.979004,304.870605,0.964458
-43.121338,943.725586,306.610107,0.965202
-38.909912,943.267822,313.018799,0.965947
-37.536621,948.120117,307.159424,0.966692
-41.656494,948.577881,312.469482,0.967436
-43.762207,940.338135,311.737061,0.968181
-31.036377,946.746826,313.110352,0.968925
-35.888672,941.253662,304.321289,0.969681
-32.867432,944.18335,302.581787,0.970425
-32.592773,939.788818,301.483154,0.971169
-37.902832,940.704346,293.609619,0.971917
-35.247803,935.760498,298.736572,0.972669
-33.233643,943.725586,298.278809,0.973449
-34.423828,943.817139,298.461914,0.974198
-32.775879,947.296143,298.828125,0.974942
-34.332275,951.416016,281.341553,0.975687
-27.191162,947.937012,298.553467,0.976432
-30.944824,943.908691,307.800293,0.977176
-26.824951,952.148438,307.617188,0.97792
-23.4375,951.599121,306.884766,0.978665
-28.747559,955.535889,287.109375,0.979409
-21.789551,955.627441,299.194336,0.980152
-21.057129,951.599121,302.581787,0.980897
-23.986816,946.929932,295.715332,0.981661
-27.740479,953.063965,307.617188,0.982407
-22.338867,955.718994,285.003662,0.983151
-29.022217,960.9375,295.806885,0.983895
-26.275635,959.93042,303.497314,0.984638
-26.184082,964.599609,297.729492,0.985383
-19.958496,957.550049,310.913086,0.986127
-23.071289,959.747314,314.117432,0.986871
-22.888184,963.409424,302.947998,0.987616
-20.141602,963.95874,316.680908,0.988361
-22.613525,963.684082,309.539795,0.989106
-19.500732,974.304199,320.43457,0.98985
-15.563965,971.099854,320.709229,0.990596
-21.697998,971.740723,318.054199,0.99134
-24.536133,975.494385,321.624756,0.992085
-19.317627,974.121094,316.680908,0.992829
-19.134521,972.747803,307.983398,0.993713
-24.902344,979.705811,316.223145,0.994529
-25.360107,975.036621,316.314697,0.995276
-23.254395,971.282959,315.948486,0.99602
-25.360107,968.536377,318.878174,0.996781
-25.634766,969.909668,312.469482,0.997525
-23.620605,985.931396,314.575195,0.99827
-31.12793,979.3396,316.40625,0.999015
-25.360107,976.409912,312.927246,0.999769
-23.803711,979.614258,313.751221,1.000514
-30.487061,976.959229,315.307617,1.001258
-27.648926,978.240967,326.019287,1.002002
-30.029297,976.959229,316.314697,1.002755
-34.606934,977.050781,315.490723,1.003499
-28.839111,978.149414,317.596436,1.004243
-30.944824,961.578369,308.258057,1.004987
-37.811279,977.966309,313.476562,1.005744
-36.346436,978.33252,313.568115,1.006488
-38.818359,972.564697,312.835693,1.007278
-42.755127,966.156006,311.920166,1.008022
-34.606934,970.092773,310.913086,1.008767
-38.452148,964.874268,314.208984,1.009501
-46.051025,970.64209,316.223145,1.010236
-38.909912,982.910156,311.645508,1.01097
-40.557861,962.493896,315.582275,1.01174
-39.825439,969.360352,308.258057,1.012483
-42.84668,962.036133,309.814453,1.013225
-44.494629,965.332031,311.828613,1.013968
-47.973633,966.61377,306.060791,1.014721
-49.530029,966.247559,311.645508,1.015464
-51.269531,958.648682,317.41333,1.016207
-54.56543,957.824707,312.652588,1.016949
-47.790527,954.071045,305.511475,1.017705
-30.395508,956.726074,307.983398,1.018448
-52.276611,961.120605,308.71582,1.01919
-50.079346,956.542969,304.229736,1.019932
-46.417236,953.704834,305.053711,1.020685
-53.924561,956.451416,296.813965,1.021427
-54.473877,953.613281,298.553467,1.02217
-59.051514,950.775146,308.532715,1.022912
-61.157227,953.338623,302.124023,1.023664
-56.213379,952.423096,298.64502,1.024501
-63.079834,947.937012,294.616699,1.025244
-62.438965,956.176758,302.581787,1.025986
-59.051514,949.035645,302.581787,1.026741
-59.783936,950.042725,300.842285,1.027483
-57.312012,956.451416,303.955078,1.028225
-57.403564,959.838867,305.969238,1.028968
-57.58667,954.986572,304.321289,1.029733
-58.502197,979.888916,302.856445,1.030477
-55.664062,955.993652,301.025391,1.031219
-53.55835,958.831787,293.518066,1.031962
-56.945801,956.359863,300.750732,1.032715
-59.875488,956.726074,301.757812,1.033457
-58.868408,959.472656,305.145264,1.0342
-58.410645,954.986572,305.236816,1.034942
-62.347412,953.430176,303.131104,1.035685
-58.959961,951.507568,306.427002,1.036427
-50.811768,962.493896,300.018311,1.037162
-52.276611,951.141357,296.99707,1.037895
-58.135986,954.071045,300.476074,1.038639
-68.847656,962.310791,303.863525,1.039381
-53.924561,957.000732,299.6521,1.040123
-51.452637,967.254639,305.236816,1.040866
-46.691895,962.95166,306.518555,1.041608
-49.163818,965.789795,309.539795,1.042351
-49.530029,955.810547,307.525635,1.043094
-46.142578,963.317871,311.920166,1.043836
-41.931152,956.817627,299.285889,1.044584
-44.311523,961.853027,307.159424,1.045361
-48.980713,962.127686,302.032471,1.04611
-54.473877,964.691162,311.645508,1.046895
-55.847168,959.197998,325.286865,1.04764
-50.445557,957.092285,310.72998,1.048383
-53.924561,958.099365,308.71582,1.049125
-50.720215,960.845947,298.553467,1.049867
-47.515869,960.021973,301.940918,1.05061
-46.325684,968.078613,307.800293,1.051353
-37.17041,961.853027,310.72998,1.052095
-42.755127,940.063477,304.870605,1.052837
-38.17749,964.050293,308.532715,1.05358
-34.423828,960.571289,309.539795,1.054323
-29.937744,961.853027,327.026367,1.055065
-30.944824,960.571289,311.279297,1.055808
-30.853271,960.845947,307.250977,1.056569
-39.459229,963.226318,306.060791,1.057312
-35.705566,957.824707,314.483643,1.058055
-37.536621,955.352783,314.483643,1.058797
-37.353516,954.071045,312.652588,1.059549
-37.628174,952.697754,309.082031,1.060291
-39.367676,952.148438,318.054199,1.061033
-38.269043,947.479248,306.884766,1.061777
-43.945312,951.416016,308.074951,1.06252
-39.550781,940.795898,308.441162,1.06326
-33.416748,949.035645,300.384521,1.064
-34.606934,949.21875,290.496826,1.06474
-32.501221,957.91626,303.039551,1.065488
-33.416748,946.655273,302.124023,1.066236
-29.022217,944.18335,300.750732,1.06698
-26.184082,946.838379,296.722412,1.067725
-25.177002,951.324463,299.743652,1.068468
-23.4375,933.746338,299.468994,1.069238
-33.966064,958.831787,304.6875,1.070216
-34.057617,935.577393,300.567627,1.070962
-35.430908,937.957764,296.081543,1.071721
-35.339355,936.676025,281.524658,1.072466
-39.276123,933.929443,296.447754,1.07321
-36.16333,933.746338,289.031982,1.073954
-35.15625,928.985596,297.912598,1.074708
-37.17041,930.084229,303.588867,1.075452
-38.909912,923.675537,302.215576,1.076196
-42.297363,928.710938,295.257568,1.07694
-45.86792,929.534912,299.835205,1.077696
-46.966553,933.380127,296.630859,1.078444
-45.501709,924.041748,292.694092,1.079223
-44.311523,921.75293,295.98999,1.079967
-51.361084,923.126221,296.081543,1.080722
-48.614502,925.872803,293.243408,1.081466
-50.811768,921.844482,296.081543,1.082211
-55.114746,913.05542,292.236328,1.082955
-53.833008,919.73877,298.187256,1.083715
-65.734863,921.112061,298.278809,1.084459
-62.62207,927.520752,297.729492,1.085204
-64.819336,921.478271,296.905518,1.085949
-56.396484,928.527832,297.271729,1.086703
-52.734375,931.091309,300.933838,1.087448
-58.319092,931.182861,296.99707,1.088192
-54.290771,925.231934,301.483154,1.088937
-52.185059,925.323486,299.285889,1.089641
-54.016113,930.358887,299.01123,1.090385
-49.072266,929.351807,302.215576,1.091129
-45.684814,929.534912,297.546387,1.091874
-44.036865,933.380127,308.074951,1.092629
-47.973633,939.331055,300.018311,1.093373
-55.206299,935.48584,298.278809,1.094117
-51.9104,932.4646,302.307129,1.094862
-52.642822,931.274414,303.405762,1.095616
-46.783447,930.725098,299.560547,1.096361
-42.114258,922.851562,299.926758,1.097188
-40.008545,939.605713,305.419922,1.097934
-37.445068,935.394287,300.109863,1.09869
-41.473389,928.80249,299.6521,1.099435
-36.621094,925.048828,301.66626,1.10018
-41.656494,926.879883,308.807373,1.100924
-34.606934,934.661865,315.765381,1.101689
-31.768799,924.407959,307.434082,1.102433
-33.966064,924.224854,308.898926,1.103178
-37.811279,924.407959,308.074951,1.103922
-38.909912,926.147461,303.588867,1.104676
-40.283203,929.168701,292.144775,1.10542
-40.740967,922.76001,292.327881,1.106165
-42.572021,926.605225,288.94043,1.106909
-44.952393,925.048828,289.398193,1.107663
-46.783447,923.309326,297.637939,1.108408
-46.508789,916.351318,291.320801,1.109153
-51.086426,923.400879,296.813965,1.109897
-47.241211,923.950195,293.884277,1.110651
-41.107178,930.541992,295.349121,1.111396
-64.453125,930.541992,300.750732,1.112141
-53.283691,933.47168,301.391602,1.112885
-51.544189,922.485352,298.187256,1.113639
-53.100586,930.084229,305.603027,1.114384
-62.530518,932.006836,306.518555,1.115128
-54.199219,937.957764,302.215576,1.115873
-56.671143,932.647705,304.412842,1.116627
-61.248779,929.80957,294.433594,1.117372
-58.135986,933.380127,299.6521,1.118121
-55.206299,931.640625,304.504395,1.118872
-49.89624,933.746338,305.69458,1.119668
-51.818848,928.344727,305.69458,1.12042
-52.185059,931.549072,307.525635,1.121165
-45.227051,935.852051,313.568115,1.121909
-47.973633,926.879883,304.504395,1.122668
-55.938721,931.091309,307.250977,1.123412
-50.720215,928.894043,302.490234,1.124156
-47.332764,930.725098,304.870605,1.124901
-55.389404,923.400879,296.356201,1.125655
-47.790527,924.77417,292.144775,1.126399
-32.501221,920.654297,293.97583,1.127143
-44.403076,928.344727,290.222168,1.127888
-46.417236,922.393799,293.609619,1.128633
-33.966064,920.837402,295.440674,1.129378
-24.169922,918.457031,292.510986,1.130123
-17.120361,922.576904,294.433594,1.130867
-17.578125,920.837402,294.158936,1.131625
-20.233154,930.267334,296.905518,1.132369
-45.684814,919.189453,303.863525,1.133114
-31.951904,920.562744,305.877686,1.133858
-31.951904,922.485352,306.518555,1.134604
-32.043457,927.978516,298.278809,1.135349
-28.747559,928.985596,306.243896,1.136094
-31.219482,921.661377,299.194336,1.136838
-33.14209,920.928955,299.743652,1.137592
-33.691406,924.77417,291.503906,1.138336
-35.705566,928.619385,286.560059,1.13908
-34.332275,922.668457,287.200928,1.139814
-36.16333,922.76001,289.764404,1.140557
-25.360107,929.260254,291.778564,1.141302
-25.268555,927.703857,285.827637,1.142047
-33.233643,926.78833,291.137695,1.142791
-30.487061,931.365967,296.630859,1.143534
-32.867432,933.47168,307.525635,1.144279
-30.487061,933.746338,299.377441,1.145024
-35.339355,940.429688,303.588867,1.145768
-34.973145,943.725586,301.391602,1.146596
-34.973145,939.880371,303.131104,1.147368
-44.128418,938.964844,296.264648,1.148123
-48.065186,937.957764,291.870117,1.148925
-49.163818,936.126709,297.363281,1.149722
-47.424316,939.331055,298.00415,1.150483
-42.572021,944.091797,302.032471,1.151243
-42.572021,948.21167,307.434082,1.152025
-34.881592,939.422607,310.546875,1.152843
-31.768799,944.091797,304.046631,1.15359
-38.085938,945.098877,312.469482,1.154334
-41.015625,945.281982,307.70874,1.155079
-40.740967,942.169189,316.772461,1.155834
-65.826416,941.162109,315.490723,1.156579
-52.55127,947.387695,304.962158,1.157323
-47.973633,944.091797,306.335449,1.158068
-51.9104,951.416016,307.434082,1.158822
-56.762695,942.443848,303.771973,1.159566
-56.945801,942.5354,304.779053,1.16031
-55.755615,953.887939,304.779053,1.161055
-55.023193,944.732666,311.920166,1.161812
-50.811768,949.310303,314.117432,1.162557
-53.466797,943.267822,305.603027,1.163301
-27.740479,949.035645,316.040039,1.164046
-45.684814,953.887939,318.511963,1.1648
-38.726807,953.979492,319.061279,1.165544
-44.769287,949.310303,309.814453,1.166289
-41.656494,940.704346,308.074951,1.167033
-53.375244,939.147949,311.187744,1.167787
-47.424316,941.711426,316.680908,1.168532
-46.783447,940.612793,305.328369,1.169277
-50.079346,946.105957,298.919678,1.170021
-54.199219,939.147949,300.842285,1.17086
-47.515869,932.006836,296.447754,1.171605
-52.459717,937.408447,305.69458,1.17235
-40.557861,933.47168,306.427002,1.173094
-38.269043,937.5,303.222656,1.173859
-40.19165,935.577393,304.779053,1.174604
-33.14209,937.133789,305.145264,1.175348
-31.219482,945.465088,299.377441,1.176093
-35.705566,949.21875,312.469482,1.176847
-35.430908,940.979004,310.180664,1.177592
-36.071777,945.098877,306.060791,1.178336
-44.128418,938.140869,309.356689,1.17908
-50.170898,942.443848,304.504395,1.179834
-55.938721,945.922852,308.349609,1.180579
-57.861328,940.52124,306.884766,1.181324
-53.100586,936.401367,306.518555,1.182069
-53.283691,938.415527,311.645508,1.182823
-45.410156,934.570312,308.624268,1.183567
-54.016113,923.76709,300.018311,1.184312
-44.219971,935.028076,299.468994,1.185056
-46.325684,937.316895,292.510986,1.18581
-48.431396,938.873291,284.729004,1.186555
-39.276123,943.450928,276.2146,1.187299
-51.818848,937.5,285.003662,1.188044
-51.635742,933.197021,295.898438,1.188798
-62.438965,937.133789,287.109375,1.189542
-60.424805,935.577393,297.454834,1.19029
-52.642822,936.859131,300.476074,1.191041
-64.361572,949.310303,307.800293,1.191835
-68.29834,953.430176,311.279297,1.192587
-70.037842,954.25415,318.42041,1.193332
-76.812744,953.430176,324.462891,1.194076
-86.425781,955.810547,321.166992,1.194837
-86.700439,958.831787,324.645996,1.195582
-99.334717,955.810547,312.469482,1.196327
-90.454102,937.774658,311.645508,1.197071
-97.869873,949.859619,306.610107,1.197826
-93.292236,954.071045,293.701172,1.198571
-92.926025,950.592041,293.884277,1.199315
-83.679199,954.803467,290.313721,1.20006
-84.594727,951.873779,297.271729,1.200814
-79.925537,944.274902,286.834717,1.201558
-83.221436,954.711914,298.00415,1.202303
-90.72876,953.063965,300.750732,1.203047
-79.925537,946.746826,298.187256,1.2038
-80.932617,942.443848,302.124023,1.204544
-71.960449,942.077637,303.68042,1.205289
-80.932617,941.619873,303.771973,1.206033
-80.841064,944.732666,299.743652,1.206787
-78.826904,933.013916,293.518066,1.207532
-78.735352,935.211182,292.602539,1.208277
-78.643799,936.309814,288.391113,1.209024
-59.509277,926.513672,279.327393,1.20978
-66.009521,927.154541,283.813477,1.210525
-57.58667,925.323486,286.651611,1.211269
-55.023193,925.323486,287.475586,1.212014
-45.318604,924.77417,287.841797,1.212768
-41.107178,922.393799,292.96875,1.213513
-44.219971,917.358398,291.412354,1.214257
-31.311035,917.266846,294.799805,1.215002
-33.782959,904.449463,291.595459,1.215767
-41.381836,909.301758,287.93335,1.216512
-37.811279,914.154053,291.046143,1.217256
-41.473389,912.963867,278.045654,1.218001
-44.494629,908.935547,283.630371,1.218755
-43.395996,904.449463,281.066895,1.219499
-41.290283,905.36499,279.693604,1.220244
-44.128418,900.970459,277.130127,1.220988
-31.768799,899.963379,278.503418,1.221742
-33.599854,902.435303,277.679443,1.222486
-31.585693,898.681641,273.101807,1.22323
-35.614014,894.378662,276.855469,1.22395
-27.46582,891.265869,275.390625,1.224716
-1.373291,893.737793,285.644531,1.225461
-18.859863,897.857666,281.616211,1.226262
-16.204834,903.167725,280.24292,1.22701
-14.923096,904.083252,290.863037,1.227825
-2.01416,904.907227,285.461426,1.228632
-5.310059,905.456543,287.658691,1.229394
-2.929688,911.956787,300.750732,1.230157
22.064209,907.562256,304.6875,1.230954
-0.274658,915.252686,310.546875,1.231718
4.577637,922.302246,307.342529,1.232485
4.486084,923.76709,317.962646,1.233248
10.437012,925.78125,305.69458,1.234029
6.591797,924.133301,316.223145,1.234774
6.866455,926.055908,322.906494,1.235518
12.542725,926.513672,329.13208,1.236263
15.106201,914.794922,313.110352,1.237018
15.930176,925.598145,305.145264,1.237764
9.796143,927.337646,304.779053,1.238498
9.246826,917.907715,311.645508,1.239232
-2.105713,923.492432,303.314209,1.23999
-20.690918,917.358398,304.779053,1.240734
-6.774902,916.534424,307.250977,1.241479
-15.472412,917.08374,309.265137,1.242222
-14.099121,913.330078,306.152344,1.242976
-21.881104,920.654297,298.736572,1.24372
-20.324707,921.844482,297.363281,1.24455
-18.493652,913.879395,294.799805,1.245294
-22.247314,914.245605,295.98999,1.246051
-22.796631,917.633057,289.764404,1.246796
-20.690918,913.330078,293.518066,1.24754
-18.859863,914.0625,291.412354,1.248285
-22.521973,922.302246,286.010742,1.249038
-18.4021,907.012939,287.200928,1.249781
-16.021729,906.37207,291.503906,1.250524
-12.268066,906.646729,292.419434,1.251268
-9.338379,907.745361,301.025391,1.252033
-1.922607,905.36499,310.455322,1.252775
-9.338379,905.273438,308.074951,1.253517
-11.352539,906.097412,315.948486,1.25426
-0.732422,894.561768,321.44165,1.255013
-5.126953,896.484375,323.638916,1.255758
-0.732422,900.146484,326.11084,1.2565
11.260986,898.31543,325.012207,1.257243
4.302979,889.251709,310.272217,1.257999
17.486572,898.223877,319.976807,1.258742
4.302979,890.441895,308.258057,1.259485
-0.091553,895.935059,308.990479,1.260227
0.915527,877.532959,294.158936,1.260979
-16.479492,857.299805,280.24292,1.261723
-17.211914,857.48291,278.137207,1.262466
-5.67627,854.46167,279.418945,1.263209
-1.00708,825.622559,262.115479,1.26396
-17.028809,841.369629,264.770508,1.264705
-3.845215,842.468262,261.291504,1.265454
-14.007568,837.799072,264.312744,1.266209
-7.049561,824.066162,253.692627,1.267
-4.577637,823.699951,255.157471,1.267743
3.662109,820.770264,242.431641,1.268486
-5.67627,816.833496,241.882324,1.269228
12.268066,822.784424,236.572266,1.26998
11.535645,816.467285,242.797852,1.270723
11.260986,810.974121,232.635498,1.271466
14.923096,810.699463,229.248047,1.272208
12.084961,802.185059,230.438232,1.272961
19.775391,801.452637,232.818604,1.273704
22.705078,784.881592,220.367432,1.274446
25.543213,777.648926,202.514648,1.275189
19.042969,775.085449,195.556641,1.275941
24.261475,761.810303,177.978516,1.276684
15.838623,764.923096,154.632568,1.277427
12.817383,750.640869,136.59668,1.278171
13.458252,743.774414,121.21582,1.278923
25.817871,753.295898,117.370605,1.279666
26.641846,733.978271,99.334717,1.280409
14.648438,727.294922,78.094482,1.281152
24.810791,729.217529,75.256348,1.281905
33.416748,727.752686,53.375244,1.282648
21.331787,727.386475,48.248291,1.283391
30.303955,729.309082,40.374756,1.284135
40.557861,731.689453,34.14917,1.284889
44.219971,749.450684,25.634766,1.285631
44.036865,769.042969,28.930664,1.286374
64.819336,773.162842,24.261475,1.287117
90.637207,802.001953,22.979736,1.287878
91.094971,800.628662,26.45874,1.288621
82.855225,829.833984,39.550781,1.289364
84.04541,844.390869,39.550781,1.290107
65.460205,866.271973,48.706055,1.290859
70.220947,907.37915,45.227051,1.291602
84.686279,892.913818,83.129883,1.292345
10.620117,882.476807,120.025635,1.293087
88.348389,869.384766,137.695312,1.29384
111.968994,870.849609,134.216309,1.294584
46.966553,904.541016,144.287109,1.295326
8.422852,893.737793,154.907227,1.29607
16.204834,901.977539,155.181885,1.296822
8.422852,798.522949,204.25415,1.297565
239.044189,862.060547,227.233887,1.298307
123.779297,1019.348145,200.866699,1.29905
64.361572,960.021973,248.565674,1.299794
-164.703369,844.390869,249.664307,1.300615
-30.944824,938.873291,240.966797,1.301496
70.678711,897.125244,238.494873,1.302243
61.706543,948.577881,232.727051,1.303001
52.185059,933.929443,218.444824,1.303807
37.445068,930.999756,208.282471,1.304579
42.938232,963.226318,188.964844,1.305341
10.162354,954.071045,185.48584,1.306104
-62.62207,933.197021,175.140381,1.306848
-36.254883,970.184326,185.852051,1.307591
-71.31958,966.247559,180.541992,1.308333
-92.834473,978.149414,178.710938,1.309086
-109.313965,987.579346,185.943604,1.309829
-121.856689,1030.24292,192.443848,1.310572
-118.835449,1042.144775,214.324951,1.311315
-112.335205,1046.264648,224.945068,1.312067
-152.069092,1024.291992,263.763428,1.312811
-142.822266,1034.729004,293.97583,1.313554
-149.597168,1036.834717,310.36377,1.314297
-128.448486,1028.22876,344.512939,1.315049
-119.476318,1033.447266,356.231689,1.315792
-81.207275,1006.530762,369.9646,1.316535
-65.643311,1066.497803,402.099609,1.317278
-121.032715,1075.286865,418.762207,1.318031
-133.758545,1018.432617,438.995361,1.31886
-138.061523,1025.482178,482.116699,1.319604
-106.018066,999.298096,478.637695,1.320347
-104.736328,977.69165,460.144043,1.321102
-106.658936,977.508545,445.953369,1.321846
-53.833008,1012.298584,439.27002,1.322589
-17.578125,1029.327393,417.572021,1.323331
1.373291,1037.567139,412.628174,1.324084
-14.282227,1027.22168,407.318115,1.324827
-25.909424,1029.327393,402.46582,1.325569
-20.965576,1004.425049,387.176514,1.326312
-42.205811,1010.467529,373.352051,1.327075
-63.995361,966.522217,358.886719,1.327818
-71.868896,965.332031,313.934326,1.328561
-92.834473,965.332031,294.433594,1.329304
-100.524902,971.008301,262.390137,1.330056
-102.44751,966.888428,234.283447,1.3308
-128.356934,945.739746,227.508545,1.331543
-136.505127,887.969971,202.331543,1.332285
-119.384766,857.940674,184.570312,1.333037
-130.279541,837.432861,148.498535,1.33378
-128.265381,838.989258,113.342285,1.334522
-127.258301,858.48999,104.187012,1.335265
-129.364014,857.666016,63.171387,1.336018
-127.716064,858.48999,34.423828,1.336761
-153.076172,844.482422,-78.460693,1.337503
-166.900635,837.432861,-148.223877,1.338256
-207.824707,841.918945,-181.45752,1.339023
-115.17334,783.782959,-205.627441,1.339773
80.291748,768.4021,-86.242676,1.340558
-199.401855,708.526611,-3.936768,1.341297
-275.115967,737.640381,44.677734,1.34207
-56.671143,790.466309,18.585205,1.342814
-166.168213,772.247314,-65.734863,1.343557
-99.334717,774.078369,-169.372559,1.3443
-190.795898,803.283691,-218.62793,1.345053
-198.577881,820.953369,-279.693604,1.345796
-82.763672,851.715088,-308.258057,1.346539
-217.529297,890.350342,-350.280762,1.347281
-155.090332,898.864746,-372.344971,1.348035
-160.125732,914.337158,-366.943359,1.348777
-187.133789,912.322998,-368.865967,1.349529
-183.47168,908.660889,-364.196777,1.350271
-174.407959,909.210205,-349.822998,1.351023
-187.042236,900.604248,-366.851807,1.351766
-233.184814,902.893066,-373.443604,1.352508
-238.220215,911.224365,-374.542236,1.353251
-191.619873,895.568848,-350.372314,1.354003
-250.030518,890.991211,-308.441162,1.354746
-252.502441,886.505127,-299.377441,1.355488
-235.290527,930.633545,-297.454834,1.356232
-260.925293,949.401855,-321.533203,1.356986
-299.926758,957.550049,-297.729492,1.35773
-255.79834,891.906738,-252.502441,1.358473
-117.370605,806.121826,-209.014893,1.359216
-254.241943,817.657471,-175.872803,1.35997
-165.06958,689.117432,-145.202637,1.360713
26.092529,1183.868408,-107.940674,1.361456
118.560791,1460.906982,-59.783936,1.362198
-59.417725,1178.466797,0.274658,1.362957
268.615723,1080.596924,22.064209,1.363701
29.388428,1118.408203,118.835449,1.364444
193.54248,1187.164307,179.168701,1.365187
-1406.890869,656.890869,1448.822021,1.36594
-1519.683838,1018.981934,1197.601318,1.366683
544.555664,1417.96875,788.818359,1.367426
808.868408,1495.605469,666.595459,1.36817
290.863037,1487.182617,736.633301,1.368922
-219.63501,1481.048584,883.392334,1.369666
612.579346,1623.321533,735.900879,1.370409
594.085693,1584.503174,828.826904,1.371152
-58.319092,1531.12793,759.246826,1.371906
81.481934,1559.326172,602.966309,1.372649
-129.180908,1526.916504,618.347168,1.373459
-4.119873,1521.42334,676.025391,1.374203
41.473389,1526.733398,648.101807,1.374957
-118.652344,1471.252441,653.411865,1.3757
-118.743896,1461.639404,601.867676,1.376443
-17.486572,1478.027344,575.500488,1.377266
-83.129883,1409.27124,560.48584,1.378133
-47.790527,1422.821045,548.126221,1.378882
-52.093506,1394.073486,534.210205,1.379625
-35.797119,1395.812988,510.040283,1.380381
24.078369,1366.424561,511.413574,1.381125
-19.042969,1337.95166,503.356934,1.381868
24.993896,1343.536377,493.743896,1.382611
-22.888184,1368.621826,522.766113,1.383356
-120.483398,1368.530273,616.790771,1.3841
-284.820557,1365.783691,659.362793,1.384843
-319.152832,1372.283936,695.251465,1.385586
-302.67334,1353.881836,712.646484,1.386329
-148.498535,1355.438232,752.01416,1.386929
-99.79248,1340.240479,753.845215,1.387673
-222.930908,1331.90918,692.138672,1.388416
-360.626221,1319.641113,606.994629,1.389159
-436.706543,1278.442383,582.824707,1.389881
-462.524414,1234.130859,472.77832,1.390625
-479.736328,1216.461182,415.100098,1.391368
-459.960938,1172.698975,348.449707,1.392111
-467.468262,1136.260986,271.087646,1.392866
-363.555908,1098.266602,213.592529,1.393609
-293.701172,1086.273193,123.596191,1.394353
-204.071045,1070.892334,124.694824,1.395096
-177.978516,1047.454834,139.251709,1.395844
-145.111084,1045.98999,117.828369,1.396587
-139.61792,1011.383057,109.588623,1.39733
-128.814697,987.945557,73.791504,1.398073
-127.807617,973.022461,40.19165,1.398828
-100.250244,938.873291,3.479004,1.399572
-95.581055,925.689697,-32.592773,1.400314
-59.051514,909.576416,-42.022705,1.401057
-33.416748,888.427734,-66.558838,1.401814
-1.00708,884.857178,-69.122314,1.402556
23.345947,886.505127,-75.3479,1.403299
44.219971,878.997803,-90.179443,1.404041
72.143555,868.469238,-86.791992,1.404794
79.284668,863.891602,-106.567383,1.405538
97.229004,866.638184,-117.1875,1.406281
119.384766,854.46167,-129.547119,1.407024
108.398438,849.060059,-134.399414,1.407776
117.1875,830.566406,-147.399902,1.408519
112.884521,818.481445,-168.640137,1.409262
101.165771,813.446045,-182.098389,1.410005
92.376709,809.692383,-176.330566,1.410757
84.686279,806.304932,-158.660889,1.411501
74.615479,819.854736,-131.286621,1.412243
119.384766,823.791504,-104.736328,1.412998
119.293213,837.06665,-93.200684,1.413765
11.352539,831.573486,-80.749512,1.414549
-9.613037,828.460693,-79.101562,1.415293
15.472412,838.439941,-78.735352,1.416036
15.106201,825.3479,-82.672119,1.416796
9.521484,837.615967,-82.946777,1.417541
-27.191162,829.650879,-85.235596,1.418307
-51.635742,826.538086,-78.643799,1.419053
-50.628662,826.812744,-80.200195,1.419813
9.429932,845.581055,-68.115234,1.420557
22.888184,844.299316,-54.931641,1.4213
-8.422852,855.377197,-44.036865,1.422043
-37.902832,847.686768,-27.648926,1.422798
-24.719238,863.708496,-23.162842,1.423539
41.381836,885.5896,6.408691,1.42428
58.776855,867.279053,-21.972656,1.42502
-92.559814,893.64624,1.190186,1.425787
-396.972656,869.293213,188.232422,1.426531
-365.661621,881.652832,327.209473,1.427276
13.916016,982.269287,335.540771,1.42802
267.700195,1020.812988,306.610107,1.428775
215.515137,1020.721436,273.651123,1.429519
-164.703369,1010.650635,226.135254,1.430263
-248.382568,998.931885,174.499512,1.431006
-91.369629,1008.087158,156.463623,1.431759
73.699951,1010.009766,117.095947,1.432502
72.692871,993.713379,112.792969,1.433245
-123.046875,957.183838,74.981689,1.433989
-177.062988,918.731689,46.600342,1.434742
-140.075684,917.724609,25.817871,1.435485
-15.563965,898.498535,-26.733398,1.43623
13.549805,891.723633,-49.804688,1.436974
-24.719238,850.341797,-115.722656,1.43774
-32.775879,832.855225,-174.865723,1.438482
34.423828,822.967529,-196.472168,1.439223
97.503662,791.8396,-236.846924,1.439964
101.074219,777.46582,-264.404297,1.440721
67.840576,745.788574,-286.010742,1.441462
68.206787,710.174561,-342.956543,1.442197
13.458252,693.237305,-362.731934,1.442931
-16.571045,665.405273,-387.359619,1.44369
-14.007568,663.665771,-430.297852,1.444434
25.909424,655.792236,-451.904297,1.445179
34.698486,645.446777,-503.540039,1.445924
69.763184,628.875732,-540.527344,1.446678
150.238037,623.657227,-633.178711,1.447423
234.649658,675.750732,-443.756104,1.448167
92.926025,572.753906,-210.845947,1.448911
-319.061279,635.925293,36.987305,1.449656
-850.982666,693.145752,61.065674,1.450401
-144.195557,785.339355,-12.451172,1.451146
410.705566,831.481934,-102.172852,1.451891
594.818115,863.983154,-171.569824,1.452636
181.274414,794.952393,-232.818604,1.453381
-438.079834,750.823975,-250.762939,1.454126
-92.376709,767.76123,-385.437012,1.45487
178.80249,780.212402,-486.694336,1.455621
203.887939,760.894775,-498.504639,1.456365
15.838623,736.541748,-514.61792,1.457109
-212.402344,736.907959,-509.124756,1.457854
9.979248,735.26001,-544.464111,1.458598
165.344238,747.070312,-641.876221,1.459343
136.505127,709.991455,-697.44873,1.460087
27.191162,669.250488,-805.480957,1.460831
106.842041,680.419922,-897.399902,1.461576
2302.642822,731.048584,-505.92041,1.462405
1422.271729,554.534912,5.767822,1.46315
-2411.590576,645.721436,96.496582,1.463894
-1089.935303,806.762695,-35.522461,1.46464
638.580322,908.660889,-244.628906,1.465385
1826.934814,1146.240234,-320.526123,1.466129
472.869873,954.711914,-327.026367,1.466873
-1689.605713,893.737793,-330.688477,1.46762
-601.043701,952.697754,-457.122803,1.468365
595.733643,1062.561035,-603.515625,1.469108
1108.520508,1085.906982,-648.651123,1.469853
421.691895,892.272949,-803.100586,1.470604
-312.744141,950.134277,-951.324463,1.471348
-1645.6604,688.476562,-622.558594,1.472092
-1177.093506,550.048828,-299.194336,1.472837
1074.829102,876.434326,-311.187744,1.473581
1548.980713,1085.083008,-339.935303,1.474325
-125.244141,972.65625,-284.27124,1.475069
-1039.672852,882.476807,-403.564453,1.475813
-632.446289,924.682617,-817.657471,1.476557
993.07251,1132.324219,-907.470703,1.477301
2082.366943,953.979492,-526.794434,1.478045
1701.049805,781.951904,-542.816162,1.47879
-1658.569336,529.266357,-146.850586,1.479543
-1850.097656,777.099609,-159.576416,1.480288
-1400.390625,1054.321289,-224.945068,1.481032
-1315.063477,963.134766,-425.90332,1.481777
-1086.730957,997.192383,-591.247559,1.482529
2137.664795,1073.455811,-344.329834,1.483274
2999.908447,1174.987793,-42.572021,1.484022
1166.8396,1465.393066,1413.208008,1.484772
1338.775635,2999.908447,2999.908447,1.48556
-6.225586,2999.908447,2999.908447,1.486313
-99.151611,2611.907959,1493.591309,1.487056
439.361572,1689.788818,-1244.293213,1.487801
-1019.989014,551.879883,-1579.284668,1.488545
-1069.152832,446.31958,-1613.983154,1.489301
-640.960693,670.074463,-1265.441895,1.490045
-663.116455,1162.445068,-171.75293,1.490789
-307.159424,1500.732422,253.967285,1.491596
-265.228271,1574.432373,431.945801,1.492341
-62.988281,1580.566406,587.127686,1.493085
49.804688,1490.570068,569.366455,1.493829
503.173828,1428.497314,441.467285,1.494574
496.307373,1285.766602,-99.060059,1.495319
351.470947,1192.474365,-257.354736,1.496064
207.366943,1081.420898,-323.0896,1.496808
129.730225,999.023438,-369.415283,1.497552
-25.543213,936.309814,-380.218506,1.498296
-79.284668,913.421631,-303.863525,1.499041
-111.419678,917.266846,-265.411377,1.499788
-87.06665,888.336182,-212.493896,1.500533
13.366699,884.765625,-163.513184,1.50129
367.950439,862.243652,-199.768066,1.502035
508.94165,820.678711,-351.5625,1.502779
471.130371,809.875488,-396.789551,1.503523
812.805176,851.806641,-399.902344,1.504276
1124.267578,918.365479,-416.381836,1.50502
1697.479248,990.142822,-448.699951,1.505764
1782.989502,1092.773438,-440.551758,1.506508
806.762695,1095.245361,22.888184,1.507262
-1163.726807,887.786865,47.88208,1.508006
-1692.443848,347.167969,-710.632324,1.508751
-1959.136963,178.253174,-1110.351562,1.509495
-1018.615723,330.871582,-1266.265869,1.510249
-778.106689,565.155029,-255.889893,1.510994
-326.568604,1058.807373,183.47168,1.511738
-96.77124,1324.859619,603.607178,1.512482
274.017334,1397.094727,658.721924,1.513245
363.647461,1337.310791,445.3125,1.51399
321.44165,1259.033203,-0.823975,1.514734
249.664307,1053.222656,-187.133789,1.515479
249.481201,994.903564,-347.076416,1.516232
163.970947,989.135742,-371.795654,1.516976
-12.084961,953.796387,-435.699463,1.51772
71.31958,887.60376,-453.369141,1.518464
725.006104,937.957764,-484.130859,1.519217
980.529785,989.318848,-433.135986,1.519961
882.659912,1019.805908,-373.901367,1.520705
651.763916,1027.587891,-212.585449,1.521449
835.601807,1026.031494,-244.171143,1.522203
1444.793701,996.276855,-377.563477,1.522948
1647.491455,931.365967,-702.575684,1.523692
1472.167969,897.399902,-744.689941,1.524437
249.664307,763.549805,-283.538818,1.52519
-364.837646,815.826416,-104.827881,1.525934
-1443.511963,993.988037,-77.087402,1.526678
-1642.913818,1089.202881,-71.411133,1.527422
-1583.862305,1094.238281,-79.833984,1.528176
-1103.942871,1054.138184,-111.236572,1.528921
-763.000488,1025.939941,-306.793213,1.529665
-289.489746,997.833252,-438.446045,1.530409
158.02002,992.248535,-482.48291,1.531295
469.848633,940.612793,-533.843994,1.532434
159.0271,903.625488,-577.880859,1.533427
-228.607178,858.947754,-495.574951,1.534176
-913.970947,750.549316,-496.490479,1.534921
-702.301025,738.647461,-641.51001,1.535689
-296.447754,896.850586,-656.433105,1.536441
400.360107,1326.690674,-357.788086,1.537179
823.516846,1559.417725,134.033203,1.537921
1477.752686,1457.794189,10.437012,1.538663
1216.094971,1048.461914,-662.841797,1.539479
914.154053,939.697266,-831.756592,1.540235
495.941162,1021.179199,-664.398193,1.540991
103.637695,1150.817871,-356.506348,1.541751
-74.615479,1268.554688,-236.938477,1.542545
-340.85083,1294.830322,-215.606689,1.543306
-449.615479,1271.850586,-264.678955,1.544051
-444.671631,1258.300781,-282.897949,1.544795
-312.011719,1255.187988,-261.474609,1.545557
-200.500488,1217.834473,-212.493896,1.546298
68.847656,1224.334717,-154.35791,1.547039
190.795898,1263.153076,-141.448975,1.5478
172.210693,1253.448486,-253.051758,1.548557
95.397949,1259.399414,-293.97583,1.549302
37.17041,1287.780762,-140.533447,1.550047
-28.015137,1289.978027,-86.883545,1.550791
-125.976562,1304.351807,-83.587646,1.551545
-184.936523,1320.465088,-98.510742,1.55229
-126.251221,1296.569824,-84.04541,1.553035
176.971436,1348.205566,65.826416,1.55378
312.927246,1375.305176,115.264893,1.554537
555.267334,1359.466553,89.172363,1.555285
636.657715,1305.81665,48.614502,1.556053
647.277832,1310.119629,39.093018,1.556808
547.851562,1298.675537,23.162842,1.557609
463.348389,1310.668945,27.648926,1.558359
277.954102,1314.239502,18.4021,1.559104
155.548096,1303.161621,-58.410645,1.559848
124.694824,1287.506104,-157.653809,1.560609
116.729736,1258.300781,-192.352295,1.561353
96.862793,1227.355957,-253.967285,1.562098
74.890137,1204.193115,-280.24292,1.562843
52.185059,1178.55835,-332.611084,1.563596
59.60083,1160.430908,-293.609619,1.564341
46.966553,1151.641846,-297.546387,1.565086
-9.063721,1088.287354,-341.033936,1.56583
-26.184082,1077.850342,-335.906982,1.566585
-64.178467,1050.201416,-337.738037,1.56733
-97.595215,1029.693604,-380.401611,1.568074
-141.540527,980.621338,-384.246826,1.56882
-148.132324,962.219238,-389.373779,1.569576
-220.458984,967.529297,-382.507324,1.570321
-345.336914,962.402344,-371.337891,1.571066
-459.869385,891.174316,-323.822021,1.57181
-711.730957,840.820312,-235.015869,1.572564
2440.429688,1015.045166,-674.377441,1.573309
1642.181396,581.359863,-1707.458496,1.574054
1541.8396,303.955078,-1013.397217,1.574799
1488.006592,895.111084,-105.010986,1.575554
-193.17627,1065.582275,3.112793,1.576298
-1130.493164,989.776611,-32.867432,1.577042
-1999.786377,755.67627,-459.228516,1.577787
-1405.883789,462.799072,-629.150391,1.578541
-564.697266,621.459961,-560.48584,1.579286
436.981201,836.700439,-289.94751,1.58003
335.357666,1207.305908,195.373535,1.580775
93.841553,1255.737305,93.292236,1.581537
-200.22583,1193.664551,-97.869873,1.582283
-269.53125,1131.500244,-301.025391,1.583028
-265.960693,1135.253906,-313.659668,1.583772
-96.221924,1188.079834,-272.735596,1.584526
-4.394531,1185.882568,-232.452393,1.585272
-4.577637,1081.512451,-268.432617,1.586016
-50.445557,984.924316,-420.959473,1.58676
-57.495117,939.239502,-477.630615,1.587513
-48.88916,882.843018,-519.378662,1.588258
-5.310059,887.512207,-524.505615,1.589002
143.920898,905.36499,-519.927979,1.589746
175.689697,941.986084,-482.849121,1.590501
167.724609,943.084717,-484.588623,1.591245
48.065186,930.084229,-519.836426,1.59199
11.169434,922.76001,-504.455566,1.592734
45.135498,963.317871,-479.095459,1.593489
92.651367,1010.650635,-398.803711,1.594233
141.357422,1026.672363,-379.577637,1.594977
68.023682,1042.236328,-365.570068,1.595722
13.000488,1048.187256,-376.098633,1.596477
-59.051514,1073.272705,-360.168457,1.597276
-41.8396,1090.484619,-342.773438,1.598021
-15.930176,1109.069824,-346.801758,1.598766
15.655518,1089.019775,-338.745117,1.59952
-20.507812,1068.054199,-357.513428,1.600265
-3.936768,1059.631348,-366.943359,1.60101
-10.253906,1050.476074,-384.887695,1.601755
-17.578125,1043.334961,-408.508301,1.60252
9.613037,1028.961182,-410.522461,1.603349
10.894775,1026.123047,-426.086426,1.604094
3.662109,1022.003174,-444.30542,1.604838
-10.345459,1030.975342,-454.742432,1.605593
12.268066,1026.855469,-466.278076,1.606338
33.508301,1027.954102,-468.75,1.607083
82.855225,1044.98291,-430.389404,1.608011
93.658447,1054.138184,-428.55835,1.608726
70.770264,1050.292969,-452.636719,1.609491
74.523926,1049.377441,-469.299316,1.610248
104.644775,1045.806885,-467.193604,1.610997
124.237061,1081.14624,-408.14209,1.611742
123.687744,1092.681885,-398.162842,1.612487
133.483887,1098.999023,-388.916016,1.613231
126.251221,1092.498779,-403.747559,1.613976
103.912354,1088.104248,-398.620605,1.61472
117.553711,1111.999512,-375.915527,1.615464
114.532471,1118.408203,-349.731445,1.616209
127.258301,1117.675781,-355.224609,1.61697
133.483887,1107.147217,-358.24585,1.617716
125.976562,1096.069336,-360.076904,1.61846
108.764648,1091.674805,-351.287842,1.619203
109.680176,1063.201904,-363.006592,1.619947
142.63916,1059.997559,-367.492676,1.620692
149.139404,1052.581787,-373.443604,1.621436
149.597168,1058.807373,-362.365723,1.62218
152.893066,1045.898438,-360.717773,1.622924
146.575928,1041.503906,-383.789062,1.623679
145.935059,1044.433594,-390.930176,1.624423
117.828369,1023.55957,-387.268066,1.625169
136.505127,1020.53833,-395.324707,1.625922
163.421631,1012.8479,-384.155273,1.626694
163.787842,996.917725,-390.106201,1.627471
159.301758,997.10083,-401.916504,1.628215
173.492432,994.171143,-395.599365,1.628958
171.661377,987.39624,-392.669678,1.629722
175.323486,983.459473,-390.380859,1.630466
173.217773,968.62793,-398.162842,1.63121
168.09082,954.162598,-405.853271,1.631946
170.379639,930.267334,-428.55835,1.632704
172.393799,921.661377,-435.516357,1.633449
174.499512,901.153564,-441.28418,1.634192
178.527832,888.977051,-456.481934,1.634936
186.584473,880.645752,-458.129883,1.635689
184.753418,871.582031,-468.933105,1.636433
169.73877,865.17334,-472.503662,1.637177
150.878906,852.172852,-487.701416,1.637922
161.773682,840.179443,-486.968994,1.638675
162.231445,831.02417,-499.420166,1.639428
142.913818,841.552734,-499.145508,1.640172
131.286621,841.186523,-511.047363,1.640917
120.117188,839.080811,-519.744873,1.641673
109.771729,836.05957,-517.089844,1.642417
114.074707,841.278076,-510.681152,1.643161
142.456055,870.666504,-493.743896,1.643905
135.040283,883.117676,-492.736816,1.644659
95.397949,883.392334,-492.919922,1.645403
75.897217,890.808105,-502.166748,1.646147
80.108643,898.956299,-474.884033,1.646891
81.115723,918.182373,-485.321045,1.647644
82.305908,938.049316,-464.263916,1.648388
84.686279,954.345703,-463.07373,1.649132
71.594238,963.409424,-456.756592,1.649875
74.890137,963.409424,-463.897705,1.650638
82.305908,977.69165,-454.559326,1.651382
82.122803,991.699219,-444.030762,1.652127
68.664551,1005.340576,-437.713623,1.65287
73.059082,997.650146,-444.030762,1.653626
79.650879,998.016357,-448.150635,1.65437
80.657959,983.459473,-458.496094,1.655114
77.178955,973.66333,-457.03125,1.655858
119.567871,980.163574,-464.904785,1.656599
102.539062,1025.024414,-473.968506,1.657335
55.755615,1048.095703,-405.853271,1.658069
31.951904,1039.306641,-441.375732,1.658803
66.192627,1040.863037,-465.362549,1.659499
112.426758,1038.848877,-452.545166,1.660244
103.820801,1036.92627,-427.459717,1.661039
82.855225,1038.299561,-455.566406,1.661784
40.19165,1039.581299,-451.904297,1.662538
63.812256,1044.433594,-458.862305,1.663283
89.172363,1052.215576,-461.05957,1.664027
95.855713,1054.504395,-436.340332,1.664771
99.609375,1053.131104,-451.538086,1.665523
99.975586,1053.314209,-454.467773,1.666266
89.904785,1050.750732,-455.566406,1.667009
88.256836,1057.525635,-453.735352,1.667751
121.673584,1070.068359,-440.643311,1.668503
132.385254,1092.773438,-420.776367,1.669246
132.293701,1090.301514,-422.790527,1.669989
131.286621,1068.878174,-435.424805,1.670731
131.835938,1067.596436,-433.685303,1.671483
149.780273,1059.997559,-427.55127,1.672226
159.393311,1064.208984,-409.240723,1.672968
155.36499,1065.765381,-412.994385,1.673711
169.006348,1061.737061,-408.233643,1.674546
158.843994,1044.158936,-419.586182,1.67529
144.287109,1046.813965,-414.367676,1.676033
141.082764,1039.489746,-406.951904,1.676776
154.998779,1044.525146,-408.966064,1.677529
177.062988,1041.96167,-412.536621,1.678272
164.154053,1034.820557,-406.585693,1.679015
161.682129,1017.333984,-417.84668,1.679758
141.540527,1008.636475,-435.791016,1.680511
157.562256,1004.79126,-441.375732,1.681254
144.104004,997.375488,-422.88208,1.681998
139.892578,997.650146,-436.340332,1.682741
165.893555,986.206055,-439.819336,1.683506
163.421631,985.565186,-442.474365,1.684546
152.069092,971.282959,-452.636719,1.685318
172.393799,970.733643,-458.312988,1.686115
175.231934,975.494385,-456.207275,1.686875
173.492432,960.845947,-456.481934,1.687628
178.985596,957.641602,-459.503174,1.688381
174.682617,965.057373,-449.981689,1.689169
176.239014,962.95166,-450.714111,1.689936
186.950684,979.064941,-447.692871,1.690685
200.500488,981.079102,-446.502686,1.691429
205.26123,980.34668,-448.791504,1.6922
201.049805,979.522705,-440.826416,1.692944
199.768066,984.283447,-439.361572,1.693687
194.458008,982.635498,-432.403564,1.694431
205.993652,974.578857,-437.713623,1.695184
198.577881,971.64917,-435.333252,1.695928
200.042725,970.458984,-428.741455,1.696673
203.430176,965.698242,-420.501709,1.697427
202.331543,960.021973,-426.269531,1.698206
214.416504,974.853516,-413.726807,1.698961
204.345703,961.486816,-417.388916,1.699706
197.20459,959.106445,-413.909912,1.700451
199.493408,962.127686,-414.093018,1.701213
206.90918,962.402344,-416.381836,1.701958
210.205078,957.458496,-416.656494,1.702702
213.684082,952.789307,-403.839111,1.703447
210.021973,950.317383,-385.162354,1.704142
213.775635,945.281982,-398.712158,1.704887
216.064453,937.133789,-419.494629,1.705632
210.9375,937.225342,-415.740967,1.706376
205.627441,936.035156,-397.064209,1.70713
206.176758,940.155029,-387.084961,1.707875
218.078613,940.704346,-395.141602,1.70862
191.436768,930.450439,-407.409668,1.709364
196.289062,923.583984,-381.68335,1.710108
197.845459,929.351807,-399.810791,1.710842
204.162598,928.985596,-407.318115,1.711578
212.95166,920.471191,-399.261475,1.712313
232.452393,935.668945,-394.226074,1.713072
201.23291,935.48584,-400.726318,1.713818
197.845459,931.549072,-402.648926,1.714563
195.465088,931.45752,-395.233154,1.715308
193.908691,933.654785,-393.859863,1.716063
193.359375,946.014404,-397.338867,1.716807
178.80249,942.5354,-398.895264,1.717552
174.407959,945.281982,-395.324707,1.718296
180.358887,914.703369,-395.874023,1.71905
189.605713,939.605713,-396.697998,1.719795
175.78125,951.23291,-383.972168,1.720539
165.161133,953.063965,-398.4375,1.721284
165.344238,951.324463,-391.571045,1.722027
176.330566,948.760986,-395.965576,1.722761
153.808594,949.310303,-386.810303,1.723495
143.280029,942.352295,-384.70459,1.724229
151.702881,944.091797,-392.303467,1.724994
155.090332,934.936523,-376.464844,1.725737
151.885986,929.168701,-378.662109,1.72648
143.920898,925.231934,-378.479004,1.727224
137.786865,925.323486,-381.500244,1.727977
131.744385,925.231934,-383.972168,1.72872
132.568359,921.661377,-382.781982,1.729463
129.91333,936.676025,-391.937256,1.730206
115.447998,908.843994,-389.831543,1.730947
115.447998,903.900146,-392.120361,1.731682
106.567383,913.05542,-386.535645,1.732416
110.778809,907.745361,-395.233154,1.73315
109.222412,906.829834,-394.40918,1.733892
98.7854,902.618408,-388.641357,1.734635
94.024658,892.822266,-399.719238,1.735377
86.05957,889.160156,-403.747559,1.736121
83.862305,873.596191,-400.268555,1.73687
84.320068,880.92041,-401.641846,1.737613
87.982178,881.561279,-397.705078,1.738356
80.932617,869.110107,-401.367188,1.739099
74.981689,865.264893,-413.085938,1.739851
71.594238,861.877441,-414.18457,1.740595
71.502686,861.785889,-399.627686,1.741337
70.129395,864.349365,-395.233154,1.74208
77.178955,862.335205,-396.42334,1.742823
74.707031,855.834961,-405.395508,1.743565
68.481445,857.391357,-397.43042,1.744308
69.763184,861.419678,-398.071289,1.745051
62.805176,851.898193,-392.028809,1.745888
62.530518,851.348877,-407.867432,1.746632
48.156738,849.79248,-405.029297,1.747374
57.861328,846.038818,-401.275635,1.748117
56.945801,841.094971,-397.888184,1.74886
62.62207,839.904785,-391.662598,1.749603
68.664551,838.897705,-385.894775,1.750346
74.523926,842.010498,-409.515381,1.751089
63.354492,840.911865,-390.106201,1.751832
64.178467,831.939697,-390.380859,1.752575
55.755615,827.453613,-385.71167,1.753318
60.241699,828.643799,-376.281738,1.754062
62.164307,832.305908,-376.647949,1.754805
62.164307,829.193115,-377.01416,1.755549
66.650391,822.143555,-366.119385,1.756292
58.959961,818.756104,-369.689941,1.757035
65.460205,811.61499,-363.739014,1.757777
67.29126,812.530518,-364.746094,1.758531
78.277588,821.31958,-368.133545,1.759274
75.714111,818.939209,-359.527588,1.760018
74.890137,812.072754,-361.083984,1.760881
77.636719,819.030762,-363.464355,1.761632
83.312988,810.974121,-358.24585,1.762377
89.447021,819.122314,-361.724854,1.763136
96.405029,822.692871,-354.125977,1.763881
105.010986,818.389893,-360.809326,1.764627
103.363037,838.256836,-360.809326,1.765371
100.43335,814.63623,-363.739014,1.766116
107.574463,820.953369,-354.400635,1.76687
110.961914,824.249268,-357.330322,1.767628
106.47583,818.756104,-355.407715,1.76838
119.293213,814.27002,-355.224609,1.769151
123.504639,814.544678,-331.14624,1.769903
126.617432,827.087402,-339.477539,1.770648
127.89917,843.292236,-345.88623,1.771392
136.962891,815.826416,-344.146729,1.772139
139.984131,826.629639,-341.583252,1.772884
143.280029,826.263428,-331.054688,1.773628
137.420654,819.763184,-340.301514,1.774373
138.61084,818.389893,-323.455811,1.775123
150.604248,825.256348,-319.793701,1.775858
152.160645,823.150635,-325.378418,1.776592
153.533936,823.33374,-320.526123,1.777326
161.956787,816.925049,-318.511963,1.778061
161.132812,815.093994,-315.216064,1.778822
172.943115,823.33374,-318.237305,1.779567
175.415039,822.32666,-314.39209,1.780311
179.992676,816.192627,-315.856934,1.781056
186.309814,807.58667,-317.962646,1.78181
187.774658,805.206299,-316.131592,1.782557
189.51416,811.157227,-317.047119,1.783302
194.274902,811.798096,-312.194824,1.784046
194.274902,806.304932,-321.258545,1.784802
192.993164,809.509277,-324.554443,1.785547
193.908691,802.276611,-324.554443,1.786291
194.366455,810.516357,-319.061279,1.787035
197.021484,809.692383,-321.990967,1.787779
199.951172,811.889648,-322.265625,1.788513
210.9375,813.537598,-320.343018,1.789247
216.247559,816.741943,-312.652588,1.789981
214.050293,823.608398,-314.575195,1.790744
216.522217,815.460205,-308.349609,1.791488
214.874268,818.664551,-306.335449,1.79223
213.592529,813.537598,-312.103271,1.792973
218.719482,801.727295,-303.771973,1.793725
223.754883,817.657471,-296.630859,1.794468
220.550537,810.516357,-308.349609,1.795212
218.261719,803.924561,-312.835693,1.795955
223.66333,811.431885,-297.821045,1.796709
228.973389,810.882568,-302.581787,1.797452
233.093262,808.319092,-309.997559,1.798195
237.579346,806.030273,-316.131592,1.798938
236.572266,799.346924,-288.757324,1.79969
237.213135,809.234619,-309.814453,1.800434
238.037109,805.114746,-321.44165,1.801184
234.283447,795.410156,-313.568115,1.801929
235.290527,797.790527,-317.138672,1.802684
229.431152,797.698975,-316.772461,1.803429
227.325439,792.388916,-317.687988,1.804174
224.212646,794.128418,-317.138672,1.804918
226.226807,788.726807,-321.899414,1.805673
226.501465,792.388916,-322.723389,1.806418
217.803955,788.17749,-315.582275,1.807162
218.811035,786.346436,-323.822021,1.807907
221.099854,789.733887,-324.005127,1.80865
211.94458,791.564941,-311.187744,1.809384
207.550049,789.825439,-317.504883,1.810119
207.824707,789.916992,-317.138672,1.810853
201.23291,797.058105,-317.596436,1.81161
201.782227,791.564941,-314.117432,1.812353
191.711426,792.388916,-314.849854,1.813095
185.119629,798.248291,-315.39917,1.813839
184.844971,803.649902,-318.786621,1.814522
183.654785,804.840088,-308.258057,1.815269
183.837891,801.177979,-304.870605,1.816013
181.091309,800.079346,-308.258057,1.816757
168.457031,800.811768,-309.082031,1.817594
161.865234,795.410156,-314.849854,1.818339
161.865234,797.790527,-308.258057,1.819083
156.738281,796.142578,-313.018799,1.819827
150.146484,804.56543,-309.7229,1.820571
158.843994,807.312012,-327.667236,1.821305
150.695801,801.361084,-312.103271,1.822039
145.294189,799.163818,-322.357178,1.822773
145.935059,806.304932,-319.335938,1.823538
118.652344,809.60083,-320.159912,1.824281
136.688232,815.2771,-315.216064,1.825024
135.955811,813.446045,-319.152832,1.825767
133.392334,811.981201,-316.223145,1.82645
128.082275,814.544678,-318.054199,1.827193
127.075195,824.615479,-310.36377,1.827935
116.912842,821.777344,-314.39209,1.828678
125.518799,824.523926,-320.617676,1.82943
119.567871,817.840576,-312.469482,1.830172
121.490479,826.629639,-316.314697,1.830915
124.420166,832.672119,-313.38501,1.831657
112.1521,836.425781,-312.927246,1.832409
111.51123,838.439941,-305.053711,1.833152
117.1875,842.193604,-311.37085,1.833894
112.060547,837.982178,-307.617188,1.834636
113.983154,847.77832,-301.025391,1.835385
111.236572,849.334717,-301.391602,1.836125
123.596191,848.327637,-310.546875,1.836878
119.567871,848.693848,-303.771973,1.837637
121.948242,850.341797,-306.243896,1.838394
128.173828,846.679688,-310.821533,1.839208
129.547119,854.46167,-316.497803,1.840003
131.378174,854.370117,-310.546875,1.840783
132.110596,851.44043,-315.307617,1.841537
127.441406,854.736328,-324.829102,1.84229
136.322021,855.651855,-318.511963,1.843044
136.871338,849.060059,-317.779541,1.843827
140.350342,846.496582,-313.659668,1.844579
140.625,849.975586,-314.941406,1.845328
145.568848,853.820801,-313.38501,1.846084
145.843506,855.743408,-319.793701,1.846862
146.392822,849.151611,-324.554443,1.847612
143.554688,851.165771,-326.385498,1.848357
145.935059,859.588623,-314.575195,1.8491
155.822754,862.976074,-310.089111,1.849901
154.083252,855.743408,-312.286377,1.850655
154.35791,854.736328,-313.659668,1.851403
150.146484,849.609375,-324.920654,1.852147
151.33667,847.137451,-320.251465,1.852923
158.935547,846.496582,-323.547363,1.853667
165.710449,846.130371,-321.350098,1.854412
164.337158,846.77124,-314.941406,1.855157
171.569824,843.383789,-326.660156,1.855912
168.09082,847.045898,-333.618164,1.856657
181.549072,847.686768,-329.223633,1.857401
186.126709,842.468262,-324.371338,1.858145
194.18335,850.43335,-318.695068,1.85889
199.310303,857.48291,-323.638916,1.859625
196.746826,848.968506,-323.455811,1.860359
199.768066,852.081299,-323.913574,1.861093
212.310791,856.750488,-318.603516,1.861863
193.17627,865.081787,-317.596436,1.862605
213.684082,860.778809,-318.511963,1.863348
216.97998,854.919434,-320.43457,1.86409
221.832275,852.722168,-314.025879,1.864842
226.226807,848.7854,-311.462402,1.865585
226.135254,848.876953,-305.236816,1.866327
