ACC_X,ACC_Y,ACC_Z,Time
48.065186,922.851562,-347.076416,0.000141
63.537598,921.569824,-349.273682,0.000895
54.565430,915.527344,-352.111816,0.001637
55.114746,927.429199,-354.309082,0.002401
59.234619,922.943115,-342.956543,0.003142
56.762695,927.246094,-350.006104,0.003883
56.396484,925.781250,-349.456787,0.004624
54.931641,927.154541,-344.238281,0.005376
60.974121,925.048828,-351.104736,0.006116
63.629150,926.971436,-349.822998,0.006857
61.248779,918.182373,-345.062256,0.007597
65.917969,912.597656,-347.076416,0.008348
62.896729,917.266846,-353.210449,0.009089
54.840088,922.027588,-344.696045,0.009830
56.030273,920.928955,-349.365234,0.010571
56.945801,921.203613,-355.957031,0.011321
56.854248,913.421631,-351.104736,0.012062
55.938721,909.393311,-346.618652,0.012803
51.635742,924.682617,-346.252441,0.013543
53.192139,921.844482,-348.175049,0.014294
61.523438,922.119141,-344.787598,0.015034
55.297852,926.879883,-346.069336,0.015774
55.572510,923.858643,-347.900391,0.016514
55.938721,916.076660,-351.287842,0.017263
57.128906,923.034668,-352.844238,0.018016
59.234619,914.245605,-348.083496,0.018769
52.825928,925.506592,-346.435547,0.019523
61.614990,920.837402,-348.266602,0.020272
62.622070,923.583984,-354.949951,0.021022
58.685303,924.865723,-348.815918,0.021760
63.079834,925.598145,-341.949463,0.022520
61.798096,919.189453,-345.336914,0.023259
50.994873,919.921875,-353.027344,0.024020
62.805176,922.485352,-347.351074,0.024772
67.474365,930.175781,-347.259521,0.025521
62.255859,924.133301,-352.661133,0.026259
60.333252,921.844482,-348.632812,0.027008
61.706543,915.893555,-343.505859,0.027759
65.002441,921.295166,-343.688965,0.028521
64.086914,922.393799,-348.815918,0.029261
67.291260,920.288086,-350.189209,0.030002
59.509277,921.295166,-350.280762,0.030743
52.734375,916.625977,-351.562500,0.031484
58.776855,919.097900,-346.160889,0.032224
58.685303,919.921875,-350.189209,0.032964
66.101074,924.865723,-349.090576,0.033715
58.410645,918.823242,-329.681396,0.034455
58.319092,918.731689,-347.076416,0.035195
67.749023,921.112061,-349.914551,0.035935
66.192627,925.323486,-344.421387,0.036674
59.509277,915.344238,-345.153809,0.037412
59.783936,921.020508,-347.717285,0.038155
55.114746,914.520264,-353.027344,0.038895
61.798096,922.485352,-350.555420,0.039634
56.762695,914.520264,-348.815918,0.040372
68.756104,917.816162,-342.132568,0.041109
63.171387,909.210205,-340.850830,0.041847
53.558350,915.435791,-348.815918,0.042592
53.741455,912.780762,-347.625732,0.043332
56.121826,921.661377,-345.977783,0.044072
58.776855,915.069580,-346.710205,0.044812
62.896729,916.076660,-349.090576,0.045562
54.199219,911.132812,-343.963623,0.046300
57.678223,910.400391,-342.315674,0.047042
54.748535,914.337158,-345.428467,0.047783
55.023193,915.069580,-349.090576,0.048533
55.755615,914.520264,-344.787598,0.049274
61.798096,915.985107,-345.153809,0.050014
57.037354,916.534424,-352.478027,0.050754
58.593750,914.245605,-350.280762,0.051504
61.614990,917.266846,-357.513428,0.052244
56.030273,922.393799,-349.548340,0.052984
56.488037,916.442871,-345.886230,0.053724
51.818848,911.315918,-342.590332,0.054464
56.945801,914.062500,-351.104736,0.055203
56.762695,920.288086,-353.302002,0.055943
57.312012,906.829834,-354.858398,0.056682
57.128906,911.773682,-356.781006,0.057422
63.171387,917.999268,-348.724365,0.058162
48.339844,912.139893,-352.294922,0.058901
56.671143,921.844482,-352.020264,0.059641
54.473877,920.288086,-347.717285,0.060391
51.361084,914.337158,-347.808838,0.061131
58.502197,916.168213,-345.336914,0.061871
52.642822,913.970947,-355.224609,0.062611
60.607910,910.949707,-353.759766,0.063353
59.600830,918.640137,-346.984863,0.064093
54.290771,922.576904,-345.520020,0.064833
57.220459,916.351318,-352.752686,0.065573
63.171387,923.583984,-349.273682,0.066313
63.079834,924.591064,-350.189209,0.067052
67.657471,925.231934,-348.175049,0.067792
61.981201,917.724609,-344.238281,0.068532
70.495605,926.971436,-342.224121,0.069272
59.783936,919.921875,-350.555420,0.070011
52.001953,915.344238,-354.949951,0.070751
66.375732,924.133301,-358.062744,0.071490
61.431885,926.239014,-346.435547,0.072326
63.446045,922.210693,-349.365234,0.073067
66.101074,922.668457,-344.970703,0.073807
64.727783,924.316406,-351.928711,0.074546
65.734863,916.168213,-355.224609,0.075286
65.093994,922.302246,-349.456787,0.076026
62.438965,926.696777,-353.942871,0.076765
61.157227,911.956787,-347.259521,0.077505
47.698975,921.386719,-350.006104,0.078255
62.347412,914.154053,-330.688477,0.078995
71.960449,922.576904,-343.597412,0.079736
64.910889,923.583984,-350.921631,0.080476
65.917969,916.351318,-358.978271,0.081226
68.664551,932.006836,-349.182129,0.081967
70.770264,929.168701,-350.189209,0.082707
64.361572,925.689697,-347.900391,0.083447
64.270020,921.844482,-353.759766,0.084196
67.016602,929.809570,-349.822998,0.084936
66.009521,921.295166,-349.365234,0.085676
62.072754,919.921875,-345.062256,0.086416
72.143555,924.591064,-346.893311,0.087155
66.101074,919.464111,-348.358154,0.087895
62.713623,909.759521,-356.323242,0.088634
65.826416,916.351318,-353.210449,0.089374
59.143066,919.830322,-350.006104,0.090113
57.586670,921.936035,-348.907471,0.090853
56.396484,914.245605,-350.830078,0.091592
61.798096,920.379639,-373.077393,0.092332
57.769775,910.583496,-356.597900,0.093082
56.304932,917.175293,-353.302002,0.093820
58.135986,920.104980,-344.970703,0.094565
61.614990,916.442871,-356.506348,0.095309
63.995361,916.076660,-349.456787,0.096071
56.671143,916.625977,-349.365234,0.096810
57.769775,921.112061,-350.555420,0.097558
53.833008,913.146973,-351.287842,0.098309
60.791016,911.865234,-359.893799,0.099058
63.720703,921.569824,-350.097656,0.099797
61.706543,914.337158,-350.555420,0.100535
59.143066,934.570312,-351.287842,0.101282
65.917969,935.485840,-352.294922,0.102032
66.101074,913.696289,-351.837158,0.102782
56.030273,915.069580,-350.646973,0.103532
56.213379,919.555664,-357.147217,0.104272
58.685303,920.745850,-354.766846,0.105012
50.262451,923.217773,-347.442627,0.105752
52.551270,916.351318,-350.372314,0.106491
52.734375,918.731689,-352.020264,0.107242
51.910400,914.154053,-354.858398,0.107982
54.290771,921.844482,-346.160889,0.108755
52.734375,925.598145,-349.548340,0.109530
55.664062,920.288086,-351.562500,0.110271
52.551270,919.464111,-351.745605,0.111010
52.276611,921.203613,-351.562500,0.111750
49.438477,915.710449,-349.914551,0.112500
54.473877,911.315918,-351.654053,0.113240
56.671143,919.189453,-347.808838,0.113979
54.016113,923.858643,-349.639893,0.114719
52.642822,921.295166,-357.055664,0.115469
57.952881,919.555664,-352.203369,0.116209
49.896240,913.055420,-359.252930,0.116949
54.931641,923.309326,-343.597412,0.117689
60.791016,896.667480,-352.020264,0.118438
56.121826,914.978027,-339.385986,0.119177
59.692383,915.527344,-351.928711,0.119917
59.326172,915.252686,-372.344971,0.120656
52.642822,919.097900,-360.443115,0.121406
57.312012,918.365479,-357.055664,0.122146
59.783936,919.555664,-350.006104,0.122885
63.720703,925.048828,-342.590332,0.123625
61.340332,926.422119,-347.442627,0.124375
65.277100,918.457031,-345.977783,0.125115
59.875488,918.823242,-351.104736,0.125854
65.277100,922.027588,-356.872559,0.126594
63.171387,926.605225,-347.900391,0.127344
64.727783,921.478271,-348.815918,0.128084
60.058594,922.485352,-350.555420,0.128823
65.185547,921.478271,-353.576660,0.129563
67.657471,922.851562,-365.753174,0.130311
64.086914,921.386719,-351.654053,0.131051
60.974121,923.034668,-346.343994,0.131791
64.361572,922.302246,-353.668213,0.132530
60.974121,919.097900,-351.104736,0.133280
66.101074,918.548584,-355.682373,0.134020
69.030762,919.921875,-351.470947,0.134759
69.030762,924.407959,-346.801758,0.135499
64.178467,930.450439,-336.273193,0.136249
56.579590,918.823242,-350.006104,0.136989
64.636230,915.527344,-354.125977,0.137729
66.375732,919.006348,-349.914551,0.138469
58.959961,930.450439,-344.604492,0.139218
62.164307,930.999756,-338.470459,0.139958
66.101074,925.964355,-339.660645,0.140698
66.101074,918.090820,-343.872070,0.141438
67.108154,928.619385,-348.632812,0.142187
56.854248,925.506592,-341.491699,0.142926
64.910889,921.386719,-342.773438,0.143666
60.424805,915.802002,-352.111816,0.144405
63.903809,925.689697,-348.999023,0.145236
61.889648,923.583984,-341.033936,0.145976
71.136475,924.682617,-353.851318,0.146715
67.108154,917.633057,-347.991943,0.147455
67.016602,917.358398,-344.879150,0.148204
65.277100,923.034668,-346.252441,0.148944
63.903809,928.070068,-353.759766,0.149684
57.495117,923.675537,-345.611572,0.150423
64.453125,919.097900,-351.287842,0.151172
60.058594,914.611816,-355.316162,0.151912
61.065674,913.513184,-347.076416,0.152652
59.143066,901.611328,-349.639893,0.153391
55.572510,909.942627,-350.280762,0.154143
60.424805,920.104980,-348.083496,0.154884
52.734375,916.534424,-330.230713,0.155623
59.417725,914.520264,-346.710205,0.156362
59.967041,916.534424,-347.351074,0.157108
51.910400,927.429199,-342.773438,0.157848
52.368164,920.562744,-335.449219,0.158588
60.150146,918.731689,-350.463867,0.159327
62.164307,924.682617,-348.266602,0.160075
64.819336,916.625977,-343.780518,0.160817
59.509277,910.217285,-350.189209,0.161558
62.347412,919.738770,-340.759277,0.162297
55.297852,917.175293,-351.470947,0.163047
58.502197,911.956787,-343.505859,0.163826
59.875488,909.393311,-350.280762,0.164606
51.269531,920.654297,-345.977783,0.165383
58.959961,914.703369,-348.175049,0.166123
54.382324,916.717529,-345.520020,0.166863
47.790527,911.590576,-348.541260,0.167602
52.185059,916.900635,-354.400635,0.168352
48.797607,912.689209,-354.492188,0.169092
54.656982,921.752930,-342.407227,0.169832
56.121826,920.745850,-359.069824,0.170573
46.691895,918.731689,-358.612061,0.171323
61.065674,909.667969,-351.287842,0.172062
56.762695,913.879395,-355.316162,0.172802
61.706543,912.597656,-328.491211,0.173542
59.234619,919.830322,-348.541260,0.174291
54.382324,919.372559,-358.612061,0.175031
52.185059,918.548584,-357.055664,0.175770
54.290771,922.302246,-348.266602,0.176510
52.825928,917.816162,-344.421387,0.177259
54.565430,925.231934,-343.048096,0.177999
47.515869,922.668457,-343.322754,0.178739
50.720215,926.879883,-351.745605,0.179478
59.051514,923.126221,-352.935791,0.180228
61.340332,913.421631,-353.393555,0.180968
60.241699,914.794922,-354.125977,0.181709
55.938721,915.710449,-355.773926,0.182449
62.896729,920.288086,-348.266602,0.183267
66.192627,924.224854,-349.365234,0.184211
63.537598,919.189453,-352.203369,0.184952
59.509277,917.175293,-348.907471,0.185749
55.480957,920.196533,-341.033936,0.186497
60.974121,919.555664,-345.794678,0.187239
59.417725,926.696777,-347.534180,0.187982
68.847656,926.239014,-352.203369,0.188736
69.030762,919.921875,-346.435547,0.189479
65.643311,923.950195,-340.393066,0.190222
62.530518,922.302246,-345.336914,0.190964
60.516357,924.957275,-343.963623,0.191717
60.791016,924.499512,-349.548340,0.192460
60.882568,923.675537,-345.428467,0.193202
60.333252,920.471191,-355.316162,0.193944
57.128906,924.407959,-348.999023,0.194696
52.917480,921.844482,-354.034424,0.195439
58.685303,922.485352,-353.393555,0.196182
57.403564,916.534424,-345.153809,0.196924
56.488037,921.386719,-349.822998,0.197681
62.255859,919.372559,-328.399658,0.198460
52.917480,915.344238,-349.914551,0.199203
57.586670,936.492920,-357.055664,0.199946
51.452637,917.175293,-352.752686,0.200698
56.762695,920.288086,-352.020264,0.201441
56.304932,916.717529,-330.505371,0.202183
59.600830,928.894043,-335.632324,0.202926
55.297852,916.717529,-343.963623,0.203678
56.579590,915.069580,-347.351074,0.204421
61.248779,922.119141,-350.189209,0.205163
57.678223,921.661377,-352.752686,0.205926
53.833008,917.907715,-342.590332,0.206690
60.882568,920.013428,-345.245361,0.207424
61.889648,922.668457,-347.442627,0.208158
57.403564,921.569824,-347.076416,0.208891
53.100586,916.351318,-348.999023,0.209641
54.016113,891.906738,-348.083496,0.210375
58.502197,917.999268,-346.160889,0.211109
54.748535,914.520264,-350.189209,0.211842
53.192139,913.421631,-351.928711,0.212586
49.346924,906.463623,-348.907471,0.213320
51.177979,913.055420,-344.787598,0.214054
54.656982,920.288086,-349.273682,0.214788
56.030273,912.963867,-353.393555,0.215544
47.241211,914.794922,-349.456787,0.216287
50.354004,912.048340,-353.302002,0.217030
55.023193,915.527344,-360.626221,0.217773
50.354004,909.118652,-355.682373,0.218615
46.417236,911.773682,-356.781006,0.219358
52.459717,918.548584,-329.223633,0.220101
59.326172,922.668457,-348.632812,0.220843
49.346924,918.548584,-349.456787,0.221608
48.522949,915.344238,-355.590820,0.222350
60.791016,920.196533,-350.463867,0.223093
54.840088,921.478271,-350.646973,0.223835
53.649902,918.457031,-350.463867,0.224588
56.213379,918.182373,-342.681885,0.225330
50.994873,916.168213,-345.886230,0.226073
47.424316,919.830322,-358.886719,0.226816
55.572510,916.992188,-346.984863,0.227570
53.192139,923.583984,-352.020264,0.228313
56.213379,926.605225,-354.583740,0.229056
56.213379,930.084229,-357.147217,0.229799
56.945801,917.175293,-354.583740,0.230549
55.389404,919.281006,-345.520020,0.231292
58.593750,925.964355,-354.766846,0.232034
57.495117,921.844482,-345.886230,0.232777
67.108154,929.901123,-347.534180,0.233529
56.579590,927.612305,-346.710205,0.234272
54.199219,922.027588,-344.512939,0.235014
64.544678,917.999268,-350.189209,0.235756
61.889648,920.745850,-347.625732,0.236507
69.213867,922.851562,-345.703125,0.237267
55.755615,927.703857,-354.949951,0.238027
45.867920,920.654297,-353.576660,0.238816
55.938721,914.886475,-355.682373,0.239606
57.678223,922.943115,-354.492188,0.240349
56.213379,921.478271,-349.639893,0.241091
57.128906,918.365479,-350.372314,0.241834
63.262939,924.041748,-348.907471,0.242577
54.748535,922.210693,-355.407715,0.243319
57.128906,925.415039,-351.654053,0.244061
55.664062,918.731689,-357.879639,0.244803
59.509277,915.985107,-355.133057,0.245556
57.952881,911.315918,-352.569580,0.246299
57.220459,919.921875,-350.646973,0.247041
56.945801,916.625977,-351.562500,0.247784
53.100586,914.337158,-349.548340,0.248536
56.671143,917.358398,-352.294922,0.249279
49.896240,915.802002,-354.949951,0.250021
49.621582,918.548584,-351.654053,0.250764
49.621582,920.562744,-345.245361,0.251516
52.642822,913.055420,-345.520020,0.252258
53.283691,912.506104,-344.970703,0.253001
58.227539,914.520264,-348.541260,0.253744
55.114746,912.506104,-355.499268,0.254496
48.522949,913.970947,-343.231201,0.255239
56.945801,911.407471,-342.315674,0.255983
58.044434,908.386230,-343.414307,0.256726
55.206299,909.301758,-342.681885,0.257481
62.347412,915.252686,-346.984863,0.258223
64.361572,905.273438,-349.731445,0.259043
60.974121,936.035156,-348.358154,0.259801
59.509277,920.837402,-344.604492,0.260602
59.692383,918.090820,-346.984863,0.261348
63.903809,910.766602,-355.224609,0.262104
54.840088,914.428711,-345.611572,0.262932
56.945801,918.640137,-349.365234,0.263677
60.882568,922.210693,-348.541260,0.264419
69.305420,918.090820,-349.548340,0.265162
64.270020,912.963867,-349.456787,0.265914
69.671631,917.816162,-344.879150,0.266657
67.382812,912.322998,-347.534180,0.267400
47.698975,916.442871,-345.520020,0.268142
70.220947,915.252686,-352.935791,0.268885
74.890137,920.928955,-349.548340,0.269628
78.369141,922.576904,-351.470947,0.270371
70.587158,925.323486,-344.421387,0.271113
65.002441,930.908203,-340.118408,0.271856
70.404053,929.443359,-338.012695,0.272626
70.678711,931.457520,-340.209961,0.273369
76.538086,932.281494,-334.625244,0.274112
72.235107,931.457520,-346.160889,0.274853
72.052002,927.246094,-344.970703,0.275593
68.847656,923.492432,-344.604492,0.276333
69.030762,934.844971,-346.710205,0.277073
69.854736,932.647705,-344.146729,0.277834
68.023682,929.351807,-348.724365,0.278579
67.474365,933.471680,-354.766846,0.279323
69.122314,933.288574,-347.351074,0.280067
65.551758,931.457520,-343.139648,0.280824
68.023682,932.189941,-352.020264,0.281569
62.255859,925.964355,-350.830078,0.282313
67.657471,931.091309,-350.097656,0.283057
64.453125,929.351807,-351.654053,0.283810
68.115234,928.070068,-353.576660,0.284554
62.255859,926.147461,-352.569580,0.285289
67.840576,928.253174,-347.259521,0.286023
64.910889,924.224854,-352.111816,0.286776
59.692383,925.140381,-354.400635,0.287521
64.086914,917.449951,-354.400635,0.288265
65.093994,922.760010,-352.752686,0.289008
70.861816,928.344727,-346.160889,0.289753
62.072754,924.499512,-356.140137,0.290497
68.847656,917.724609,-354.400635,0.291327
61.523438,920.654297,-350.921631,0.292072
62.896729,924.865723,-356.597900,0.292816
64.819336,929.718018,-356.414795,0.293561
60.241699,918.731689,-355.316162,0.294305
58.959961,915.710449,-351.654053,0.295048
54.931641,919.006348,-359.252930,0.295802
54.565430,916.076660,-365.386963,0.296546
57.128906,912.689209,-359.985352,0.297290
60.607910,913.238525,-356.140137,0.298034
59.509277,919.738770,-350.646973,0.298788
55.572510,923.126221,-354.217529,0.299533
63.720703,918.731689,-352.203369,0.300277
61.981201,918.731689,-356.140137,0.301021
53.100586,920.013428,-361.541748,0.301765
55.114746,920.745850,-352.752686,0.302509
54.382324,919.189453,-347.351074,0.303253
56.396484,921.386719,-347.900391,0.303997
57.037354,928.344727,-354.400635,0.304741
54.199219,919.738770,-347.534180,0.305485
47.698975,912.322998,-352.661133,0.306229
54.199219,913.696289,-353.485107,0.306973
53.100586,912.048340,-351.928711,0.307726
48.797607,896.759033,-349.365234,0.308470
50.994873,904.357910,-351.837158,0.309214
52.917480,908.843994,-352.752686,0.309958
64.636230,918.640137,-346.252441,0.310703
56.762695,912.689209,-346.252441,0.311447
57.769775,914.794922,-346.252441,0.312195
62.713623,925.323486,-349.914551,0.312948
63.262939,918.914795,-345.153809,0.313706
54.656982,916.717529,-345.703125,0.314510
49.987793,919.464111,-344.970703,0.315255
55.480957,922.576904,-345.703125,0.315999
54.016113,922.760010,-346.893311,0.316743
52.459717,918.548584,-348.083496,0.317487
64.544678,920.745850,-350.463867,0.318231
57.769775,924.407959,-348.907471,0.318975
53.192139,916.625977,-342.864990,0.319719
58.593750,917.907715,-351.470947,0.320477
53.192139,912.414551,-349.822998,0.321221
52.001953,917.541504,-356.048584,0.321964
53.100586,924.682617,-350.097656,0.322708
48.980713,920.654297,-349.914551,0.323459
60.058594,925.231934,-343.322754,0.324203
61.981201,921.295166,-343.322754,0.324948
57.220459,918.823242,-351.745605,0.325691
62.072754,919.189453,-355.041504,0.326447
64.361572,913.330078,-351.837158,0.327192
57.037354,913.970947,-347.167969,0.327937
56.121826,914.703369,-346.527100,0.328682
49.804688,912.689209,-338.104248,0.329442
60.241699,920.013428,-340.759277,0.330187
56.762695,914.428711,-342.864990,0.330931
60.241699,921.203613,-344.512939,0.331675
55.938721,919.464111,-345.794678,0.332429
54.748535,922.119141,-348.358154,0.333173
58.227539,916.442871,-342.590332,0.333916
58.502197,917.449951,-348.266602,0.334660
55.755615,919.189453,-373.992920,0.335424
57.128906,913.696289,-344.238281,0.336400
57.403564,925.781250,-341.766357,0.337150
62.988281,920.471191,-342.315674,0.337914
56.396484,916.992188,-345.886230,0.338688
55.023193,920.196533,-346.710205,0.339433
60.058594,916.992188,-350.921631,0.340177
51.269531,912.780762,-347.351074,0.340933
52.734375,912.048340,-351.654053,0.341677
60.424805,915.985107,-349.273682,0.342422
55.572510,920.928955,-350.738525,0.343166
54.290771,921.203613,-354.949951,0.343883
61.889648,923.950195,-346.618652,0.344627
58.319092,923.126221,-370.605469,0.345371
51.086426,916.992188,-353.942871,0.346115
52.093506,912.414551,-341.125488,0.346896
56.213379,914.794922,-346.801758,0.347640
50.994873,921.478271,-347.442627,0.348384
47.607422,937.316895,-350.372314,0.349131
52.642822,914.062500,-352.478027,0.349905
58.959961,918.273926,-350.006104,0.350649
58.685303,912.872314,-329.681396,0.351393
56.671143,922.576904,-347.534180,0.352137
58.502197,920.745850,-344.329834,0.352891
56.671143,924.133301,-344.146729,0.353635
55.114746,929.809570,-349.914551,0.354380
58.227539,920.928955,-349.639893,0.355124
58.227539,920.654297,-350.372314,0.355878
62.988281,919.097900,-346.984863,0.356623
57.678223,929.901123,-348.083496,0.357367
65.093994,921.203613,-348.266602,0.358111
62.072754,916.351318,-348.175049,0.358864
60.241699,918.457031,-348.815918,0.359608
58.776855,921.569824,-349.456787,0.360353
58.135986,916.076660,-357.696533,0.361096
57.037354,927.612305,-345.336914,0.361850
63.446045,919.006348,-347.717285,0.362594
57.952881,927.795410,-348.083496,0.363338
58.776855,924.957275,-349.182129,0.364082
59.875488,921.295166,-339.660645,0.364903
64.727783,929.809570,-347.534180,0.365648
61.248779,920.928955,-354.217529,0.366392
53.466797,923.675537,-356.323242,0.367136
59.600830,918.273926,-353.302002,0.367889
58.685303,922.210693,-332.519531,0.368634
62.988281,923.583984,-348.083496,0.369378
61.157227,921.295166,-352.111816,0.370122
60.607910,917.633057,-357.513428,0.370876
54.107666,913.421631,-350.006104,0.371620
62.713623,919.830322,-349.273682,0.372364
66.558838,925.872803,-344.329834,0.373108
58.227539,922.393799,-353.942871,0.373852
60.150146,921.844482,-351.745605,0.374595
59.600830,920.745850,-349.182129,0.375339
59.600830,923.767090,-348.815918,0.376083
61.340332,924.682617,-339.294434,0.376827
65.093994,922.027588,-353.759766,0.377571
66.467285,925.964355,-348.358154,0.378315
63.171387,921.112061,-350.006104,0.379058
57.403564,916.442871,-356.231689,0.379812
62.713623,913.513184,-355.407715,0.380557
60.974121,919.006348,-347.534180,0.381300
55.938721,916.259766,-347.351074,0.382044
56.304932,913.970947,-336.273193,0.382789
57.403564,924.041748,-343.780518,0.383533
56.304932,923.583984,-340.118408,0.384277
52.917480,919.097900,-349.090576,0.385023
46.325684,924.865723,-348.358154,0.385805
51.910400,921.020508,-354.583740,0.386558
50.079346,916.900635,-359.252930,0.387342
53.924561,912.597656,-351.470947,0.388088
45.227051,917.999268,-346.984863,0.388833
48.797607,917.633057,-345.520020,0.389577
53.649902,915.710449,-342.498779,0.390321
52.459717,917.083740,-352.294922,0.391065
51.177979,915.161133,-343.139648,0.391827
49.804688,916.442871,-350.646973,0.392571
46.325684,910.217285,-350.830078,0.393316
40.649414,921.295166,-351.562500,0.394059
46.234131,910.858154,-347.808838,0.394804
53.283691,906.646729,-343.688965,0.395548
54.382324,912.139893,-348.724365,0.396292
52.093506,913.421631,-356.140137,0.397037
50.720215,906.829834,-358.520508,0.397781
46.600342,910.583496,-350.006104,0.398525
50.079346,911.773682,-353.668213,0.399269
47.515869,916.259766,-340.667725,0.400013
49.072266,909.027100,-351.104736,0.400768
45.043945,918.457031,-349.914551,0.401512
46.325684,912.963867,-357.330322,0.402258
41.839600,914.703369,-352.478027,0.403003
41.473389,918.914795,-347.167969,0.403748
44.677734,916.992188,-353.027344,0.404492
47.241211,913.696289,-352.111816,0.405235
47.607422,914.062500,-341.491699,0.405978
51.910400,914.428711,-350.646973,0.406722
47.149658,914.062500,-348.541260,0.407466
43.212891,910.766602,-344.146729,0.408210
44.128418,903.808594,-352.844238,0.408954
46.600342,916.351318,-347.534180,0.409697
44.219971,915.344238,-345.153809,0.410464
47.882080,915.985107,-348.815918,0.411209
47.149658,905.731201,-348.358154,0.411953
49.438477,933.013916,-349.822998,0.412829
46.875000,920.288086,-354.492188,0.413821
49.255371,911.773682,-357.147217,0.414576
49.713135,914.062500,-352.569580,0.415321
48.614502,911.499023,-359.619141,0.416111
39.276123,912.414551,-351.196289,0.416870
45.593262,908.111572,-362.823486,0.417614
53.649902,915.618896,-351.196289,0.418358
50.170898,915.344238,-354.675293,0.419111
72.784424,911.682129,-392.761230,0.419905
59.967041,904.266357,-362.548828,0.420650
43.304443,914.520264,-328.491211,0.421394
27.191162,921.661377,-334.075928,0.422138
36.987305,910.217285,-342.956543,0.422882
47.149658,914.886475,-371.429443,0.423626
65.277100,910.675049,-354.492188,0.424370
66.833496,912.506104,-353.393555,0.425124
54.290771,916.351318,-357.055664,0.425869
49.072266,909.851074,-349.273682,0.426613
55.206299,909.484863,-355.224609,0.427357
71.960449,917.633057,-360.534668,0.428111
69.763184,908.660889,-373.260498,0.428855
57.678223,906.646729,-374.084473,0.429599
33.966064,906.372070,-366.119385,0.430343
19.683838,913.604736,-356.231689,0.431096
11.993408,918.182373,-347.900391,0.431840
24.627686,913.330078,-342.590332,0.432583
63.446045,907.470703,-353.027344,0.433327
90.545654,918.548584,-358.337402,0.434081
83.496094,916.259766,-351.562500,0.434826
63.354492,912.048340,-352.478027,0.435569
57.769775,924.957275,-346.069336,0.436313
48.248291,930.267334,-346.527100,0.437066
54.199219,917.266846,-351.470947,0.437895
56.945801,927.886963,-348.175049,0.438640
59.600830,920.654297,-359.436035,0.439384
57.678223,921.386719,-353.851318,0.440140
61.889648,923.492432,-353.668213,0.440884
56.762695,913.787842,-355.041504,0.441628
56.945801,916.259766,-359.802246,0.442372
58.685303,922.119141,-359.710693,0.443138
61.798096,918.731689,-349.639893,0.443882
56.854248,920.837402,-349.731445,0.444626
62.622070,911.590576,-358.154297,0.445370
57.495117,917.449951,-358.886719,0.446124
61.340332,915.161133,-358.428955,0.446868
53.558350,912.231445,-356.414795,0.447612
48.797607,921.203613,-351.287842,0.448355
55.114746,919.281006,-351.470947,0.449109
52.734375,923.400879,-346.618652,0.449853
60.791016,918.914795,-347.351074,0.450597
61.248779,925.872803,-347.625732,0.451341
63.171387,927.337646,-356.323242,0.452095
67.474365,923.400879,-348.632812,0.452839
91.186523,919.372559,-352.111816,0.453583
73.333740,919.738770,-349.456787,0.454327
74.157715,930.908203,-349.090576,0.455081
69.396973,921.478271,-351.562500,0.455826
69.305420,924.682617,-358.245850,0.456570
87.890625,922.485352,-352.569580,0.457314
70.220947,928.985596,-332.336426,0.458068
70.953369,926.605225,-357.604980,0.458819
68.847656,925.964355,-355.590820,0.459569
72.052002,929.992676,-347.717285,0.460350
65.643311,931.732178,-353.393555,0.461132
62.988281,930.541992,-352.935791,0.461878
67.108154,928.894043,-352.294922,0.462622
70.678711,934.387207,-342.864990,0.463366
77.911377,936.859131,-345.977783,0.464121
73.608398,928.894043,-350.555420,0.464865
77.728271,926.330566,-349.731445,0.465610
76.538086,931.732178,-349.090576,0.466354
72.418213,927.886963,-356.048584,0.467108
72.143555,929.351807,-368.682861,0.467852
69.671631,935.119629,-354.858398,0.468596
73.242188,929.718018,-350.463867,0.469340
60.333252,933.563232,-349.731445,0.470103
63.720703,935.760498,-344.970703,0.470847
63.354492,933.563232,-354.125977,0.471592
77.636719,932.556152,-351.470947,0.472336
69.671631,934.387207,-352.203369,0.473003
75.805664,943.084717,-347.167969,0.473748
71.502686,933.654785,-348.999023,0.474492
72.967529,928.527832,-342.498779,0.475238
76.904297,929.901123,-344.970703,0.475995
74.432373,926.147461,-345.520020,0.476741
74.615479,929.443359,-344.970703,0.477485
76.171875,927.062988,-348.815918,0.478229
74.798584,926.971436,-351.928711,0.478983
70.770264,927.612305,-353.485107,0.479727
66.741943,925.415039,-354.217529,0.480470
73.059082,929.077148,-353.485107,0.481204
73.425293,932.830811,-350.646973,0.481972
69.854736,928.070068,-353.027344,0.482716
76.171875,925.964355,-357.879639,0.483461
68.481445,920.928955,-349.639893,0.484206
64.636230,926.239014,-355.316162,0.484960
66.284180,919.738770,-353.668213,0.485705
72.418213,920.562744,-349.731445,0.486449
70.037842,915.985107,-360.260010,0.487193
63.720703,919.281006,-351.837158,0.487946
65.460205,917.541504,-352.386475,0.488691
65.368652,916.717529,-359.802246,0.489511
65.734863,916.168213,-352.935791,0.490312
68.939209,936.401367,-352.661133,0.491075
65.093994,911.407471,-355.957031,0.491871
62.072754,910.491943,-352.020264,0.492624
61.523438,915.985107,-351.287842,0.493407
61.706543,914.794922,-368.682861,0.494155
58.410645,913.055420,-354.217529,0.494901
63.079834,908.203125,-354.583740,0.495662
63.812256,911.224365,-356.323242,0.496413
59.875488,904.083252,-353.668213,0.497159
63.629150,913.330078,-359.802246,0.497904
67.474365,915.710449,-352.569580,0.498648
63.446045,917.907715,-355.041504,0.499392
59.967041,920.837402,-355.590820,0.500164
61.981201,913.970947,-351.928711,0.500909
62.072754,914.337158,-358.062744,0.501653
62.255859,918.548584,-352.844238,0.502397
65.643311,914.611816,-348.083496,0.503155
62.438965,911.590576,-352.111816,0.503900
62.805176,915.435791,-344.329834,0.504644
60.791016,916.625977,-347.900391,0.505388
67.291260,917.266846,-348.175049,0.506142
66.467285,916.259766,-346.893311,0.506887
62.164307,911.407471,-371.063232,0.507632
62.347412,914.062500,-355.590820,0.508376
60.333252,916.992188,-350.372314,0.509137
55.572510,916.259766,-347.808838,0.509886
55.206299,916.534424,-347.991943,0.510631
54.016113,907.012939,-347.717285,0.511462
53.558350,908.020020,-352.294922,0.512217
56.488037,907.470703,-355.499268,0.512962
56.213379,908.660889,-353.576660,0.513706
56.121826,910.491943,-342.498779,0.514450
59.600830,915.252686,-353.485107,0.515076
62.896729,917.266846,-343.231201,0.515820
52.001953,911.773682,-354.949951,0.516565
51.269531,906.921387,-356.323242,0.517309
55.572510,912.414551,-353.118896,0.518063
57.952881,914.886475,-372.802734,0.518807
52.917480,911.407471,-350.830078,0.519552
53.649902,914.978027,-356.964111,0.520296
57.128906,902.526855,-353.851318,0.521050
58.868408,913.513184,-359.619141,0.521795
56.488037,909.210205,-361.358643,0.522540
63.903809,906.829834,-361.541748,0.523284
58.135986,905.273438,-352.661133,0.524038
58.776855,902.069092,-354.583740,0.524782
62.622070,910.308838,-351.104736,0.525526
59.600830,916.442871,-350.280762,0.526271
57.678223,916.625977,-351.470947,0.527025
56.671143,915.344238,-359.436035,0.527769
53.283691,912.414551,-357.147217,0.528513
54.840088,914.428711,-358.337402,0.529258
69.305420,914.703369,-357.788086,0.530011
60.333252,923.767090,-356.231689,0.530756
56.671143,919.097900,-353.302002,0.531502
56.304932,920.562744,-348.083496,0.532269
55.389404,921.844482,-355.865479,0.533050
52.368164,918.914795,-352.478027,0.533842
60.058594,922.760010,-353.759766,0.534589
60.974121,926.879883,-355.316162,0.535333
55.480957,929.718018,-351.928711,0.536097
61.798096,924.865723,-352.203369,0.536842
66.101074,923.309326,-355.224609,0.537587
54.016113,928.070068,-355.316162,0.538331
56.304932,924.957275,-350.555420,0.539087
63.903809,924.041748,-349.548340,0.539832
64.727783,922.668457,-353.759766,0.540576
63.171387,915.527344,-353.027344,0.541320
61.431885,919.738770,-354.675293,0.542076
70.861816,926.239014,-357.971191,0.542820
64.453125,923.309326,-360.992432,0.543564
59.783936,918.090820,-359.710693,0.544308
56.671143,918.273926,-355.224609,0.545061
56.304932,919.006348,-355.133057,0.545806
55.847168,928.344727,-360.809326,0.546550
56.030273,919.189453,-360.351562,0.547294
68.572998,924.499512,-353.210449,0.548048
58.502197,921.020508,-355.865479,0.548794
57.586670,923.950195,-359.252930,0.549541
58.135986,927.703857,-353.759766,0.550286
63.446045,922.668457,-359.436035,0.551043
53.100586,925.781250,-356.872559,0.551788
61.706543,928.070068,-350.372314,0.552533
61.248779,925.689697,-358.703613,0.553277
65.277100,927.154541,-354.400635,0.554031
64.727783,919.464111,-355.224609,0.554776
53.558350,920.379639,-360.534668,0.555520
52.368164,919.281006,-351.562500,0.556264
59.234619,919.464111,-348.358154,0.557028
56.213379,928.619385,-359.802246,0.557773
56.945801,924.224854,-359.161377,0.558517
63.079834,917.907715,-354.675293,0.559261
59.875488,926.605225,-355.773926,0.560017
56.854248,928.619385,-358.245850,0.560762
52.276611,923.126221,-355.773926,0.561506
55.206299,922.027588,-355.316162,0.562250
52.368164,922.302246,-352.844238,0.563003
50.079346,919.372559,-352.478027,0.563748
57.312012,925.506592,-358.245850,0.564493
55.206299,911.773682,-351.654053,0.565237
59.234619,914.245605,-353.576660,0.565991
52.185059,911.773682,-358.978271,0.566748
53.192139,919.372559,-351.104736,0.567692
60.699463,921.203613,-372.985840,0.568735
59.051514,918.548584,-350.921631,0.569580
58.593750,918.823242,-350.921631,0.570502
58.410645,893.005371,-355.133057,0.571324
62.896729,917.907715,-351.196289,0.572346
61.706543,920.837402,-347.534180,0.573125
61.614990,914.154053,-349.182129,0.573908
57.769775,915.802002,-352.111816,0.574671
55.389404,911.224365,-355.224609,0.575417
57.220459,911.224365,-354.583740,0.576164
56.304932,917.083740,-355.499268,0.576911
56.762695,913.055420,-359.710693,0.577658
63.079834,916.900635,-344.146729,0.578403
58.959961,916.076660,-353.210449,0.579148
58.685303,919.006348,-356.048584,0.579893
60.424805,916.900635,-351.562500,0.580655
57.952881,915.252686,-352.935791,0.581401
46.234131,913.787842,-355.682373,0.582145
54.290771,923.034668,-358.062744,0.582889
59.234619,917.541504,-356.414795,0.583646
55.480957,922.668457,-355.773926,0.584391
57.403564,915.527344,-348.449707,0.585222
61.065674,922.943115,-351.196289,0.585968
48.797607,911.041260,-353.759766,0.586713
48.339844,936.309814,-354.034424,0.587456
60.516357,917.266846,-350.372314,0.588201
58.135986,919.921875,-355.590820,0.588945
55.206299,916.625977,-348.083496,0.589701
57.403564,910.583496,-344.696045,0.590446
54.565430,913.604736,-345.886230,0.591191
55.114746,919.372559,-350.097656,0.591935
55.938721,923.309326,-347.534180,0.592689
56.488037,916.900635,-328.491211,0.593433
61.798096,908.294678,-354.034424,0.594177
56.213379,909.759521,-354.492188,0.594921
50.445557,921.386719,-351.196289,0.595687
59.234619,920.013428,-350.646973,0.596431
56.030273,916.900635,-352.020264,0.597175
60.241699,912.780762,-352.478027,0.597919
59.234619,918.182373,-357.788086,0.598673
69.030762,923.126221,-354.583740,0.599417
53.924561,915.069580,-351.928711,0.600162
57.495117,915.802002,-359.069824,0.600906
58.227539,917.816162,-353.851318,0.601659
55.755615,912.872314,-353.485107,0.602404
53.833008,910.400391,-356.140137,0.603148
52.734375,912.689209,-357.055664,0.603892
50.994873,916.076660,-351.470947,0.604647
53.741455,917.358398,-353.485107,0.605404
51.452637,915.710449,-359.252930,0.606155
58.135986,917.266846,-355.499268,0.606943
55.938721,916.259766,-354.217529,0.607713
57.861328,916.717529,-354.400635,0.608458
56.945801,923.309326,-355.865479,0.609202
49.438477,919.830322,-353.302002,0.609946
55.938721,920.013428,-331.695557,0.610699
56.854248,916.717529,-347.259521,0.611443
56.945801,914.978027,-360.717773,0.612187
53.375244,916.351318,-360.168457,0.612931
58.868408,910.125732,-349.914551,0.613684
57.312012,918.273926,-357.788086,0.614429
64.361572,915.161133,-361.450195,0.615173
62.622070,918.823242,-352.478027,0.615917
61.889648,914.428711,-352.111816,0.616670
60.333252,921.386719,-355.224609,0.617415
52.551270,918.273926,-351.470947,0.618159
59.051514,922.119141,-357.330322,0.618903
55.114746,924.316406,-352.569580,0.619657
60.424805,922.027588,-353.759766,0.620401
59.417725,923.583984,-348.175049,0.621145
64.270020,924.591064,-350.555420,0.621889
54.016113,921.569824,-349.273682,0.622644
56.671143,917.633057,-355.224609,0.623390
50.903320,924.774170,-351.745605,0.624134
55.389404,921.844482,-343.963623,0.624878
58.135986,923.675537,-341.857910,0.625633
59.692383,925.415039,-344.329834,0.626378
64.636230,923.767090,-355.865479,0.627122
60.058594,925.781250,-349.182129,0.627866
56.213379,925.140381,-350.738525,0.628629
55.755615,923.858643,-357.788086,0.629374
54.382324,923.309326,-351.196289,0.630118
64.544678,924.133301,-351.196289,0.630861
60.424805,926.422119,-358.337402,0.631615
57.128906,923.950195,-353.027344,0.632360
58.685303,931.732178,-356.597900,0.633104
65.368652,926.330566,-351.013184,0.633848
54.656982,921.844482,-356.140137,0.634602
62.622070,917.083740,-350.830078,0.635347
66.009521,922.576904,-357.513428,0.636091
66.650391,921.844482,-357.879639,0.636835
65.002441,917.541504,-363.281250,0.637589
67.657471,919.097900,-357.147217,0.638360
70.953369,925.323486,-353.668213,0.639127
67.474365,914.794922,-351.562500,0.639871
63.629150,919.464111,-346.893311,0.640625
63.354492,923.309326,-369.232178,0.641370
61.706543,921.569824,-353.576660,0.642148
58.319092,918.548584,-355.590820,0.643057
61.157227,923.309326,-356.872559,0.643852
55.206299,919.372559,-353.027344,0.644598
58.044434,926.696777,-346.618652,0.645345
62.255859,926.147461,-353.485107,0.646091
61.340332,920.928955,-357.513428,0.646835
56.488037,914.703369,-357.971191,0.647579
61.157227,927.429199,-357.147217,0.648324
59.234619,920.013428,-356.964111,0.649080
62.255859,919.921875,-351.104736,0.649814
65.185547,922.119141,-347.625732,0.650548
55.389404,921.936035,-351.379395,0.651283
54.656982,917.907715,-355.133057,0.652032
65.551758,921.569824,-348.724365,0.652777
60.333252,916.168213,-352.020264,0.653521
57.586670,919.464111,-359.344482,0.654266
56.030273,914.794922,-362.274170,0.655011
57.495117,911.041260,-355.499268,0.655755
64.910889,914.062500,-352.569580,0.656499
56.579590,912.414551,-357.604980,0.657244
60.516357,912.414551,-354.217529,0.657988
62.896729,909.301758,-359.344482,0.658818
61.157227,910.675049,-356.597900,0.659563
66.284180,911.041260,-351.196289,0.660307
61.431885,913.238525,-351.837158,0.661052
55.755615,915.435791,-355.224609,0.661796
62.347412,908.935547,-357.513428,0.662540
65.643311,918.182373,-357.055664,0.663284
60.882568,911.132812,-356.597900,0.664030
58.959961,910.308838,-355.499268,0.664775
61.523438,922.393799,-354.400635,0.665519
67.291260,917.358398,-373.168945,0.666263
63.171387,915.161133,-350.280762,0.667014
58.319092,891.174316,-347.167969,0.667759
64.819336,909.759521,-354.766846,0.668503
63.446045,911.499023,-351.196289,0.669247
62.713623,915.618896,-350.463867,0.669991
59.509277,920.196533,-352.111816,0.670736
56.488037,896.575928,-345.794678,0.671480
61.340332,923.217773,-344.787598,0.672224
60.699463,918.182373,-356.506348,0.672969
62.622070,918.731689,-328.948975,0.673722
63.446045,922.851562,-348.815918,0.674467
61.706543,919.647217,-357.238770,0.675211
64.270020,922.119141,-348.815918,0.675955
59.051514,910.949707,-356.872559,0.676708
62.713623,919.647217,-353.668213,0.677453
54.565430,913.055420,-348.083496,0.678197
52.185059,913.970947,-348.815918,0.678942
57.495117,908.935547,-360.351562,0.679716
52.642822,921.752930,-351.379395,0.680469
54.473877,923.950195,-350.555420,0.681256
59.234619,916.442871,-356.872559,0.682003
60.607910,916.809082,-357.330322,0.682767
55.755615,919.281006,-355.316162,0.683512
56.579590,917.358398,-356.872559,0.684256
60.241699,917.083740,-355.224609,0.685001
63.262939,920.745850,-354.766846,0.685754
59.417725,914.062500,-357.238770,0.686499
61.523438,924.224854,-356.048584,0.687243
66.558838,920.654297,-355.773926,0.687987
64.178467,914.154053,-352.752686,0.688740
64.453125,909.576416,-344.970703,0.689485
60.058594,920.654297,-359.344482,0.690229
66.741943,923.309326,-352.752686,0.690973
66.741943,914.337158,-357.147217,0.691726
66.375732,919.464111,-357.238770,0.692471
61.981201,925.048828,-356.231689,0.693214
65.917969,915.435791,-350.463867,0.693958
75.988770,923.309326,-358.612061,0.694711
68.481445,918.731689,-354.492188,0.695456
69.671631,911.956787,-360.809326,0.696201
68.023682,918.273926,-354.675293,0.696946
65.277100,915.252686,-364.379883,0.697702
68.939209,915.710449,-360.260010,0.698447
65.093994,914.520264,-358.612061,0.699191
92.468262,920.928955,-351.562500,0.699935
65.368652,920.288086,-352.844238,0.700688
61.798096,919.921875,-363.555908,0.701433
62.438965,920.379639,-356.140137,0.702178
60.791016,915.802002,-357.879639,0.702922
65.093994,913.787842,-352.386475,0.703686
64.361572,919.830322,-353.210449,0.704430
60.333252,923.767090,-352.386475,0.705174
60.333252,927.429199,-352.111816,0.705918
59.783936,920.928955,-360.443115,0.706671
63.903809,919.006348,-357.879639,0.707416
63.079834,914.337158,-354.492188,0.708160
49.072266,913.604736,-348.632812,0.708904
57.312012,936.584473,-354.492188,0.709657
61.065674,917.449951,-355.865479,0.710401
58.776855,915.252686,-348.632812,0.711146
53.100586,916.351318,-357.147217,0.711890
52.642822,926.239014,-361.175537,0.712644
61.798096,921.112061,-355.590820,0.713388
61.431885,915.710449,-357.238770,0.714176
60.058594,912.322998,-352.020264,0.714921
60.424805,919.830322,-349.822998,0.715676
55.847168,914.154053,-358.703613,0.716420
59.692383,913.879395,-359.802246,0.717165
54.290771,913.970947,-358.612061,0.717909
57.678223,912.322998,-357.513428,0.718662
57.769775,916.717529,-361.907959,0.719643
62.896729,916.168213,-352.752686,0.720393
58.776855,912.231445,-350.372314,0.721142
59.326172,916.442871,-338.562012,0.721889
68.298340,920.928955,-356.506348,0.722634
64.636230,915.344238,-354.400635,0.723380
63.995361,916.717529,-358.245850,0.724136
58.593750,918.457031,-353.210449,0.724885
58.868408,912.597656,-353.759766,0.725629
55.938721,911.682129,-356.323242,0.726374
57.220459,913.696289,-353.118896,0.727121
54.107666,918.457031,-348.449707,0.727866
57.952881,914.978027,-349.822998,0.728611
55.572510,922.119141,-365.020752,0.729355
53.283691,917.907715,-349.365234,0.730099
57.403564,921.478271,-360.717773,0.730843
50.811768,921.386719,-354.949951,0.731676
59.051514,914.886475,-354.309082,0.732421
61.523438,926.239014,-353.485107,0.733167
61.523438,919.555664,-356.781006,0.733911
58.959961,923.675537,-347.808838,0.734655
54.199219,924.316406,-351.379395,0.735399
63.903809,926.696777,-349.639893,0.736144
60.974121,920.654297,-347.991943,0.736889
60.516357,920.562744,-348.175049,0.737633
63.354492,922.210693,-355.590820,0.738378
62.713623,922.393799,-349.548340,0.739122
60.058594,916.900635,-350.280762,0.739867
57.952881,916.351318,-350.921631,0.740610
67.108154,921.386719,-356.323242,0.741354
57.128906,917.175293,-351.837158,0.742111
60.607910,922.943115,-350.555420,0.742856
57.312012,919.647217,-351.745605,0.743600
56.213379,895.294189,-353.027344,0.744345
65.551758,904.357910,-357.513428,0.745089
63.995361,912.780762,-365.386963,0.745833
57.220459,920.104980,-359.069824,0.746578
61.614990,913.146973,-348.175049,0.747322
58.593750,911.590576,-351.654053,0.748067
57.403564,916.351318,-349.914551,0.748811
57.403564,921.203613,-352.294922,0.749555
63.537598,913.146973,-334.167480,0.750299
60.516357,916.625977,-349.456787,0.751052
63.537598,893.280029,-353.210449,0.751798
60.058594,921.478271,-350.463867,0.752543
67.932129,927.795410,-358.520508,0.753299
72.235107,920.104980,-332.061768,0.754049
65.734863,921.661377,-357.696533,0.754861
66.741943,924.865723,-350.463867,0.755607
67.199707,920.196533,-350.189209,0.756351
63.812256,928.802490,-353.668213,0.757096
66.192627,918.273926,-355.224609,0.757840
63.812256,920.471191,-357.238770,0.758584
63.262939,917.724609,-353.210449,0.759329
66.284180,914.062500,-355.682373,0.760073
66.284180,918.548584,-345.520020,0.760828
66.467285,919.189453,-351.196289,0.761574
57.678223,914.062500,-353.851318,0.762318
60.791016,920.837402,-347.991943,0.763062
64.178467,912.963867,-328.857422,0.763816
61.798096,912.963867,-355.682373,0.764561
64.178467,916.351318,-356.231689,0.765296
57.586670,911.315918,-359.069824,0.766030
61.614990,913.604736,-358.978271,0.766787
61.248779,916.717529,-352.478027,0.767532
62.713623,915.069580,-352.935791,0.768276
61.798096,894.287109,-357.147217,0.769021
59.875488,919.281006,-355.316162,0.769769
56.213379,915.710449,-353.485107,0.770503
52.459717,913.787842,-349.639893,0.771237
52.001953,920.471191,-352.661133,0.771971
54.840088,919.738770,-351.470947,0.772732
62.164307,923.400879,-348.999023,0.773477
53.924561,922.302246,-349.456787,0.774221
58.868408,914.794922,-335.449219,0.774965
60.516357,924.224854,-346.343994,0.775719
58.685303,918.457031,-358.795166,0.776464
59.509277,923.309326,-350.646973,0.777209
55.023193,917.358398,-355.407715,0.777952
59.417725,917.724609,-355.682373,0.778714
56.488037,907.470703,-358.154297,0.779459
53.466797,912.231445,-356.414795,0.780204
51.177979,903.167725,-362.548828,0.780948
52.001953,916.625977,-353.302002,0.781597
58.135986,910.308838,-355.133057,0.782342
48.614502,911.315918,-357.147217,0.783086
44.128418,910.949707,-353.118896,0.783830
56.762695,913.330078,-349.090576,0.784583
56.854248,918.273926,-362.182617,0.785328
57.495117,918.182373,-345.886230,0.786072
52.917480,912.139893,-353.668213,0.786816
51.910400,906.829834,-354.125977,0.787619
52.368164,902.709961,-359.527588,0.788364
54.199219,909.393311,-353.393555,0.789108
51.452637,933.013916,-354.034424,0.789852
57.495117,906.646729,-358.703613,0.790607
61.614990,904.357910,-357.604980,0.791351
64.453125,914.886475,-357.696533,0.792095
62.988281,908.843994,-355.773926,0.792840
64.910889,914.978027,-354.858398,0.793594
58.044434,914.703369,-357.055664,0.794338
61.340332,913.330078,-362.548828,0.795083
60.150146,915.710449,-353.027344,0.795886
59.143066,914.611816,-353.302002,0.796640
64.819336,922.576904,-357.055664,0.797383
58.959961,923.400879,-354.675293,0.798170
63.812256,925.323486,-348.449707,0.798913
68.664551,923.858643,-354.766846,0.799665
67.932129,924.133301,-357.238770,0.800409
61.981201,921.569824,-352.478027,0.801151
66.101074,916.259766,-352.661133,0.801894
61.340332,915.893555,-352.661133,0.802646
68.023682,921.203613,-347.167969,0.803389
62.164307,920.562744,-355.041504,0.804132
64.910889,924.224854,-349.822998,0.804956
66.192627,921.752930,-351.470947,0.805710
67.932129,922.393799,-352.661133,0.806453
66.650391,927.520752,-354.858398,0.807196
64.819336,937.316895,-349.639893,0.807938
59.600830,922.668457,-351.928711,0.808690
66.009521,918.273926,-350.372314,0.809433
62.896729,919.738770,-365.295410,0.810175
64.270020,932.098389,-353.210449,0.810917
64.361572,917.266846,-354.675293,0.811669
70.495605,915.252686,-362.457275,0.812412
64.453125,912.139893,-351.196289,0.813155
64.727783,920.196533,-345.245361,0.813898
61.340332,922.760010,-344.146729,0.814650
63.537598,922.851562,-350.463867,0.815393
65.185547,927.703857,-358.795166,0.816136
65.093994,920.562744,-347.351074,0.816878
65.551758,922.119141,-347.351074,0.817631
60.882568,919.006348,-352.020264,0.818373
64.178467,919.372559,-353.210449,0.819116
68.023682,920.104980,-351.837158,0.819859
65.093994,924.957275,-350.006104,0.820620
64.636230,915.527344,-356.689453,0.821363
65.093994,914.337158,-359.985352,0.822106
59.234619,916.992188,-357.147217,0.822849
67.749023,917.633057,-350.372314,0.823598
57.495117,920.654297,-347.442627,0.824341
60.150146,918.457031,-354.217529,0.825084
56.762695,919.464111,-357.513428,0.825836
61.248779,919.921875,-352.661133,0.826607
55.114746,915.161133,-356.689453,0.827397
61.248779,915.161133,-348.907471,0.828146
54.473877,934.204102,-355.407715,0.828889
60.791016,920.013428,-357.971191,0.829651
58.044434,924.499512,-352.752686,0.830395
65.368652,922.027588,-355.499268,0.831137
65.093994,916.168213,-354.217529,0.831880
57.861328,914.611816,-358.703613,0.832632
61.614990,915.069580,-357.147217,0.833375
63.446045,912.414551,-361.083984,0.834117
58.685303,909.942627,-330.505371,0.834860
62.164307,915.161133,-357.330322,0.835612
66.558838,925.506592,-354.309082,0.836355
63.995361,920.288086,-354.492188,0.837097
63.262939,922.027588,-355.316162,0.837840
62.896729,928.710938,-360.351562,0.838591
66.375732,924.316406,-359.436035,0.839334
71.685791,919.372559,-352.569580,0.840077
72.875977,917.358398,-349.090576,0.840820
64.819336,911.956787,-347.259521,0.841572
66.833496,912.963867,-347.625732,0.842317
63.171387,926.513672,-345.336914,0.843061
63.079834,920.196533,-347.625732,0.843804
58.135986,918.365479,-352.844238,0.844557
64.910889,922.851562,-350.646973,0.845300
64.270020,916.900635,-350.463867,0.846043
65.002441,921.478271,-356.597900,0.846785
66.741943,914.520264,-356.781006,0.847537
63.812256,922.668457,-351.379395,0.848280
62.988281,925.872803,-352.935791,0.849023
65.551758,922.210693,-354.858398,0.849765
62.255859,921.020508,-352.386475,0.850527
66.741943,916.076660,-357.330322,0.851270
63.720703,923.675537,-354.400635,0.852012
65.643311,917.907715,-360.992432,0.852754
64.086914,917.999268,-354.583740,0.853506
69.580078,923.126221,-353.576660,0.854250
70.220947,914.978027,-352.935791,0.854993
57.952881,915.618896,-354.766846,0.855736
65.185547,914.154053,-348.632812,0.856487
67.108154,937.316895,-346.801758,0.857230
62.988281,915.618896,-343.780518,0.857973
62.164307,913.604736,-353.759766,0.858715
70.037842,921.752930,-361.267090,0.859458
61.340332,915.710449,-360.534668,0.860201
61.981201,921.569824,-349.456787,0.860944
57.861328,922.576904,-351.562500,0.861741
58.044434,911.224365,-355.407715,0.862495
67.199707,936.767578,-351.013184,0.863238
65.826416,914.428711,-350.372314,0.863980
58.685303,913.696289,-352.844238,0.864723
58.410645,909.851074,-372.436523,0.865476
61.523438,918.640137,-355.407715,0.866219
63.171387,922.576904,-347.900391,0.866962
67.749023,915.985107,-350.830078,0.867704
64.544678,914.428711,-350.921631,0.868457
61.523438,915.893555,-356.872559,0.869192
69.396973,908.203125,-350.463867,0.869927
68.389893,916.900635,-359.252930,0.870661
64.361572,918.640137,-356.414795,0.871404
63.354492,910.675049,-354.125977,0.872147
67.016602,910.125732,-352.661133,0.873123
67.199707,918.182373,-358.245850,0.873873
66.467285,918.548584,-353.210449,0.874631
61.798096,913.879395,-352.935791,0.875375
63.079834,922.943115,-349.365234,0.876117
67.199707,916.351318,-348.266602,0.876860
63.171387,918.365479,-351.013184,0.877705
63.446045,935.394287,-353.027344,0.878450
66.467285,924.499512,-345.611572,0.879193
67.565918,918.365479,-353.027344,0.879936
64.270020,914.886475,-356.323242,0.880689
60.424805,912.872314,-363.464355,0.881432
63.262939,920.104980,-350.738525,0.882175
66.833496,915.435791,-356.597900,0.882917
61.431885,919.921875,-356.689453,0.883669
67.016602,923.400879,-351.928711,0.884412
69.030762,919.830322,-353.302002,0.885155
70.220947,921.020508,-353.942871,0.885898
65.643311,915.435791,-361.450195,0.886650
65.093994,916.259766,-356.414795,0.887393
69.946289,910.949707,-356.140137,0.888136
73.699951,920.745850,-353.576660,0.888878
69.122314,918.823242,-359.436035,0.889630
71.502686,924.591064,-356.872559,0.890373
69.030762,921.569824,-354.675293,0.891116
68.847656,917.541504,-360.260010,0.891859
64.910889,915.618896,-358.886719,0.892610
69.213867,922.302246,-360.626221,0.893354
66.009521,920.837402,-364.196777,0.894097
60.882568,922.851562,-362.274170,0.894840
70.220947,918.457031,-359.802246,0.895601
68.115234,923.034668,-352.844238,0.896344
64.910889,916.534424,-360.168457,0.897087
69.580078,915.710449,-360.717773,0.897830
69.580078,920.196533,-351.837158,0.898591
72.143555,921.844482,-352.020264,0.899348
66.192627,922.302246,-359.069824,0.900097
69.396973,921.661377,-355.407715,0.900885
64.819336,926.605225,-359.802246,0.901656
62.988281,919.830322,-360.168457,0.902400
68.756104,914.886475,-360.717773,0.903143
65.917969,918.640137,-364.929199,0.903886
71.411133,919.097900,-353.302002,0.904638
67.382812,918.731689,-344.421387,0.905381
68.115234,914.520264,-354.400635,0.906123
64.178467,915.618896,-355.865479,0.906866
68.023682,921.661377,-358.886719,0.907619
67.932129,920.288086,-361.816406,0.908362
65.368652,918.914795,-354.766846,0.909105
54.840088,913.238525,-353.302002,0.909848
56.213379,915.710449,-353.942871,0.910600
66.101074,910.583496,-354.766846,0.911343
69.213867,914.520264,-358.978271,0.912085
63.354492,913.330078,-352.569580,0.912828
65.277100,918.548584,-351.837158,0.913580
62.164307,913.879395,-357.421875,0.914323
64.819336,909.027100,-358.703613,0.915067
72.875977,914.337158,-353.393555,0.915810
66.101074,914.428711,-359.161377,0.916564
65.185547,913.238525,-354.675293,0.917307
67.840576,911.499023,-360.443115,0.918049
63.720703,910.217285,-358.612061,0.918792
61.981201,909.210205,-353.118896,0.919545
63.354492,911.865234,-355.316162,0.920288
62.805176,917.541504,-354.858398,0.921031
64.819336,911.132812,-353.668213,0.921774
74.890137,913.055420,-351.287842,0.922536
75.347900,921.386719,-357.238770,0.923279
69.213867,936.676025,-359.436035,0.924022
65.368652,918.640137,-356.048584,0.924765
67.657471,920.104980,-363.281250,0.925517
69.305420,917.083740,-355.407715,0.926260
62.805176,918.640137,-354.766846,0.927003
71.777344,913.330078,-348.449707,0.927746
62.896729,915.802002,-346.984863,0.928498
56.854248,913.604736,-352.386475,0.929241
69.946289,913.330078,-355.682373,0.929984
65.368652,914.154053,-357.421875,0.930726
61.798096,893.646240,-355.499268,0.931478
67.749023,913.604736,-347.351074,0.932237
60.699463,917.633057,-350.097656,0.933031
67.199707,917.083740,-358.154297,0.933773
73.791504,921.020508,-355.133057,0.934525
69.763184,920.928955,-354.858398,0.935269
67.657471,920.928955,-352.294922,0.936012
73.333740,919.189453,-352.020264,0.936755
69.946289,916.992188,-353.759766,0.937508
62.988281,914.794922,-353.942871,0.938251
65.002441,908.020020,-355.133057,0.938994
65.826416,914.978027,-333.618164,0.939736
63.537598,925.689697,-351.928711,0.940488
62.164307,931.274414,-353.393555,0.941231
66.009521,923.492432,-355.773926,0.941974
63.903809,918.548584,-356.872559,0.942716
66.101074,914.337158,-358.154297,0.943468
64.910889,922.943115,-361.358643,0.944211
66.833496,922.668457,-355.590820,0.944954
72.235107,922.576904,-350.646973,0.945697
76.354980,920.104980,-357.238770,0.946438
71.685791,918.548584,-374.908447,0.947178
71.868896,918.457031,-356.323242,0.947919
70.678711,919.006348,-351.196289,0.948659
47.973633,916.992188,-353.302002,0.949492
71.502686,921.295166,-348.999023,0.950426
66.741943,922.943115,-351.745605,0.951270
68.389893,916.259766,-356.140137,0.952015
67.749023,920.471191,-348.541260,0.952758
71.136475,912.322998,-357.147217,0.953500
70.953369,922.302246,-349.822998,0.954243
72.692871,912.231445,-350.280762,0.954986
71.868896,915.527344,-358.978271,0.955730
70.037842,920.928955,-353.485107,0.956473
62.896729,915.161133,-352.752686,0.957215
68.206787,923.950195,-351.654053,0.957958
78.735352,922.302246,-351.287842,0.958701
72.601318,915.435791,-349.456787,0.959444
69.488525,908.752441,-354.949951,0.960186
72.875977,917.449951,-353.302002,0.960929
66.833496,920.104980,-349.822998,0.961671
69.396973,920.196533,-351.745605,0.962414
70.312500,922.027588,-350.830078,0.963157
68.298340,919.006348,-348.358154,0.963914
73.425293,917.358398,-349.273682,0.964659
68.023682,914.520264,-347.991943,0.965401
68.664551,916.717529,-362.365723,0.966140
74.523926,922.576904,-351.654053,0.966877
71.960449,923.217773,-348.358154,0.967620
66.375732,925.689697,-354.858398,0.968362
70.404053,926.696777,-349.914551,0.969105
72.052002,920.196533,-358.337402,0.969851
76.995850,926.971436,-354.400635,0.970600
73.333740,925.964355,-350.097656,0.971347
65.368652,924.682617,-348.541260,0.972097
62.164307,924.774170,-349.822998,0.972860
69.122314,917.449951,-358.795166,0.973635
65.093994,919.189453,-347.808838,0.974378
69.763184,927.429199,-348.266602,0.975120
63.079834,922.119141,-349.639893,0.975863
69.305420,930.541992,-358.154297,0.976615
71.319580,919.372559,-356.323242,0.977358
47.607422,923.950195,-350.280762,0.978102
66.009521,922.210693,-347.259521,0.978845
64.727783,920.654297,-347.808838,0.979597
63.537598,919.097900,-349.731445,0.980340
68.481445,922.668457,-352.386475,0.981082
63.903809,914.794922,-356.506348,0.981824
63.537598,915.527344,-358.795166,0.982576
67.291260,921.020508,-352.294922,0.983319
63.446045,916.442871,-349.365234,0.984062
58.685303,917.724609,-351.379395,0.984804
58.685303,913.055420,-360.443115,0.985557
60.333252,909.851074,-358.703613,0.986300
59.967041,913.513184,-353.576660,0.987043
56.213379,920.928955,-352.294922,0.987786
63.629150,914.154053,-349.731445,0.988539
59.051514,916.168213,-352.935791,0.989283
63.903809,916.992188,-372.985840,0.990026
61.798096,917.266846,-356.964111,0.990769
53.375244,911.132812,-358.245850,0.991523
56.762695,907.104492,-358.154297,0.992266
54.473877,916.534424,-358.062744,0.993009
52.276611,916.625977,-362.823486,0.993751
65.277100,909.759521,-358.062744,0.994513
57.495117,906.372070,-364.837646,0.995256
59.692383,912.048340,-356.231689,0.995999
60.058594,903.076172,-351.928711,0.996741
57.678223,910.766602,-360.992432,0.997494
61.614990,912.322998,-358.703613,0.998237
56.945801,909.484863,-358.428955,0.998979
56.213379,907.745361,-361.267090,0.999722
54.107666,916.442871,-357.513428,1.000474
56.671143,915.344238,-357.147217,1.001216
54.656982,909.393311,-364.105225,1.001959
51.269531,907.379150,-366.851807,1.002702
55.206299,909.393311,-362.731934,1.003454
51.361084,915.985107,-359.344482,1.004197
57.861328,915.344238,-356.781006,1.004941
59.417725,918.365479,-354.583740,1.005807
55.847168,917.724609,-364.288330,1.006559
52.093506,911.224365,-362.548828,1.007302
51.269531,910.675049,-362.274170,1.008044
60.516357,924.316406,-357.055664,1.008787
57.220459,916.717529,-358.978271,1.009541
56.121826,919.464111,-353.485107,1.010285
50.720215,911.132812,-361.633301,1.011027
48.980713,908.203125,-353.759766,1.011770
53.375244,919.372559,-353.942871,1.012524
58.044434,921.936035,-359.527588,1.013267
59.692383,924.133301,-363.739014,1.014009
67.749023,916.351318,-360.626221,1.014752
57.495117,918.090820,-359.985352,1.015505
57.403564,917.816162,-359.344482,1.016248
53.558350,917.816162,-359.069824,1.016990
56.579590,911.865234,-359.436035,1.017732
58.868408,914.886475,-360.717773,1.018484
54.565430,919.921875,-358.795166,1.019227
50.903320,922.943115,-360.168457,1.019970
53.283691,927.703857,-363.647461,1.020712
59.875488,924.774170,-359.436035,1.021464
58.410645,918.731689,-357.513428,1.022207
62.530518,931.732178,-360.260010,1.022950
56.945801,928.070068,-359.893799,1.023820
51.635742,924.133301,-355.133057,1.024575
54.199219,927.429199,-358.337402,1.025318
64.270020,925.781250,-356.231689,1.026165
55.297852,926.879883,-353.393555,1.027130
49.621582,923.767090,-363.647461,1.027880
54.382324,917.633057,-361.724854,1.028780
63.720703,920.288086,-360.076904,1.029530
65.460205,924.224854,-357.513428,1.030323
67.108154,926.422119,-352.661133,1.031069
56.579590,922.851562,-357.788086,1.031814
59.326172,921.936035,-366.943359,1.032558
61.706543,924.041748,-358.337402,1.033316
58.593750,926.879883,-364.013672,1.034061
56.121826,927.429199,-356.414795,1.034805
62.805176,922.851562,-357.696533,1.035549
66.101074,921.661377,-364.929199,1.036302
61.981201,919.097900,-358.154297,1.037046
69.671631,921.661377,-363.464355,1.037790
72.326660,917.999268,-356.689453,1.038534
68.115234,919.647217,-364.837646,1.039287
68.023682,922.851562,-353.027344,1.040032
64.910889,921.203613,-352.386475,1.040776
67.382812,920.288086,-347.625732,1.041520
68.023682,921.020508,-351.104736,1.042273
56.121826,909.576416,-354.309082,1.043018
65.185547,919.647217,-348.907471,1.043762
61.431885,914.428711,-350.921631,1.044506
59.967041,919.097900,-353.942871,1.045276
58.227539,916.809082,-351.837158,1.046028
66.650391,919.372559,-352.020264,1.046803
63.995361,916.442871,-346.618652,1.047551
60.882568,914.886475,-343.688965,1.048316
65.002441,911.682129,-341.217041,1.049061
61.157227,911.041260,-351.287842,1.049804
62.255859,912.689209,-350.189209,1.050548
59.234619,907.196045,-356.414795,1.051301
61.431885,907.653809,-355.590820,1.052045
58.319092,907.653809,-349.273682,1.052789
62.988281,910.583496,-353.576660,1.053533
61.065674,913.238525,-355.041504,1.054287
60.882568,911.407471,-354.583740,1.055032
57.678223,919.189453,-354.583740,1.055776
53.375244,916.625977,-355.682373,1.056520
60.516357,908.111572,-350.006104,1.057163
60.607910,910.766602,-351.562500,1.057907
55.480957,902.069092,-358.337402,1.058650
58.685303,905.456543,-358.612061,1.059394
55.297852,906.646729,-354.492188,1.060146
55.664062,916.168213,-356.231689,1.060891
52.276611,915.985107,-356.689453,1.061636
58.776855,912.048340,-352.294922,1.062381
56.945801,908.203125,-352.569580,1.063141
58.410645,912.048340,-356.048584,1.063885
57.495117,913.696289,-350.097656,1.064629
57.495117,912.689209,-349.456787,1.065373
72.784424,918.090820,-343.688965,1.066126
61.889648,934.661865,-351.745605,1.066871
64.636230,922.027588,-347.991943,1.067615
62.164307,924.865723,-345.336914,1.068359
63.446045,923.675537,-349.914551,1.069121
61.065674,923.309326,-342.681885,1.069866
58.776855,920.196533,-354.034424,1.070610
64.910889,922.210693,-344.970703,1.071354
59.967041,922.119141,-354.400635,1.072108
61.340332,923.858643,-350.921631,1.072851
63.720703,923.492432,-345.703125,1.073595
71.868896,921.295166,-348.083496,1.074339
58.135986,914.978027,-350.555420,1.075092
60.333252,920.471191,-357.147217,1.075836
72.601318,920.196533,-349.090576,1.076580
64.453125,914.703369,-352.569580,1.077324
64.727783,920.654297,-349.456787,1.078078
70.587158,921.752930,-348.266602,1.078822
74.707031,919.647217,-352.111816,1.079566
75.347900,922.943115,-357.604980,1.080310
74.981689,921.112061,-355.865479,1.081063
93.017578,922.302246,-346.801758,1.081821
71.685791,927.795410,-348.266602,1.082600
63.720703,920.196533,-353.851318,1.083345
66.375732,928.527832,-347.442627,1.084099
70.770264,928.894043,-348.724365,1.084843
69.305420,923.217773,-356.140137,1.085587
70.404053,922.119141,-347.442627,1.086331
76.080322,920.471191,-350.280762,1.087084
73.150635,919.189453,-356.964111,1.087828
78.460693,920.196533,-354.766846,1.088572
78.094482,918.823242,-351.837158,1.089316
73.516846,913.421631,-353.393555,1.090033
76.446533,920.471191,-352.569580,1.090777
76.812744,924.224854,-356.048584,1.091521
70.953369,913.146973,-350.830078,1.092265
74.432373,917.266846,-359.985352,1.093018
71.228027,914.337158,-354.492188,1.093762
69.946289,922.943115,-354.675293,1.094507
73.242188,922.943115,-354.766846,1.095251
70.770264,925.140381,-354.766846,1.096005
71.319580,920.013428,-346.435547,1.096749
68.389893,915.069580,-348.999023,1.097579
67.016602,921.386719,-347.534180,1.098324
74.890137,915.618896,-353.485107,1.099079
77.728271,920.562744,-359.802246,1.099824
66.284180,914.794922,-353.118896,1.100568
64.727783,917.266846,-351.562500,1.101312
70.587158,915.161133,-341.400146,1.102066
70.312500,914.978027,-349.090576,1.103008
61.248779,914.703369,-348.815918,1.103841
61.065674,911.315918,-355.590820,1.104606
65.734863,907.653809,-361.816406,1.105500
61.798096,912.139893,-351.470947,1.106248
63.903809,896.118164,-358.154297,1.106993
65.734863,912.780762,-359.161377,1.107759
64.453125,913.513184,-357.330322,1.108505
60.516357,906.738281,-361.816406,1.109250
57.037354,903.900146,-355.224609,1.109995
59.234619,907.379150,-359.893799,1.110755
55.572510,908.477783,-356.872559,1.111500
55.389404,907.287598,-358.062744,1.112244
61.065674,904.541016,-355.865479,1.112989
56.304932,907.104492,-353.118896,1.113733
56.762695,906.921387,-359.161377,1.114477
69.213867,915.802002,-350.280762,1.115221
55.938721,913.238525,-350.463867,1.115965
62.255859,912.597656,-356.781006,1.116719
53.833008,912.963867,-356.597900,1.117472
51.269531,913.330078,-355.773926,1.118222
52.185059,908.294678,-359.252930,1.118986
58.319092,911.682129,-355.316162,1.119736
53.100586,901.062012,-351.837158,1.120480
57.403564,909.027100,-359.710693,1.121224
59.143066,908.935547,-354.400635,1.121968
57.312012,910.583496,-354.492188,1.122712
64.819336,916.351318,-356.048584,1.123456
66.009521,914.428711,-356.414795,1.124200
59.326172,914.703369,-354.949951,1.124944
57.312012,918.457031,-356.964111,1.125690
68.572998,911.865234,-353.210449,1.126435
67.474365,919.738770,-352.020264,1.127179
66.833496,922.668457,-353.576660,1.127923
65.734863,923.492432,-359.985352,1.128675
65.277100,921.752930,-355.224609,1.129418
60.607910,922.119141,-356.414795,1.130161
61.523438,928.985596,-353.118896,1.130903
56.579590,932.830811,-354.766846,1.131647
66.284180,917.907715,-350.372314,1.132389
66.741943,931.091309,-353.302002,1.133132
68.298340,929.077148,-353.118896,1.133874
61.614990,922.760010,-357.238770,1.134618
66.650391,922.393799,-345.520020,1.135362
68.389893,923.126221,-360.534668,1.136105
69.122314,923.767090,-355.224609,1.136847
71.044922,923.950195,-352.020264,1.137590
70.404053,920.654297,-364.562988,1.138333
69.580078,926.239014,-357.421875,1.139076
73.333740,926.422119,-357.971191,1.139819
91.735840,920.562744,-354.675293,1.140570
73.974609,913.879395,-356.140137,1.141313
68.756104,921.295166,-349.822998,1.142056
68.481445,917.266846,-347.442627,1.142799
59.326172,918.182373,-355.865479,1.143550
66.467285,915.435791,-351.928711,1.144294
68.206787,915.618896,-353.942871,1.145036
72.967529,919.647217,-347.625732,1.145779
65.643311,922.302246,-357.147217,1.146521
74.432373,924.957275,-345.153809,1.147125
73.059082,922.119141,-356.414795,1.147868
67.199707,919.006348,-359.069824,1.148623
63.537598,919.555664,-353.668213,1.149366
59.967041,920.654297,-348.266602,1.150119
68.023682,921.295166,-351.562500,1.150862
60.516357,892.364502,-364.562988,1.151605
58.868408,918.640137,-364.746094,1.152415
68.481445,914.428711,-354.675293,1.153168
68.664551,921.203613,-349.365234,1.153912
65.277100,918.731689,-355.682373,1.154655
61.248779,916.534424,-357.696533,1.155398
64.819336,922.210693,-352.386475,1.156150
59.509277,920.928955,-352.478027,1.156893
58.593750,911.132812,-356.597900,1.157631
60.150146,917.816162,-363.281250,1.158365
63.354492,910.400391,-359.710693,1.159120
60.058594,916.900635,-351.837158,1.159864
57.678223,912.872314,-352.478027,1.160607
62.164307,920.013428,-355.407715,1.161349
66.101074,922.576904,-355.041504,1.162101
63.446045,917.816162,-363.647461,1.162847
58.593750,914.428711,-361.083984,1.163590
59.143066,913.970947,-363.830566,1.164334
54.107666,913.055420,-359.436035,1.164985
60.424805,916.259766,-351.379395,1.165728
64.910889,912.689209,-353.851318,1.166471
56.121826,912.689209,-353.118896,1.167214
57.037354,920.471191,-359.252930,1.167966
64.544678,914.978027,-359.893799,1.168710
56.213379,918.457031,-352.661133,1.169453
56.854248,922.760010,-360.168457,1.170280
62.713623,919.921875,-353.210449,1.171035
62.713623,912.689209,-353.576660,1.171778
58.959961,914.703369,-354.675293,1.172521
61.523438,918.914795,-351.470947,1.173264
59.875488,914.886475,-361.450195,1.174025
63.720703,924.133301,-357.788086,1.174768
62.255859,916.900635,-355.407715,1.175511
60.791016,918.640137,-356.506348,1.176254
61.798096,922.668457,-350.372314,1.177006
62.805176,926.147461,-351.379395,1.177750
56.671143,925.415039,-360.717773,1.178492
57.312012,921.752930,-349.365234,1.179395
60.424805,924.041748,-361.450195,1.180319
59.967041,923.950195,-361.633301,1.181064
63.995361,916.442871,-358.795166,1.181809
63.079834,919.921875,-356.231689,1.182552
63.629150,918.823242,-358.886719,1.183296
60.150146,925.598145,-349.639893,1.184039
64.178467,930.725098,-358.886719,1.184782
54.840088,920.196533,-354.492188,1.185525
58.776855,926.879883,-353.668213,1.186269
63.995361,927.886963,-360.443115,1.187011
67.565918,920.471191,-358.245850,1.187754
60.058594,921.569824,-349.548340,1.188497
64.544678,914.794922,-350.372314,1.189240
67.016602,920.745850,-347.991943,1.189983
67.749023,915.435791,-347.442627,1.190727
61.065674,919.006348,-346.435547,1.191489
60.791016,919.281006,-346.710205,1.192236
64.270020,924.591064,-350.097656,1.193009
58.959961,919.738770,-361.541748,1.193754
65.277100,920.013428,-355.682373,1.194498
71.228027,919.006348,-358.886719,1.195241
66.009521,917.907715,-356.506348,1.195984
64.086914,914.428711,-357.421875,1.196727
63.995361,915.802002,-348.541260,1.197470
66.467285,923.675537,-355.957031,1.198213
71.228027,918.914795,-355.407715,1.198956
71.228027,913.970947,-347.900391,1.199698
64.544678,920.745850,-353.118896,1.200441
66.741943,915.069580,-348.358154,1.201185
72.418213,917.999268,-356.781006,1.201928
68.023682,924.224854,-348.815918,1.202670
71.319580,917.816162,-350.372314,1.203412
70.404053,919.647217,-351.928711,1.204156
67.016602,919.097900,-348.266602,1.204899
68.389893,922.302246,-347.351074,1.205642
57.952881,909.393311,-355.590820,1.206395
67.565918,921.752930,-344.696045,1.207138
68.206787,916.076660,-343.322754,1.207884
70.129395,922.393799,-349.548340,1.208626
69.763184,907.196045,-333.984375,1.209369
65.734863,923.492432,-355.773926,1.210112
68.847656,922.943115,-351.928711,1.210854
62.622070,920.837402,-346.801758,1.211597
72.967529,912.597656,-348.358154,1.212339
73.059082,910.583496,-357.879639,1.213093
63.537598,911.041260,-347.351074,1.213836
63.720703,919.097900,-350.830078,1.214578
63.720703,921.203613,-352.111816,1.215321
65.002441,918.365479,-359.344482,1.216082
66.925049,913.330078,-359.161377,1.216825
68.939209,914.428711,-355.407715,1.217568
65.643311,916.076660,-353.942871,1.218310
69.213867,917.999268,-354.492188,1.219062
62.805176,911.682129,-354.858398,1.219805
61.706543,920.745850,-358.428955,1.220548
61.065674,917.449951,-357.238770,1.221290
64.544678,912.048340,-349.456787,1.222042
62.530518,916.534424,-351.654053,1.222785
61.248779,907.562256,-345.977783,1.223527
60.241699,910.766602,-348.449707,1.224270
55.023193,906.555176,-349.456787,1.224904
59.783936,907.287598,-351.837158,1.225647
59.326172,914.154053,-348.907471,1.226389
69.854736,911.682129,-354.125977,1.227132
64.361572,911.865234,-359.985352,1.227947
61.523438,907.928467,-353.851318,1.228690
62.713623,908.203125,-357.604980,1.229433
62.713623,912.048340,-354.766846,1.230175
55.572510,904.998779,-355.865479,1.230927
59.417725,936.950684,-352.935791,1.231671
65.185547,917.175293,-349.548340,1.232418
61.889648,914.611816,-348.449707,1.233161
65.826416,919.189453,-354.492188,1.233913
64.086914,926.513672,-348.083496,1.234656
63.446045,916.259766,-357.879639,1.235398
70.678711,917.449951,-351.196289,1.236141
68.939209,917.907715,-352.386475,1.236892
62.805176,919.464111,-352.752686,1.237635
58.502197,912.780762,-353.485107,1.238377
65.826416,937.408447,-357.055664,1.239119
60.791016,920.196533,-353.668213,1.239871
60.607910,917.266846,-360.443115,1.240614
62.805176,923.400879,-355.590820,1.241356
60.150146,926.422119,-352.386475,1.242099
60.699463,921.936035,-356.597900,1.242851
64.910889,913.513184,-357.604980,1.243676
61.157227,919.281006,-351.013184,1.244419
68.939209,919.555664,-356.872559,1.245161
63.995361,922.668457,-362.731934,1.245916
65.277100,918.914795,-354.583740,1.246659
64.819336,915.985107,-360.900879,1.247402
63.720703,916.992188,-361.999512,1.248145
65.826416,925.598145,-359.344482,1.248904
61.523438,922.393799,-353.027344,1.249647
67.932129,925.781250,-361.633301,1.250389
67.932129,914.245605,-355.224609,1.251132
68.939209,923.583984,-354.675293,1.251884
67.657471,919.097900,-357.055664,1.252627
62.713623,920.837402,-354.583740,1.253370
61.340332,923.034668,-349.273682,1.254112
69.213867,924.316406,-359.436035,1.254864
64.636230,917.724609,-358.703613,1.255648
70.587158,920.196533,-346.160889,1.256621
66.650391,922.027588,-350.189209,1.257463
68.847656,919.647217,-349.639893,1.258227
79.101562,925.781250,-354.309082,1.258992
67.657471,922.210693,-359.344482,1.259753
70.678711,924.682617,-357.330322,1.260515
67.840576,922.576904,-358.886719,1.261277
65.917969,921.752930,-356.323242,1.262043
65.368652,926.239014,-357.330322,1.262808
61.523438,923.309326,-357.604980,1.263599
59.417725,923.217773,-363.830566,1.264402
58.227539,921.386719,-360.076904,1.265169
58.685303,921.752930,-358.245850,1.265951
56.488037,918.914795,-356.964111,1.266656
62.988281,919.555664,-349.548340,1.267400
59.417725,920.288086,-353.302002,1.268143
60.333252,916.717529,-351.745605,1.268886
62.896729,919.006348,-357.238770,1.269641
60.150146,909.759521,-355.499268,1.270384
61.065674,919.738770,-355.773926,1.271126
58.593750,917.358398,-372.711182,1.271869
60.607910,907.836914,-356.597900,1.272623
66.192627,913.238525,-360.717773,1.273365
66.009521,920.928955,-354.949951,1.274108
57.128906,915.527344,-350.372314,1.274851
56.671143,920.379639,-353.759766,1.275605
56.488037,917.816162,-353.027344,1.276348
50.994873,913.879395,-352.661133,1.277090
57.769775,919.647217,-357.788086,1.277833
59.143066,915.252686,-352.935791,1.278590
55.847168,906.097412,-374.725342,1.279334
54.473877,907.379150,-352.020264,1.280078
56.304932,913.513184,-361.267090,1.280826
59.326172,911.499023,-349.914551,1.281608
60.882568,911.224365,-348.083496,1.282361
62.805176,893.371582,-355.041504,1.283104
59.234619,916.168213,-351.837158,1.283865
61.798096,911.499023,-353.210449,1.284638
59.967041,914.978027,-355.041504,1.285382
61.523438,916.259766,-350.555420,1.286125
58.776855,908.843994,-357.879639,1.286870
53.833008,908.203125,-361.358643,1.287633
65.185547,915.985107,-347.076416,1.288376
61.798096,918.731689,-354.400635,1.289120
56.121826,921.661377,-354.400635,1.289863
65.460205,914.794922,-347.991943,1.290616
59.692383,916.076660,-354.125977,1.291360
63.262939,922.393799,-356.506348,1.292104
65.368652,918.640137,-357.513428,1.292848
66.101074,919.372559,-356.140137,1.293601
59.143066,907.196045,-360.992432,1.294345
59.875488,920.562744,-356.414795,1.295089
58.502197,915.344238,-362.182617,1.295833
61.065674,918.640137,-361.358643,1.296589
55.206299,920.654297,-361.999512,1.297333
55.023193,919.006348,-351.470947,1.298077
62.622070,920.745850,-355.224609,1.298821
67.565918,920.654297,-360.534668,1.299637
60.791016,919.097900,-352.752686,1.300381
63.171387,919.921875,-363.189697,1.301125
67.382812,925.689697,-356.872559,1.301869
65.643311,917.266846,-359.436035,1.302623
61.248779,918.548584,-355.590820,1.303367
62.438965,923.858643,-357.055664,1.304111
60.791016,917.999268,-362.091064,1.304855
64.727783,919.281006,-364.471436,1.305608
62.805176,921.936035,-358.154297,1.306351
69.671631,917.816162,-357.147217,1.307095
61.065674,917.633057,-358.154297,1.307839
71.319580,917.999268,-359.710693,1.308591
62.530518,916.900635,-355.133057,1.309336
63.903809,914.245605,-352.386475,1.310079
69.030762,918.914795,-350.097656,1.310823
67.291260,920.745850,-353.942871,1.311577
58.776855,920.471191,-358.154297,1.312321
60.516357,917.266846,-361.450195,1.313064
65.917969,919.372559,-354.309082,1.313808
57.769775,920.196533,-351.379395,1.314562
66.741943,921.295166,-350.830078,1.315305
63.354492,916.076660,-353.576660,1.316049
63.629150,909.851074,-360.260010,1.316870
65.277100,908.660889,-360.626221,1.317626
65.826416,912.139893,-344.055176,1.318370
62.805176,915.435791,-343.322754,1.319114
59.143066,915.252686,-355.590820,1.319857
57.769775,911.132812,-357.788086,1.320619
55.114746,905.181885,-352.203369,1.321364
55.389404,904.266357,-359.893799,1.322108
52.459717,908.020020,-357.421875,1.322852
63.171387,909.393311,-363.464355,1.323605
59.509277,913.146973,-365.753174,1.324349
55.755615,909.393311,-353.576660,1.325093
53.924561,910.675049,-356.597900,1.325837
55.114746,908.294678,-363.739014,1.326589
53.192139,907.745361,-357.238770,1.327333
55.755615,915.069580,-349.090576,1.328077
57.220459,916.168213,-350.738525,1.328821
55.664062,921.203613,-354.858398,1.329565
59.326172,920.288086,-353.485107,1.330309
57.312012,912.322998,-353.393555,1.331052
46.875000,913.238525,-362.182617,1.331796
49.163818,915.252686,-357.879639,1.332540
52.551270,921.203613,-351.013184,1.333346
55.023193,919.647217,-351.104736,1.334093
58.135986,920.288086,-352.478027,1.334837
60.241699,922.393799,-354.766846,1.335762
55.847168,915.802002,-352.386475,1.336630
55.847168,918.273926,-346.252441,1.337395
65.277100,917.266846,-347.167969,1.338162
65.826416,915.802002,-352.844238,1.339003
61.706543,912.414551,-353.118896,1.339757
59.417725,915.252686,-349.731445,1.340500
54.840088,915.527344,-331.237793,1.341269
60.516357,915.893555,-353.118896,1.342013
60.974121,921.112061,-350.921631,1.342757
65.917969,923.034668,-346.160889,1.343500
69.763184,917.083740,-356.414795,1.344245
71.777344,922.027588,-351.379395,1.344988
72.692871,919.921875,-348.083496,1.345732
74.066162,920.928955,-352.111816,1.346475
74.432373,926.330566,-352.203369,1.347220
77.087402,919.830322,-347.259521,1.347964
76.446533,926.971436,-343.139648,1.348708
70.770264,932.739258,-343.597412,1.349451
78.552246,927.520752,-342.407227,1.350201
68.756104,920.745850,-338.562012,1.350946
66.101074,923.950195,-341.857910,1.351690
78.002930,933.197021,-368.957520,1.352434
78.643799,927.520752,-351.654053,1.353180
72.143555,930.450439,-346.160889,1.353925
74.249268,926.239014,-347.900391,1.354670
78.552246,924.957275,-348.632812,1.355414
76.538086,926.879883,-344.696045,1.356158
73.974609,920.013428,-348.449707,1.356902
75.256348,918.548584,-350.189209,1.357645
68.389893,928.619385,-348.083496,1.358388
70.220947,933.013916,-344.329834,1.359142
72.692871,925.323486,-366.577148,1.359886
73.699951,928.985596,-350.280762,1.360630
71.594238,931.091309,-351.196289,1.361373
74.157715,928.436279,-350.189209,1.362117
76.995850,924.224854,-347.167969,1.362873
77.728271,926.147461,-371.978760,1.363617
72.875977,925.231934,-349.365234,1.364361
76.629639,927.978516,-345.794678,1.365105
63.812256,922.027588,-346.160889,1.365858
77.362061,932.281494,-340.576172,1.366602
75.347900,932.922363,-351.287842,1.367346
73.242188,926.696777,-345.062256,1.368090
64.361572,925.048828,-329.589844,1.368695
68.298340,933.746338,-360.351562,1.369439
73.333740,926.330566,-355.224609,1.370182
76.354980,919.097900,-358.245850,1.370926
87.707520,921.203613,-360.992432,1.371679
91.278076,918.548584,-359.527588,1.372423
83.038330,910.034180,-359.436035,1.373167
77.178955,913.421631,-353.302002,1.373974
74.432373,909.576416,-352.844238,1.374728
67.749023,912.322998,-351.470947,1.375472
63.354492,917.083740,-353.485107,1.376215
59.509277,922.668457,-350.280762,1.376959
55.297852,927.337646,-342.590332,1.377712
54.931641,922.760010,-341.583252,1.378456
60.607910,919.189453,-339.660645,1.379200
59.051514,922.210693,-339.385986,1.379943
47.698975,920.013428,-343.963623,1.380696
58.319092,915.069580,-341.033936,1.381441
56.121826,925.323486,-350.280762,1.382184
51.086426,921.661377,-347.717285,1.382928
52.276611,913.604736,-352.111816,1.383681
52.185059,914.886475,-352.478027,1.384424
53.466797,917.724609,-354.583740,1.385168
54.840088,918.914795,-348.449707,1.385911
54.107666,920.379639,-353.485107,1.386664
60.607910,920.104980,-355.682373,1.387408
61.798096,923.309326,-353.118896,1.388151
55.480957,922.851562,-346.343994,1.388895
47.698975,917.633057,-340.850830,1.389648
58.135986,924.499512,-339.202881,1.390474
58.227539,924.774170,-344.970703,1.391217
62.438965,927.703857,-347.259521,1.391961
61.065674,924.865723,-347.259521,1.392715
60.516357,927.062988,-343.048096,1.393460
53.100586,922.027588,-347.351074,1.394204
56.213379,919.921875,-349.914551,1.394948
49.346924,917.724609,-344.238281,1.395710
55.847168,933.929443,-341.125488,1.396454
52.825928,934.661865,-344.604492,1.397198
50.628662,930.816650,-348.999023,1.397941
57.037354,932.189941,-352.844238,1.398694
54.656982,928.161621,-352.111816,1.399439
53.009033,928.985596,-351.562500,1.400182
55.206299,934.753418,-344.421387,1.400926
57.403564,926.605225,-374.908447,1.401679
60.516357,929.809570,-353.302002,1.402423
58.685303,951.141357,-350.097656,1.403166
56.945801,935.119629,-355.316162,1.403910
62.805176,940.155029,-347.991943,1.404663
65.917969,938.415527,-345.062256,1.405407
62.255859,932.189941,-352.111816,1.406151
58.685303,960.845947,-342.132568,1.406894
56.304932,941.528320,-344.238281,1.407648
57.220459,954.528809,-344.879150,1.408392
54.199219,946.655273,-335.083008,1.409160
45.959473,959.289551,-328.582764,1.410167
48.156738,964.691162,-329.772949,1.410939
50.720215,960.388184,-351.104736,1.411706
44.311523,953.430176,-344.604492,1.412503
49.713135,952.239990,-351.837158,1.413303
55.847168,957.000732,-360.534668,1.414072
56.854248,954.803467,-360.626221,1.414883
63.537598,954.711914,-369.140625,1.415654
61.157227,953.613281,-375.183105,1.416446
65.826416,948.944092,-378.570557,1.417200
91.003418,954.711914,-375.732422,1.417951
68.847656,958.007812,-384.613037,1.418705
69.030762,957.000732,-380.218506,1.419509
79.193115,964.141846,-377.014160,1.420267
75.439453,960.296631,-374.267578,1.421013
69.030762,966.247559,-379.119873,1.421757
66.101074,976.318359,-372.802734,1.422523
60.333252,972.015381,-365.112305,1.423267
63.995361,970.275879,-361.633301,1.424011
59.234619,981.994629,-348.175049,1.424755
54.107666,985.473633,-349.548340,1.425508
57.128906,988.037109,-357.513428,1.426252
50.537109,985.931396,-355.499268,1.426996
50.720215,988.952637,-352.569580,1.427742
50.994873,987.213135,-356.964111,1.428499
56.945801,981.262207,-356.964111,1.429243
53.558350,987.030029,-347.076416,1.429986
50.628662,991.424561,-349.914551,1.430729
48.156738,989.685059,-354.949951,1.431482
45.867920,985.748291,-356.781006,1.432226
52.001953,992.156982,-353.027344,1.432969
52.917480,980.712891,-364.105225,1.433713
55.206299,980.163574,-367.126465,1.434478
58.502197,986.114502,-364.562988,1.435222
54.016113,980.712891,-369.873047,1.435965
54.931641,987.670898,-377.380371,1.436709
57.586670,983.367920,-378.295898,1.437461
66.741943,979.888916,-375.091553,1.438205
57.495117,983.276367,-373.443604,1.438949
59.600830,986.480713,-381.042480,1.439692
64.910889,988.586426,-377.014160,1.440446
59.234619,984.649658,-370.056152,1.441190
60.791016,981.353760,-375.549316,1.441933
62.988281,994.262695,-373.260498,1.442677
69.946289,988.311768,-369.873047,1.443429
67.749023,989.776611,-372.344971,1.444173
67.932129,995.452881,-363.739014,1.444916
72.601318,992.340088,-362.915039,1.445660
71.411133,990.600586,-357.238770,1.446414
75.439453,996.002197,-360.717773,1.447158
76.446533,997.192383,-352.294922,1.447902
72.418213,1003.326416,-356.140137,1.448646
79.284668,998.382568,-362.640381,1.449397
70.587158,998.107910,-365.478516,1.450206
78.369141,1002.319336,-357.604980,1.450951
74.615479,1005.615234,-361.541748,1.451685
81.481934,1000.213623,-362.731934,1.452443
83.221436,994.995117,-367.309570,1.453187
78.277588,1001.312256,-367.492676,1.453930
82.946777,1001.770020,-365.753174,1.454674
84.594727,996.276855,-364.929199,1.455427
83.679199,1003.234863,-366.943359,1.456172
78.277588,1005.157471,-363.281250,1.456916
88.073730,1006.622314,-361.267090,1.457660
88.348389,998.840332,-362.915039,1.458412
86.425781,1001.403809,-361.999512,1.459156
79.925537,1000.946045,-358.245850,1.459900
114.898682,1003.784180,-358.337402,1.460643
92.010498,1002.593994,-356.689453,1.461396
88.623047,1002.319336,-360.443115,1.462140
88.623047,1006.805420,-359.802246,1.462884
86.975098,1003.875732,-359.893799,1.463710
83.221436,1003.326416,-351.287842,1.464465
81.298828,996.459961,-351.837158,1.465209
95.581055,990.325928,-359.161377,1.465952
91.186523,1000.579834,-360.443115,1.466696
86.608887,1000.671387,-357.147217,1.467449
90.270996,998.657227,-363.098145,1.468193
96.862793,992.706299,-362.731934,1.468936
87.249756,986.755371,-363.830566,1.469678
73.059082,983.825684,-368.774414,1.470432
87.524414,973.571777,-372.161865,1.471652
89.630127,981.811523,-367.675781,1.473160
80.932617,975.585938,-378.662109,1.474650
87.524414,963.684082,-373.352051,1.476138
84.503174,971.649170,-367.034912,1.477646
84.869385,964.324951,-371.246338,1.479135
81.115723,969.360352,-372.985840,1.480405
85.327148,966.888428,-370.880127,1.481893
77.728271,962.310791,-372.070312,1.483398
74.798584,966.430664,-366.577148,1.484921
72.692871,964.233398,-367.309570,1.486464
77.453613,971.557617,-368.682861,1.488231
47.973633,967.163086,-371.520996,1.489799
75.439453,966.339111,-375.732422,1.491315
68.481445,966.156006,-356.048584,1.492803
74.249268,964.233398,-373.992920,1.494291
63.171387,971.466064,-368.041992,1.495794
66.558838,974.670410,-377.838135,1.497282
67.382812,979.156494,-373.535156,1.498790
60.424805,981.719971,-375.274658,1.500278
57.586670,983.367920,-369.232178,1.501789
53.100586,980.072021,-366.943359,1.503279
49.896240,989.410400,-362.091064,1.504788
49.255371,1006.896973,-363.006592,1.506277
52.001953,984.191895,-364.654541,1.507783
52.093506,987.487793,-366.027832,1.509271
52.185059,987.213135,-369.873047,1.510778
53.009033,985.473633,-371.246338,1.512266
54.656982,985.565186,-369.689941,1.513786
50.445557,983.734131,-366.394043,1.515275
56.579590,963.409424,-373.535156,1.516782
57.312012,984.191895,-365.753174,1.518270
57.037354,981.170654,-364.654541,1.519776
54.199219,976.409912,-366.394043,1.521265
59.967041,973.663330,-357.421875,1.522772
58.319092,970.733643,-365.295410,1.524260
57.678223,972.656250,-360.717773,1.525767
61.798096,968.994141,-363.281250,1.527321
67.291260,954.620361,-364.196777,1.528830
68.664551,962.127686,-373.260498,1.530318
66.833496,958.190918,-367.309570,1.531791
71.594238,949.768066,-367.767334,1.533278
70.312500,949.310303,-371.337891,1.534786
76.080322,945.190430,-364.288330,1.536274
71.228027,944.732666,-361.083984,1.537748
48.797607,939.239502,-357.788086,1.539217
75.805664,946.197510,-367.767334,1.540694
70.312500,939.788818,-360.992432,1.542182
74.340820,947.204590,-367.584229,1.543671
70.129395,952.514648,-361.083984,1.545158
70.587158,944.915771,-355.957031,1.546643
83.129883,945.281982,-355.316162,1.548132
82.489014,952.331543,-350.280762,1.549079
78.826904,949.859619,-351.287842,1.549825
87.432861,955.902100,-348.175049,1.550569
77.728271,954.620361,-352.569580,1.551313
75.164795,942.993164,-331.420898,1.552056
70.953369,953.796387,-350.830078,1.552801
69.946289,950.042725,-352.294922,1.553545
78.002930,946.563721,-353.759766,1.554288
77.819824,949.401855,-349.273682,1.555031
75.164795,948.028564,-330.688477,1.555776
75.805664,948.028564,-347.900391,1.556519
80.932617,955.810547,-353.576660,1.557263
89.172363,955.902100,-359.893799,1.558007
88.439941,959.381104,-345.886230,1.558765
88.348389,963.043213,-346.527100,1.559524
82.946777,952.423096,-345.611572,1.560273
82.122803,951.049805,-347.534180,1.561061
89.263916,954.071045,-346.160889,1.561813
89.172363,953.338623,-343.231201,1.562557
85.601807,952.880859,-348.632812,1.563301
92.102051,959.197998,-340.484619,1.564045
88.531494,955.810547,-342.864990,1.564799
85.876465,959.747314,-338.745117,1.565611
86.608887,959.381104,-338.836670,1.566414
83.129883,952.606201,-340.759277,1.567276
87.982178,958.190918,-344.146729,1.568041
85.784912,951.324463,-341.125488,1.568786
93.200684,948.852539,-344.146729,1.569529
87.890625,943.359375,-344.055176,1.570273
87.249756,952.697754,-345.794678,1.571028
90.179443,961.761475,-344.696045,1.571772
87.799072,951.416016,-347.808838,1.572516
88.165283,961.578369,-348.175049,1.573259
85.052490,952.148438,-338.836670,1.574012
85.784912,957.641602,-339.019775,1.574757
93.292236,955.902100,-338.836670,1.575585
89.904785,945.831299,-342.864990,1.576330
94.848633,948.211670,-347.717285,1.577084
98.144531,951.507568,-336.639404,1.577828
90.545654,949.401855,-342.041016,1.578572
92.559814,949.127197,-339.477539,1.579316
90.637207,951.690674,-334.991455,1.580069
89.080811,942.169189,-345.611572,1.580813
76.721191,946.197510,-344.238281,1.581557
79.742432,946.655273,-341.766357,1.582301
85.876465,951.141357,-338.470459,1.583054
86.700439,940.612793,-338.928223,1.583798
92.010498,945.190430,-347.076416,1.584541
89.172363,931.549072,-348.541260,1.585285
91.644287,936.126709,-345.245361,1.586038
82.214355,936.309814,-344.421387,1.586782
85.693359,940.979004,-339.569092,1.587526
92.285156,959.930420,-336.456299,1.588269
81.481934,938.964844,-339.294434,1.589030
77.453613,936.035156,-342.864990,1.589774
86.059570,942.810059,-338.745117,1.590518
83.221436,938.598633,-338.470459,1.591261
82.031250,941.345215,-338.562012,1.592014
77.270508,933.471680,-341.583252,1.592758
76.538086,933.197021,-333.160400,1.593502
75.988770,937.957764,-335.632324,1.594245
64.361572,935.577393,-333.343506,1.594998
78.002930,945.739746,-340.118408,1.595742
73.516846,940.887451,-337.463379,1.596485
69.580078,945.098877,-335.266113,1.597228
74.523926,939.971924,-334.533691,1.597981
70.587158,946.197510,-326.477051,1.598725
69.854736,930.999756,-336.090088,1.599468
70.953369,939.697266,-335.083008,1.600212
74.890137,940.521240,-334.167480,1.600965
67.382812,934.295654,-332.977295,1.601708
69.213867,931.823730,-338.470459,1.602452
67.749023,915.527344,-333.892822,1.603195
73.059082,929.809570,-332.977295,1.604003
70.953369,941.711426,-332.519531,1.604748
51.269531,932.922363,-337.005615,1.605492
70.770264,931.457520,-333.526611,1.606236
67.108154,947.570801,-326.110840,1.606989
69.580078,938.415527,-329.223633,1.607733
74.066162,941.436768,-332.427979,1.608476
74.523926,938.507080,-335.083008,1.609220
73.883057,942.169189,-331.420898,1.609973
76.721191,938.690186,-336.547852,1.610717
71.502686,937.774658,-331.604004,1.611460
68.023682,935.760498,-341.491699,1.612204
72.143555,941.253662,-341.125488,1.612958
69.671631,948.760986,-343.231201,1.613703
67.749023,947.113037,-331.146240,1.614447
66.009521,938.873291,-336.547852,1.615190
77.636719,944.091797,-335.083008,1.615944
71.411133,941.986084,-330.139160,1.616688
78.186035,935.668945,-335.449219,1.617431
79.010010,943.634033,-334.991455,1.618175
74.707031,940.155029,-340.209961,1.618928
65.368652,945.465088,-326.843262,1.619672
69.396973,939.880371,-340.576172,1.620416
73.699951,939.147949,-337.097168,1.621160
71.228027,938.598633,-330.230713,1.621913
68.206787,940.429688,-331.146240,1.622657
69.671631,940.155029,-337.646484,1.623400
74.981689,937.957764,-336.914062,1.624144
75.164795,941.894531,-334.991455,1.624897
78.186035,944.274902,-322.998047,1.625641
78.369141,939.056396,-333.801270,1.626385
71.868896,937.408447,-333.801270,1.627129
76.812744,940.979004,-331.329346,1.627890
78.826904,941.619873,-310.455322,1.628635
64.819336,938.323975,-330.963135,1.629379
75.714111,936.218262,-325.378418,1.630123
74.798584,937.408447,-324.554443,1.630867
74.981689,941.986084,-325.836182,1.631611
72.509766,939.605713,-326.202393,1.632355
74.707031,928.802490,-329.040527,1.633099
75.439453,932.647705,-326.202393,1.633843
75.439453,934.936523,-332.061768,1.634587
79.284668,928.436279,-330.413818,1.635331
72.692871,932.281494,-315.765381,1.636074
74.707031,932.189941,-326.934814,1.636824
71.044922,931.274414,-332.244873,1.637569
72.326660,926.971436,-334.533691,1.638312
77.453613,929.351807,-327.117920,1.639055
69.122314,933.288574,-330.688477,1.639800
76.721191,929.992676,-336.273193,1.640544
78.369141,929.626465,-330.505371,1.641310
73.333740,927.886963,-328.765869,1.642187
72.601318,934.387207,-328.765869,1.642945
72.692871,936.492920,-331.237793,1.643690
76.538086,931.640625,-327.117920,1.644434
75.073242,929.809570,-324.737549,1.645178
71.868896,930.175781,-328.674316,1.645938
71.502686,935.760498,-331.420898,1.646684
59.600830,933.380127,-327.941895,1.647428
48.889160,931.457520,-322.174072,1.648172
71.502686,931.823730,-321.441650,1.649014
75.347900,935.577393,-322.448730,1.649758
74.707031,930.816650,-320.434570,1.650502
65.734863,925.598145,-322.906494,1.651246
63.629150,927.520752,-321.990967,1.651998
64.910889,934.204102,-320.709229,1.652742
64.270020,928.619385,-328.582764,1.653486
73.059082,926.605225,-329.315186,1.654230
80.841064,920.104980,-326.751709,1.654983
68.206787,920.379639,-318.420410,1.655727
72.326660,922.576904,-330.505371,1.656470
68.939209,923.126221,-320.526123,1.657214
71.594238,925.415039,-321.350098,1.657966
67.657471,924.407959,-320.617676,1.658711
75.164795,922.576904,-321.441650,1.659454
77.362061,926.330566,-330.688477,1.660198
69.213867,917.907715,-326.660156,1.660950
72.326660,920.379639,-320.709229,1.661695
66.925049,914.886475,-329.040527,1.662438
76.263428,923.034668,-322.723389,1.663182
77.819824,891.357422,-314.758301,1.663945
74.707031,913.513184,-321.624756,1.664689
75.622559,915.985107,-314.666748,1.665432
79.559326,912.597656,-319.427490,1.666176
83.129883,914.978027,-313.201904,1.666929
80.200195,923.492432,-311.645508,1.667672
75.988770,923.767090,-314.575195,1.668416
78.643799,920.562744,-312.377930,1.669160
85.968018,918.731689,-316.314697,1.669936
80.841064,920.379639,-316.314697,1.670687
81.848145,914.520264,-314.208984,1.671475
83.404541,918.640137,-313.659668,1.672223
88.623047,912.506104,-317.321777,1.672987
83.404541,891.357422,-318.603516,1.673732
81.848145,917.083740,-324.188232,1.674475
87.615967,915.344238,-320.068359,1.675219
85.968018,911.041260,-315.856934,1.675972
87.249756,914.154053,-309.814453,1.676716
91.186523,910.125732,-323.822021,1.677460
85.418701,915.893555,-319.427490,1.678203
89.172363,916.809082,-317.413330,1.678956
88.897705,920.379639,-317.962646,1.679700
84.228516,919.830322,-314.849854,1.680444
86.608887,915.893555,-310.455322,1.681188
95.947266,915.527344,-307.983398,1.681941
91.644287,912.322998,-311.462402,1.682685
92.376709,914.611816,-302.581787,1.683429
86.425781,911.956787,-311.370850,1.684172
89.080811,920.379639,-309.631348,1.684916
85.052490,917.724609,-308.715820,1.685660
97.137451,919.738770,-299.560547,1.686405
95.947266,922.210693,-305.603027,1.687149
100.158691,922.302246,-306.060791,1.687904
90.454102,918.548584,-307.800293,1.688648
97.961426,916.076660,-305.419922,1.689392
96.954346,914.611816,-306.976318,1.690135
91.552734,910.308838,-311.370850,1.690880
93.475342,908.386230,-312.561035,1.691615
92.834473,914.794922,-310.363770,1.692349
95.581055,907.653809,-311.279297,1.693084
103.820801,915.161133,-308.441162,1.693837
102.447510,912.780762,-312.103271,1.694581
98.602295,908.752441,-315.307617,1.695325
98.693848,908.294678,-307.159424,1.696069
98.602295,905.181885,-308.166504,1.696813
100.891113,904.724121,-310.729980,1.697556
106.567383,903.900146,-306.060791,1.698299
105.194092,907.012939,-311.279297,1.699043
102.905273,905.731201,-314.575195,1.699787
102.264404,905.731201,-312.194824,1.700531
94.573975,908.294678,-303.955078,1.701274
104.095459,910.491943,-309.997559,1.702018
103.546143,908.569336,-307.708740,1.702761
98.693848,900.878906,-309.814453,1.703505
103.363037,908.294678,-306.243896,1.704248
97.869873,897.216797,-311.462402,1.704992
97.320557,903.076172,-305.969238,1.705744
103.088379,908.752441,-303.222656,1.706488
100.891113,903.076172,-303.588867,1.707232
93.750000,898.773193,-301.483154,1.707976
98.693848,902.526855,-307.708740,1.708724
93.475342,901.336670,-300.750732,1.709518
89.538574,897.033691,-315.307617,1.710262
91.644287,896.484375,-299.468994,1.711006
97.045898,895.751953,-303.588867,1.711751
97.595215,898.406982,-301.574707,1.712495
92.559814,899.047852,-304.504395,1.713239
93.566895,903.350830,-300.933838,1.713982
95.123291,895.935059,-305.419922,1.714726
91.186523,892.181396,-307.525635,1.715470
94.940186,890.167236,-308.990479,1.716214
89.447021,890.716553,-300.018311,1.716957
93.933105,891.723633,-285.003662,1.717730
94.665527,883.300781,-304.229736,1.718604
88.623047,886.779785,-310.455322,1.719350
71.228027,881.195068,-310.546875,1.720093
86.059570,878.265381,-283.905029,1.720846
85.876465,881.561279,-303.863525,1.721672
90.728760,883.483887,-300.750732,1.722415
87.249756,879.180908,-307.708740,1.723159
86.059570,876.159668,-305.877686,1.723915
84.503174,884.582520,-310.089111,1.724659
81.298828,884.582520,-306.884766,1.725402
80.749512,878.723145,-305.877686,1.726146
84.594727,873.596191,-301.574707,1.726899
86.151123,879.364014,-300.659180,1.727643
81.573486,882.019043,-305.969238,1.728387
87.799072,882.019043,-304.687500,1.729130
83.404541,880.828857,-306.152344,1.729883
90.362549,881.286621,-313.751221,1.730628
86.791992,884.399414,-309.814453,1.731372
85.052490,870.117188,-313.385010,1.732115
88.073730,885.681152,-315.673828,1.732868
82.305908,881.744385,-304.870605,1.733612
82.763672,881.652832,-306.152344,1.734356
86.883545,892.547607,-305.145264,1.735100
88.256836,867.828369,-298.645020,1.735844
88.256836,888.885498,-302.215576,1.736587
88.897705,899.414062,-300.292969,1.737331
89.172363,896.301270,-298.187256,1.738074
88.165283,888.427734,-301.116943,1.738819
79.742432,894.744873,-302.947998,1.739562
90.911865,892.913818,-296.264648,1.740306
83.770752,902.435303,-292.144775,1.741049
84.411621,892.822266,-289.764404,1.741802
92.926025,888.519287,-298.004150,1.742546
89.172363,896.850586,-294.708252,1.743344
93.017578,895.568848,-298.553467,1.744094
95.123291,895.111084,-296.447754,1.744881
90.362549,896.392822,-304.229736,1.745628
92.926025,896.301270,-300.109863,1.746372
115.905762,892.639160,-304.779053,1.747116
95.947266,897.308350,-305.328369,1.747860
100.341797,895.568848,-308.258057,1.748603
98.144531,894.470215,-303.039551,1.749346
98.968506,885.772705,-305.419922,1.750090
98.144531,892.181396,-308.624268,1.750853
93.292236,889.251709,-309.631348,1.751597
98.327637,890.716553,-308.624268,1.752340
96.221924,874.420166,-297.729492,1.753084
91.552734,892.181396,-299.652100,1.753828
97.961426,897.857666,-298.004150,1.754571
100.250244,893.829346,-298.187256,1.755315
96.588135,894.287109,-305.236816,1.756059
89.080811,893.463135,-304.595947,1.756803
102.630615,901.794434,-295.257568,1.757546
92.559814,896.026611,-291.412354,1.758290
96.496582,900.970459,-293.975830,1.759035
98.510742,905.731201,-294.799805,1.759791
102.172852,901.519775,-297.546387,1.760536
97.961426,901.794434,-295.166016,1.761279
97.045898,897.491455,-297.363281,1.762022
98.602295,897.766113,-297.546387,1.762766
95.031738,893.463135,-294.158936,1.763510
94.116211,897.308350,-296.905518,1.764254
101.440430,896.850586,-302.124023,1.764997
93.200684,900.238037,-300.567627,1.765751
98.602295,900.146484,-302.764893,1.766495
96.130371,901.153564,-294.250488,1.767238
96.313477,901.428223,-302.398682,1.767982
95.581055,903.167725,-301.666260,1.768735
95.855713,900.146484,-296.356201,1.769479
101.715088,898.681641,-292.877197,1.770222
97.778320,900.878906,-294.982910,1.770966
93.109131,894.561768,-299.835205,1.771718
101.806641,892.456055,-301.391602,1.772464
99.243164,901.702881,-295.532227,1.773208
104.278564,891.174316,-294.342041,1.773991
100.433350,899.963379,-291.412354,1.774737
100.982666,890.808105,-297.821045,1.775482
99.975586,893.737793,-296.997070,1.776225
105.743408,892.181396,-301.574707,1.776969
108.215332,890.533447,-296.813965,1.777712
103.363037,894.470215,-292.694092,1.778524
99.792480,896.118164,-294.067383,1.779269
102.539062,894.195557,-288.848877,1.780025
110.046387,898.956299,-296.630859,1.780771
97.961426,896.484375,-290.313721,1.781514
103.454590,893.829346,-286.285400,1.782258
94.940186,896.850586,-294.616699,1.783001
97.503662,899.505615,-293.060303,1.783745
106.750488,899.963379,-297.088623,1.784489
100.250244,889.984131,-288.482666,1.785232
100.982666,894.104004,-293.609619,1.785976
101.440430,893.188477,-297.088623,1.786720
101.898193,892.913818,-294.433594,1.787464
103.179932,896.850586,-290.954590,1.788208
106.658936,897.399902,-287.933350,1.788952
107.666016,884.399414,-291.595459,1.789696
94.848633,879.089355,-297.821045,1.790452
104.003906,887.603760,-299.102783,1.791196
111.053467,879.089355,-293.975830,1.791939
103.088379,881.744385,-293.884277,1.792682
106.933594,887.329102,-294.891357,1.793433
106.384277,893.005371,-289.031982,1.794248
106.750488,881.195068,-291.870117,1.795097
107.025146,884.033203,-297.454834,1.795957
105.285645,878.723145,-299.377441,1.796707
93.841553,876.068115,-293.792725,1.797466
102.905273,881.011963,-296.630859,1.798237
101.806641,878.997803,-299.194336,1.799033
97.961426,876.251221,-292.510986,1.799800
102.264404,878.906250,-281.341553,1.800561
103.088379,881.378174,-290.039062,1.801326
94.573975,883.666992,-293.151855,1.802115
107.482910,885.131836,-289.398193,1.802862
106.567383,887.878418,-291.046143,1.803606
105.834961,885.314941,-287.200928,1.804350
99.975586,883.666992,-279.144287,1.805106
96.221924,884.307861,-287.567139,1.805849
99.792480,883.666992,-286.834717,1.806593
106.201172,883.209229,-284.912109,1.807337
104.919434,890.167236,-285.278320,1.808090
99.151611,889.068604,-284.820557,1.808834
104.919434,891.265869,-286.285400,1.809578
103.454590,875.610352,-282.440186,1.810322
101.806641,884.399414,-286.193848,1.811077
103.637695,883.300781,-283.996582,1.811821
108.032227,881.378174,-281.799316,1.812565
102.355957,872.772217,-289.489746,1.813309
107.116699,872.131348,-289.306641,1.814060
103.179932,873.870850,-287.841797,1.814806
101.806641,876.434326,-292.327881,1.815558
95.031738,874.511719,-290.863037,1.816306
106.018066,871.948242,-294.525146,1.817104
100.158691,874.969482,-293.518066,1.817850
98.693848,881.469727,-283.081055,1.818593
101.440430,875.152588,-293.701172,1.819337
100.982666,869.934082,-290.771484,1.820090
105.285645,872.222900,-292.144775,1.820834
102.447510,873.046875,-286.560059,1.821578
97.229004,877.624512,-280.426025,1.822322
100.524902,877.899170,-286.743164,1.823074
101.715088,882.293701,-281.707764,1.823818
102.813721,882.476807,-289.855957,1.824562
103.546143,888.336182,-283.081055,1.825306
94.757080,881.835938,-285.827637,1.826059
99.243164,879.913330,-266.601562,1.826803
100.708008,893.188477,-287.567139,1.827548
97.869873,887.512207,-272.369385,1.828292
103.820801,888.336182,-273.284912,1.829045
104.461670,893.646240,-278.686523,1.829790
103.637695,886.138916,-285.827637,1.830534
101.531982,893.646240,-274.291992,1.831284
95.764160,887.420654,-280.883789,1.832041
107.849121,894.744873,-280.334473,1.832786
100.616455,892.272949,-277.496338,1.833529
102.722168,889.160156,-280.517578,1.834273
102.447510,892.913818,-274.475098,1.835026
97.137451,889.068604,-281.890869,1.835770
97.412109,889.892578,-283.081055,1.836514
106.201172,889.343262,-277.587891,1.837257
102.539062,870.208740,-283.905029,1.838019
99.151611,888.519287,-281.158447,1.838763
94.757080,890.075684,-283.447266,1.839506
101.074219,888.702393,-284.637451,1.840250
103.637695,887.603760,-281.250000,1.841003
105.102539,882.202148,-289.031982,1.841747
100.616455,880.737305,-287.567139,1.842491
105.743408,892.364502,-285.095215,1.843235
101.989746,893.737793,-288.299561,1.843980
102.264404,890.808105,-285.919189,1.844724
103.637695,911.041260,-288.757324,1.845467
105.834961,886.230469,-293.060303,1.846211
104.919434,892.639160,-277.404785,1.846955
102.813721,891.357422,-287.384033,1.847699
101.898193,886.047363,-289.398193,1.848442
104.553223,882.385254,-286.010742,1.849187
109.588623,882.202148,-288.208008,1.849941
109.130859,896.392822,-289.031982,1.850685
112.518311,894.653320,-281.799316,1.851428
110.321045,888.610840,-290.496826,1.852172
110.778809,911.224365,-281.982422,1.852938
106.201172,891.723633,-292.236328,1.853695
115.539551,891.998291,-291.046143,1.854439
97.686768,890.808105,-282.440186,1.855182
104.187012,895.111084,-277.954102,1.855927
103.912354,895.202637,-281.066895,1.856671
103.820801,893.280029,-283.721924,1.857415
98.052979,887.695312,-291.137695,1.858158
96.313477,891.174316,-285.186768,1.858905
100.982666,895.294189,-289.581299,1.859649
101.806641,898.406982,-289.031982,1.860392
95.489502,896.667480,-288.391113,1.861136
97.412109,897.949219,-282.531738,1.861880
95.672607,894.836426,-286.193848,1.862624
97.778320,893.737793,-290.588379,1.863368
96.771240,896.667480,-293.060303,1.864111
99.884033,892.730713,-287.017822,1.864855
98.785400,900.146484,-290.771484,1.865599
98.968506,897.216797,-289.947510,1.866427
92.926025,894.195557,-290.588379,1.867172
96.862793,900.054932,-289.306641,1.867916
97.869873,898.223877,-293.701172,1.868660
104.919434,905.639648,-284.362793,1.869403
100.341797,899.871826,-290.496826,1.870148
101.165771,899.688721,-283.721924,1.870903
99.060059,905.181885,-282.440186,1.871706
100.708008,876.800537,-284.912109,1.872630
100.891113,897.308350,-284.362793,1.873688
106.658936,906.005859,-278.869629,1.874435
100.982666,903.717041,-284.545898,1.875180
98.327637,906.921387,-280.517578,1.875924
96.130371,903.991699,-288.116455,1.876689
101.074219,905.639648,-277.404785,1.877433
104.095459,903.808594,-284.179688,1.878177
110.778809,907.379150,-286.102295,1.878920
108.306885,908.203125,-276.397705,1.879673
110.046387,908.020020,-284.637451,1.880417
107.391357,906.188965,-285.461426,1.881161
109.405518,911.499023,-287.017822,1.881905
105.560303,906.555176,-280.426025,1.882658
111.877441,910.125732,-292.602539,1.883401
111.968994,904.266357,-281.890869,1.884145
116.088867,909.576416,-281.158447,1.884889
110.687256,903.900146,-277.038574,1.885643
114.074707,913.879395,-278.228760,1.886377
115.631104,906.280518,-263.763428,1.887111
118.835449,910.583496,-275.024414,1.887853
113.250732,907.104492,-276.580811,1.888630
109.954834,911.499023,-275.939941,1.889407
116.363525,906.005859,-274.841309,1.890157
110.321045,910.858154,-285.003662,1.890901
121.490479,910.675049,-273.834229,1.891662
138.427734,914.611816,-279.418945,1.892407
119.018555,911.224365,-278.961182,1.893151
120.117188,912.139893,-288.116455,1.893895
117.462158,912.506104,-289.031982,1.894648
117.828369,919.464111,-286.926270,1.895391
137.695312,906.280518,-280.242920,1.896135
117.553711,909.484863,-278.228760,1.896878
119.476318,919.372559,-272.827148,1.897631
121.124268,919.464111,-282.989502,1.898375
125.427246,914.520264,-277.862549,1.899119
138.977051,911.590576,-282.348633,1.899862
119.567871,917.175293,-277.130127,1.900614
116.455078,915.344238,-282.989502,1.901358
123.779297,918.365479,-277.496338,1.902102
121.398926,922.210693,-276.214600,1.902845
113.342285,920.013428,-278.778076,1.903603
115.264893,910.400391,-274.291992,1.904348
121.948242,920.379639,-275.665283,1.905091
124.694824,921.295166,-284.729004,1.905835
116.821289,914.062500,-285.278320,1.906579
139.709473,912.139893,-282.989502,1.907323
121.582031,915.252686,-260.375977,1.908067
114.257812,914.337158,-273.559570,1.908810
120.025635,913.879395,-279.144287,1.909563
120.391846,915.069580,-278.778076,1.910306
113.342285,918.090820,-277.862549,1.911050
111.053467,909.118652,-259.002686,1.911793
111.145020,920.471191,-280.151367,1.912537
111.877441,922.027588,-282.165527,1.913281
113.067627,909.942627,-287.475586,1.914024
120.025635,918.457031,-280.517578,1.914767
109.771729,912.597656,-282.348633,1.915511
109.588623,921.478271,-275.756836,1.916255
109.405518,924.499512,-285.369873,1.916998
116.088867,926.330566,-282.165527,1.917741
113.433838,924.041748,-279.327393,1.918485
110.137939,929.718018,-279.052734,1.919228
106.201172,928.253174,-277.679443,1.919972
111.877441,929.809570,-284.362793,1.920716
109.954834,924.224854,-284.545898,1.921461
113.708496,926.696777,-284.271240,1.922205
108.398438,920.562744,-265.502930,1.922948
112.335205,917.907715,-286.834717,1.923754
110.046387,920.928955,-290.313721,1.924499
114.898682,920.562744,-266.876221,1.925242
117.187500,921.112061,-291.412354,1.925986
115.447998,924.957275,-287.109375,1.926730
115.722656,920.562744,-285.552979,1.927483
117.736816,920.928955,-283.905029,1.928227
114.349365,919.006348,-258.636475,1.928971
115.447998,918.090820,-282.623291,1.929715
119.750977,914.062500,-298.645020,1.930459
112.243652,911.407471,-286.102295,1.931203
113.433838,915.710449,-288.482666,1.931946
119.567871,918.823242,-291.046143,1.932690
119.110107,916.076660,-286.560059,1.933434
119.750977,924.041748,-294.433594,1.934178
116.455078,918.273926,-296.081543,1.934921
109.039307,919.738770,-286.834717,1.935664
109.313965,925.231934,-282.348633,1.936408
114.898682,923.126221,-285.095215,1.937152
125.335693,928.527832,-285.369873,1.937982
125.427246,929.443359,-285.369873,1.938726
119.201660,931.915283,-290.222168,1.939470
119.018555,930.725098,-292.236328,1.940214
116.088867,928.710938,-294.799805,1.940958
119.659424,922.943115,-284.912109,1.941701
120.300293,928.894043,-287.109375,1.942456
119.842529,930.450439,-281.341553,1.943200
120.391846,928.619385,-284.637451,1.943944
117.828369,935.943604,-288.208008,1.944687
138.885498,932.006836,-293.518066,1.945439
117.645264,941.345215,-285.003662,1.946184
119.842529,939.147949,-295.257568,1.946927
112.884521,916.259766,-290.771484,1.947671
114.166260,933.013916,-295.349121,1.948691
117.004395,942.352295,-300.292969,1.949505
112.243652,937.957764,-292.053223,1.950252
104.827881,939.514160,-290.130615,1.950997
113.800049,939.514160,-291.320801,1.951759
109.771729,917.266846,-289.855957,1.952504
112.976074,941.162109,-287.841797,1.953248
110.595703,941.711426,-286.651611,1.953991
111.145020,939.147949,-281.799316,1.954744
111.694336,935.668945,-285.552979,1.955489
111.602783,959.930420,-291.229248,1.956233
106.475830,933.837891,-295.257568,1.956976
116.821289,938.873291,-280.242920,1.957729
111.511230,941.802979,-284.545898,1.958473
108.398438,941.711426,-283.630371,1.959217
112.792969,947.204590,-284.912109,1.959975
122.863770,950.042725,-287.475586,1.960745
118.469238,941.162109,-286.285400,1.961521
112.426758,938.140869,-282.623291,1.962269
108.947754,936.584473,-289.489746,1.963014
95.031738,941.619873,-284.729004,1.963776
116.088867,944.732666,-284.271240,1.964521
114.440918,936.309814,-291.412354,1.965265
114.898682,941.070557,-290.771484,1.966009
117.279053,937.774658,-286.743164,1.966765
118.927002,940.155029,-291.137695,1.967510
112.152100,934.844971,-284.637451,1.968253
119.750977,932.922363,-286.926270,1.968997
122.039795,932.373047,-285.644531,1.969751
120.300293,933.837891,-292.053223,1.970495
119.476318,933.013916,-296.081543,1.971238
118.286133,936.218262,-291.137695,1.971982
122.955322,935.943604,-287.567139,1.972742
124.877930,933.837891,-286.651611,1.973487
124.420166,931.365967,-288.208008,1.974230
117.553711,931.274414,-293.426514,1.974976
114.624023,934.204102,-291.778564,1.975734
123.504639,935.852051,-291.320801,1.976478
121.124268,924.774170,-292.510986,1.977222
121.673584,926.879883,-290.588379,1.977967
117.279053,931.640625,-292.327881,1.978720
119.018555,930.358887,-297.821045,1.979465
116.088867,933.197021,-293.151855,1.980209
113.708496,929.626465,-287.384033,1.980953
116.180420,930.541992,-294.525146,1.981706
115.539551,935.668945,-286.376953,1.982451
116.363525,939.239502,-299.285889,1.983195
115.905762,925.323486,-292.968750,1.983939
115.447998,926.971436,-292.510986,1.984701
119.476318,930.541992,-283.264160,1.985445
120.941162,928.894043,-290.313721,1.986189
115.447998,935.394287,-286.102295,1.986926
118.560791,933.013916,-285.736084,1.987684
118.011475,942.077637,-287.017822,1.988428
115.447998,932.281494,-281.799316,1.989172
118.835449,929.992676,-281.982422,1.989916
122.772217,921.661377,-287.750244,1.990669
124.786377,930.725098,-285.736084,1.991414
126.892090,931.182861,-287.109375,1.992158
122.314453,933.563232,-260.009766,1.992902
120.117188,938.323975,-279.510498,1.993655
129.913330,922.668457,-281.616211,1.994400
122.497559,939.056396,-285.919189,1.995144
131.469727,929.534912,-281.890869,1.995887
123.321533,933.288574,-285.095215,1.996641
124.877930,933.013916,-281.890869,1.997385
124.328613,934.387207,-291.046143,1.998173
126.800537,933.013916,-258.911133,1.998918
129.180908,929.351807,-283.721924,1.999672
123.321533,930.908203,-283.905029,2.000416
121.856689,929.351807,-281.982422,2.001160
120.941162,930.999756,-285.736084,2.001903
118.011475,933.654785,-283.996582,2.002657
123.870850,923.126221,-289.398193,2.003401
123.046875,930.999756,-292.510986,2.004144
131.195068,940.063477,-286.651611,2.004888
118.743896,925.506592,-288.208008,2.005601
122.589111,928.436279,-291.229248,2.006345
127.166748,932.189941,-285.552979,2.007089
129.089355,929.351807,-282.897949,2.007834
126.892090,923.950195,-283.813477,2.008564
120.208740,929.260254,-284.912109,2.009308
120.117188,927.062988,-284.912109,2.010142
117.553711,924.224854,-284.454346,2.010886
118.377686,935.668945,-287.017822,2.011642
123.504639,929.077148,-285.461426,2.012386
126.068115,927.337646,-288.940430,2.013130
115.173340,929.809570,-288.757324,2.013874
116.180420,926.696777,-291.137695,2.014630
93.750000,926.513672,-289.489746,2.015374
112.884521,933.837891,-286.010742,2.016118
122.863770,924.041748,-281.158447,2.016862
118.927002,933.746338,-286.468506,2.017613
117.645264,921.478271,-280.792236,2.018357
111.785889,924.407959,-296.905518,2.019101
119.018555,921.386719,-292.419434,2.019845
105.102539,927.154541,-292.327881,2.020606
105.651855,927.062988,-291.046143,2.021351
104.187012,918.365479,-288.299561,2.022095
101.257324,929.718018,-288.116455,2.022839
101.715088,930.175781,-283.721924,2.023592
106.384277,928.070068,-292.144775,2.024336
103.271484,926.971436,-289.947510,2.025280
97.961426,926.879883,-280.883789,2.026096
95.947266,928.161621,-291.687012,2.026854
98.968506,913.879395,-292.419434,2.027617
97.320557,916.534424,-289.398193,2.028382
101.898193,921.478271,-296.539307,2.029178
100.433350,923.034668,-288.116455,2.029944
99.975586,925.231934,-289.581299,2.030709
99.243164,922.485352,-296.905518,2.031476
98.876953,922.943115,-287.200928,2.032245
95.397949,920.379639,-282.989502,2.033003
98.052979,925.872803,-283.172607,2.033754
104.736328,926.605225,-289.947510,2.034499
99.151611,924.133301,-287.475586,2.035243
92.193604,916.992188,-290.130615,2.035987
92.559814,922.851562,-288.482666,2.036731
101.623535,923.492432,-280.883789,2.037475
99.243164,921.936035,-281.341553,2.038222
96.862793,920.745850,-281.799316,2.038967
100.158691,922.943115,-286.010742,2.039711
98.602295,919.738770,-288.116455,2.040455
94.848633,917.175293,-290.222168,2.041199
93.475342,920.928955,-284.271240,2.041944
97.137451,915.618896,-282.714844,2.042687
98.510742,919.738770,-278.137207,2.043431
105.743408,919.830322,-258.087158,2.044175
97.412109,917.358398,-280.609131,2.044919
97.045898,920.379639,-288.665771,2.045663
99.700928,919.921875,-288.299561,2.046407
102.081299,919.555664,-283.905029,2.047157
101.989746,919.006348,-284.362793,2.047902
97.137451,921.569824,-275.207520,2.048646
92.193604,912.872314,-276.855469,2.049390
89.904785,912.139893,-276.123047,2.050148
104.278564,916.717529,-281.982422,2.050893
101.715088,916.168213,-283.996582,2.051637
99.975586,910.034180,-283.905029,2.052381
95.031738,915.344238,-281.250000,2.053125
97.137451,917.633057,-282.897949,2.053869
97.412109,909.576416,-281.707764,2.054614
96.221924,913.238525,-283.172607,2.055357
101.257324,908.843994,-290.222168,2.056111
103.637695,900.604248,-288.208008,2.056856
104.553223,910.675049,-286.743164,2.057600
100.250244,907.012939,-282.989502,2.058344
93.109131,900.970459,-285.186768,2.059097
102.264404,899.047852,-283.905029,2.059842
102.813721,908.020020,-284.454346,2.060586
102.081299,900.238037,-287.567139,2.061330
105.010986,902.343750,-277.679443,2.062074
105.743408,913.696289,-283.172607,2.062818
106.384277,899.414062,-282.348633,2.063561
108.398438,907.562256,-287.841797,2.064305
107.025146,900.238037,-285.095215,2.065050
105.926514,900.787354,-276.397705,2.065804
106.475830,890.716553,-285.278320,2.066548
102.539062,909.210205,-283.813477,2.067292
108.123779,907.287598,-287.292480,2.068074
108.673096,904.266357,-282.440186,2.068818
110.137939,901.885986,-280.059814,2.069562
116.363525,896.209717,-285.736084,2.070306
108.673096,901.336670,-283.996582,2.071050
115.997314,897.216797,-283.905029,2.071794
110.778809,903.167725,-282.257080,2.072538
117.187500,899.597168,-279.602051,2.073282
117.553711,903.900146,-285.278320,2.074030
120.758057,905.548096,-286.468506,2.074780
127.716064,907.104492,-289.123535,2.075524
121.032715,909.667969,-284.454346,2.076268
122.314453,904.815674,-287.109375,2.077012
120.941162,912.597656,-283.081055,2.077765
122.955322,913.787842,-280.792236,2.078510
121.215820,915.710449,-286.743164,2.079254
129.180908,911.499023,-279.785156,2.079998
123.779297,908.752441,-282.806396,2.080751
119.384766,913.879395,-287.567139,2.081496
121.856689,913.330078,-281.433105,2.082321
132.293701,913.513184,-283.264160,2.083065
133.758545,923.309326,-295.074463,2.083818
129.089355,922.576904,-287.200928,2.084553
129.455566,915.435791,-294.067383,2.085287
129.730225,914.886475,-288.940430,2.086021
131.652832,919.372559,-292.144775,2.086778
131.469727,920.654297,-283.538818,2.087522
131.744385,917.541504,-286.102295,2.088267
128.906250,921.112061,-287.841797,2.089010
125.427246,918.090820,-283.264160,2.089772
136.505127,917.907715,-283.264160,2.090516
131.744385,927.612305,-278.961182,2.091261
138.244629,922.027588,-277.679443,2.092006
133.483887,920.654297,-287.017822,2.092759
137.695312,921.295166,-283.355713,2.093504
127.899170,923.858643,-276.489258,2.094248
128.814697,918.548584,-282.989502,2.094992
128.173828,924.407959,-262.939453,2.095745
123.596191,927.886963,-282.714844,2.096489
126.068115,919.281006,-279.876709,2.097233
128.814697,921.478271,-279.602051,2.097977
129.272461,929.718018,-291.229248,2.098730
131.195068,922.302246,-304.687500,2.099475
133.483887,924.499512,-286.926270,2.100219
126.525879,922.027588,-288.482666,2.100963
135.131836,925.872803,-290.954590,2.101784
129.455566,923.583984,-289.306641,2.102639
124.328613,934.570312,-286.560059,2.103622
125.793457,932.830811,-294.067383,2.104475
122.497559,929.809570,-280.700684,2.105232
127.716064,927.978516,-282.440186,2.105980
128.814697,938.232422,-281.799316,2.106726
129.089355,931.365967,-279.602051,2.107500
130.920410,930.541992,-280.059814,2.108246
133.758545,933.837891,-278.869629,2.108990
122.497559,937.225342,-275.939941,2.109734
129.638672,933.013916,-284.820557,2.110488
129.455566,931.823730,-282.440186,2.111232
127.441406,937.591553,-280.975342,2.111976
124.237061,914.794922,-283.355713,2.112720
120.849609,938.323975,-283.172607,2.113474
128.631592,930.084229,-291.320801,2.114218
130.096436,941.528320,-295.989990,2.114962
130.004883,932.189941,-290.496826,2.115706
132.568359,929.809570,-288.116455,2.116459
130.462646,935.119629,-288.482666,2.117204
126.068115,941.070557,-299.743652,2.117948
128.173828,935.028076,-292.053223,2.118692
122.680664,927.246094,-294.342041,2.119447
127.349854,937.957764,-293.060303,2.120193
127.899170,930.358887,-294.158936,2.120937
125.976562,937.225342,-298.095703,2.121681
128.540039,939.880371,-288.848877,2.122436
125.152588,936.767578,-294.158936,2.123180
126.525879,941.986084,-283.630371,2.123924
127.349854,945.831299,-290.405273,2.124669
128.540039,944.732666,-280.700684,2.125422
125.701904,946.746826,-292.694092,2.126167
124.420166,948.028564,-286.834717,2.126910
121.032715,953.063965,-291.961670,2.127654
119.934082,948.028564,-295.989990,2.128418
119.201660,954.162598,-283.813477,2.129163
114.624023,948.577881,-290.313721,2.129907
118.194580,953.887939,-288.848877,2.130651
119.750977,945.556641,-289.581299,2.131407
113.983154,946.472168,-292.419434,2.132151
116.729736,945.007324,-296.722412,2.132895
108.947754,941.894531,-297.088623,2.133639
118.286133,944.274902,-293.792725,2.134390
109.130859,949.310303,-289.489746,2.135134
115.447998,953.247070,-287.841797,2.135878
113.616943,950.500488,-285.827637,2.136622
113.983154,944.000244,-292.785645,2.137375
112.152100,951.416016,-291.595459,2.138120
138.336182,943.817139,-298.004150,2.138864
116.271973,945.007324,-295.623779,2.139608
110.137939,940.246582,-288.574219,2.140397
109.313965,940.795898,-298.736572,2.141142
111.145020,940.979004,-294.158936,2.141886
123.321533,946.014404,-288.482666,2.142630
115.081787,950.592041,-289.215088,2.143383
117.370605,942.993164,-284.271240,2.144128
112.060547,941.345215,-281.433105,2.144871
112.426758,932.006836,-289.489746,2.145615
119.018555,931.732178,-291.320801,2.146368
117.095947,946.289062,-285.552979,2.147113
114.898682,946.014404,-286.834717,2.147857
123.413086,930.725098,-293.518066,2.148601
117.462158,937.133789,-289.489746,2.149354
119.842529,933.380127,-288.848877,2.150098
126.159668,934.753418,-286.743164,2.150841
126.159668,938.323975,-288.391113,2.151585
119.293213,938.690186,-283.996582,2.152338
118.103027,929.077148,-283.081055,2.153083
120.483398,935.485840,-289.398193,2.153913
126.708984,923.126221,-297.637939,2.154658
127.807617,932.464600,-292.053223,2.155413
125.335693,934.112549,-294.067383,2.156158
129.455566,933.380127,-290.679932,2.156901
123.596191,934.295654,-286.193848,2.157645
130.462646,932.830811,-287.200928,2.158399
125.244141,928.344727,-291.503906,2.159144
126.525879,937.957764,-280.334473,2.159887
124.786377,937.591553,-278.594971,2.160631
134.674072,933.013916,-287.109375,2.161384
118.011475,934.478760,-285.644531,2.162128
118.377686,933.654785,-292.968750,2.162872
132.202148,938.415527,-282.897949,2.163616
129.913330,941.711426,-285.552979,2.164378
135.681152,940.612793,-284.912109,2.165122
130.096436,939.056396,-289.123535,2.165866
125.701904,935.852051,-280.242920,2.166610
134.124756,940.612793,-285.644531,2.167364
132.110596,930.084229,-286.468506,2.168109
127.166748,933.380127,-289.855957,2.168853
133.117676,942.718506,-289.123535,2.169596
130.554199,947.021484,-284.545898,2.170350
125.244141,942.443848,-281.707764,2.171094
130.554199,947.845459,-289.672852,2.171838
119.567871,941.894531,-288.940430,2.172582
129.730225,944.549561,-290.222168,2.173335
