ACC_X,ACC_Y,ACC_Z,Time
-275.390625,850.067139,436.889648,0.000141
-267.974854,850.708008,437.622070,0.000897
-267.425537,854.461670,438.903809,0.001638
-264.770508,852.905273,439.270020,0.002379
-274.658203,852.539062,440.185547,0.003134
-278.503418,850.891113,444.213867,0.003875
-278.503418,859.405518,450.256348,0.004616
-275.482178,852.630615,443.206787,0.005357
-271.087646,858.673096,442.291260,0.006106
-271.636963,859.588623,444.305420,0.006844
-271.453857,869.201660,449.890137,0.007582
-275.024414,857.757568,444.763184,0.008320
-268.707275,860.504150,435.699463,0.009069
-263.305664,857.666016,443.847656,0.009801
-268.066406,859.130859,449.066162,0.010532
-273.193359,859.130859,448.333740,0.011265
-265.045166,862.518311,444.671631,0.012024
-265.960693,855.560303,443.847656,0.012766
-266.967773,861.694336,449.615479,0.013508
-263.580322,862.976074,459.411621,0.014250
-270.080566,849.060059,437.713623,0.015003
-264.678955,851.440430,442.291260,0.015745
-266.418457,858.673096,448.974609,0.016487
-266.418457,861.877441,444.580078,0.017230
-264.678955,852.081299,441.009521,0.017983
-260.284424,847.961426,442.474365,0.018725
-239.044189,846.221924,442.749023,0.019467
-261.840820,840.454102,439.910889,0.020210
-257.904053,849.426270,445.678711,0.020952
-254.791260,846.130371,443.023682,0.021684
-257.537842,850.524902,441.375732,0.022416
-258.270264,848.419189,440.460205,0.023148
-260.284424,842.468262,441.650391,0.023953
-250.579834,851.440430,444.763184,0.024701
-247.192383,847.229004,442.016602,0.025443
-248.474121,850.524902,445.587158,0.026186
-246.276855,856.658936,445.495605,0.026941
-251.861572,849.426270,449.798584,0.027683
-246.093750,849.609375,447.967529,0.028425
-250.030518,854.278564,451.446533,0.029167
-243.255615,854.827881,453.460693,0.029919
-241.790771,852.355957,458.862305,0.030661
-241.516113,849.334717,448.333740,0.031404
-244.812012,847.869873,448.516846,0.032143
-251.678467,850.891113,443.481445,0.032911
-258.819580,857.940674,441.741943,0.033653
-251.037598,853.546143,439.636230,0.034395
-250.122070,849.426270,444.580078,0.035138
-254.516602,844.482422,442.108154,0.035893
-257.171631,848.144531,444.030762,0.036635
-250.762939,849.151611,443.572998,0.037377
-245.544434,856.475830,440.368652,0.038118
-247.467041,845.397949,444.030762,0.038860
-242.065430,847.778320,445.129395,0.039593
-245.269775,854.187012,441.101074,0.040325
-244.628906,852.081299,443.481445,0.041057
-252.136230,853.179932,443.481445,0.041813
-248.748779,851.715088,445.861816,0.042555
-247.741699,845.764160,439.910889,0.043297
-249.755859,845.031738,438.079834,0.044038
-256.256104,849.151611,442.291260,0.044789
-253.234863,842.468262,441.375732,0.045531
-255.798340,849.151611,439.270020,0.046273
-262.481689,850.524902,441.558838,0.047014
-258.453369,849.334717,440.460205,0.047765
-251.586914,854.003906,442.382812,0.048507
-254.974365,857.849121,445.587158,0.049249
-250.946045,849.700928,448.608398,0.049990
-260.009766,844.848633,442.108154,0.050731
-258.453369,850.891113,446.044922,0.051463
-255.615234,850.158691,446.228027,0.052195
-255.157471,851.715088,459.136963,0.052926
-256.713867,856.750488,448.059082,0.053685
-259.094238,852.996826,446.685791,0.054426
-256.988525,839.172363,444.580078,0.055167
-261.291504,848.693848,445.220947,0.055908
-258.544922,850.891113,442.016602,0.056658
-259.002686,860.504150,447.326660,0.057399
-254.699707,860.412598,427.459717,0.058139
-259.368896,851.898193,441.284180,0.058880
-264.495850,844.665527,445.312500,0.059630
-245.635986,845.397949,444.213867,0.060418
-252.777100,838.073730,442.199707,0.061173
-253.601074,837.432861,439.270020,0.061929
-255.615234,831.756592,442.840576,0.062685
-254.882812,829.101562,438.446045,0.063452
-256.256104,839.538574,448.974609,0.064211
-254.150391,836.791992,444.946289,0.064966
-249.114990,832.305908,443.206787,0.065717
-251.953125,835.693359,438.903809,0.066470
-251.037598,833.312988,446.411133,0.067276
-250.671387,840.637207,448.059082,0.068045
-248.382568,834.503174,438.446045,0.068835
-252.960205,835.235596,438.903809,0.069606
-244.903564,827.636719,443.389893,0.070407
-243.896484,838.165283,466.094971,0.071314
-243.255615,840.179443,448.242188,0.072077
-244.079590,834.411621,445.404053,0.072847
-237.487793,839.538574,443.481445,0.073597
-243.347168,842.102051,445.861816,0.074356
-249.023438,838.256836,444.213867,0.075106
-247.009277,835.144043,442.474365,0.075872
-242.706299,836.791992,438.446045,0.076621
-239.135742,838.256836,444.488525,0.077363
-241.241455,826.263428,436.706543,0.078104
-248.016357,827.270508,435.974121,0.078863
-235.107422,838.989258,445.770264,0.079605
-236.206055,834.045410,441.375732,0.080346
-226.776123,836.883545,442.840576,0.081088
-237.030029,837.615967,445.678711,0.081840
-231.903076,836.608887,460.327148,0.082582
-239.227295,836.151123,440.826416,0.083323
-244.354248,832.672119,441.284180,0.084065
-242.980957,833.038330,442.932129,0.084808
-247.009277,832.214355,436.431885,0.085540
-246.368408,832.214355,443.481445,0.086271
-247.009277,834.594727,438.812256,0.087002
-246.185303,834.136963,434.143066,0.087763
-251.953125,833.770752,438.171387,0.088504
-244.171143,839.080811,436.981201,0.089246
-239.318848,838.439941,436.248779,0.089988
-253.601074,838.989258,439.086914,0.090739
-250.854492,830.932617,449.981689,0.091481
-250.122070,832.031250,446.868896,0.092222
-253.417969,831.848145,445.495605,0.092964
-255.065918,837.615967,443.023682,0.093715
-259.552002,833.129883,453.094482,0.094457
-260.833740,840.179443,444.580078,0.095198
-261.657715,840.637207,446.228027,0.095939
-258.819580,837.524414,444.122314,0.096681
-277.404785,837.432861,446.594238,0.097412
-255.432129,839.904785,442.474365,0.098160
-261.566162,827.362061,437.255859,0.098902
-242.340088,838.256836,446.777344,0.099680
-249.572754,840.362549,428.283691,0.100420
-253.417969,833.770752,445.129395,0.101160
-257.171631,839.904785,446.136475,0.101900
-256.530762,840.454102,443.023682,0.102648
-250.671387,839.996338,440.917969,0.103385
-255.889893,841.827393,437.072754,0.104142
-264.312744,838.623047,435.791016,0.104887
-265.045166,826.812744,436.248779,0.105632
-265.502930,838.897705,438.262939,0.106364
-262.115479,835.144043,431.396484,0.107095
-266.052246,840.362549,433.868408,0.107827
-272.827148,840.728760,433.227539,0.108627
-266.967773,836.883545,437.896729,0.109370
-273.010254,837.799072,436.248779,0.110112
-270.172119,839.080811,439.727783,0.110853
-268.707275,845.214844,435.699463,0.111610
-273.193359,844.482422,444.396973,0.112352
-279.418945,842.651367,444.946289,0.113093
-270.904541,846.771240,445.037842,0.113835
-267.974854,847.137451,435.516357,0.114586
-273.284912,841.003418,441.192627,0.115328
-271.087646,843.292236,438.903809,0.116069
-279.602051,842.193604,445.220947,0.116810
-273.193359,851.440430,444.030762,0.117551
-274.108887,846.130371,438.079834,0.118283
-274.291992,860.137939,448.974609,0.119014
-273.010254,861.877441,440.093994,0.119745
-273.834229,847.045898,441.009521,0.120501
-265.045166,853.088379,443.206787,0.121243
-275.573730,856.658936,449.615479,0.121984
-277.770996,862.335205,446.777344,0.122725
-270.263672,859.497070,439.636230,0.123477
-272.644043,859.771729,440.277100,0.124219
-278.137207,850.799561,446.685791,0.124960
-277.954102,856.018066,446.136475,0.125701
-276.123047,860.504150,445.678711,0.126452
-277.679443,855.010986,449.432373,0.127194
-278.411865,859.039307,445.953369,0.127935
-276.489258,868.835449,451.629639,0.128677
-281.066895,865.997314,447.509766,0.129417
-286.102295,861.511230,445.404053,0.130149
-278.778076,861.328125,453.918457,0.130881
-283.081055,863.250732,449.890137,0.131612
-282.714844,871.856689,455.383301,0.132368
-283.630371,869.293213,450.714111,0.133136
-284.545898,872.772217,458.587646,0.133880
-278.411865,876.617432,462.066650,0.134621
-271.545410,866.363525,454.559326,0.135377
-281.250000,867.095947,458.129883,0.136119
-279.144287,872.497559,461.425781,0.136860
-277.862549,865.997314,451.080322,0.137601
-285.644531,870.666504,459.960938,0.138354
-284.637451,864.532471,450.805664,0.139095
-287.658691,858.856201,454.101562,0.139837
-283.264160,854.553223,456.024170,0.140578
-282.257080,854.370117,442.565918,0.141320
-279.052734,856.292725,438.995361,0.142138
-276.580811,850.708008,448.791504,0.142870
-272.827148,850.433350,438.995361,0.143601
-277.496338,840.911865,436.889648,0.144359
-274.108887,851.074219,438.995361,0.145101
-271.362305,849.792480,438.079834,0.145842
-269.439697,851.806641,433.319092,0.146584
-268.524170,853.088379,437.438965,0.147336
-257.354736,849.060059,444.488525,0.148078
-261.199951,852.355957,435.699463,0.148819
-261.566162,849.884033,446.228027,0.149568
-260.101318,848.876953,443.481445,0.150344
-265.686035,849.243164,447.235107,0.151086
-265.502930,842.285156,453.277588,0.151828
-264.129639,851.257324,453.369141,0.152570
-264.495850,845.672607,452.545166,0.153321
-264.953613,855.560303,456.298828,0.154062
-264.495850,853.363037,460.418701,0.154803
-269.622803,847.412109,454.376221,0.155544
-262.115479,852.996826,456.848145,0.156286
-260.650635,848.693848,459.686279,0.157017
-252.685547,846.313477,453.277588,0.157748
-257.812500,849.426270,445.770264,0.158479
-255.706787,844.024658,447.052002,0.159238
-248.382568,853.820801,447.875977,0.159980
-251.312256,851.531982,445.037842,0.160721
-251.495361,849.151611,444.396973,0.161462
-254.241943,847.503662,448.608398,0.162210
-254.241943,847.778320,443.847656,0.162951
-254.699707,849.334717,442.291260,0.163695
-278.594971,846.954346,441.925049,0.164444
-261.566162,845.764160,446.960449,0.165229
-259.185791,840.179443,439.727783,0.165982
-265.960693,846.313477,442.108154,0.166725
-267.791748,848.602295,441.558838,0.167490
-266.052246,843.750000,447.784424,0.168252
-265.045166,841.644287,440.551758,0.169001
-261.932373,844.207764,445.129395,0.169765
-263.763428,865.814209,446.868896,0.170532
-265.411377,847.320557,445.678711,0.171274
-267.150879,845.764160,439.270020,0.172015
-273.193359,842.834473,442.474365,0.172757
-261.383057,844.116211,437.713623,0.173508
-263.031006,848.510742,447.601318,0.174275
-258.453369,845.489502,438.537598,0.175021
-258.911133,852.813721,444.213867,0.175762
-257.354736,854.644775,446.777344,0.176524
-259.460449,848.144531,448.791504,0.177344
-261.749268,855.743408,445.037842,0.178144
-269.439697,855.560303,443.572998,0.178953
-261.291504,855.743408,443.756104,0.179716
-265.319824,850.891113,448.150635,0.180460
-269.714355,851.257324,443.756104,0.181201
-263.305664,852.447510,450.439453,0.182011
-264.862061,860.229492,449.157715,0.182778
-261.108398,862.335205,447.052002,0.183527
-263.397217,858.398438,454.010010,0.184296
-266.326904,855.194092,448.150635,0.185044
-258.544922,854.644775,453.552246,0.185785
-260.467529,852.264404,452.087402,0.186528
-263.122559,847.686768,444.763184,0.187291
-258.178711,852.081299,449.707031,0.188058
-262.573242,845.672607,441.375732,0.188804
-262.573242,845.672607,443.481445,0.189545
-267.883301,838.806152,439.453125,0.190305
-261.016846,849.060059,442.291260,0.191046
-262.939453,846.862793,435.333252,0.191787
-266.693115,839.172363,439.086914,0.192527
-263.488770,844.116211,436.248779,0.193280
-267.883301,840.087891,439.178467,0.194021
-264.312744,846.038818,440.368652,0.194762
-263.031006,847.045898,436.889648,0.195502
-260.559082,846.221924,437.438965,0.196254
-235.839844,847.412109,434.509277,0.196985
-259.826660,843.750000,442.291260,0.197716
-256.072998,843.292236,432.495117,0.198447
-254.516602,846.496582,436.065674,0.199256
-253.967285,841.186523,439.270020,0.199997
-252.502441,845.306396,444.122314,0.200737
-251.403809,840.545654,442.749023,0.201478
-253.509521,855.926514,444.213867,0.202228
-251.495361,857.940674,441.375732,0.202966
-252.685547,852.630615,439.361572,0.203704
-247.100830,858.581543,451.538086,0.204440
-248.840332,857.666016,446.502686,0.205235
-252.960205,853.820801,444.488525,0.205989
-255.340576,857.482910,445.037842,0.206730
-251.861572,860.412598,454.742432,0.207485
-256.896973,859.497070,449.707031,0.208228
-256.713867,860.687256,448.883057,0.208969
-249.847412,857.391357,443.298340,0.209710
-258.453369,858.032227,451.354980,0.210446
-259.277344,850.982666,437.896729,0.211178
-249.023438,848.327637,443.115234,0.211909
-260.284424,850.067139,444.854736,0.212641
-261.657715,859.313965,448.699951,0.213379
-255.889893,850.250244,453.002930,0.214203
-256.896973,848.144531,445.037842,0.214945
-259.002686,845.672607,440.460205,0.215686
-256.347656,848.693848,447.326660,0.216421
-253.967285,850.799561,447.235107,0.217152
-253.509521,848.968506,445.220947,0.217884
-256.439209,838.439941,449.066162,0.218615
-255.157471,849.792480,449.249268,0.219351
-258.636475,844.116211,451.354980,0.220092
-248.840332,852.355957,453.369141,0.220831
-251.037598,855.468750,446.411133,0.221571
-251.312256,849.975586,449.066162,0.222312
-249.389648,844.116211,451.263428,0.223052
-252.777100,851.806641,458.129883,0.223791
-257.537842,842.285156,449.798584,0.224531
-256.439209,844.757080,453.918457,0.225271
-255.706787,862.701416,445.404053,0.226011
-252.502441,855.377197,452.178955,0.226750
-250.305176,857.849121,450.531006,0.227490
-248.748779,856.933594,444.305420,0.228241
-250.396729,850.341797,442.291260,0.228982
-251.953125,856.933594,452.636719,0.229722
-252.044678,858.947754,450.714111,0.230461
-252.960205,847.229004,439.910889,0.231211
-253.234863,855.377197,448.516846,0.231950
-253.326416,862.518311,451.904297,0.232690
-255.523682,861.053467,455.291748,0.233436
-255.798340,859.313965,452.728271,0.234182
-250.579834,861.145020,453.277588,0.234931
-256.805420,857.849121,453.277588,0.235676
-254.791260,857.116699,451.904297,0.236416
-253.967285,849.060059,455.474854,0.237158
-281.066895,859.863281,455.566406,0.237928
-256.988525,855.743408,457.031250,0.238701
-254.333496,857.025146,451.721191,0.239465
-256.164551,845.581055,454.650879,0.240242
-253.692627,854.187012,454.010010,0.240988
-253.601074,849.426270,449.432373,0.241731
-253.601074,849.700928,450.622559,0.242486
-257.904053,850.067139,445.495605,0.243230
-261.108398,851.531982,444.854736,0.243971
-259.918213,845.123291,441.558838,0.244711
-256.530762,847.320557,444.122314,0.245459
-260.101318,855.468750,434.600830,0.246197
-260.650635,846.679688,436.248779,0.246935
-262.664795,842.193604,440.460205,0.247706
-261.566162,844.024658,439.086914,0.248466
-262.207031,845.855713,430.114746,0.249230
-267.974854,851.440430,438.079834,0.249979
-268.249512,847.686768,434.875488,0.250749
-264.770508,841.278076,440.093994,0.251492
-261.657715,856.842041,438.629150,0.252246
-268.890381,850.524902,438.262939,0.252988
-269.348145,853.637695,440.643311,0.253743
-272.094727,851.531982,442.840576,0.254486
-272.369385,847.686768,437.713623,0.255227
-270.172119,849.700928,439.086914,0.255971
-270.355225,853.546143,441.650391,0.256713
-272.094727,847.869873,443.847656,0.257445
-280.792236,853.088379,446.960449,0.258176
-274.383545,856.384277,451.446533,0.258907
-270.904541,859.039307,451.080322,0.259667
-271.362305,862.243652,449.890137,0.260409
-277.496338,852.447510,455.657959,0.261150
-273.834229,856.842041,445.953369,0.261891
-280.517578,855.194092,447.235107,0.262646
-275.482178,864.074707,446.228027,0.263386
-275.848389,859.039307,441.101074,0.264127
-276.214600,855.560303,441.375732,0.264868
-270.446777,862.152100,445.861816,0.265609
-276.947021,852.630615,439.544678,0.266341
-278.320312,850.616455,440.917969,0.267072
-274.932861,858.123779,442.016602,0.267804
-273.925781,863.983154,441.650391,0.268547
-267.517090,858.398438,438.629150,0.269279
-269.348145,857.482910,436.157227,0.270010
-277.587891,861.694336,436.981201,0.270770
-280.609131,849.426270,436.706543,0.271522
-278.503418,860.961914,448.791504,0.272263
-280.151367,860.412598,450.805664,0.273004
-279.144287,853.820801,455.841064,0.273745
-281.524658,854.736328,454.101562,0.274498
-278.869629,862.976074,457.580566,0.275239
-278.961182,858.306885,450.622559,0.275980
-279.602051,857.391357,450.805664,0.276721
-272.735596,851.074219,458.038330,0.277459
-269.531250,848.236084,457.031250,0.278191
-265.686035,861.236572,455.291748,0.278922
-268.981934,855.926514,455.474854,0.279653
-275.024414,863.708496,455.108643,0.280409
-266.601562,870.483398,461.700439,0.281150
-270.172119,864.807129,449.432373,0.281891
-268.341064,858.306885,453.277588,0.282632
-272.277832,851.806641,443.756104,0.283383
-272.186279,858.673096,450.988770,0.284125
-266.326904,867.919922,451.446533,0.284957
-275.299072,850.341797,456.665039,0.285698
-271.453857,852.722168,451.080322,0.286450
-267.517090,858.306885,459.411621,0.287192
-266.418457,854.827881,452.636719,0.287933
-271.545410,848.327637,454.559326,0.288675
-269.622803,846.405029,444.305420,0.289416
-275.848389,848.236084,456.390381,0.290147
-269.714355,844.482422,449.798584,0.290879
-269.531250,835.052490,453.369141,0.291610
-266.235352,829.925537,426.544189,0.292369
-273.101807,829.742432,436.065674,0.293109
-267.883301,832.763672,433.959961,0.293849
-264.770508,832.946777,429.016113,0.294589
-269.531250,831.848145,436.981201,0.295340
-263.763428,837.615967,437.072754,0.296080
-263.214111,833.496094,434.509277,0.296820
-265.045166,830.017090,437.988281,0.297560
-261.291504,834.320068,442.199707,0.298309
-267.425537,829.467773,437.347412,0.299049
-262.939453,836.425781,438.354492,0.299789
-271.911621,832.214355,449.432373,0.300529
-263.580322,838.256836,446.044922,0.301280
-263.305664,829.467773,446.411133,0.302020
-264.312744,831.756592,446.777344,0.302761
-268.890381,835.052490,450.531006,0.303501
-265.502930,831.756592,449.249268,0.304250
-261.566162,842.559814,452.636719,0.304991
-269.073486,835.968018,468.200684,0.305737
-277.221680,830.749512,446.411133,0.306480
-276.397705,840.728760,447.418213,0.307271
-275.665283,834.320068,452.362061,0.308020
-277.496338,834.777832,446.228027,0.308761
-269.165039,834.869385,448.059082,0.309523
-266.143799,834.228516,450.805664,0.310304
-272.186279,830.841064,444.763184,0.311052
-262.390137,834.777832,442.932129,0.311808
-270.172119,840.270996,453.643799,0.312550
-265.777588,828.369141,445.312500,0.313308
-262.573242,836.975098,444.122314,0.314048
-260.101318,839.172363,449.340820,0.314787
-263.305664,833.770752,441.192627,0.315526
-262.939453,826.629639,440.277100,0.316275
-265.777588,826.538086,440.093994,0.317014
-270.355225,830.657959,442.749023,0.317753
-266.418457,833.038330,449.798584,0.318492
-263.214111,824.340820,451.812744,0.319081
-265.228271,831.848145,468.017578,0.319813
-262.573242,830.017090,448.791504,0.320557
-281.158447,838.256836,453.735352,0.321289
-260.192871,834.228516,451.263428,0.322051
-255.889893,838.623047,458.038330,0.322839
-257.720947,836.608887,451.080322,0.323583
-249.847412,833.312988,448.425293,0.324324
-252.960205,841.186523,451.812744,0.325065
-253.784180,840.454102,448.059082,0.325806
-252.502441,838.714600,448.333740,0.326547
-260.009766,829.467773,447.692871,0.327288
-255.981445,826.538086,451.171875,0.328029
-256.622314,839.172363,423.339844,0.328770
-253.051758,833.770752,442.749023,0.329511
-250.396729,838.989258,444.488525,0.330248
-256.622314,837.249756,451.629639,0.330979
-255.706787,840.087891,446.411133,0.331710
-248.474121,841.094971,424.072266,0.332441
-247.741699,837.341309,443.756104,0.333174
-250.488281,841.369629,449.340820,0.333915
-256.896973,840.545654,444.030762,0.334656
-247.924805,829.833984,442.382812,0.335397
-249.114990,838.073730,444.763184,0.336135
-258.087158,835.693359,444.488525,0.336866
-256.713867,827.819824,441.101074,0.337598
-261.383057,824.981689,438.446045,0.338329
-248.291016,830.017090,456.024170,0.339065
-256.713867,831.024170,444.213867,0.339807
-259.643555,825.347900,439.910889,0.340548
-254.791260,830.017090,445.495605,0.341289
-263.397217,821.685791,445.770264,0.342028
-263.488770,819.305420,448.242188,0.342760
-261.932373,825.347900,444.580078,0.343491
-258.911133,833.404541,447.875977,0.344249
-265.502930,822.052002,437.164307,0.344991
-263.763428,826.354980,431.945801,0.345732
-267.333984,825.347900,438.629150,0.346472
-268.890381,831.207275,438.903809,0.347213
-271.636963,819.763184,438.079834,0.347954
-271.545410,817.474365,431.304932,0.348695
-264.587402,828.186035,437.713623,0.349436
-270.812988,830.474854,431.488037,0.350177
-267.059326,834.045410,438.812256,0.350915
-261.932373,830.017090,442.474365,0.351646
-273.651123,828.826904,441.284180,0.352377
-268.615723,828.643799,434.417725,0.353108
-270.446777,819.305420,440.093994,0.353840
-272.186279,825.347900,438.812256,0.354581
-273.101807,825.531006,439.361572,0.355406
-269.989014,826.995850,431.488037,0.356147
-265.228271,819.030762,442.382812,0.356899
-260.192871,830.932617,423.522949,0.357641
-276.763916,822.875977,440.460205,0.358382
-267.883301,825.439453,439.544678,0.359123
-268.341064,824.249268,441.925049,0.359874
-268.524170,824.707031,439.910889,0.360616
-272.003174,829.925537,440.917969,0.361357
-256.988525,829.925537,438.629150,0.362098
-259.002686,827.636719,438.903809,0.362844
-260.375977,825.347900,434.600830,0.363576
-261.932373,828.094482,440.826416,0.364306
-267.333984,827.270508,443.023682,0.365038
-260.650635,825.073242,444.396973,0.365790
-264.312744,821.411133,433.685303,0.366532
-272.003174,817.108154,431.213379,0.367274
-276.397705,811.340332,439.727783,0.368015
-269.714355,799.713135,438.354492,0.368757
-269.531250,819.580078,441.650391,0.369498
-273.010254,820.861816,439.086914,0.370239
-275.756836,815.551758,441.925049,0.370981
-272.644043,826.904297,438.171387,0.371723
-273.742676,828.277588,433.868408,0.372465
-272.827148,826.721191,435.607910,0.373206
-271.728516,823.608398,434.143066,0.373948
-271.179199,829.833984,437.164307,0.374690
-268.341064,832.489014,435.241699,0.375432
-275.207520,837.249756,440.734863,0.376173
-264.404297,836.975098,436.248779,0.376915
-272.644043,836.517334,444.122314,0.377667
-274.566650,831.115723,448.608398,0.378413
-263.580322,847.045898,467.468262,0.379185
-266.784668,836.517334,446.502686,0.379934
-271.911621,841.094971,455.932617,0.380698
-266.510010,836.791992,447.509766,0.381441
-270.538330,839.355469,445.953369,0.382210
-270.629883,849.517822,455.474854,0.382966
-280.609131,847.045898,455.108643,0.383736
-280.151367,848.052979,453.460693,0.384486
-281.982422,848.968506,450.622559,0.385228
-293.518066,854.003906,447.418213,0.385970
-289.947510,853.637695,443.481445,0.386727
-287.841797,850.799561,444.854736,0.387469
-282.531738,856.475830,443.664551,0.388211
-278.137207,849.975586,447.601318,0.388952
-273.376465,857.025146,448.608398,0.389704
-270.812988,850.158691,446.960449,0.390446
-266.693115,856.292725,448.059082,0.391188
-266.052246,856.750488,453.918457,0.391929
-268.707275,859.130859,454.193115,0.392640
-276.489258,857.116699,454.010010,0.393371
-280.151367,854.919434,449.066162,0.394103
-288.116455,856.658936,444.396973,0.394834
-290.405273,856.292725,446.777344,0.395594
-289.215088,856.384277,452.728271,0.396336
-285.644531,853.820801,458.221436,0.397078
-280.609131,861.053467,458.770752,0.397820
-278.045654,859.039307,457.855225,0.398609
-279.144287,865.447998,469.848633,0.399354
-267.883301,866.455078,446.868896,0.400096
-265.228271,861.694336,470.855713,0.400838
-262.847900,868.835449,470.489502,0.401592
-256.896973,859.313965,462.799072,0.402333
-253.234863,856.018066,462.341309,0.403075
-257.720947,856.109619,453.918457,0.403816
-255.432129,853.820801,454.101562,0.404568
-251.312256,847.320557,447.235107,0.405309
-246.276855,850.067139,443.481445,0.406051
-249.389648,853.729248,449.340820,0.406792
-248.382568,848.876953,437.622070,0.407533
-250.946045,851.989746,441.467285,0.408264
-240.234375,846.862793,447.967529,0.408996
-244.079590,844.116211,452.911377,0.409727
-246.459961,842.468262,453.277588,0.410474
-243.347168,846.313477,453.735352,0.411205
-247.558594,842.926025,449.707031,0.411937
-244.628906,844.299316,458.953857,0.412668
-248.382568,841.369629,454.284668,0.413421
-248.840332,853.363037,459.869385,0.414163
-246.093750,844.024658,454.559326,0.414904
-253.234863,842.376709,453.460693,0.415645
-247.650146,841.186523,445.770264,0.416416
-248.931885,844.757080,446.502686,0.417158
-250.671387,847.045898,444.488525,0.417899
-245.269775,847.412109,453.735352,0.418641
-249.938965,850.616455,455.932617,0.419392
-241.607666,854.827881,457.122803,0.420134
-245.086670,846.405029,456.298828,0.420875
-242.431641,848.693848,451.080322,0.421617
-244.354248,852.172852,455.474854,0.422368
-241.882324,844.757080,461.608887,0.423110
-253.692627,845.123291,456.573486,0.423851
-253.051758,850.708008,449.798584,0.424592
-255.340576,849.151611,444.763184,0.425333
-256.347656,848.052979,444.488525,0.426064
-274.108887,852.722168,452.270508,0.426876
-261.749268,849.151611,442.932129,0.427608
-259.002686,854.003906,452.362061,0.428367
-254.058838,851.440430,450.531006,0.429109
-258.087158,851.898193,455.566406,0.429850
-256.072998,848.327637,452.728271,0.430592
-264.038086,850.433350,457.305908,0.431343
-257.354736,860.870361,464.813232,0.432085
-258.087158,855.194092,453.094482,0.432827
-263.031006,853.088379,456.848145,0.433569
-263.946533,846.771240,453.735352,0.434320
-260.833740,855.010986,454.376221,0.435062
-265.319824,845.031738,453.735352,0.435804
-273.101807,853.363037,446.136475,0.436546
-265.869141,855.194092,424.896240,0.437286
-266.601562,843.658447,451.354980,0.438018
-267.517090,852.447510,448.242188,0.438749
-257.354736,857.666016,450.897217,0.439480
-272.735596,856.384277,448.974609,0.440241
-262.664795,853.820801,447.235107,0.440983
-260.742188,856.933594,448.791504,0.441724
-263.580322,854.278564,440.917969,0.442465
-267.791748,854.644775,450.805664,0.443216
-260.833740,844.665527,447.143555,0.443958
-261.291504,853.729248,448.333740,0.444700
-268.341064,851.165771,443.115234,0.445441
-261.108398,843.658447,444.122314,0.446194
-264.770508,839.721680,439.636230,0.446935
-260.650635,842.285156,434.051514,0.447678
-260.192871,843.383789,446.044922,0.448429
-267.608643,844.390869,443.756104,0.449192
-261.108398,843.933105,442.291260,0.449963
-260.375977,841.369629,443.572998,0.450707
-255.889893,844.207764,444.671631,0.451448
-255.706787,843.109131,447.143555,0.452213
-254.241943,844.940186,441.650391,0.452969
-251.312256,841.278076,444.030762,0.453717
-254.974365,835.876465,441.375732,0.454472
-252.593994,849.792480,437.164307,0.455221
-257.171631,844.573975,445.220947,0.455961
-252.868652,849.243164,442.932129,0.456703
-245.727539,848.876953,449.798584,0.457444
-243.530273,848.785400,446.868896,0.458186
-238.586426,848.327637,447.326660,0.458927
-246.734619,846.405029,448.516846,0.459668
-239.318848,848.052979,443.572998,0.460406
-234.649658,854.278564,447.052002,0.461137
-233.642578,849.700928,437.438965,0.461868
-234.832764,851.715088,453.002930,0.462598
-241.607666,849.060059,448.699951,0.463331
-243.804932,852.813721,446.685791,0.464074
-236.389160,852.447510,448.516846,0.464815
-239.593506,849.243164,452.453613,0.465556
-232.269287,863.342285,451.629639,0.466297
-232.452393,855.560303,454.650879,0.467038
-232.177734,854.644775,450.439453,0.467779
-234.558105,861.511230,458.038330,0.468520
-232.727051,866.180420,454.833984,0.469262
-239.593506,858.489990,455.108643,0.470003
-239.685059,854.095459,453.277588,0.470744
-244.628906,859.771729,455.383301,0.471485
-242.980957,855.651855,448.791504,0.472240
-245.635986,852.813721,444.030762,0.472972
-249.755859,856.658936,457.122803,0.473703
-246.368408,854.370117,454.193115,0.474462
-242.980957,855.834961,450.897217,0.475272
-252.502441,849.060059,450.347900,0.476059
-254.974365,846.130371,453.552246,0.476804
-252.593994,857.849121,454.284668,0.477545
-253.143311,858.489990,459.777832,0.478300
-254.699707,856.018066,451.263428,0.479043
-250.305176,853.820801,453.735352,0.479785
-250.305176,853.546143,453.002930,0.480527
-253.234863,847.869873,454.101562,0.481270
-254.791260,855.926514,459.503174,0.482002
-259.643555,860.229492,456.756592,0.482734
-251.861572,861.785889,461.151123,0.483474
-275.665283,857.391357,461.059570,0.484219
-251.586914,863.525391,462.432861,0.484951
-262.664795,851.898193,456.665039,0.485682
-256.256104,855.560303,456.390381,0.486413
-256.988525,855.743408,456.115723,0.487182
-260.650635,856.475830,457.214355,0.487943
-256.164551,855.743408,451.080322,0.488685
-255.432129,858.764648,443.298340,0.489426
-253.967285,850.708008,450.988770,0.490181
-255.615234,853.271484,445.220947,0.490923
-259.094238,861.694336,449.981689,0.491664
-279.327393,855.743408,446.319580,0.492406
-249.847412,863.342285,445.587158,0.493162
-248.199463,856.567383,453.369141,0.493904
-251.770020,857.757568,448.791504,0.494646
-258.819580,853.271484,447.967529,0.495387
-253.692627,859.954834,452.545166,0.496129
-256.072998,865.722656,457.489014,0.496861
-269.805908,859.863281,447.784424,0.497682
-264.129639,864.074707,457.305908,0.498414
-266.876221,861.419678,456.848145,0.499176
-274.658203,856.475830,453.918457,0.499919
-277.038574,849.060059,453.460693,0.500660
-280.609131,863.433838,461.334229,0.501402
-278.228760,853.546143,450.805664,0.502143
-273.010254,854.003906,456.298828,0.502885
-266.326904,845.123291,450.622559,0.503626
-265.228271,850.616455,449.615479,0.504378
-269.714355,857.116699,448.974609,0.505121
-260.101318,858.489990,446.868896,0.505862
-265.502930,855.377197,450.256348,0.506603
-262.573242,845.855713,446.319580,0.507345
-269.989014,849.792480,443.389893,0.508077
-272.186279,853.179932,442.840576,0.508808
-267.150879,843.200684,446.502686,0.509539
-270.996094,842.651367,443.847656,0.510270
-269.622803,847.686768,446.411133,0.511032
-277.862549,846.862793,447.601318,0.511774
-272.552490,844.390869,445.953369,0.512516
-280.700684,837.707520,447.052002,0.513257
-282.257080,841.644287,447.418213,0.514009
-280.700684,845.855713,447.326660,0.514750
-276.580811,843.566895,445.037842,0.515492
-274.291992,845.123291,451.812744,0.516234
-273.925781,845.397949,457.031250,0.516985
-280.334473,844.482422,453.002930,0.517727
-269.165039,842.010498,453.643799,0.518469
-268.066406,854.644775,450.805664,0.519233
-269.989014,843.200684,443.481445,0.519982
-268.890381,838.897705,424.255371,0.520742
-275.939941,833.587646,441.650391,0.521489
-267.700195,841.552734,444.946289,0.522231
-270.080566,837.524414,442.382812,0.522972
-270.538330,841.278076,444.580078,0.523714
-266.784668,831.573486,440.460205,0.524476
-271.270752,834.777832,441.925049,0.525233
-264.587402,830.383301,450.531006,0.525980
-267.517090,832.672119,438.079834,0.526761
-271.270752,833.038330,440.734863,0.527521
-263.763428,833.679199,447.875977,0.528262
-262.115479,827.545166,438.903809,0.529003
-269.622803,835.876465,452.819824,0.529745
-264.953613,827.545166,449.066162,0.530487
-268.432617,833.496094,451.263428,0.531228
-270.721436,829.193115,452.362061,0.531969
-265.319824,829.559326,445.037842,0.532710
-258.453369,830.841064,444.030762,0.533452
-264.495850,823.150635,445.220947,0.534184
-265.228271,825.439453,449.798584,0.534917
-262.664795,830.566406,451.354980,0.535649
-264.678955,831.481934,449.707031,0.536380
-264.312744,834.869385,445.770264,0.537119
-264.953613,831.573486,451.263428,0.537863
-257.720947,834.594727,454.742432,0.538604
-266.235352,819.488525,443.389893,0.539346
-261.383057,829.833984,442.291260,0.540087
-262.939453,833.404541,445.587158,0.540829
-262.207031,821.136475,446.044922,0.541570
-267.791748,829.833984,450.439453,0.542311
-273.559570,832.672119,443.664551,0.543052
-268.615723,823.425293,444.580078,0.543794
-271.453857,822.601318,443.115234,0.544535
-270.172119,827.362061,441.558838,0.545276
-265.228271,821.502686,444.030762,0.546011
-268.341064,820.953369,441.101074,0.546742
-262.115479,824.157715,446.502686,0.547473
-263.305664,825.531006,450.897217,0.548204
-272.918701,818.847656,442.016602,0.548944
-275.299072,819.122314,452.087402,0.549745
-271.362305,819.030762,443.664551,0.550551
-276.947021,803.649902,434.875488,0.551337
-278.137207,818.939209,442.565918,0.552145
-279.418945,822.143555,442.657471,0.552942
-280.059814,829.376221,439.544678,0.553708
-272.186279,828.369141,445.404053,0.554453
-269.348145,831.939697,442.840576,0.555195
-264.862061,822.601318,442.199707,0.555938
-274.108887,826.995850,445.770264,0.556724
-270.538330,822.418213,447.052002,0.557472
-266.876221,817.291260,439.819336,0.558216
-266.510010,824.981689,445.770264,0.558959
-266.693115,824.066162,440.368652,0.559716
-267.425537,816.101074,429.565430,0.560459
-269.073486,828.735352,432.220459,0.561202
-275.573730,826.629639,437.347412,0.561956
-265.136719,822.418213,445.587158,0.562705
-272.094727,821.868896,439.270020,0.563439
-272.186279,821.136475,432.403564,0.564170
-278.686523,826.812744,440.277100,0.564901
-267.608643,831.024170,444.305420,0.565672
-263.763428,836.242676,448.150635,0.566414
-265.777588,828.735352,441.009521,0.567156
-266.693115,831.298828,445.129395,0.567897
-262.207031,831.207275,440.917969,0.568740
-259.918213,830.749512,442.474365,0.569482
-270.355225,821.136475,440.734863,0.570223
-269.348145,826.171875,435.058594,0.570965
-267.242432,827.453613,439.086914,0.571717
-272.918701,820.220947,428.558350,0.572458
-270.263672,828.460693,435.424805,0.573200
-274.841309,823.608398,429.565430,0.573941
-265.686035,826.080322,433.410645,0.574682
-269.805908,827.911377,432.220459,0.575414
-263.122559,829.650879,439.453125,0.576145
-266.418457,826.171875,440.734863,0.576876
-262.573242,826.354980,443.115234,0.577634
-264.587402,828.826904,445.312500,0.578375
-268.890381,830.200195,440.460205,0.579115
-265.045166,837.707520,439.453125,0.579854
-267.974854,833.770752,439.727783,0.580604
-269.531250,841.461182,435.974121,0.581345
-277.404785,831.024170,445.495605,0.582085
-277.221680,827.911377,441.192627,0.582825
-272.186279,829.742432,442.932129,0.583574
-272.186279,835.327148,446.411133,0.584314
-271.453857,830.017090,425.628662,0.585054
-272.918701,841.003418,439.727783,0.585793
-279.876709,840.087891,442.291260,0.586543
-281.250000,846.405029,449.249268,0.587284
-274.749756,846.771240,439.270020,0.588024
-278.594971,847.961426,437.988281,0.588765
-276.763916,842.834473,441.009521,0.589533
-273.284912,843.200684,446.319580,0.590280
-276.672363,840.087891,447.418213,0.591053
-277.954102,849.609375,446.228027,0.591798
-279.876709,848.144531,448.516846,0.592562
-281.524658,840.545654,448.150635,0.593304
-285.827637,837.890625,448.791504,0.594060
-277.679443,844.573975,443.481445,0.594819
-285.461426,842.376709,443.847656,0.595593
-285.461426,838.256836,446.685791,0.596351
-282.073975,840.637207,443.023682,0.597097
-288.940430,838.806152,443.389893,0.597855
-283.996582,839.080811,446.777344,0.598598
-278.411865,839.996338,444.030762,0.599339
-279.144287,840.454102,467.651367,0.600080
-280.883789,846.496582,450.805664,0.600821
-282.623291,839.080811,449.890137,0.601563
-287.567139,840.637207,456.390381,0.602304
-272.186279,842.926025,444.580078,0.603045
-273.376465,848.052979,428.283691,0.603795
-278.320312,835.693359,436.340332,0.604527
-275.390625,840.270996,442.291260,0.605259
-270.080566,845.214844,445.220947,0.605997
-271.179199,838.897705,441.925049,0.606728
-271.453857,844.116211,441.650391,0.607488
-270.172119,832.946777,440.917969,0.608230
-270.172119,837.890625,439.727783,0.608972
-262.756348,837.524414,442.291260,0.609713
-265.228271,836.517334,444.488525,0.610465
-258.544922,843.292236,445.861816,0.611206
-257.537842,837.341309,448.425293,0.611948
-263.580322,845.855713,451.446533,0.612689
-268.341064,838.073730,453.643799,0.613441
-266.418457,842.742920,448.516846,0.614182
-263.305664,837.982178,454.742432,0.614924
-270.172119,833.587646,447.601318,0.615665
-268.615723,833.862305,447.601318,0.616406
-267.974854,828.094482,443.023682,0.617137
-263.488770,833.221436,443.756104,0.617868
-259.368896,837.158203,450.714111,0.618599
-267.333984,832.855225,445.037842,0.619359
-261.016846,831.665039,446.411133,0.620101
-256.622314,836.791992,441.558838,0.620842
-257.171631,835.235596,437.622070,0.621583
-265.594482,839.538574,448.059082,0.622323
-266.418457,839.447021,445.678711,0.623055
-259.185791,842.193604,446.136475,0.623795
-264.312744,837.799072,452.911377,0.624615
-266.326904,830.841064,454.742432,0.625365
-259.368896,837.158203,450.347900,0.626107
-267.059326,838.714600,447.692871,0.626849
-267.059326,834.411621,445.495605,0.627613
-261.840820,836.059570,458.129883,0.628357
-262.115479,835.510254,449.157715,0.629098
-267.425537,843.841553,446.777344,0.629840
-265.960693,839.630127,460.510254,0.630593
-255.615234,847.137451,449.890137,0.631334
-255.157471,846.496582,452.911377,0.632075
-259.552002,845.855713,450.073242,0.632817
-252.685547,852.722168,461.425781,0.633568
-252.593994,850.982666,453.735352,0.634310
-254.425049,848.968506,450.988770,0.635052
-249.572754,850.799561,445.404053,0.635794
-253.601074,854.095459,449.981689,0.636535
-256.988525,841.461182,451.904297,0.637266
-257.080078,846.588135,454.193115,0.637998
-251.403809,843.109131,458.587646,0.638729
-254.516602,848.236084,452.178955,0.639571
-280.426025,842.376709,445.953369,0.640314
-258.636475,845.489502,455.841064,0.641056
-256.347656,841.094971,451.080322,0.641797
-248.474121,839.172363,441.833496,0.642546
-255.523682,842.285156,447.418213,0.643288
-251.861572,843.200684,447.052002,0.644029
-253.051758,845.489502,449.432373,0.644771
-249.572754,841.918945,448.974609,0.645438
-251.312256,843.109131,438.629150,0.646179
-255.157471,846.313477,442.932129,0.646921
-257.080078,844.665527,448.608398,0.647663
-246.643066,843.475342,421.966553,0.648404
-253.692627,843.200684,444.854736,0.649135
-256.622314,862.518311,439.453125,0.649866
-250.762939,844.207764,447.326660,0.650598
-246.093750,850.067139,444.122314,0.651357
-246.093750,849.060059,446.319580,0.652097
-248.016357,854.736328,445.678711,0.652837
-241.424561,854.644775,449.981689,0.653577
-238.952637,850.524902,447.967529,0.654327
-253.326416,850.158691,452.636719,0.655067
-247.375488,852.539062,450.164795,0.655807
-251.586914,849.060059,447.601318,0.656547
-240.325928,850.708008,446.777344,0.657297
-255.065918,853.363037,450.622559,0.658037
-251.586914,848.052979,448.333740,0.658777
-248.931885,855.560303,446.777344,0.659517
-252.868652,856.475830,451.446533,0.660266
-249.206543,855.560303,447.235107,0.661008
-253.692627,851.165771,445.861816,0.661756
-258.087158,855.743408,452.453613,0.662515
-257.812500,849.151611,449.157715,0.663286
-264.953613,843.383789,440.368652,0.664029
-260.467529,848.876953,448.699951,0.664770
-258.178711,850.067139,445.861816,0.665544
-258.178711,853.271484,443.756104,0.666321
-259.277344,852.996826,440.917969,0.667081
-259.735107,854.187012,442.932129,0.667827
-258.270264,853.912354,439.727783,0.668569
-258.087158,849.426270,442.016602,0.669327
-247.833252,850.708008,447.509766,0.670070
-258.178711,848.052979,440.551758,0.670811
-254.791260,864.074707,442.291260,0.671552
-255.157471,860.229492,437.713623,0.672303
-261.291504,858.581543,441.925049,0.673045
-249.389648,860.778809,445.037842,0.673787
-255.981445,858.306885,448.516846,0.674528
-253.967285,869.018555,459.503174,0.675268
-237.945557,857.025146,453.826904,0.676000
-267.791748,850.250244,451.721191,0.676732
-261.566162,856.933594,458.038330,0.677463
-259.002686,863.342285,453.826904,0.678221
-267.608643,863.067627,454.559326,0.678961
-270.263672,855.560303,455.474854,0.679701
-269.714355,850.158691,454.742432,0.680441
-264.495850,858.398438,455.566406,0.681190
-262.573242,856.842041,450.622559,0.681930
-264.038086,860.137939,447.784424,0.682670
-254.333496,850.067139,447.784424,0.683410
-253.784180,851.531982,452.178955,0.684159
-248.840332,853.088379,446.502686,0.684898
-252.777100,855.651855,441.833496,0.685638
-253.692627,856.750488,443.481445,0.686377
-255.889893,856.292725,445.587158,0.687118
-261.840820,846.771240,436.065674,0.687850
-259.185791,855.285645,439.544678,0.688595
-262.573242,856.018066,443.481445,0.689329
-269.348145,847.961426,434.234619,0.690090
-272.277832,854.187012,443.572998,0.690832
-265.686035,857.666016,444.763184,0.691574
-264.495850,856.109619,443.481445,0.692316
-273.925781,862.976074,457.580566,0.692906
-273.010254,853.729248,446.502686,0.693637
-262.390137,865.997314,450.164795,0.694369
-263.397217,863.983154,454.284668,0.695100
-275.207520,862.884521,455.474854,0.695852
-276.947021,858.856201,455.108643,0.696594
-271.728516,860.137939,458.221436,0.697336
-278.503418,855.560303,443.206787,0.698078
-275.024414,855.010986,442.657471,0.698831
-272.552490,862.243652,440.826416,0.699635
-276.580811,864.807129,449.798584,0.700382
-274.566650,855.194092,452.911377,0.701125
-274.841309,853.179932,442.382812,0.701888
-273.193359,853.454590,438.171387,0.702635
-269.897461,851.074219,446.319580,0.703377
-267.791748,855.834961,440.002441,0.704141
-267.059326,858.032227,447.967529,0.704885
-271.545410,852.447510,440.826416,0.705626
-269.805908,848.510742,453.643799,0.706368
-271.453857,842.193604,445.770264,0.707119
-265.411377,847.503662,449.157715,0.707861
-272.369385,845.947266,448.791504,0.708603
-279.418945,845.764160,449.981689,0.709344
-270.721436,844.573975,447.784424,0.710085
-271.362305,846.038818,446.685791,0.710903
-270.446777,844.757080,451.812744,0.711635
-271.179199,848.510742,440.093994,0.712366
-262.756348,842.193604,441.192627,0.713126
-261.291504,834.411621,440.551758,0.713869
-261.199951,843.658447,439.178467,0.714610
-267.059326,832.672119,440.460205,0.715352
-261.108398,830.932617,437.896729,0.716103
-260.101318,834.777832,446.960449,0.716845
-249.847412,837.707520,446.960449,0.717587
-254.882812,840.087891,440.368652,0.718328
-252.685547,839.904785,448.608398,0.719079
-258.544922,835.876465,448.425293,0.719820
-255.798340,833.404541,443.847656,0.720562
-260.833740,836.883545,446.685791,0.721303
-264.495850,834.960938,439.453125,0.722047
-263.305664,840.637207,443.298340,0.722778
-266.326904,844.299316,440.826416,0.723509
-261.383057,865.081787,444.122314,0.724240
-256.072998,842.926025,447.692871,0.725001
-254.882812,844.390869,439.178467,0.725743
-256.347656,838.714600,441.009521,0.726484
-253.784180,844.482422,442.932129,0.727226
-279.327393,848.968506,449.249268,0.727977
-254.425049,852.813721,449.615479,0.728719
-250.305176,859.497070,454.559326,0.729461
-253.875732,851.715088,449.340820,0.730202
-251.495361,852.630615,452.636719,0.730955
-253.509521,853.454590,455.291748,0.731698
-255.340576,855.834961,453.826904,0.732449
-263.580322,846.496582,449.157715,0.733197
-267.700195,847.320557,449.523926,0.733985
-268.981934,852.630615,449.249268,0.734727
-265.594482,847.229004,450.988770,0.735469
-268.890381,850.250244,451.812744,0.736234
-262.664795,850.341797,454.193115,0.737012
-267.242432,848.968506,449.432373,0.737759
-260.467529,853.179932,453.094482,0.738506
-261.657715,854.827881,457.214355,0.739247
-269.897461,855.285645,461.059570,0.740007
-261.932373,845.581055,449.249268,0.740750
-261.016846,848.602295,465.545654,0.741491
-261.657715,856.658936,445.587158,0.742232
-260.101318,848.785400,439.819336,0.742988
-264.495850,852.722168,446.411133,0.743730
-266.052246,856.658936,450.347900,0.744471
-263.488770,856.842041,449.157715,0.745212
-262.573242,849.426270,447.235107,0.745953
-261.932373,851.898193,444.396973,0.746684
-265.502930,855.285645,455.017090,0.747416
-264.862061,854.644775,454.284668,0.748147
-270.263672,844.848633,455.017090,0.748907
-261.383057,841.094971,455.200195,0.749650
-257.904053,844.848633,452.728271,0.750391
-262.756348,847.229004,446.594238,0.751133
-260.559082,847.229004,444.671631,0.751885
-253.509521,842.742920,445.861816,0.752626
-261.474609,838.623047,450.073242,0.753368
-259.552002,842.285156,434.692383,0.754110
-259.185791,848.876953,440.734863,0.754860
-253.967285,843.841553,441.284180,0.755601
-257.446289,847.686768,449.890137,0.756343
-255.523682,847.686768,446.319580,0.757084
-257.263184,846.588135,445.037842,0.757825
-254.882812,841.461182,448.059082,0.758557
-249.114990,843.933105,449.707031,0.759288
-253.326416,854.553223,450.622559,0.760019
-250.122070,850.524902,450.805664,0.760779
-250.488281,845.581055,441.375732,0.761520
-254.150391,848.602295,446.044922,0.762262
-255.981445,854.003906,447.052002,0.763003
-256.164551,847.503662,440.185547,0.763744
-252.960205,846.130371,467.651367,0.764476
-252.777100,847.503662,440.643311,0.765208
-257.354736,849.243164,440.460205,0.765939
-251.312256,844.573975,446.319580,0.766693
-249.206543,844.940186,452.087402,0.767435
-248.382568,841.552734,457.855225,0.768177
-242.614746,847.595215,454.467773,0.768919
-242.706299,845.214844,445.129395,0.769671
-249.938965,842.376709,451.263428,0.770433
-247.650146,837.707520,448.242188,0.771165
-247.924805,842.559814,443.664551,0.771920
-250.488281,850.982666,444.671631,0.772652
-250.122070,843.750000,446.502686,0.773383
-255.340576,845.672607,443.847656,0.774131
-254.333496,820.495605,441.558838,0.774878
-255.249023,845.581055,449.523926,0.775670
-257.354736,847.320557,436.798096,0.776407
-255.157471,842.834473,438.903809,0.777151
-254.241943,840.454102,442.016602,0.777909
-249.389648,826.538086,449.066162,0.778643
-250.213623,839.538574,448.516846,0.779375
-252.960205,842.468262,447.052002,0.780106
-253.692627,841.461182,467.193604,0.780871
-249.389648,844.482422,448.425293,0.781700
-257.446289,843.200684,449.615479,0.782442
-257.537842,841.552734,447.509766,0.783184
-257.354736,842.926025,446.868896,0.783927
-260.375977,867.095947,446.868896,0.784658
-261.840820,845.489502,443.389893,0.785389
-265.045166,842.193604,447.509766,0.786121
-269.989014,834.503174,445.953369,0.786880
-266.876221,839.447021,447.692871,0.787621
-271.270752,846.221924,447.692871,0.788363
-267.242432,841.094971,449.981689,0.789104
-268.615723,847.595215,448.608398,0.789855
-276.947021,847.045898,446.044922,0.790596
-275.299072,843.017578,448.791504,0.791338
-272.644043,843.292236,448.150635,0.792079
-276.214600,844.665527,445.678711,0.792829
-272.277832,845.123291,450.256348,0.793571
-271.270752,866.912842,446.228027,0.794312
-277.496338,842.376709,453.918457,0.795054
-276.855469,846.405029,447.418213,0.795795
-277.587891,844.757080,441.833496,0.796527
-272.003174,854.003906,452.453613,0.797258
-274.108887,845.306396,455.108643,0.797990
-281.799316,853.637695,450.897217,0.798752
-270.996094,848.052979,458.587646,0.799493
-278.320312,843.475342,447.509766,0.800233
-275.024414,842.193604,442.474365,0.800974
-280.426025,845.031738,443.298340,0.801724
-276.763916,841.735840,441.284180,0.802470
-274.383545,844.573975,444.030762,0.803215
-269.531250,840.545654,441.833496,0.803972
-279.052734,840.911865,438.995361,0.804745
-270.355225,839.447021,442.474365,0.805488
-261.291504,839.813232,438.720703,0.806233
-265.960693,845.489502,443.389893,0.806980
-267.791748,834.136963,441.467285,0.807785
-261.840820,843.933105,437.438965,0.808542
-260.650635,847.229004,440.093994,0.809296
-267.517090,840.911865,430.297852,0.810044
-267.425537,847.320557,441.284180,0.810814
-271.728516,844.299316,435.882568,0.811560
-280.242920,838.165283,437.255859,0.812302
-286.102295,847.686768,432.678223,0.813044
-284.729004,851.531982,436.065674,0.813785
-277.679443,845.581055,444.305420,0.814548
-277.587891,848.327637,449.981689,0.815296
-272.918701,853.454590,449.981689,0.816061
-275.299072,841.461182,448.425293,0.816803
-272.003174,850.524902,445.129395,0.817544
-270.812988,845.947266,448.150635,0.818286
-268.798828,849.060059,444.580078,0.819041
-268.157959,851.440430,444.213867,0.819783
-260.742188,852.996826,461.608887,0.820525
-280.883789,855.468750,453.735352,0.821266
-268.798828,850.982666,450.531006,0.822009
-267.425537,849.792480,446.502686,0.822741
-265.319824,848.419189,447.875977,0.823472
-262.390137,845.947266,447.967529,0.824203
-269.348145,835.510254,440.368652,0.824958
-264.587402,842.102051,448.425293,0.825700
-259.643555,852.722168,449.890137,0.826442
-259.460449,847.686768,443.939209,0.827183
-248.840332,843.750000,447.875977,0.827935
-258.819580,842.376709,449.066162,0.828677
-261.108398,838.165283,446.777344,0.829419
-255.615234,838.623047,444.580078,0.830160
-262.481689,841.369629,456.298828,0.830911
-265.869141,836.608887,446.411133,0.831652
-260.101318,838.989258,444.030762,0.832393
-260.467529,842.102051,446.777344,0.833134
-268.798828,839.172363,448.974609,0.833876
-263.031006,841.369629,437.805176,0.834607
-262.847900,845.764160,421.966553,0.835338
-272.277832,837.158203,442.382812,0.836069
-267.059326,834.869385,446.319580,0.836828
-267.333984,835.418701,451.812744,0.837570
-265.686035,836.151123,447.601318,0.838312
-262.664795,841.186523,442.565918,0.839053
-265.960693,834.228516,448.150635,0.839805
-262.115479,838.531494,448.059082,0.840547
-261.474609,837.341309,463.073730,0.841288
-266.876221,835.601807,448.974609,0.842030
-266.326904,832.672119,442.565918,0.842780
-262.023926,827.728271,444.946289,0.843515
-263.122559,835.327148,447.692871,0.844246
-262.023926,834.777832,450.531006,0.844988
-262.939453,833.221436,446.685791,0.845778
-263.854980,829.376221,442.108154,0.846521
-258.911133,829.833984,451.354980,0.847263
-261.566162,834.045410,444.213867,0.848005
-264.312744,833.404541,452.178955,0.848757
-264.221191,835.510254,430.297852,0.849499
-264.587402,837.249756,449.340820,0.850241
-269.439697,832.397461,445.037842,0.851039
-267.333984,826.812744,436.065674,0.851806
-268.524170,835.601807,438.262939,0.852657
-272.644043,830.749512,441.284180,0.853411
-276.397705,827.911377,430.755615,0.854167
-267.425537,833.862305,438.812256,0.854924
-269.073486,837.432861,433.593750,0.855684
-269.531250,828.002930,430.847168,0.856441
-266.235352,841.827393,440.643311,0.857200
-255.523682,843.658447,436.431885,0.857957
-262.481689,844.116211,447.326660,0.858713
-279.968262,841.918945,449.523926,0.859473
-265.960693,839.355469,448.333740,0.860254
-256.805420,840.362549,441.925049,0.861003
-255.706787,846.771240,439.727783,0.861738
-259.552002,837.799072,442.565918,0.862470
-258.911133,845.397949,443.481445,0.863255
-260.009766,864.440918,434.967041,0.863999
-253.875732,843.200684,441.650391,0.864740
-250.030518,847.229004,448.974609,0.865481
-253.143311,848.693848,466.644287,0.866232
-254.608154,841.827393,442.749023,0.866974
-252.593994,843.841553,445.129395,0.867715
-255.340576,845.306396,439.636230,0.868456
-246.551514,854.827881,441.833496,0.869207
-245.910645,846.313477,441.558838,0.869949
-248.291016,851.074219,440.460205,0.870690
-248.016357,852.264404,447.052002,0.871432
-252.136230,849.609375,441.833496,0.872174
-246.917725,848.327637,449.157715,0.872906
-255.340576,850.341797,447.235107,0.873637
-254.699707,846.771240,442.657471,0.874377
-255.249023,846.588135,444.763184,0.875157
-255.798340,852.355957,443.572998,0.875925
-260.925293,850.158691,439.910889,0.876669
-268.249512,847.778320,441.650391,0.877411
-260.742188,847.320557,448.333740,0.878169
-262.390137,851.715088,441.925049,0.878911
-256.805420,846.221924,449.707031,0.879682
-254.608154,851.623535,454.193115,0.880439
-255.615234,852.172852,443.389893,0.881212
-254.058838,850.341797,449.340820,0.881971
-253.967285,851.165771,452.362061,0.882713
-257.446289,847.961426,450.531006,0.883455
-260.742188,854.553223,451.995850,0.884083
-261.932373,852.081299,450.805664,0.884824
-261.108398,852.172852,444.488525,0.885566
-256.439209,856.475830,454.376221,0.886307
-255.065918,862.426758,449.249268,0.887058
-281.066895,857.025146,452.362061,0.887799
-265.411377,853.546143,451.080322,0.888541
-258.819580,858.306885,447.875977,0.889283
-260.742188,850.067139,445.220947,0.890026
-268.615723,858.398438,453.826904,0.890758
-268.707275,848.419189,448.242188,0.891489
-264.678955,849.060059,445.312500,0.892220
-261.657715,857.116699,453.643799,0.892979
-267.150879,847.961426,447.692871,0.893721
-264.862061,852.813721,449.340820,0.894463
-266.235352,856.567383,446.960449,0.895205
-261.016846,851.806641,447.784424,0.895956
-271.728516,849.243164,444.030762,0.896697
-260.833740,853.546143,432.861328,0.897439
-265.960693,845.489502,441.467285,0.898180
-263.214111,850.708008,443.572998,0.898931
-267.608643,853.729248,441.284180,0.899673
-267.242432,850.433350,448.059082,0.900414
-265.136719,855.102539,445.861816,0.901156
-258.728027,857.757568,468.566895,0.901897
-262.756348,843.109131,451.538086,0.902628
-265.045166,847.137451,447.601318,0.903360
-270.263672,853.363037,446.777344,0.904091
-264.678955,854.095459,447.692871,0.904850
-265.136719,846.862793,445.770264,0.905592
-261.749268,848.968506,445.495605,0.906334
-266.418457,848.968506,446.136475,0.907075
-269.073486,851.623535,442.108154,0.907817
-268.615723,838.256836,441.650391,0.908548
-258.819580,847.961426,439.727783,0.909279
-257.446289,846.496582,440.093994,0.910011
-261.657715,849.975586,436.431885,0.910763
-256.622314,854.827881,438.995361,0.911504
-262.207031,849.700928,441.192627,0.912244
-262.573242,823.150635,437.072754,0.912984
-262.573242,840.728760,432.678223,0.913759
-260.833740,847.961426,438.079834,0.914500
-262.847900,843.933105,441.375732,0.915239
-263.214111,847.778320,440.551758,0.915980
-258.819580,846.038818,438.079834,0.916727
-257.904053,844.940186,433.685303,0.917467
-259.918213,844.665527,435.424805,0.918207
-264.587402,850.433350,432.037354,0.918947
-257.171631,845.397949,437.530518,0.919697
-256.988525,849.517822,437.805176,0.920437
-255.523682,854.095459,438.903809,0.921177
-263.214111,848.236084,436.431885,0.921917
-258.911133,848.419189,435.333252,0.922684
-254.608154,843.292236,446.777344,0.923502
-258.636475,843.475342,446.502686,0.924234
-252.777100,842.834473,442.199707,0.924966
-255.706787,848.602295,445.587158,0.925766
-249.389648,840.545654,447.967529,0.926536
-251.678467,847.320557,448.242188,0.927280
-253.784180,852.172852,442.749023,0.928023
-252.044678,850.524902,444.030762,0.928777
-259.643555,847.503662,444.122314,0.929549
-257.995605,846.771240,448.242188,0.930305
-256.805420,852.539062,449.615479,0.931097
-255.065918,852.264404,449.157715,0.931859
-253.051758,860.961914,452.362061,0.932618
-261.383057,861.236572,455.749512,0.933369
-256.622314,850.067139,443.572998,0.934132
-256.347656,861.053467,451.171875,0.934865
-258.636475,857.574463,452.453613,0.935596
-265.319824,859.313965,449.157715,0.936327
-264.495850,856.201172,455.291748,0.937091
-272.644043,858.032227,462.158203,0.937834
-274.475098,852.996826,453.002930,0.938576
-268.157959,854.187012,450.988770,0.939318
-267.974854,847.412109,448.425293,0.940074
-275.665283,848.876953,450.073242,0.940823
-274.841309,850.799561,446.319580,0.941565
-267.150879,856.109619,446.411133,0.942307
-265.960693,857.025146,447.601318,0.943062
-272.277832,855.834961,453.094482,0.943804
-260.559082,850.250244,452.270508,0.944546
-264.129639,856.842041,455.749512,0.945298
-264.770508,870.483398,454.193115,0.946054
-263.397217,864.624023,457.946777,0.946815
-270.446777,858.306885,449.157715,0.947559
-270.355225,856.201172,449.340820,0.948300
-268.615723,852.722168,439.453125,0.949061
-271.087646,851.715088,452.911377,0.949804
-272.186279,860.046387,451.263428,0.950545
-271.911621,854.736328,444.122314,0.951286
-273.468018,855.285645,445.678711,0.952044
-269.714355,863.616943,448.150635,0.952799
-270.355225,857.025146,450.256348,0.953547
-267.974854,865.905762,458.312988,0.954305
-272.918701,867.279053,461.517334,0.955097
-264.038086,860.046387,456.756592,0.955839
-267.700195,859.039307,452.636719,0.956580
-264.862061,856.475830,463.256836,0.957321
-263.580322,854.827881,454.559326,0.958074
-265.502930,846.588135,448.242188,0.958816
-263.122559,842.834473,451.904297,0.959558
-262.939453,853.363037,448.516846,0.960301
-262.847900,858.581543,447.143555,0.961044
-263.031006,847.320557,432.769775,0.961775
-264.129639,846.221924,438.171387,0.962507
-252.227783,849.060059,433.044434,0.963237
-256.347656,846.679688,435.150146,0.963997
-248.748779,842.376709,439.453125,0.964739
-251.129150,844.573975,444.122314,0.965480
-245.727539,840.637207,445.220947,0.966222
-244.445801,846.313477,446.868896,0.966973
-239.410400,852.264404,443.572998,0.967715
-238.037109,850.341797,448.150635,0.968457
-238.311768,847.320557,450.714111,0.969199
-242.614746,845.764160,443.756104,0.969950
-238.861084,844.573975,451.812744,0.970692
-243.621826,844.665527,442.932129,0.971434
-238.769531,847.869873,442.199707,0.972175
-250.762939,843.475342,441.284180,0.972922
-252.685547,844.207764,438.995361,0.973654
-247.833252,839.630127,436.157227,0.974385
-247.650146,847.229004,442.108154,0.975117
-248.291016,843.017578,439.453125,0.975877
-246.093750,849.060059,440.917969,0.976619
-243.713379,850.708008,443.206787,0.977364
-245.544434,846.496582,436.981201,0.978105
-237.396240,849.609375,439.910889,0.978856
-237.762451,852.813721,449.615479,0.979596
-246.643066,851.898193,442.016602,0.980337
-249.114990,840.820312,433.502197,0.981078
-251.770020,848.236084,435.974121,0.981819
-261.016846,847.869873,440.643311,0.982550
-253.509521,847.137451,445.129395,0.983281
-262.207031,845.123291,445.587158,0.984012
-264.129639,847.686768,446.685791,0.984763
-259.918213,848.510742,442.108154,0.985503
-266.143799,851.531982,442.565918,0.986243
-269.989014,856.475830,448.608398,0.987020
-273.193359,850.982666,449.981689,0.987762
-259.735107,851.623535,455.657959,0.988503
-266.693115,840.728760,455.566406,0.989244
-272.644043,838.989258,454.925537,0.989985
-276.123047,841.918945,448.242188,0.990725
-277.679443,839.813232,443.572998,0.991466
-270.172119,837.158203,443.664551,0.992207
-269.622803,843.109131,443.389893,0.992947
-270.172119,837.432861,435.882568,0.993679
-272.277832,836.608887,440.368652,0.994410
-278.686523,820.770264,434.875488,0.995227
-280.426025,838.073730,437.255859,0.995961
-276.763916,844.482422,441.741943,0.996703
-279.144287,839.172363,430.938721,0.997444
-273.651123,840.179443,442.016602,0.998185
-268.798828,845.397949,438.812256,0.998926
-273.101807,844.024658,440.826416,0.999666
-274.291992,834.777832,447.509766,1.000408
-276.763916,840.637207,448.699951,1.001149
-282.714844,840.820312,444.854736,1.001944
-280.334473,845.489502,445.678711,1.002713
-280.426025,846.954346,445.129395,1.003455
-278.320312,839.904785,442.016602,1.004196
-277.221680,840.637207,440.826416,1.004956
-281.890869,851.074219,447.418213,1.005697
-281.799316,842.742920,450.805664,1.006438
-280.334473,836.059570,447.509766,1.007179
-279.052734,844.757080,448.333740,1.007927
-277.313232,840.911865,466.003418,1.008669
-274.566650,844.116211,445.587158,1.009410
-275.390625,840.911865,445.495605,1.010151
-282.257080,842.926025,441.101074,1.010894
-276.031494,845.947266,439.819336,1.011625
-266.418457,840.820312,435.241699,1.012357
-270.904541,838.256836,437.164307,1.013088
-268.341064,840.637207,442.565918,1.013853
-264.770508,849.792480,442.932129,1.014594
-260.742188,849.975586,441.833496,1.015335
-261.474609,842.285156,441.650391,1.016088
-264.587402,842.559814,442.657471,1.016852
-261.291504,849.060059,447.418213,1.017612
-258.728027,850.250244,450.897217,1.018356
-262.756348,846.588135,451.904297,1.019097
-259.002686,843.933105,453.094482,1.019856
-262.847900,844.482422,454.833984,1.020605
-264.587402,850.799561,445.770264,1.021346
-262.756348,841.461182,453.277588,1.022086
-264.862061,844.299316,450.897217,1.022840
-271.911621,839.904785,441.833496,1.023596
-267.608643,840.087891,440.277100,1.024342
-266.235352,838.348389,465.454102,1.025100
-261.840820,827.453613,443.115234,1.025869
-259.643555,831.024170,442.474365,1.026610
-259.918213,836.334229,441.101074,1.027351
-255.340576,837.432861,437.438965,1.028091
-255.065918,836.151123,444.030762,1.028845
-253.509521,844.665527,443.115234,1.029586
-235.198975,834.869385,439.910889,1.030327
-252.227783,835.235596,437.438965,1.031067
-256.988525,838.165283,437.713623,1.031809
-268.981934,835.876465,446.502686,1.032541
-255.523682,845.214844,450.531006,1.033271
-264.495850,836.700439,449.798584,1.034002
-265.045166,827.728271,460.784912,1.034760
-263.854980,841.827393,454.833984,1.035502
-265.411377,844.390869,452.545166,1.036242
-257.080078,838.623047,450.347900,1.036984
-256.896973,837.341309,447.418213,1.037734
-256.896973,841.552734,450.347900,1.038475
-265.136719,847.137451,444.305420,1.039216
-263.580322,850.341797,450.805664,1.039957
-260.467529,851.898193,451.446533,1.040707
-249.664307,844.848633,450.622559,1.041448
-253.417969,824.981689,441.009521,1.042189
-260.101318,837.066650,442.016602,1.042929
-263.671875,840.637207,450.714111,1.043670
-262.481689,844.207764,426.452637,1.044401
-268.157959,848.602295,449.798584,1.045133
-266.143799,844.116211,452.453613,1.045864
-261.474609,838.714600,442.199707,1.046623
-264.862061,837.615967,456.115723,1.047364
-270.080566,841.461182,457.763672,1.048105
-267.883301,841.552734,450.347900,1.048845
-264.129639,847.595215,459.960938,1.049596
-270.538330,841.003418,447.052002,1.050337
-268.157959,844.848633,454.833984,1.051078
-274.475098,846.130371,444.671631,1.051819
-264.678955,850.616455,450.347900,1.052559
-270.446777,842.193604,439.910889,1.053291
-267.517090,839.904785,442.657471,1.054022
-262.298584,851.623535,443.389893,1.054754
-266.418457,843.933105,440.460205,1.055399
-269.073486,839.447021,443.115234,1.056136
-279.052734,847.595215,440.643311,1.056904
-271.179199,849.426270,443.298340,1.057647
-272.735596,842.742920,446.411133,1.058400
-274.658203,840.820312,439.727783,1.059141
-272.735596,850.891113,443.115234,1.059882
-272.735596,850.891113,444.122314,1.060623
-277.587891,842.834473,442.382812,1.061373
-270.721436,846.954346,446.777344,1.062114
-277.130127,835.052490,453.918457,1.062855
-279.785156,837.707520,451.263428,1.063596
-278.961182,833.129883,444.580078,1.064210
-282.806396,837.432861,441.558838,1.064941
-272.827148,848.510742,440.460205,1.065764
-267.700195,844.940186,435.882568,1.066495
-267.150879,835.235596,431.854248,1.067253
-272.277832,845.031738,444.763184,1.067994
-274.932861,841.827393,441.741943,1.068735
-272.003174,846.496582,443.572998,1.069477
-266.876221,837.799072,442.840576,1.070228
-266.418457,838.623047,437.072754,1.070970
-263.122559,849.792480,437.713623,1.071711
-267.242432,846.862793,438.720703,1.072451
-266.693115,843.566895,432.312012,1.073201
-270.172119,838.897705,437.805176,1.073942
-268.615723,837.249756,428.741455,1.074683
-264.129639,841.552734,442.840576,1.075424
-263.214111,837.249756,439.178467,1.076164
-260.284424,864.990234,441.192627,1.076916
-274.200439,841.827393,446.685791,1.077683
-269.989014,839.172363,437.255859,1.078428
-267.150879,843.566895,453.186035,1.079178
-264.221191,840.454102,446.594238,1.079934
-264.495850,835.052490,440.185547,1.080690
-273.376465,838.806152,447.875977,1.081449
-273.925781,839.630127,446.868896,1.082208
-266.418457,835.235596,441.741943,1.082966
-261.566162,837.799072,442.840576,1.083725
-276.489258,837.615967,423.614502,1.084491
-270.904541,834.686279,443.664551,1.085235
-270.721436,834.503174,449.615479,1.085981
-279.510498,834.045410,440.093994,1.086717
-272.094727,833.953857,443.756104,1.087463
-275.390625,835.784912,443.572998,1.088212
-276.855469,833.862305,445.861816,1.088961
-275.482178,835.876465,440.734863,1.089708
-276.306152,863.525391,450.988770,1.090471
-272.460938,837.341309,448.059082,1.091213
-268.615723,839.630127,447.692871,1.091953
-267.791748,840.454102,451.263428,1.092715
-269.989014,845.489502,456.115723,1.093497
-271.820068,838.531494,447.692871,1.094243
-273.284912,866.271973,447.326660,1.094998
-268.981934,846.496582,457.031250,1.095740
-264.953613,844.940186,452.728271,1.096499
-269.989014,838.623047,447.143555,1.097241
-270.446777,833.679199,450.897217,1.097982
-264.678955,846.313477,450.347900,1.098723
-270.263672,835.876465,447.052002,1.099473
-263.488770,839.172363,443.298340,1.100214
-267.150879,837.615967,445.404053,1.100955
-268.615723,831.207275,449.707031,1.101696
-263.305664,834.411621,451.995850,1.102438
-258.087158,840.637207,451.080322,1.103170
-258.636475,833.129883,448.516846,1.103901
-258.544922,841.094971,451.263428,1.104632
-262.023926,833.862305,450.073242,1.105394
-261.199951,835.052490,449.432373,1.106135
-258.819580,834.777832,446.502686,1.106876
-258.453369,832.489014,452.819824,1.107617
-256.805420,830.383301,448.516846,1.108368
-260.650635,824.066162,458.587646,1.109109
-264.770508,827.453613,448.333740,1.109850
-262.481689,828.002930,447.052002,1.110591
-261.383057,828.735352,440.643311,1.111341
-235.198975,820.495605,448.333740,1.112082
-251.129150,830.749512,442.932129,1.112823
-243.896484,830.657959,439.086914,1.113564
-252.685547,821.319580,444.030762,1.114304
-255.065918,823.333740,443.664551,1.115036
-253.326416,830.383301,445.678711,1.115766
-246.093750,835.235596,444.580078,1.116497
-250.396729,829.284668,446.044922,1.117257
-251.495361,834.045410,444.671631,1.117999
-251.312256,830.749512,438.079834,1.118740
-250.579834,829.559326,448.883057,1.119481
-248.657227,822.601318,438.446045,1.120222
-248.565674,828.918457,434.600830,1.120954
-255.523682,821.960449,439.910889,1.121684
-255.706787,822.235107,438.903809,1.122415
-253.051758,828.735352,432.678223,1.123166
-256.530762,830.291748,431.671143,1.123906
-260.284424,831.481934,430.938721,1.124646
-280.975342,830.200195,439.910889,1.125386
-262.481689,834.136963,448.059082,1.126136
-267.883301,837.432861,434.051514,1.126883
-265.319824,834.136963,441.009521,1.127625
-265.319824,831.390381,437.255859,1.128366
-264.862061,836.608887,442.291260,1.129035
-266.052246,831.115723,434.967041,1.129777
-267.425537,838.439941,439.636230,1.130518
-265.594482,840.362549,443.115234,1.131260
-275.482178,842.742920,436.798096,1.132011
-267.059326,843.933105,442.199707,1.132752
-263.397217,820.404053,442.932129,1.133493
-275.665283,849.151611,447.601318,1.134235
-269.805908,848.602295,445.770264,1.134976
-268.249512,849.609375,445.220947,1.135707
-267.791748,846.496582,450.897217,1.136520
-266.967773,849.060059,458.679199,1.137252
-269.897461,848.144531,449.523926,1.138011
-271.728516,852.722168,442.016602,1.138753
-269.989014,851.806641,453.643799,1.139494
-263.580322,852.172852,453.918457,1.140235
-264.678955,855.743408,446.868896,1.140986
-264.129639,852.905273,446.960449,1.141727
-260.101318,850.891113,443.115234,1.142468
-259.735107,852.447510,447.326660,1.143209
-251.129150,851.531982,442.291260,1.143959
-260.650635,862.243652,446.044922,1.144701
-257.354736,857.757568,445.129395,1.145442
-257.263184,861.602783,446.044922,1.146183
-253.784180,853.363037,443.572998,1.146850
-248.382568,853.363037,450.988770,1.147581
-251.678467,856.201172,439.819336,1.148312
-253.875732,855.102539,446.136475,1.149043
-252.410889,855.468750,442.108154,1.149802
-253.967285,849.060059,450.256348,1.150543
-252.227783,850.708008,452.270508,1.151283
-258.178711,852.355957,450.714111,1.152023
-256.072998,854.553223,450.073242,1.152802
-260.650635,853.179932,444.580078,1.153546
-256.530762,851.623535,438.262939,1.154287
-253.784180,846.679688,443.572998,1.155066
-251.770020,851.715088,445.861816,1.155828
-255.065918,850.067139,445.770264,1.156587
-249.664307,856.842041,449.249268,1.157344
-253.326416,861.511230,444.763184,1.158108
-253.143311,855.285645,437.622070,1.158875
-258.819580,858.306885,444.488525,1.159642
-255.157471,860.778809,443.298340,1.160405
-250.579834,859.771729,446.594238,1.161192
-259.552002,856.292725,447.967529,1.161952
-268.249512,860.504150,447.601318,1.162741
-263.214111,861.694336,446.228027,1.163496
-264.221191,857.940674,448.791504,1.164273
-264.953613,865.264893,445.495605,1.165032
-267.517090,856.750488,444.671631,1.165774
-264.587402,855.194092,443.298340,1.166515
-261.657715,848.968506,450.073242,1.167273
-263.854980,855.926514,444.763184,1.168014
-261.383057,862.060547,445.953369,1.168755
-260.925293,852.630615,447.601318,1.169496
-262.756348,862.609863,446.960449,1.170247
-262.390137,859.680176,443.939209,1.170989
-260.009766,856.475830,438.262939,1.171730
-255.340576,858.215332,438.995361,1.172471
-278.503418,852.264404,440.277100,1.173217
-258.728027,851.898193,434.967041,1.173950
-256.530762,850.616455,437.896729,1.174681
-260.925293,841.186523,434.417725,1.175412
-262.207031,853.820801,440.002441,1.176168
-280.517578,850.433350,441.833496,1.176910
-259.368896,858.581543,422.790527,1.177651
-271.270752,859.588623,445.129395,1.178392
-267.700195,853.454590,440.277100,1.179158
-273.010254,854.003906,444.946289,1.179899
-265.411377,856.018066,447.967529,1.180641
-267.608643,849.060059,443.115234,1.181383
-267.791748,854.187012,451.904297,1.182137
-273.834229,853.820801,447.875977,1.182878
-274.566650,858.306885,445.312500,1.183619
-269.073486,850.158691,442.199707,1.184360
-274.291992,850.524902,438.446045,1.185101
-279.327393,849.517822,443.206787,1.185833
-276.489258,853.637695,443.389893,1.186564
-271.728516,841.369629,439.910889,1.187295
-271.636963,847.961426,445.770264,1.188054
-270.721436,850.158691,438.629150,1.188795
-254.608154,852.722168,438.171387,1.189536
-261.016846,852.905273,448.516846,1.190278
-257.812500,857.940674,441.741943,1.191019
-259.460449,849.151611,446.685791,1.191750
-258.636475,846.313477,450.897217,1.192481
-258.636475,844.757080,449.523926,1.193212
-261.383057,853.179932,451.171875,1.193972
-263.580322,859.405518,450.347900,1.194715
-264.038086,847.229004,451.263428,1.195456
-263.031006,850.158691,456.298828,1.196197
-267.700195,853.363037,449.890137,1.196949
-265.136719,851.806641,455.566406,1.197715
-266.143799,860.504150,451.538086,1.198457
-268.615723,852.905273,451.538086,1.199198
-268.341064,864.074707,457.122803,1.199949
-268.615723,852.996826,449.615479,1.200691
-270.172119,860.137939,455.657959,1.201432
-263.214111,853.088379,458.587646,1.202173
-265.411377,864.257812,453.460693,1.202923
-264.129639,855.468750,462.890625,1.203665
-241.058350,857.574463,453.002930,1.204406
-257.629395,855.651855,455.932617,1.205147
-260.742188,851.257324,451.446533,1.205887
-263.122559,853.820801,450.988770,1.206619
-266.876221,859.039307,458.496094,1.207430
-267.883301,851.715088,462.615967,1.208162
-264.312744,851.898193,455.017090,1.208919
-252.868652,848.419189,452.087402,1.209660
-279.144287,848.236084,456.207275,1.210402
-267.150879,850.433350,446.228027,1.211143
-263.305664,846.313477,457.122803,1.211892
-259.094238,850.708008,455.200195,1.212634
-257.995605,851.531982,457.763672,1.213728
-261.566162,849.060059,459.777832,1.215081
-255.706787,841.644287,448.883057,1.216416
-257.354736,821.685791,437.530518,1.217749
-255.065918,837.249756,444.763184,1.219065
-256.072998,837.615967,445.587158,1.220390
-248.748779,833.221436,443.572998,1.221727
-277.221680,832.855225,442.749023,1.223062
-250.122070,833.038330,438.995361,1.224410
-245.544434,831.115723,443.481445,1.225745
-251.861572,834.228516,436.614990,1.227098
-252.502441,834.594727,429.656982,1.228433
-252.136230,838.989258,440.185547,1.229787
-252.777100,839.355469,441.375732,1.231162
-257.263184,832.122803,430.114746,1.232507
-248.199463,831.390381,439.544678,1.233863
-250.579834,822.235107,434.967041,1.235217
-254.882812,823.699951,438.720703,1.236605
-254.425049,821.228027,434.600830,1.237948
-252.868652,824.340820,437.530518,1.239308
-257.995605,825.256348,437.072754,1.240643
-253.051758,821.228027,438.812256,1.241996
-256.164551,824.981689,432.586670,1.243330
-254.425049,824.890137,463.165283,1.244656
-256.072998,826.629639,443.206787,1.245973
-275.482178,832.946777,442.382812,1.247289
-255.981445,833.129883,437.896729,1.248657
-263.580322,834.686279,442.565918,1.249993
-254.882812,842.193604,446.960449,1.251345
-250.305176,832.672119,442.108154,1.252680
-252.319336,841.461182,466.827393,1.254031
-250.305176,844.757080,444.122314,1.255366
-261.657715,843.200684,439.636230,1.256693
-256.622314,841.369629,441.101074,1.258009
-261.108398,839.080811,439.544678,1.259325
-268.432617,840.911865,440.826416,1.260698
-266.967773,848.144531,440.643311,1.262033
-269.348145,854.370117,451.812744,1.263366
-252.044678,852.722168,457.855225,1.264683
-251.678467,847.229004,452.453613,1.266037
-260.101318,854.370117,453.826904,1.267373
-254.516602,850.433350,447.784424,1.268724
-264.770508,854.278564,439.453125,1.270101
-262.390137,855.377197,447.875977,1.271437
-260.742188,854.736328,440.185547,1.272789
-265.228271,852.630615,455.749512,1.274125
-264.587402,855.285645,465.545654,1.275475
-268.341064,855.194092,443.847656,1.276810
-267.517090,858.856201,441.833496,1.278143
-274.108887,858.306885,437.438965,1.279460
-276.855469,851.074219,440.093994,1.280782
-270.446777,854.003906,426.635742,1.282117
-274.841309,851.440430,440.460205,1.283452
-272.094727,859.954834,441.101074,1.284804
-273.651123,857.940674,438.903809,1.286138
-267.791748,858.673096,457.855225,1.287489
-266.418457,860.870361,444.671631,1.288820
-274.475098,853.729248,453.369141,1.290157
-274.475098,857.940674,452.362061,1.291105
-275.756836,865.905762,452.087402,1.291836
-285.919189,851.348877,446.960449,1.292568
-279.052734,854.553223,443.939209,1.293328
-282.531738,852.996826,447.052002,1.294070
-276.397705,850.158691,442.840576,1.294812
-271.636963,856.384277,446.319580,1.295554
-272.827148,855.010986,449.523926,1.296305
-271.453857,851.257324,443.939209,1.297047
-272.918701,850.708008,445.678711,1.297789
-266.601562,848.327637,442.382812,1.298531
-264.587402,850.799561,434.875488,1.299283
-267.517090,845.764160,439.361572,1.300025
-274.017334,843.017578,439.819336,1.300766
-270.904541,849.151611,435.699463,1.301512
-268.615723,843.841553,437.805176,1.302306
-266.967773,847.869873,441.650391,1.303055
-271.636963,847.503662,448.699951,1.303796
-274.017334,854.827881,436.981201,1.304576
-266.418457,853.271484,424.713135,1.305355
-264.770508,845.947266,436.248779,1.306108
-261.383057,851.074219,444.854736,1.306864
-264.495850,851.623535,442.291260,1.307657
-263.763428,844.207764,442.291260,1.308419
-260.467529,853.546143,446.411133,1.309198
-256.530762,854.278564,450.347900,1.309972
-256.164551,851.715088,449.340820,1.310749
-248.474121,851.989746,446.411133,1.311507
-256.805420,849.792480,447.235107,1.312266
-256.347656,858.581543,440.643311,1.313024
-262.207031,854.187012,437.530518,1.313894
-251.953125,853.363037,452.178955,1.314653
-258.819580,843.109131,446.685791,1.315406
-257.629395,848.785400,427.825928,1.316145
-261.474609,846.496582,442.291260,1.316878
-257.080078,843.841553,446.868896,1.317625
-251.037598,851.806641,446.594238,1.318360
-257.537842,854.003906,447.418213,1.319107
-260.375977,851.623535,441.558838,1.319842
-262.939453,852.264404,443.298340,1.320584
-267.425537,853.363037,435.150146,1.321323
-270.446777,853.637695,435.058594,1.322064
-262.939453,847.686768,437.347412,1.322808
-264.587402,850.158691,429.473877,1.323550
-264.678955,853.729248,438.812256,1.324292
-255.798340,853.363037,431.213379,1.325028
-257.720947,852.264404,436.157227,1.325759
-256.622314,854.736328,434.051514,1.326491
-262.756348,854.827881,444.030762,1.327222
-258.087158,857.482910,441.284180,1.327963
-254.882812,859.497070,436.889648,1.328706
-252.319336,859.771729,443.389893,1.329448
-253.509521,863.800049,445.220947,1.330189
-253.326416,862.976074,434.600830,1.330927
-258.636475,863.067627,433.776855,1.331658
-264.587402,856.109619,435.699463,1.332389
-266.601562,857.391357,441.101074,1.333120
-270.080566,849.884033,438.262939,1.333858
-270.904541,856.842041,437.438965,1.334598
-256.988525,862.335205,445.312500,1.335337
-267.700195,858.489990,443.572998,1.336077
-259.094238,862.152100,443.389893,1.336831
-257.263184,863.983154,447.509766,1.337571
-250.488281,856.384277,445.129395,1.338310
-252.136230,858.306885,446.960449,1.339050
-258.270264,859.130859,448.333740,1.339800
-254.150391,851.074219,439.727783,1.340540
-257.446289,856.384277,450.439453,1.341280
-254.333496,857.391357,450.073242,1.342025
-265.319824,846.038818,441.833496,1.342772
-262.847900,853.912354,446.136475,1.343513
-256.896973,854.461670,445.220947,1.344254
-254.333496,841.003418,466.552734,1.344995
-253.875732,851.715088,449.157715,1.345736
-257.720947,853.729248,451.354980,1.346478
-257.171631,848.327637,446.594238,1.347219
-258.636475,851.348877,444.030762,1.347960
-248.931885,846.862793,451.080322,1.348696
-254.241943,854.827881,443.389893,1.349427
-255.065918,847.869873,445.129395,1.350158
-254.150391,848.510742,440.368652,1.350891
-248.474121,850.433350,438.537598,1.351625
-256.347656,843.200684,448.883057,1.352366
-255.981445,846.130371,446.044922,1.353107
-250.213623,844.573975,441.558838,1.353848
-254.241943,850.524902,449.157715,1.354589
-249.572754,850.250244,449.157715,1.355329
-258.270264,842.651367,448.699951,1.356070
-249.023438,845.947266,447.967529,1.356811
-254.974365,848.876953,455.017090,1.357559
-252.777100,857.299805,449.066162,1.358309
-253.875732,851.074219,448.974609,1.359053
-235.656738,848.327637,449.249268,1.359794
-260.009766,848.419189,450.714111,1.360553
-251.678467,847.686768,447.235107,1.361295
-253.692627,845.855713,443.939209,1.362035
-242.523193,839.813232,443.481445,1.362776
-250.122070,845.489502,452.911377,1.363518
-256.530762,848.602295,444.305420,1.364259
-253.509521,842.834473,441.741943,1.365000
-254.150391,842.102051,446.411133,1.365741
-260.101318,842.834473,441.833496,1.366485
-250.305176,845.123291,446.777344,1.367215
-249.298096,843.566895,446.777344,1.367946
-249.389648,842.193604,441.375732,1.368677
-250.488281,847.320557,442.382812,1.369430
-255.981445,850.799561,452.545166,1.370172
-258.361816,852.264404,450.347900,1.370913
-253.051758,823.608398,447.509766,1.371654
-251.953125,845.306396,449.432373,1.372395
-257.629395,851.257324,441.741943,1.373136
-261.291504,850.982666,467.559814,1.373877
-259.735107,842.285156,442.840576,1.374618
-256.713867,820.770264,443.206787,1.375360
-260.284424,842.193604,443.939209,1.376100
-251.037598,841.094971,444.030762,1.376841
-248.382568,845.672607,444.305420,1.377582
-261.291504,838.348389,436.798096,1.378327
-252.960205,841.918945,440.460205,1.379058
-255.798340,844.940186,443.756104,1.379788
-245.086670,846.313477,442.657471,1.380541
-258.728027,849.792480,433.959961,1.381358
-256.164551,840.454102,442.840576,1.382101
-250.854492,843.933105,443.023682,1.382842
-259.460449,841.461182,435.882568,1.383584
-256.988525,847.869873,438.903809,1.384423
-248.657227,851.715088,442.565918,1.385165
-258.270264,854.187012,445.861816,1.385906
-261.474609,843.933105,450.256348,1.386647
-266.326904,846.679688,442.840576,1.387288
-264.953613,854.736328,446.044922,1.388020
-267.700195,854.827881,449.523926,1.388751
-267.242432,857.666016,451.812744,1.389482
-268.157959,847.503662,441.375732,1.390273
-262.023926,842.468262,443.206787,1.391015
-264.129639,844.757080,448.791504,1.391756
-261.383057,849.243164,446.868896,1.392497
-268.981934,850.982666,439.178467,1.393248
-264.038086,850.799561,441.375732,1.393989
-263.946533,847.869873,442.474365,1.394731
-263.305664,844.848633,432.403564,1.395472
-262.939453,846.862793,442.840576,1.396222
-257.812500,845.947266,438.995361,1.396965
-257.263184,846.679688,436.248779,1.397706
-258.270264,846.771240,438.720703,1.398447
-254.425049,852.539062,438.171387,1.399188
-240.692139,847.503662,439.910889,1.399919
-254.516602,848.876953,441.558838,1.400650
-257.812500,846.038818,444.488525,1.401382
-260.009766,849.060059,444.946289,1.402138
-263.305664,850.524902,446.228027,1.402879
-263.214111,853.179932,444.305420,1.403620
-264.221191,859.039307,423.065186,1.404361
-265.960693,855.377197,452.178955,1.405112
-269.531250,858.032227,451.171875,1.405853
-266.876221,852.722168,447.326660,1.406605
-270.629883,850.158691,437.805176,1.407351
-266.143799,846.496582,433.410645,1.408128
-262.023926,848.510742,443.664551,1.408874
-260.101318,849.334717,443.206787,1.409615
-253.784180,849.060059,443.206787,1.410356
-256.988525,843.475342,440.551758,1.411107
-254.241943,849.151611,438.262939,1.411849
-249.023438,850.433350,440.734863,1.412590
-253.509521,841.369629,438.903809,1.413332
-256.713867,846.038818,431.213379,1.414087
-252.777100,847.869873,436.523438,1.414828
-259.552002,844.482422,443.939209,1.415582
-259.643555,837.432861,447.418213,1.416339
-254.241943,837.615967,436.523438,1.417111
-259.918213,850.250244,435.150146,1.417867
-255.157471,857.574463,439.086914,1.418608
-256.439209,851.531982,437.255859,1.419348
-263.946533,848.968506,436.981201,1.420088
-262.298584,846.405029,438.354492,1.420828
-263.031006,844.848633,444.580078,1.421569
-260.192871,849.700928,452.819824,1.422324
-271.362305,852.630615,451.171875,1.423066
-269.805908,851.898193,443.206787,1.423806
-263.763428,850.891113,442.474365,1.424546
-269.439697,848.693848,441.741943,1.425294
-264.404297,851.074219,442.657471,1.426026
-266.784668,851.440430,443.481445,1.426756
-262.664795,850.158691,436.614990,1.427500
-260.284424,854.919434,440.002441,1.428231
-270.446777,846.313477,433.959961,1.428973
-268.798828,851.623535,440.643311,1.429715
-263.488770,846.862793,431.671143,1.430456
-265.411377,854.187012,441.101074,1.431197
-266.235352,850.799561,435.150146,1.431939
-262.298584,847.412109,433.593750,1.432680
-273.101807,846.313477,434.509277,1.433421
-269.805908,847.045898,438.171387,1.434162
-262.390137,848.327637,441.192627,1.434903
-266.876221,844.665527,438.720703,1.435644
-262.573242,850.433350,441.284180,1.436385
-267.150879,852.630615,436.706543,1.437135
-272.277832,866.088867,436.431885,1.437867
-268.981934,849.700928,438.171387,1.438598
-270.721436,847.961426,444.030762,1.439329
-266.418457,852.813721,450.805664,1.440060
-268.432617,852.630615,438.903809,1.440821
-270.080566,854.278564,436.523438,1.441563
-267.150879,853.454590,443.572998,1.442304
-266.876221,848.510742,444.305420,1.443045
-266.418457,854.003906,438.262939,1.443789
-258.819580,855.194092,438.446045,1.444520
-235.931396,853.912354,438.446045,1.445251
-264.038086,856.018066,440.002441,1.445982
-255.706787,857.849121,440.917969,1.446732
-257.354736,854.187012,444.213867,1.447473
-256.164551,849.334717,436.157227,1.448215
-278.137207,848.968506,440.643311,1.448956
-255.249023,849.060059,439.819336,1.449707
-261.840820,845.397949,439.270020,1.450449
-265.777588,850.616455,438.446045,1.451190
-259.002686,851.989746,449.707031,1.451967
-255.065918,860.687256,452.362061,1.452709
-261.932373,851.531982,452.545166,1.453451
-263.397217,856.842041,448.150635,1.454192
-256.988525,860.504150,449.615479,1.455014
-252.319336,857.299805,456.115723,1.455757
-255.340576,853.820801,457.489014,1.456584
-254.882812,860.504150,459.045410,1.457331
-249.664307,860.687256,464.172363,1.458118
-251.770020,861.053467,464.447021,1.458862
-260.467529,851.898193,452.728271,1.459604
-254.241943,857.391357,451.629639,1.460345
-255.889893,853.271484,442.840576,1.461100
-250.030518,852.355957,450.897217,1.461842
-252.044678,852.905273,444.488525,1.462584
-253.234863,847.229004,438.903809,1.463326
-250.946045,850.982666,443.298340,1.464079
-249.938965,854.003906,429.656982,1.464820
-249.664307,853.454590,450.805664,1.465562
-250.396729,850.891113,441.375732,1.466304
-252.044678,853.454590,441.741943,1.467046
-252.502441,846.496582,432.678223,1.467776
-258.819580,848.052979,437.164307,1.468507
-260.925293,845.489502,451.080322,1.469239
-257.080078,855.743408,446.960449,1.469998
-259.552002,852.447510,444.488525,1.470740
-257.446289,850.524902,450.439453,1.471481
-255.065918,847.961426,436.340332,1.472223
-256.622314,850.250244,444.122314,1.472974
-262.115479,852.172852,447.052002,1.473715
-263.671875,854.187012,449.249268,1.474456
-262.847900,851.989746,447.601318,1.475198
-262.390137,850.799561,439.086914,1.475949
-257.537842,852.172852,439.910889,1.476693
-266.967773,856.292725,443.664551,1.477440
-262.573242,848.693848,457.031250,1.478190
-254.333496,858.673096,459.136963,1.478938
-260.559082,854.644775,453.002930,1.479680
-260.742188,852.355957,444.671631,1.480421
-254.608154,863.342285,448.608398,1.481163
-258.636475,852.630615,445.404053,1.481905
-262.847900,847.137451,443.756104,1.482646
-268.341064,851.715088,443.756104,1.483387
-265.319824,850.067139,445.953369,1.484134
-267.242432,848.602295,446.594238,1.484899
-260.467529,852.996826,443.389893,1.485654
-256.072998,851.989746,444.946289,1.486399
-267.974854,849.243164,440.002441,1.487155
-268.066406,850.708008,434.326172,1.487897
-269.805908,848.236084,433.410645,1.488638
-260.009766,846.679688,435.699463,1.489379
-264.862061,847.595215,442.016602,1.490121
-255.706787,849.884033,436.798096,1.490863
-252.777100,845.947266,435.699463,1.491606
-254.791260,843.200684,437.713623,1.492348
-257.812500,850.158691,444.396973,1.493084
-280.242920,844.116211,450.622559,1.493815
-249.481201,841.094971,447.784424,1.494546
-256.896973,844.299316,440.826416,1.495277
-259.918213,846.954346,434.692383,1.496013
-253.509521,846.038818,435.699463,1.496756
-252.777100,842.468262,441.833496,1.497497
-252.044678,836.151123,439.270020,1.498238
-251.861572,837.707520,444.854736,1.498979
-252.685547,835.052490,446.411133,1.499720
-245.086670,837.707520,449.249268,1.500460
-249.114990,846.038818,447.692871,1.501201
-249.755859,840.728760,447.601318,1.501943
-247.100830,837.707520,448.883057,1.502684
-249.389648,845.123291,439.910889,1.503425
-245.819092,839.538574,438.995361,1.504166
-246.276855,835.784912,432.037354,1.504903
-238.311768,841.735840,441.101074,1.505635
-252.044678,838.531494,429.473877,1.506366
-248.016357,843.383789,438.079834,1.507097
-250.488281,846.954346,432.952881,1.507834
-244.354248,843.750000,440.551758,1.508575
-247.100830,846.405029,442.474365,1.509316
-246.002197,844.665527,439.910889,1.510058
-245.819092,850.250244,441.009521,1.510799
-255.249023,846.405029,438.537598,1.511540
-253.692627,855.102539,438.903809,1.512282
-254.882812,865.539551,443.572998,1.513023
-261.383057,854.095459,445.861816,1.513775
-263.946533,859.680176,450.164795,1.514506
-260.650635,854.827881,448.516846,1.515237
-268.615723,851.348877,454.559326,1.515968
-269.714355,849.151611,449.157715,1.516704
-262.115479,854.278564,453.918457,1.517444
-267.883301,859.130859,445.861816,1.518185
-270.263672,858.306885,450.805664,1.518925
-264.129639,853.729248,442.565918,1.519695
-272.186279,853.912354,445.678711,1.520437
-267.974854,852.081299,446.594238,1.521178
-266.418457,846.588135,437.072754,1.521919
-265.136719,856.658936,443.115234,1.522671
-265.869141,851.806641,441.009521,1.523412
-269.439697,854.187012,439.727783,1.524153
-272.094727,852.905273,432.403564,1.524894
-263.946533,853.088379,439.361572,1.525709
-271.362305,858.215332,437.896729,1.526441
-269.989014,862.884521,443.847656,1.527172
-271.362305,862.701416,443.298340,1.527903
-264.587402,858.306885,448.242188,1.528643
-274.566650,858.123779,440.826416,1.529384
-279.693604,861.968994,443.756104,1.530126
-278.137207,854.095459,442.932129,1.530867
-281.799316,853.912354,461.608887,1.531626
-278.320312,858.764648,447.326660,1.532368
-278.411865,859.313965,454.376221,1.533142
-270.904541,865.722656,441.925049,1.533884
-272.918701,857.666016,443.572998,1.534669
-278.137207,861.694336,442.016602,1.535463
-271.636963,857.391357,443.115234,1.536239
-273.010254,860.595703,448.608398,1.537018
-262.847900,864.257812,441.650391,1.537798
-277.862549,862.152100,441.009521,1.538555
-271.270752,865.264893,431.488037,1.539314
-260.559082,864.166260,436.340332,1.540114
-263.580322,862.335205,438.537598,1.540890
-269.989014,861.328125,439.544678,1.541654
-271.545410,864.166260,437.072754,1.542410
-269.439697,859.954834,441.925049,1.543207
-268.341064,865.447998,447.692871,1.543985
-261.016846,862.060547,448.425293,1.544744
-266.052246,856.567383,447.784424,1.545536
-265.502930,861.694336,449.157715,1.546298
-264.129639,854.919434,447.967529,1.547053
-255.157471,858.398438,442.474365,1.547795
-262.847900,856.384277,445.220947,1.548590
-258.178711,853.546143,446.960449,1.549334
-258.453369,844.940186,447.692871,1.550073
-262.756348,849.334717,442.199707,1.550825
-260.009766,851.257324,446.044922,1.551584
-259.643555,851.623535,447.967529,1.552320
-255.157471,847.778320,437.988281,1.553051
-277.587891,842.926025,436.889648,1.553784
-252.960205,842.651367,432.128906,1.554585
-256.896973,841.644287,439.819336,1.555352
-247.558594,842.010498,440.551758,1.556092
-256.530762,848.052979,437.622070,1.556861
-258.178711,847.686768,442.108154,1.557598
-259.002686,850.982666,450.164795,1.558329
-259.918213,841.735840,439.086914,1.559060
-263.671875,842.651367,446.594238,1.559815
-263.214111,843.017578,441.009521,1.560557
-260.650635,851.257324,422.424316,1.561299
-261.840820,851.165771,437.622070,1.562041
-263.946533,839.630127,436.798096,1.562785
-258.911133,840.820312,440.185547,1.563526
-259.643555,842.926025,448.150635,1.564283
-262.481689,843.566895,447.601318,1.565025
-263.580322,842.285156,438.995361,1.565780
-260.101318,839.721680,442.291260,1.566522
-266.052246,841.827393,443.481445,1.567262
-264.221191,836.242676,444.580078,1.568003
-258.819580,833.038330,441.101074,1.568772
-257.080078,838.714600,436.614990,1.569513
-255.065918,840.637207,446.502686,1.570254
-254.333496,840.087891,445.220947,1.570996
-258.453369,828.552246,444.580078,1.571751
-259.277344,834.045410,448.150635,1.572492
-263.854980,847.045898,444.671631,1.573234
-263.488770,841.735840,454.010010,1.573975
-262.390137,840.179443,437.988281,1.574726
-260.559082,838.348389,438.720703,1.575467
-266.052246,845.031738,444.030762,1.576208
-264.404297,835.327148,442.291260,1.576949
-268.981934,829.467773,445.312500,1.577690
-261.199951,836.517334,441.009521,1.578421
-265.319824,833.679199,438.446045,1.579152
-254.425049,832.580566,447.692871,1.579882
-259.094238,831.207275,441.192627,1.580638
-261.016846,835.876465,442.657471,1.581379
-258.544922,838.714600,435.791016,1.582120
-261.474609,835.327148,435.333252,1.582861
-263.671875,835.510254,438.171387,1.583602
-263.854980,837.432861,432.403564,1.584334
-254.425049,834.503174,438.537598,1.585065
-257.629395,836.334229,439.086914,1.585795
-256.347656,838.165283,439.361572,1.586547
-254.058838,838.531494,442.016602,1.587288
-256.805420,845.672607,443.115234,1.588030
-255.065918,836.883545,440.185547,1.588771
-262.115479,841.094971,441.650391,1.589511
-256.713867,839.172363,442.474365,1.590242
-259.735107,839.721680,439.636230,1.590973
-255.615234,839.447021,439.636230,1.591704
-250.305176,844.299316,443.298340,1.592457
-254.058838,865.264893,440.826416,1.593227
-260.559082,841.094971,441.375732,1.594000
-249.206543,846.679688,448.791504,1.594743
-246.368408,839.996338,440.551758,1.595506
-249.938965,844.757080,443.572998,1.596248
-248.382568,847.686768,451.080322,1.596990
-245.727539,848.510742,441.741943,1.597838
-245.269775,842.926025,447.692871,1.598580
-247.375488,838.531494,452.087402,1.599321
-240.966797,846.862793,449.798584,1.600086
-239.593506,838.348389,448.516846,1.600840
-239.501953,844.482422,444.122314,1.601581
-251.586914,842.193604,448.516846,1.602336
-246.185303,840.362549,450.256348,1.603080
-244.537354,842.926025,440.002441,1.603834
-243.255615,836.059570,449.157715,1.604586
-244.079590,842.102051,448.699951,1.605353
-246.917725,833.312988,433.593750,1.606119
-246.276855,836.242676,444.763184,1.606895
-244.812012,836.700439,443.756104,1.607679
-239.501953,840.545654,455.932617,1.608461
-244.079590,840.728760,450.531006,1.609262
-243.347168,829.833984,442.291260,1.610008
-250.762939,839.172363,444.580078,1.610750
-246.368408,833.129883,438.262939,1.611491
-245.361328,842.285156,444.213867,1.612249
-244.628906,842.010498,449.157715,1.612991
-246.459961,838.256836,443.481445,1.613732
-253.417969,833.038330,441.284180,1.614483
-251.037598,838.073730,441.375732,1.615254
-250.488281,841.278076,448.791504,1.616009
-250.946045,833.404541,445.404053,1.616758
-243.988037,836.334229,442.932129,1.617515
-249.389648,831.024170,443.939209,1.618259
-259.002686,836.883545,446.685791,1.619000
-237.030029,837.341309,453.186035,1.619741
-257.354736,837.341309,452.362061,1.620538
-259.185791,830.291748,447.601318,1.621283
-259.826660,832.946777,449.432373,1.622024
-257.080078,820.312500,443.756104,1.622765
-257.995605,827.270508,444.122314,1.623518
-249.114990,836.517334,448.791504,1.624259
-251.678467,829.193115,443.847656,1.625031
-245.086670,829.101562,444.030762,1.625814
-246.093750,829.193115,441.467285,1.626564
-245.819092,825.439453,443.298340,1.627299
-247.558594,820.861816,437.988281,1.628048
-256.164551,823.974609,433.502197,1.628783
-254.425049,821.502686,439.178467,1.629514
-255.523682,824.798584,435.333252,1.630246
-254.058838,823.974609,437.072754,1.630976
-260.284424,813.903809,436.981201,1.631709
-256.256104,819.305420,435.974121,1.632440
-259.277344,814.544678,438.171387,1.633172
-255.889893,813.171387,438.537598,1.633903
-254.974365,809.234619,439.178467,1.634635
-251.129150,813.446045,433.410645,1.635366
-248.199463,818.115234,437.988281,1.636097
-242.431641,811.798096,438.354492,1.636827
-242.706299,814.636230,437.988281,1.637561
-239.776611,812.530518,446.777344,1.638304
-245.269775,816.284180,446.044922,1.639046
-242.980957,810.058594,438.079834,1.639787
-242.614746,805.480957,433.776855,1.640528
-247.558594,800.262451,436.248779,1.641269
-245.452881,793.029785,440.277100,1.642010
-243.896484,793.853760,442.565918,1.642752
-240.051270,790.100098,438.995361,1.643493
-237.121582,793.579102,439.361572,1.644234
-244.262695,789.733887,429.016113,1.644976
-234.741211,782.867432,431.488037,1.645717
-240.417480,776.550293,436.981201,1.646459
-240.417480,778.747559,436.248779,1.647189
-241.607666,782.226562,424.163818,1.647920
-240.142822,778.289795,422.882080,1.648651
-240.966797,776.000977,422.973633,1.649382
-248.748779,781.677246,417.205811,1.650145
-240.875244,772.064209,419.677734,1.650887
-236.480713,770.782471,418.670654,1.651628
-225.036621,763.916016,417.022705,1.652369
-233.551025,772.155762,430.297852,1.653110
-228.973389,760.345459,399.902344,1.653841
-222.015381,763.183594,419.860840,1.654572
-229.797363,760.162354,419.586182,1.655303
-225.494385,753.662109,422.058105,1.656052
-224.761963,758.148193,416.656494,1.656790
-223.205566,762.908936,404.571533,1.657527
-225.769043,750.366211,413.635254,1.658298
-230.255127,748.992920,409.698486,1.659042
-231.445312,739.654541,404.205322,1.659782
-234.008789,767.486572,405.212402,1.660522
-230.255127,784.606934,386.260986,1.661273
-225.585938,789.550781,386.993408,1.662014
-204.162598,790.283203,423.522949,1.662779
-195.922852,783.416748,437.713623,1.663522
-186.676025,783.416748,450.256348,1.664273
-172.119141,780.578613,458.404541,1.665015
-168.273926,793.121338,443.206787,1.665757
-178.527832,799.255371,445.312500,1.666498
-178.070068,792.572021,446.960449,1.667249
-189.239502,797.149658,440.917969,1.667990
-219.818115,783.050537,426.910400,1.668821
-238.494873,772.796631,408.050537,1.669562
-250.030518,759.521484,380.126953,1.670297
-269.897461,743.957520,375.000000,1.671028
-269.989014,751.556396,376.098633,1.671759
-259.460449,758.880615,383.789062,1.672490
-253.509521,754.943848,387.359619,1.673230
-239.318848,757.598877,413.635254,1.673971
-216.522217,759.796143,418.853760,1.674712
-214.874268,748.168945,424.530029,1.675454
-212.493896,746.063232,416.748047,1.676195
-203.247070,749.176025,420.227051,1.676940
-207.366943,764.465332,415.466309,1.677687
-217.163086,742.034912,392.578125,1.678429
-213.958740,739.929199,387.084961,1.679171
-229.888916,737.548828,354.766846,1.679913
-246.185303,730.865479,358.703613,1.680659
-251.403809,719.970703,346.435547,1.681414
-262.481689,715.942383,350.646973,1.682219
-250.579834,723.175049,348.266602,1.682968
-240.142822,720.703125,356.689453,1.683711
-210.754395,723.999023,368.316650,1.684453
-197.296143,732.879639,404.022217,1.685212
-169.830322,731.414795,420.135498,1.685953
-144.927979,748.535156,424.163818,1.686695
-141.448975,745.788574,434.967041,1.687436
-140.075684,745.330811,439.361572,1.688190
-143.005371,750.274658,423.980713,1.688942
-153.167725,737.640381,414.276123,1.689689
-170.562744,743.499756,416.564941,1.690465
-175.140381,741.485596,391.754150,1.691234
-197.387695,735.809326,388.366699,1.691976
-208.831787,749.359131,388.732910,1.692717
-216.613770,767.120361,384.155273,1.693459
-238.769531,748.718262,388.275146,1.694210
-234.375000,760.894775,403.564453,1.694952
-233.734131,771.972656,428.924561,1.695694
-214.324951,788.452148,446.685791,1.696435
-213.867188,790.100098,455.474854,1.697176
-215.698242,789.642334,439.361572,1.697946
-246.002197,781.677246,442.016602,1.698700
-278.686523,785.156250,421.051025,1.699455
-270.080566,791.931152,400.177002,1.700201
-284.088135,784.973145,394.866943,1.700942
-286.834717,786.987305,379.486084,1.701684
-325.103760,778.198242,365.753174,1.702425
-315.856934,775.817871,346.893311,1.703166
-317.687988,760.253906,341.033936,1.703907
-309.814453,757.690430,338.104248,1.704649
-304.412842,764.923096,340.026855,1.705388
-261.199951,770.324707,351.013184,1.706120
-218.902588,780.944824,388.092041,1.706851
-209.472656,809.051514,417.663574,1.707582
-186.859131,813.812256,404.205322,1.708321
-207.641602,812.347412,375.274658,1.709063
-199.493408,800.079346,382.781982,1.709805
-189.514160,785.980225,371.337891,1.710546
-196.655273,786.346436,369.964600,1.711287
-217.254639,779.571533,373.901367,1.712029
-183.105469,790.466309,367.675781,1.712770
-193.817139,801.544189,396.514893,1.713512
-194.274902,810.333252,377.746582,1.714253
-192.901611,805.023193,363.006592,1.714995
-224.761963,801.635742,356.323242,1.715736
-240.051270,804.199219,364.013672,1.716477
-253.326416,803.558350,351.928711,1.717229
-273.925781,809.509277,350.555420,1.717960
-285.644531,801.361084,332.336426,1.718691
-326.019287,801.177979,325.927734,1.719422
-342.956543,817.382812,290.222168,1.720156
-328.216553,823.150635,276.031494,1.720898
-348.358154,815.368652,298.828125,1.721640
-311.004639,824.066162,307.800293,1.722382
-291.870117,845.581055,306.518555,1.723123
-296.722412,845.489502,346.527100,1.723865
-252.136230,863.800049,373.168945,1.724606
-217.254639,856.475830,380.218506,1.725348
-259.368896,839.538574,374.725342,1.726090
-225.494385,837.341309,363.098145,1.726822
-280.792236,846.679688,352.661133,1.727553
-322.357178,925.415039,280.059814,1.728284
-286.010742,928.070068,271.545410,1.729015
-311.279297,923.858643,333.343506,1.729785
-281.250000,936.492920,337.921143,1.730525
-268.524170,955.993652,364.471436,1.731265
-244.262695,963.684082,460.601807,1.732004
-150.604248,965.148926,483.032227,1.732754
-161.956787,980.346680,514.068604,1.733493
-159.851074,979.797363,533.386230,1.734233
-136.322021,966.522217,534.027100,1.734998
-210.388184,971.099854,507.843018,1.735740
-227.600098,982.818604,450.988770,1.736481
-269.897461,973.297119,439.819336,1.737222
-335.083008,988.128662,403.015137,1.737963
-374.450684,991.973877,372.711182,1.738704
-402.374268,1005.706787,370.971680,1.739530
-417.297363,1002.868652,381.683350,1.740271
-431.945801,1010.467529,389.923096,1.741009
-375.274658,1025.390625,405.853271,1.741740
-368.865967,1052.856445,497.406006,1.742472
-331.146240,1060.638428,529.907227,1.743203
-251.861572,1115.295410,578.063965,1.743940
-248.840332,1116.943359,613.494873,1.744681
-246.643066,1096.618652,631.256104,1.745423
-264.770508,1206.207275,585.388184,1.746164
-229.339600,1238.616943,559.204102,1.746905
-301.849365,1230.010986,602.874756,1.747646
-296.630859,1200.347900,617.340088,1.748387
-315.032959,1162.261963,625.122070,1.749127
-323.547363,1170.593262,680.603027,1.749868
-212.493896,1182.220459,706.420898,1.750609
-237.670898,1191.101074,748.260498,1.751350
-245.544434,1194.580078,736.633301,1.752091
-236.755371,1166.656494,734.069824,1.752829
-303.497314,1151.641846,708.160400,1.753561
-326.934814,1118.591309,677.398682,1.754291
-393.585205,1071.624756,589.324951,1.755029
-472.412109,1034.729004,521.759033,1.755857
-469.757080,1015.686035,491.912842,1.756608
-442.565918,995.178223,462.432861,1.757351
-438.354492,989.135742,456.756592,1.758112
-412.902832,986.663818,448.791504,1.758873
-407.958984,990.417480,429.931641,1.759615
-410.614014,995.635986,418.762207,1.760357
-392.852783,983.825684,382.507324,1.761107
-387.542725,974.945068,364.196777,1.761892
-384.338379,962.768555,361.541748,1.762655
-375.823975,951.049805,351.104736,1.763400
-383.880615,924.774170,330.963135,1.764141
-356.964111,922.119141,322.265625,1.764902
-320.800781,885.040283,342.864990,1.765656
-283.905029,918.273926,390.289307,1.766414
-198.669434,929.351807,408.142090,1.767161
-119.018555,907.745361,435.241699,1.767921
-78.369141,886.688232,431.030273,1.768666
-114.074707,877.624512,412.536621,1.769408
-97.412109,868.927002,380.676270,1.770168
-97.045898,850.158691,341.583252,1.770910
-120.483398,842.010498,323.364258,1.771652
-225.769043,816.467285,289.855957,1.772394
-231.445312,796.051025,237.945557,1.773136
-184.661865,805.206299,207.641602,1.773878
-201.049805,778.106689,196.014404,1.774620
-268.066406,777.099609,196.563721,1.775361
-235.290527,765.197754,179.351807,1.776112
-231.628418,759.246826,143.371582,1.776844
-243.347168,748.077393,168.457031,1.777575
-246.002197,745.239258,174.682617,1.778306
-200.317383,740.661621,168.182373,1.779043
-184.020996,757.141113,179.626465,1.779784
-165.161133,739.654541,182.281494,1.780526
-173.675537,733.154297,183.746338,1.781268
-142.181396,737.182617,162.780762,1.782009
-129.730225,739.013672,147.308350,1.782751
-144.927979,743.682861,137.969971,1.783492
-144.744873,735.351562,100.524902,1.784235
-148.132324,713.378906,86.517334,1.784977
-160.583496,734.161377,79.467773,1.785719
-163.421631,734.893799,71.136475,1.786460
-152.252197,729.675293,42.938232,1.787202
-158.294678,705.688477,19.866943,1.787952
-182.189941,693.969727,-0.091553,1.788683
-168.823242,696.441650,-32.501221,1.789415
-173.950195,707.061768,-65.551758,1.790146
-173.034668,702.301025,-69.030762,1.790878
-169.372559,716.308594,-109.405518,1.791617
-189.605713,706.695557,-123.962402,1.792355
-167.541504,709.350586,-168.731689,1.793108
-174.316406,703.399658,-189.788818,1.793860
-175.872803,695.068359,-186.767578,1.794591
-165.618896,678.588867,-149.322510,1.795322
39.916992,647.827148,-148.223877,1.796053
-249.023438,671.539307,-169.464111,1.796787
-335.998535,695.343018,-195.922852,1.797529
-21.881104,821.594238,-189.605713,1.798270
-80.657959,750.183105,-171.844482,1.799012
-167.724609,836.517334,-147.125244,1.799753
-28.564453,810.699463,-175.872803,1.800495
-36.163330,738.555908,-214.141846,1.801236
-214.416504,746.612549,-221.832275,1.801978
-178.619385,737.915039,-261.657715,1.802744
-163.970947,758.239746,-301.940918,1.803486
-182.647705,779.479980,-326.477051,1.804227
-148.223877,802.368164,-351.562500,1.804968
-155.731201,822.601318,-353.942871,1.805710
-200.683594,819.671631,-357.330322,1.806451
-262.664795,801.727295,-355.041504,1.807192
-299.743652,802.825928,-361.175537,1.807933
-261.383057,818.389893,-350.921631,1.808672
-264.953613,837.341309,-305.694580,1.809404
-284.820557,820.312500,-272.735596,1.810217
-318.786621,837.249756,-228.973389,1.810948
-329.864502,845.764160,-217.987061,1.811686
-360.626221,876.525879,-208.648682,1.812428
-358.245850,895.385742,-200.042725,1.813169
-387.268066,906.555176,-185.577393,1.813911
-408.691406,890.258789,-148.864746,1.814652
-446.502686,896.667480,-86.242676,1.815393
-456.390381,913.330078,-66.284180,1.816135
388.183594,649.383545,67.657471,1.816876
120.300293,932.556152,271.728516,1.817619
-609.832764,672.180176,273.468018,1.818360
152.160645,952.331543,269.531250,1.819102
-414.093018,1063.568115,270.629883,1.819843
-370.788574,845.672607,282.348633,1.820590
18.585205,938.507080,271.453857,1.821321
-511.688232,1049.652100,266.510010,1.822053
-481.658936,1024.658203,256.805420,1.822784
-68.847656,1097.351074,260.192871,1.823529
-405.303955,1107.604980,248.565674,1.824272
-325.378418,1069.519043,192.718506,1.825013
-153.076172,1107.604980,192.626953,1.825755
-221.008301,1122.619629,194.183350,1.826497
-213.317871,1128.936768,213.226318,1.827238
-94.390869,1211.700439,301.666260,1.827980
-153.167725,1530.487061,365.570068,1.828721
-272.094727,1506.317139,393.127441,1.829464
-118.194580,1387.207031,448.699951,1.830206
-197.296143,1316.894531,531.188965,1.830956
-5.493164,-393.310547,1625.518799,1.831749
-1486.999512,975.585938,1959.503174,1.832525
-806.762695,1069.061279,1702.697754,1.833292
982.727051,1520.599365,1042.785645,1.834041
872.497559,1432.342529,1078.308105,1.834782
-493.743896,1352.325439,1162.261963,1.835544
-243.988037,1407.989502,932.373047,1.836286
-72.143555,1477.111816,790.924072,1.837027
-459.960938,1418.609619,779.113770,1.837774
-617.797852,1371.185303,702.667236,1.838543
-595.184326,1365.142822,578.704834,1.839315
148.223877,1431.060791,548.675537,1.840066
49.072266,1334.930420,693.328857,1.840830
-185.852051,1292.907715,679.687500,1.841600
-6.958008,1270.935059,590.698242,1.842343
23.529053,1246.582031,507.476807,1.843086
-232.910156,1188.720703,423.431396,1.843843
-44.036865,1145.690918,409.790039,1.844593
163.421631,1118.133545,340.209961,1.845335
157.470703,1083.801270,298.187256,1.846076
-265.228271,1036.376953,191.711426,1.846819
-429.565430,1019.165039,64.544678,1.847561
-437.438965,969.268799,11.077881,1.848322
-294.342041,955.902100,-103.912354,1.849064
-261.840820,915.435791,-200.866699,1.849820
-234.191895,917.907715,-241.058350,1.850562
-281.890869,857.849121,-343.963623,1.851303
-322.998047,823.699951,-433.685303,1.852044
-305.786133,765.289307,-471.313477,1.852795
-332.611084,699.829102,-576.690674,1.853537
-292.602539,678.955078,-620.086670,1.854279
-396.606445,677.947998,-581.268311,1.855021
-706.146240,651.947021,-267.242432,1.855766
-670.349121,668.060303,-171.478271,1.856497
-258.544922,799.255371,-173.767090,1.857228
550.506592,830.657959,-211.395264,1.857959
185.211182,770.782471,-305.511475,1.858699
-226.593018,719.329834,-468.566895,1.859441
-554.534912,671.264648,-561.950684,1.860183
-227.783203,627.227783,-718.505859,1.860924
-14.556885,665.405273,-781.860352,1.861666
219.085693,645.721436,-958.557129,1.862408
218.994141,713.470459,-1115.386963,1.863150
753.295898,584.106445,-796.142578,1.863891
-828.735352,454.925537,-461.151123,1.864633
-1400.207520,562.500000,-335.540771,1.865374
-1721.832275,828.277588,-438.079834,1.866116
-1837.097168,543.731689,-509.948730,1.866858
42.480469,625.854492,-628.784180,1.867596
1985.687256,917.266846,-897.216797,1.868327
1376.312256,868.377686,-973.114014,1.869058
-215.515137,716.125488,-1047.821045,1.869790
592.987061,802.551270,23.345947,1.870528
212.036133,1793.884277,2999.908447,1.871270
-137.786865,2999.908447,2226.470947,1.872068
-270.721436,1095.153809,-663.024902,1.872816
-703.125000,460.968018,-2168.884277,1.873553
-1166.381836,208.740234,-2257.324219,1.874291
-1223.327637,276.489258,-2118.804932,1.875037
-782.592773,385.070801,-1684.204102,1.875820
1925.903320,1456.329346,297.912598,1.876583
1699.127197,1891.387939,2332.397461,1.877341
404.846191,2240.478516,2580.139160,1.878100
39.642334,1992.004395,1343.994141,1.878863
-139.709473,736.358643,-1326.049805,1.879733
383.605957,881.927490,-335.449219,1.880480
1704.254150,1432.159424,254.608154,1.881223
-718.780518,1671.295166,1007.354736,1.881968
-2369.567871,1641.815186,925.781250,1.882724
-2574.005127,1215.911865,233.459473,1.883466
-1510.162354,915.252686,-1247.131348,1.884208
-1599.975586,760.803223,-1312.408447,1.884950
-1004.150391,929.077148,-580.993652,1.885726
-571.289062,1175.262451,654.327393,1.886468
41.381836,1542.480469,974.487305,1.887210
57.495117,1532.775879,748.352051,1.887951
81.390381,1421.905518,-59.875488,1.888702
544.281006,1123.809814,-309.722900,1.889444
891.082764,1023.834229,-208.465576,1.890185
753.021240,1042.419434,-80.291748,1.890926
816.741943,1272.216797,-1.739502,1.891677
813.262939,1296.020508,-62.896729,1.892418
647.644043,1164.642334,-214.050293,1.893159
516.082764,1041.961670,-531.280518,1.893900
528.808594,1020.812988,-583.648682,1.894651
602.508545,1065.124512,-429.565430,1.895393
669.982910,1152.832031,-80.108643,1.896134
916.717529,1206.573486,0.732422,1.896875
1000.579834,1168.579102,-102.539062,1.897609
942.993164,1092.864990,-274.108887,1.898351
48.339844,1003.234863,-241.882324,1.899092
-499.969482,1015.960693,-93.658447,1.899841
-931.640625,1061.370850,-60.424805,1.900609
-844.116211,1150.726318,-3.845215,1.901372
-794.860840,1165.374756,-32.501221,1.902121
-560.760498,1172.515869,-11.169434,1.902863
-767.028809,1162.445068,76.171875,1.903680
-1287.048340,1172.424316,34.790039,1.904430
-1036.010742,1266.448975,-116.455078,1.905174
-547.760010,1135.345459,-3.845215,1.905942
1287.414551,765.472412,-155.181885,1.906720
1851.745605,701.934814,-469.390869,1.907497
1703.063965,873.138428,-413.177490,1.908263
1190.368652,1045.532227,-112.701416,1.909063
665.039062,1127.014160,-157.287598,1.909832
-304.779053,1178.833008,-168.914795,1.910600
-634.735107,1181.396484,-82.672119,1.911362
-872.039795,1170.867920,53.649902,1.912140
-876.434326,1169.219971,113.159180,1.912884
-887.969971,1229.827881,163.604736,1.913625
-829.742432,1262.969971,145.477295,1.914366
-690.765381,1293.457031,38.452148,1.915115
-615.051270,1269.836426,-90.454102,1.915849
-747.253418,1265.533447,45.043945,1.916637
-825.897217,1285.491943,39.733887,1.917381
-814.819336,1282.379150,0.091553,1.918123
-794.586182,1290.161133,-137.420654,1.918865
-1052.307129,1241.912842,-217.712402,1.919614
-1266.265869,1227.264404,-127.075195,1.920356
-1033.447266,1346.099854,29.571533,1.921097
-477.081299,1311.584473,33.966064,1.921839
52.734375,1169.036865,-74.981689,1.922590
242.340088,1143.310547,-227.325439,1.923331
295.440674,1140.838623,-250.488281,1.924073
-538.879395,1176.910400,-118.743896,1.924814
-1758.178711,1022.735596,137.054443,1.925554
-2274.627686,1162.261963,99.975586,1.926286
-1202.178955,1203.918457,-290.405273,1.927017
-190.155029,1064.666748,-777.465820,1.927752
-69.122314,1122.161865,-142.822266,1.928521
-399.536133,1230.926514,475.524902,1.929265
-601.226807,1361.297607,463.073730,1.930007
-557.373047,1352.783203,301.483154,1.930750
-862.884521,1336.944580,264.587402,1.931508
-818.298340,1318.725586,213.684082,1.932251
-817.382812,1305.725098,186.035156,1.932995
-922.393799,1293.182373,174.224854,1.933756
-648.376465,1280.273438,125.885010,1.934564
-503.356934,1303.894043,144.927979,1.935303
-398.803711,1304.718018,158.477783,1.936039
-477.722168,1294.830322,164.337158,1.936772
-482.391357,1277.160645,109.405518,1.937533
-627.593994,1241.455078,65.460205,1.938276
-676.849365,1230.102539,-4.302979,1.939018
-592.803955,1216.735840,-22.613525,1.939759
-481.933594,1184.051514,-76.812744,1.940513
-422.241211,1171.783447,-102.996826,1.941255
-341.674805,1134.338379,-142.639160,1.941996
-347.442627,1066.864014,-242.248535,1.942748
-355.224609,1021.728516,-314.025879,1.943505
-327.484131,1004.241943,-339.111328,1.944253
-438.171387,1029.510498,-207.366943,1.945000
-560.119629,1033.538818,-267.333984,1.945745
-490.173340,974.487305,-308.898926,1.946507
-145.751953,960.205078,-383.514404,1.947252
-101.898193,960.296631,-397.430420,1.947997
-202.972412,930.267334,-376.922607,1.948742
-327.758789,942.535400,-357.696533,1.949596
-315.490723,954.345703,-328.674316,1.950335
-239.501953,988.128662,-313.201904,1.951069
-183.837891,1009.277344,-277.221680,1.951803
-143.920898,1011.840820,-262.664795,1.952574
-190.795898,1006.713867,-276.214600,1.953319
-238.952637,996.917725,-267.425537,1.954061
-269.897461,1030.059814,-256.347656,1.954803
-250.396729,1046.630859,-221.008301,1.955558
-222.656250,1058.074951,-209.747314,1.956300
-193.176270,1050.384521,-199.859619,1.957042
-179.351807,1062.377930,-185.668945,1.957784
-184.387207,1070.709229,-187.316895,1.958535
-134.033203,1087.921143,-177.154541,1.959277
-136.047363,1087.738037,-165.344238,1.960032
-149.414062,1066.589355,-159.667969,1.960778
-132.019043,1068.969727,-160.125732,1.961531
-107.208252,1079.864502,-151.062012,1.962262
-62.713623,1082.519531,-168.548584,1.962993
-24.627686,1086.181641,-202.331543,1.963724
21.148682,1082.702637,-214.324951,1.964480
38.177490,1081.420898,-208.374023,1.965222
23.620605,1067.962646,-207.000732,1.965964
15.380859,1076.202393,-196.380615,1.966705
24.078369,1081.237793,-178.802490,1.967456
23.071289,1084.899902,-172.119141,1.968205
22.430420,1093.872070,-154.815674,1.968951
6.774902,1092.132568,-170.745850,1.969709
-19.042969,1088.653564,-174.133301,1.970485
-13.000488,1077.117920,-195.922852,1.971260
10.162354,1102.386475,-217.437744,1.972007
107.391357,1121.246338,-213.775635,1.972750
142.913818,1144.958496,-198.486328,1.973492
126.251221,1113.006592,-221.099854,1.974233
84.045410,1117.034912,-224.212646,1.974975
66.284180,1108.978271,-227.874756,1.975717
65.551758,1111.175537,-188.415527,1.976463
71.868896,1116.760254,-201.599121,1.977248
60.516357,1113.922119,-229.431152,1.978065
69.488525,1101.745605,-234.649658,1.978858
85.876465,1099.182129,-249.847412,1.979605
97.137451,1097.991943,-258.087158,1.980346
70.220947,1088.378906,-262.390137,1.981088
-20.965576,1066.040039,-257.537842,1.981844
-21.331787,1077.941895,-253.234863,1.982585
82.489014,1124.176025,-250.488281,1.983327
138.244629,1156.951904,-229.614258,1.984068
193.542480,1157.684326,-236.938477,1.984821
167.907715,1152.191162,-248.199463,1.985573
131.011963,1135.345459,-236.480713,1.986321
62.438965,1141.662598,-248.199463,1.987065
44.036865,1135.620117,-253.601074,1.987818
41.931152,1137.634277,-250.396729,1.988551
57.678223,1148.803711,-238.861084,1.989282
69.030762,1149.902344,-239.868164,1.990013
79.833984,1155.212402,-232.818604,1.990772
58.319092,1157.684326,-232.543945,1.991514
44.128418,1159.057617,-248.657227,1.992255
-14.923096,1155.853271,-242.340088,1.992996
-93.017578,1143.676758,-237.487793,1.993758
-119.934082,1139.831543,-232.727051,1.994507
-105.834961,1155.120850,-196.746826,1.995249
-77.545166,1163.269043,-205.902100,1.995991
-19.409180,1156.036377,-211.761475,1.996750
5.859375,1133.972168,-237.945557,1.997491
7.507324,1128.936768,-268.524170,1.998232
-25.268555,1118.591309,-272.735596,1.998973
-39.093018,1146.789551,-278.320312,1.999716
-102.172852,1145.507812,-289.398193,2.000447
-126.434326,1124.725342,-290.954590,2.001179
-112.792969,1115.112305,-308.990479,2.001915
1352.325439,1077.117920,-439.910889,2.002683
138.519287,891.082764,-488.159180,2.003428
-213.592529,1016.784668,-40.008545,2.004170
-159.118652,1228.363037,-69.671631,2.004911
-22.247314,1254.730225,-151.702881,2.005655
59.417725,1233.856201,-150.421143,2.006387
-53.192139,1192.382812,-178.710938,2.007118
-195.190430,1175.720215,-174.224854,2.007849
-301.940918,1174.896240,-168.365479,2.008603
-299.377441,1216.918945,-128.082275,2.009344
-172.851562,1231.475830,-110.321045,2.010085
-119.018555,1222.045898,-130.737305,2.010831
-116.912842,1212.524414,-142.822266,2.011584
-120.941162,1212.890625,-148.864746,2.012324
-194.183350,1230.102539,-160.308838,2.013064
-214.965820,1231.842041,-159.942627,2.013831
-204.162598,1221.954346,-166.992188,2.014574
-181.549072,1197.601318,-174.224854,2.015315
-166.992188,1194.030762,-176.055908,2.016056
-164.245605,1197.418213,-171.752930,2.016810
-163.421631,1186.706543,-187.591553,2.017552
-195.648193,1182.220459,-196.472168,2.018294
-196.380615,1162.445068,-231.811523,2.019137
-193.908691,1138.275146,-261.566162,2.019883
-202.514648,1128.112793,-275.756836,2.020614
-202.148438,1133.422852,-275.573730,2.021346
-214.691162,1129.852295,-288.208008,2.022077
-231.445312,1117.309570,-288.299561,2.022817
-215.881348,1091.033936,-302.490234,2.023559
-206.085205,1083.984375,-316.497803,2.024301
-210.388184,1089.477539,-308.074951,2.025042
-218.261719,1086.090088,-323.364258,2.025784
-225.677490,1071.441650,-332.153320,2.026525
-224.487305,1057.159424,-343.231201,2.027273
-223.571777,1056.427002,-307.067871,2.028019
-211.303711,1060.089111,-319.610596,2.028766
-211.212158,1071.166992,-305.419922,2.029508
-223.571777,1072.448730,-293.334961,2.030249
-239.135742,1053.680420,-316.223145,2.030990
-236.206055,1045.898438,-331.420898,2.031730
-230.072021,1023.651123,-330.322266,2.032461
-226.501465,1030.700684,-321.990967,2.033192
-220.001221,1025.299072,-312.744141,2.033923
-216.430664,1028.686523,-320.343018,2.034675
-232.727051,1017.974854,-323.272705,2.035454
-234.924316,1005.798340,-326.202393,2.036210
-233.551025,1010.742188,-316.772461,2.036957
-233.459473,1011.474609,-313.934326,2.037732
-234.832764,990.966797,-318.054199,2.038480
-232.727051,1004.699707,-312.377930,2.039222
-242.248535,997.009277,-315.948486,2.039964
-241.241455,997.375488,-316.955566,2.040724
-241.607666,993.530273,-311.370850,2.041466
-242.797852,992.156982,-318.145752,2.042209
-239.593506,981.353760,-314.483643,2.042958
-236.572266,980.163574,-315.490723,2.043723
-239.501953,977.783203,-320.159912,2.044473
-234.649658,984.008789,-315.948486,2.045214
-236.389160,982.269287,-310.913086,2.045962
-231.811523,974.578857,-319.152832,2.046780
-224.945068,971.649170,-326.751709,2.047525
-213.592529,971.099854,-327.209473,2.048267
-219.543457,961.395264,-326.568604,2.049008
-219.268799,968.811035,-329.132080,2.049796
-218.719482,973.937988,-324.645996,2.050551
-216.979980,968.444824,-315.582275,2.051301
-214.416504,967.803955,-315.124512,2.052048
-219.268799,973.571777,-309.173584,2.052811
-232.543945,972.747803,-312.469482,2.053564
-214.691162,969.451904,-309.265137,2.054307
-210.754395,958.831787,-306.518555,2.055058
-208.557129,966.888428,-306.701660,2.055833
-217.437744,962.402344,-307.342529,2.056580
-205.902100,959.564209,-300.842285,2.057321
-202.331543,967.071533,-302.215576,2.058062
-197.296143,955.627441,-304.412842,2.058817
-198.028564,949.035645,-305.969238,2.059559
-195.465088,944.824219,-303.680420,2.060300
-191.345215,940.795898,-300.750732,2.061041
-198.852539,937.225342,-304.412842,2.061782
-188.049316,933.746338,-307.250977,2.062513
-210.021973,925.323486,-299.926758,2.063251
-184.204102,922.576904,-297.729492,2.063989
-182.830811,908.752441,-311.920166,2.064764
-187.591553,905.090332,-302.490234,2.065506
-194.915771,900.787354,-298.461914,2.066247
-198.669434,894.744873,-301.025391,2.066989
-183.471680,895.111084,-286.651611,2.067740
-178.619385,900.329590,-275.939941,2.068482
-177.154541,894.561768,-286.651611,2.069224
-181.365967,891.906738,-285.461426,2.069965
-181.457520,878.997803,-282.073975,2.070716
-173.217773,884.124756,-280.059814,2.071464
-188.781738,863.250732,-277.038574,2.072212
-176.422119,865.814209,-272.735596,2.072955
-178.344727,869.384766,-268.432617,2.073706
-167.999268,854.553223,-264.587402,2.074437
-174.133301,850.891113,-269.348145,2.075168
-172.027588,845.764160,-261.932373,2.075899
-169.006348,841.003418,-269.531250,2.076645
-169.738770,835.784912,-270.996094,2.077376
-170.471191,822.326660,-268.341064,2.078107
-163.970947,819.030762,-267.974854,2.078838
-164.520264,820.404053,-263.488770,2.079593
-154.083252,813.354492,-267.425537,2.080342
-154.083252,803.649902,-269.165039,2.081084
-151.611328,786.987305,-275.756836,2.081824
-148.864746,790.008545,-266.052246,2.082579
-147.857666,788.085938,-264.312744,2.083319
-140.991211,776.275635,-270.263672,2.084059
-141.540527,761.352539,-270.721436,2.084799
-148.223877,772.613525,-261.199951,2.085574
-152.435303,758.056641,-264.587402,2.086316
-157.104492,748.260498,-269.531250,2.087058
-148.498535,747.070312,-266.967773,2.087818
-161.499023,738.830566,-263.671875,2.088667
-158.020020,722.991943,-256.347656,2.089411
-157.836914,732.696533,-257.629395,2.090153
-168.548584,721.343994,-245.361328,2.090895
-164.703369,709.808350,-253.601074,2.091637
-164.520264,709.991455,-241.790771,2.092378
-171.112061,700.836182,-240.509033,2.093119
-169.372559,693.878174,-248.016357,2.093855
-178.527832,680.419922,-250.030518,2.094586
-183.105469,679.962158,-250.396729,2.095317
-186.492920,672.088623,-244.995117,2.096048
-193.084717,675.384521,-248.474121,2.096800
-195.831299,666.687012,-238.861084,2.097547
-200.317383,659.179688,-247.192383,2.098289
-207.916260,653.228760,-258.728027,2.099030
-206.542969,659.912109,-263.946533,2.099771
-209.747314,667.510986,-258.728027,2.100512
-217.346191,668.151855,-250.762939,2.101254
-254.608154,649.383545,-247.009277,2.101995
-253.784180,641.418457,-253.234863,2.102736
-248.840332,643.432617,-254.425049,2.103478
-236.389160,648.651123,-243.164062,2.104220
-231.536865,661.376953,-241.882324,2.104969
-233.001709,668.701172,-243.621826,2.105711
-245.452881,678.131104,-227.966309,2.106444
-260.559082,672.637939,-238.952637,2.107175
-266.326904,680.419922,-248.474121,2.107906
