ACC_X,ACC_Y,ACC_Z,Time
-55.664062,959.655762,221.740723,0.000138
-56.396484,945.831299,217.071533,0.000896
-47.424316,958.374023,218.627930,0.001639
-55.755615,954.803467,221.832275,0.002402
-57.952881,957.641602,215.515137,0.003144
-59.875488,955.169678,215.057373,0.003885
-63.629150,957.824707,223.846436,0.004626
-61.340332,956.909180,223.022461,0.005381
-61.614990,958.648682,223.388672,0.006123
-69.854736,960.845947,225.402832,0.006864
-72.509766,958.007812,213.775635,0.007604
-64.361572,957.824707,218.444824,0.008344
-63.812256,963.500977,221.923828,0.009076
-64.910889,954.711914,213.592529,0.009808
-65.368652,963.684082,221.557617,0.010540
-68.939209,959.106445,212.585449,0.011299
-88.714600,960.571289,215.148926,0.012041
-75.714111,964.141846,225.769043,0.012783
-73.791504,958.740234,215.515137,0.013524
-69.580078,957.550049,226.684570,0.014277
-72.875977,964.416504,227.966309,0.015018
-72.235107,960.571289,231.353760,0.015760
-75.347900,963.775635,223.663330,0.016501
-75.073242,965.789795,226.867676,0.017252
-80.108643,965.057373,225.402832,0.017994
-71.044922,957.092285,217.895508,0.018735
-77.362061,959.106445,224.304199,0.019477
-71.228027,960.571289,223.114014,0.020134
-66.558838,968.902588,228.057861,0.020866
-72.418213,972.656250,223.022461,0.021598
-73.791504,975.402832,224.853516,0.022330
-77.545166,973.388672,230.987549,0.023090
-72.052002,967.895508,229.431152,0.023851
-72.418213,975.311279,229.888916,0.024650
-70.129395,977.691650,231.353760,0.025430
-70.312500,979.797363,230.529785,0.026189
-71.411133,983.093262,233.093262,0.026948
-85.052490,982.635498,232.177734,0.027703
-72.784424,975.128174,232.818604,0.028488
-69.763184,981.445312,225.952148,0.029277
-73.791504,976.501465,232.635498,0.030065
-72.418213,977.416992,230.895996,0.030839
-69.213867,977.691650,237.670898,0.031597
-75.531006,970.825195,235.198975,0.032361
-69.763184,972.930908,225.952148,0.033143
-70.678711,972.015381,224.395752,0.033943
-70.678711,975.860596,229.064941,0.034720
-69.946289,966.339111,223.846436,0.035474
-73.150635,966.979980,220.275879,0.036217
-68.298340,973.388672,226.593018,0.036990
-67.199707,974.853516,224.121094,0.037741
-66.833496,972.473145,230.438232,0.038482
-71.777344,965.515137,231.536865,0.039221
-69.030762,967.346191,230.987549,0.040004
-68.206787,966.613770,222.839355,0.040768
-65.826416,963.958740,230.895996,0.041515
-69.946289,968.994141,221.282959,0.042281
-67.565918,967.071533,225.677490,0.043022
-66.192627,967.712402,228.149414,0.043761
-63.629150,967.895508,221.923828,0.044499
-68.664551,980.987549,216.796875,0.045247
-65.460205,963.043213,224.212646,0.045992
-58.868408,961.761475,224.945068,0.046731
-60.516357,962.310791,222.473145,0.047470
-58.227539,961.944580,225.860596,0.048220
-58.685303,965.789795,219.268799,0.048960
-59.326172,956.634521,215.240479,0.049700
-55.114746,964.965820,212.219238,0.050439
-58.135986,956.359863,220.550537,0.051179
-57.403564,956.817627,220.825195,0.051929
-64.636230,951.507568,222.106934,0.052669
-56.121826,955.444336,227.325439,0.053409
-58.135986,954.345703,212.951660,0.054148
-47.515869,954.162598,217.987061,0.054898
-53.100586,951.873779,218.536377,0.055639
-53.833008,958.557129,221.557617,0.056378
-53.375244,958.465576,212.677002,0.057117
-54.748535,956.909180,215.240479,0.057866
-56.854248,947.296143,224.670410,0.058606
-55.114746,952.239990,222.564697,0.059345
-59.509277,954.437256,218.627930,0.060084
-57.312012,950.866699,218.536377,0.060833
-58.959961,956.085205,220.275879,0.061573
-58.135986,944.183350,212.493896,0.062312
-57.037354,952.331543,213.134766,0.063051
-60.333252,956.359863,214.141846,0.063800
-57.586670,960.388184,221.466064,0.064539
-52.276611,955.810547,220.092773,0.065278
-58.776855,960.388184,220.092773,0.066017
-59.509277,962.585449,224.670410,0.066767
-58.227539,956.542969,227.233887,0.067507
-61.981201,957.275391,221.466064,0.068247
-61.340332,955.810547,226.318359,0.068986
-60.516357,960.021973,225.769043,0.069738
-60.333252,959.564209,224.304199,0.070477
-56.671143,950.592041,228.607178,0.071219
-61.157227,954.345703,226.867676,0.071962
-63.537598,954.986572,220.092773,0.072850
-59.783936,959.838867,222.106934,0.073596
-65.368652,958.831787,219.268799,0.074336
-62.622070,955.444336,221.832275,0.075078
-70.220947,959.747314,215.789795,0.075818
-64.544678,958.190918,222.564697,0.076558
-61.065674,954.803467,220.825195,0.077297
-67.657471,955.535889,222.930908,0.078036
-66.650391,957.275391,221.832275,0.078775
-64.636230,954.345703,218.170166,0.079514
-74.066162,954.711914,216.979980,0.080254
-69.305420,958.190918,221.191406,0.080994
-77.087402,959.564209,221.008301,0.081733
-69.030762,961.944580,222.656250,0.082472
-64.910889,957.458496,218.811035,0.083211
-67.199707,949.859619,220.642090,0.083963
-66.741943,944.366455,215.240479,0.084703
-65.551758,954.437256,215.972900,0.085442
-69.488525,951.690674,212.677002,0.086182
-65.917969,944.366455,220.642090,0.086921
-68.206787,951.416016,218.536377,0.087660
-66.650391,956.909180,219.818115,0.088400
-68.298340,946.105957,214.874268,0.089139
-69.396973,945.465088,212.677002,0.089879
-64.270020,953.521729,211.120605,0.090618
-68.664551,959.381104,214.599609,0.091358
-59.600830,953.155518,219.451904,0.092098
-66.009521,951.232910,219.726562,0.092846
-63.812256,950.958252,216.430664,0.093586
-64.910889,957.641602,217.346191,0.094325
-68.939209,953.979492,214.599609,0.095064
-67.291260,955.993652,215.332031,0.095803
-66.650391,960.845947,223.571777,0.096543
-69.580078,955.352783,222.747803,0.097282
-65.734863,956.817627,222.839355,0.098022
-72.143555,955.444336,221.832275,0.098761
-63.354492,960.479736,225.860596,0.099500
-61.889648,959.106445,226.593018,0.100240
-75.714111,959.197998,225.769043,0.100979
-68.572998,962.219238,228.057861,0.101720
-68.572998,966.705322,228.698730,0.102460
-73.150635,962.127686,224.578857,0.103200
-76.171875,964.233398,228.515625,0.103940
-67.474365,963.867188,227.050781,0.104680
-67.565918,972.381592,229.431152,0.105420
-68.206787,964.324951,223.937988,0.106160
-76.904297,961.578369,223.205566,0.106899
-72.235107,963.775635,214.050293,0.107638
-72.967529,965.423584,221.832275,0.108375
-70.037842,964.141846,216.888428,0.109112
-71.319580,959.106445,225.677490,0.109871
-62.347412,961.120605,226.135254,0.110614
-66.284180,959.655762,215.881348,0.111355
-68.206787,962.493896,221.008301,0.112096
-65.093994,962.036133,218.902588,0.112837
-64.544678,965.057373,214.233398,0.113577
-64.361572,958.465576,218.353271,0.114318
-71.044922,958.740234,226.043701,0.115058
-71.319580,954.711914,221.466064,0.115799
-72.235107,959.655762,222.747803,0.116553
-74.707031,958.557129,223.388672,0.117139
-71.594238,956.542969,220.825195,0.117880
-72.326660,962.310791,224.304199,0.118621
-71.319580,960.113525,218.811035,0.119362
-65.460205,957.183838,222.015381,0.120103
-74.523926,960.388184,221.649170,0.120844
-71.319580,954.162598,217.163086,0.121585
-67.474365,956.268311,214.141846,0.122335
-66.192627,953.521729,212.219238,0.123076
-64.544678,956.817627,216.522217,0.123817
-63.995361,950.408936,211.669922,0.124557
-57.495117,963.043213,217.529297,0.125307
-62.988281,959.655762,214.233398,0.126049
-64.270020,963.317871,211.669922,0.126790
-64.086914,958.374023,217.895508,0.127530
-64.544678,958.099365,213.134766,0.128271
-64.636230,951.141357,219.543457,0.129011
-61.981201,952.514648,223.571777,0.129750
-68.572998,949.676514,223.480225,0.130489
-62.530518,949.035645,221.191406,0.131229
-64.086914,957.092285,220.092773,0.131968
-69.213867,958.099365,219.268799,0.132708
-66.009521,955.261230,220.642090,0.133448
-64.453125,983.917236,218.170166,0.134195
-60.424805,954.711914,219.909668,0.134935
-68.572998,953.063965,217.071533,0.135675
-61.706543,945.190430,222.290039,0.136423
-68.756104,955.627441,216.156006,0.137172
-66.741943,950.042725,214.324951,0.137912
-61.157227,950.775146,206.542969,0.138651
-62.896729,953.430176,216.430664,0.139391
-61.523438,948.577881,204.345703,0.140130
-63.720703,954.437256,212.127686,0.140881
-52.185059,953.887939,212.860107,0.141621
-61.157227,953.155518,214.782715,0.142361
-57.403564,958.648682,212.310791,0.143100
-60.150146,960.388184,209.014893,0.143849
-56.213379,964.141846,217.346191,0.144589
-68.481445,952.789307,217.163086,0.145419
-62.805176,960.845947,216.430664,0.146170
-69.671631,956.085205,228.240967,0.146912
-63.262939,958.648682,218.994141,0.147655
-61.431885,960.479736,234.558105,0.148396
-58.685303,967.987061,231.994629,0.149137
-64.086914,970.367432,230.987549,0.149879
-58.319092,976.043701,235.107422,0.150637
-61.523438,974.761963,235.198975,0.151397
-57.128906,972.106934,236.755371,0.152164
-63.720703,971.008301,234.008789,0.152925
-57.312012,970.733643,231.536865,0.153683
-58.227539,971.923828,235.382080,0.154442
-53.466797,973.022461,230.072021,0.155218
-64.086914,971.282959,233.001709,0.155961
-60.791016,961.761475,235.565186,0.156701
-62.438965,972.747803,231.994629,0.157441
-72.052002,970.550537,231.903076,0.158191
-69.763184,969.818115,234.008789,0.158931
-60.791016,966.156006,230.804443,0.159671
-60.058594,970.458984,227.508545,0.160410
-58.959961,965.789795,229.888916,0.161159
-61.065674,959.381104,219.177246,0.161899
-61.431885,955.627441,220.001221,0.162639
-59.417725,961.761475,224.121094,0.163378
-60.150146,959.106445,211.944580,0.164128
-59.600830,955.718994,210.571289,0.164868
-59.692383,959.014893,208.923340,0.165670
-63.079834,951.324463,230.438232,0.166474
-65.551758,951.232910,220.184326,0.167225
-61.065674,951.049805,213.043213,0.167966
-52.459717,956.085205,193.908691,0.168706
-55.389404,948.577881,211.120605,0.169461
-65.002441,942.626953,210.845947,0.170215
-59.234619,949.127197,207.733154,0.170991
-68.115234,951.965332,209.564209,0.171748
-65.917969,949.584961,203.613281,0.172513
-57.769775,955.810547,210.571289,0.173258
-53.741455,948.852539,211.029053,0.173998
-60.791016,950.500488,208.465576,0.174739
-63.262939,946.746826,206.634521,0.175479
-59.967041,941.711426,211.486816,0.176218
-58.319092,946.563721,208.557129,0.176957
-61.798096,948.760986,214.233398,0.177696
-61.157227,947.570801,210.754395,0.178449
-59.509277,952.789307,223.022461,0.179190
-56.854248,948.669434,218.170166,0.179930
-61.889648,951.507568,211.303711,0.180670
-60.241699,949.035645,216.156006,0.181436
-56.762695,943.817139,216.705322,0.182179
-57.495117,944.091797,219.268799,0.182919
-52.551270,955.169678,219.818115,0.183658
-49.713135,949.951172,213.867188,0.184398
-52.551270,947.662354,213.317871,0.185138
-59.783936,947.204590,219.635010,0.185877
-55.206299,949.859619,215.240479,0.186627
-56.945801,955.078125,221.466064,0.187367
-59.875488,951.232910,216.979980,0.188106
-62.438965,961.761475,220.184326,0.188845
-60.699463,959.838867,222.015381,0.189584
-58.410645,957.275391,220.550537,0.190323
-57.403564,961.669922,231.079102,0.191063
-64.178467,957.733154,224.487305,0.191802
-56.945801,956.909180,228.057861,0.192542
-60.974121,981.994629,225.952148,0.193281
-55.114746,962.585449,225.769043,0.194021
-55.206299,961.029053,224.761963,0.194760
-64.086914,952.606201,218.811035,0.195500
-56.945801,964.324951,222.290039,0.196249
-60.424805,962.036133,226.501465,0.196989
-55.480957,960.845947,229.614258,0.197729
-55.938721,972.839355,227.050781,0.198468
-58.227539,960.571289,224.761963,0.199219
-66.284180,968.627930,223.663330,0.199958
-64.086914,967.895508,228.149414,0.200698
-66.009521,964.416504,224.121094,0.201437
-67.474365,966.430664,225.219727,0.202186
-60.424805,970.642090,221.099854,0.202926
-56.762695,965.606689,220.367432,0.203665
-59.600830,967.163086,227.325439,0.204435
-54.748535,970.092773,233.734131,0.205215
-68.664551,970.184326,225.585938,0.205967
-65.460205,981.170654,231.536865,0.206735
-62.347412,966.156006,227.233887,0.207511
-62.164307,971.832275,232.086182,0.208254
-68.756104,973.114014,228.607178,0.209045
-68.481445,974.121094,229.705811,0.209807
-61.157227,970.642090,223.297119,0.210630
-60.607910,968.261719,223.388672,0.211398
-62.713623,968.719482,229.614258,0.212142
-64.636230,969.543457,230.529785,0.212730
-69.030762,970.367432,229.705811,0.213486
-69.213867,967.803955,232.727051,0.214221
-64.636230,963.500977,230.804443,0.214955
-68.481445,968.353271,226.501465,0.215690
-66.284180,962.951660,231.445312,0.216449
-68.756104,961.486816,228.240967,0.217192
-62.896729,958.648682,220.458984,0.217934
-70.037842,938.873291,231.079102,0.218771
-65.093994,965.148926,228.790283,0.219528
-63.720703,956.726074,213.500977,0.220270
-59.509277,961.761475,217.437744,0.221004
-62.347412,950.408936,215.606689,0.221748
-63.995361,943.725586,216.064453,0.222545
-70.495605,948.211670,205.535889,0.223289
-60.882568,946.655273,207.733154,0.224031
-61.706543,938.690186,210.845947,0.224774
-66.375732,942.626953,212.219238,0.225528
-65.551758,943.359375,211.761475,0.226270
-63.629150,941.345215,230.621338,0.227013
-61.065674,937.408447,211.212158,0.227755
-59.783936,938.873291,216.522217,0.228507
-65.734863,939.880371,214.141846,0.229249
-66.101074,938.140869,214.233398,0.229991
-62.713623,942.169189,215.057373,0.230733
-62.530518,933.746338,212.127686,0.231410
-66.558838,930.358887,210.021973,0.232152
-58.593750,946.655273,208.007812,0.232894
-60.882568,933.105469,205.993652,0.233637
-62.805176,943.450928,208.465576,0.234387
-56.030273,930.450439,212.402344,0.235127
-57.678223,930.175781,199.859619,0.235868
-62.347412,933.746338,203.796387,0.236608
-57.403564,937.225342,206.176758,0.237395
-61.889648,941.619873,202.880859,0.238153
-57.952881,942.443848,210.479736,0.238932
-53.283691,946.472168,206.268311,0.239697
-47.882080,947.387695,217.254639,0.240442
-53.283691,945.281982,212.951660,0.241258
-53.833008,948.486328,217.346191,0.242056
-58.227539,942.169189,223.022461,0.242838
-57.586670,944.824219,221.282959,0.243615
-55.664062,946.929932,216.156006,0.244365
-59.234619,945.556641,218.536377,0.245109
-53.558350,954.437256,216.705322,0.245876
-52.642822,956.909180,217.987061,0.246621
-68.206787,954.345703,215.789795,0.247364
-57.678223,957.458496,218.994141,0.248108
-58.135986,954.711914,218.170166,0.248867
-55.664062,955.078125,221.099854,0.249611
-51.727295,954.254150,217.620850,0.250356
-56.762695,957.366943,222.106934,0.251100
-59.783936,961.578369,225.769043,0.251851
-59.051514,968.902588,226.135254,0.252595
-64.910889,962.127686,219.451904,0.253338
-57.861328,957.275391,220.642090,0.254081
-64.910889,964.874268,225.402832,0.254835
-59.417725,965.606689,224.487305,0.255581
-61.248779,965.881348,218.536377,0.256327
-65.002441,964.965820,216.339111,0.257070
-59.692383,966.430664,220.916748,0.257814
-66.833496,962.493896,218.261719,0.258558
-69.396973,973.388672,215.057373,0.259306
-67.657471,968.536377,225.219727,0.260049
-72.418213,971.008301,216.247559,0.260654
-71.136475,979.431152,214.508057,0.261399
-66.650391,970.458984,217.987061,0.262143
-92.834473,967.803955,213.867188,0.262886
-76.995850,969.909668,210.113525,0.263630
-70.312500,964.050293,218.353271,0.264374
-65.917969,966.522217,215.240479,0.265118
-68.206787,970.367432,216.339111,0.265861
-88.531494,967.071533,221.557617,0.266618
-68.847656,971.374512,212.860107,0.267362
-72.875977,972.656250,214.782715,0.268105
-73.150635,974.761963,211.853027,0.268849
-79.284668,972.015381,209.197998,0.269625
-68.298340,969.909668,215.606689,0.270369
-72.509766,967.529297,220.275879,0.271112
-73.425293,976.409912,222.564697,0.271856
-74.340820,981.445312,217.346191,0.272609
-69.580078,977.233887,213.592529,0.273354
-73.242188,983.001709,227.966309,0.274098
-74.157715,970.550537,224.670410,0.274842
-72.235107,971.557617,219.177246,0.275586
-69.396973,973.937988,216.430664,0.276397
-69.030762,977.691650,216.522217,0.277141
-72.875977,968.261719,217.895508,0.277885
-72.601318,981.628418,218.261719,0.278631
-74.981689,978.149414,221.374512,0.279375
-79.833984,966.247559,213.409424,0.280119
-78.094482,974.853516,218.902588,0.280862
-76.354980,974.487305,222.381592,0.281606
-72.692871,971.191406,218.994141,0.282350
-72.967529,965.148926,214.965820,0.283093
-75.073242,972.015381,212.585449,0.283837
-71.044922,972.381592,220.001221,0.284581
-66.833496,974.304199,219.726562,0.285325
-65.826416,970.642090,220.916748,0.286068
-70.037842,976.226807,218.353271,0.286811
-68.298340,972.656250,217.163086,0.287560
-67.382812,971.557617,220.550537,0.288305
-71.960449,969.177246,218.353271,0.289048
-68.756104,972.015381,226.684570,0.289792
-60.516357,974.029541,225.402832,0.290536
-67.657471,972.564697,225.402832,0.291382
-59.326172,974.395752,223.388672,0.292127
-65.826416,980.072021,231.903076,0.292871
-56.030273,973.663330,234.191895,0.293615
-62.438965,973.663330,229.522705,0.294359
-62.347412,972.656250,221.374512,0.295101
-65.460205,969.726562,218.536377,0.295845
-61.706543,971.832275,224.029541,0.296588
-58.502197,971.740723,227.966309,0.297351
-61.157227,968.170166,231.903076,0.298239
-61.889648,977.325439,225.494385,0.299027
-58.959961,970.825195,220.001221,0.299820
-55.664062,968.170166,221.466064,0.300584
-52.734375,972.930908,225.769043,0.301349
-57.037354,974.578857,221.008301,0.302116
-57.861328,969.360352,223.480225,0.302952
-47.424316,965.881348,220.184326,0.303718
-47.607422,979.705811,229.248047,0.304482
-55.114746,977.142334,221.466064,0.305244
-55.755615,983.001709,229.431152,0.306040
-50.354004,978.881836,234.008789,0.306792
-53.924561,972.839355,225.036621,0.307537
-45.501709,974.304199,227.783203,0.308281
-47.515869,966.888428,219.635010,0.308955
-63.537598,978.424072,228.607178,0.309699
-45.867920,972.473145,223.388672,0.310443
-50.994873,973.846436,230.804443,0.311187
-51.544189,965.881348,227.142334,0.311942
-50.903320,966.247559,229.339600,0.312704
-46.783447,963.409424,223.114014,0.313455
-47.973633,960.113525,229.705811,0.314231
-45.776367,960.205078,217.529297,0.315002
-23.712158,967.803955,227.142334,0.315748
-50.170898,961.578369,226.318359,0.316491
-52.093506,960.662842,220.642090,0.317235
-53.100586,965.515137,221.740723,0.318023
-49.896240,968.994141,227.325439,0.318808
-47.332764,977.691650,226.226807,0.319564
-50.628662,976.318359,230.895996,0.320348
-52.642822,969.818115,228.790283,0.321131
-50.262451,958.099365,220.092773,0.321876
-46.600342,967.163086,226.318359,0.322620
-53.649902,954.986572,221.008301,0.323365
-41.290283,971.466064,229.522705,0.324119
-39.916992,962.768555,233.734131,0.324864
-40.649414,964.324951,228.515625,0.325608
-44.952393,956.909180,225.952148,0.326196
-48.889160,963.867188,226.043701,0.326950
-23.803711,961.578369,224.670410,0.327694
-43.395996,966.613770,228.332520,0.328439
-56.579590,966.796875,227.233887,0.329185
-53.833008,962.219238,223.114014,0.329941
-48.889160,964.965820,227.325439,0.330685
-46.875000,969.451904,220.092773,0.331429
-46.691895,967.529297,225.311279,0.332173
-50.170898,962.768555,224.487305,0.332926
-53.741455,961.029053,222.290039,0.333671
-58.410645,966.247559,220.642090,0.334415
-50.262451,957.550049,219.818115,0.335159
-50.720215,954.803467,215.606689,0.335913
-57.952881,961.578369,218.444824,0.336658
-59.417725,965.515137,218.811035,0.337403
-59.509277,968.170166,217.254639,0.338147
-60.699463,954.895020,223.937988,0.338902
-59.783936,957.550049,225.219727,0.339646
-67.199707,963.317871,220.550537,0.340390
-63.720703,968.170166,224.212646,0.341134
-63.446045,966.156006,223.205566,0.341887
-63.354492,960.754395,231.903076,0.342621
-62.530518,969.360352,229.614258,0.343355
-61.889648,963.500977,231.079102,0.344090
-58.135986,968.719482,233.276367,0.344856
-64.910889,971.282959,229.797363,0.345601
-62.805176,969.543457,229.431152,0.346345
-55.572510,977.966309,233.734131,0.347089
-56.213379,978.424072,234.191895,0.347844
-63.995361,979.614258,236.389160,0.348588
-65.277100,971.191406,233.001709,0.349332
-63.171387,972.564697,236.297607,0.350076
-70.312500,972.015381,233.093262,0.350830
-67.657471,981.719971,230.804443,0.351574
-69.213867,977.874756,227.691650,0.352318
-61.798096,989.227295,226.501465,0.353099
-60.150146,971.923828,231.903076,0.353854
-60.974121,971.649170,224.304199,0.354598
-67.565918,969.085693,224.304199,0.355342
-58.319092,971.374512,226.043701,0.356086
-63.446045,963.684082,224.212646,0.356840
-63.537598,962.677002,218.444824,0.357584
-61.614990,971.374512,224.761963,0.358328
-62.530518,969.635010,227.508545,0.359071
-65.734863,971.923828,222.564697,0.359825
-67.474365,975.769043,217.437744,0.360569
-67.291260,974.670410,224.212646,0.361313
-66.375732,962.951660,227.600098,0.362057
-71.411133,967.437744,253.692627,0.362809
-66.101074,967.620850,228.973389,0.363554
-70.495605,965.057373,224.945068,0.364298
-78.094482,962.677002,223.388672,0.365156
-73.150635,972.290039,230.804443,0.365913
-71.960449,969.726562,225.585938,0.366659
-71.777344,962.036133,220.001221,0.367403
-72.692871,956.085205,218.902588,0.368147
-70.404053,962.310791,220.184326,0.368901
-67.016602,974.029541,224.395752,0.369646
-66.925049,946.289062,218.444824,0.370390
-71.228027,952.789307,211.853027,0.371134
-70.678711,961.303711,218.719482,0.371888
-73.242188,958.648682,215.881348,0.372632
-71.868896,956.726074,217.712402,0.373376
-75.714111,959.014893,217.071533,0.374120
-83.129883,958.465576,207.092285,0.375063
-74.523926,960.571289,215.698242,0.376109
-73.425293,957.092285,220.550537,0.376919
-81.390381,960.113525,215.698242,0.377691
-75.256348,962.036133,213.317871,0.378457
-75.897217,954.986572,211.853027,0.379224
-72.601318,954.803467,216.613770,0.379971
-75.073242,950.775146,217.895508,0.380733
-75.897217,951.141357,225.036621,0.381489
-76.721191,953.979492,217.803955,0.382242
-76.721191,952.880859,218.536377,0.383011
-73.242188,952.239990,220.001221,0.383816
-78.826904,953.338623,215.698242,0.384563
-71.868896,953.979492,217.712402,0.385382
-79.559326,952.423096,211.669922,0.386149
-80.841064,958.557129,211.029053,0.386913
-79.650879,948.577881,212.402344,0.387648
-79.467773,952.972412,213.958740,0.388382
-75.805664,948.669434,218.261719,0.389198
-74.615479,955.993652,211.761475,0.389945
-76.538086,953.796387,216.430664,0.390770
-73.150635,956.726074,220.092773,0.391644
-76.721191,954.162598,215.515137,0.392403
-87.890625,952.697754,204.620361,0.393143
-75.805664,953.338623,207.550049,0.393877
-78.552246,951.232910,228.790283,0.394641
-83.770752,950.958252,207.366943,0.395377
-80.291748,955.627441,212.310791,0.396111
-78.002930,963.500977,216.064453,0.396844
-84.686279,961.944580,216.705322,0.397590
-80.017090,961.486816,220.001221,0.398323
-84.228516,959.472656,222.106934,0.399057
-81.665039,963.409424,224.487305,0.399790
-88.806152,955.810547,228.790283,0.400524
-84.777832,961.395264,227.600098,0.401258
-82.489014,961.853027,226.867676,0.401992
-85.784912,963.134766,232.269287,0.402726
-79.193115,965.789795,230.255127,0.403466
-77.270508,963.226318,229.064941,0.404200
-78.918457,962.768555,226.684570,0.404934
-73.608398,964.324951,230.712891,0.405513
-69.671631,969.909668,229.705811,0.406248
-81.207275,967.163086,230.072021,0.407009
-78.094482,969.268799,231.903076,0.407753
-76.446533,970.916748,229.248047,0.408497
-75.439453,960.571289,228.607178,0.409241
-72.509766,958.740234,236.663818,0.409995
-70.037842,956.817627,229.522705,0.410739
-88.165283,961.944580,227.508545,0.411484
-70.953369,969.451904,227.325439,0.412228
-58.959961,974.121094,236.297607,0.412983
-58.044434,964.508057,234.649658,0.413728
-61.614990,964.874268,237.945557,0.414472
-64.544678,963.043213,225.585938,0.415216
-60.699463,966.796875,234.375000,0.415982
-66.192627,962.860107,230.529785,0.416726
-65.734863,967.620850,224.761963,0.417470
-64.544678,970.367432,232.177734,0.418214
-67.474365,957.641602,223.846436,0.418968
-68.847656,961.669922,225.860596,0.419712
-65.277100,965.423584,228.057861,0.420456
-68.481445,959.472656,225.769043,0.421200
-70.953369,955.535889,219.085693,0.421954
-66.101074,956.909180,223.571777,0.422715
-64.086914,949.493408,217.437744,0.423460
-63.171387,956.451416,209.838867,0.424203
-66.741943,958.648682,221.191406,0.424815
-61.706543,958.831787,220.550537,0.425560
-63.354492,956.542969,224.853516,0.426304
-62.805176,953.704834,212.585449,0.427047
-60.241699,949.676514,221.374512,0.427801
-56.030273,948.852539,215.606689,0.428545
-58.959961,939.788818,209.838867,0.429134
-58.593750,950.408936,219.268799,0.429877
-48.980713,941.253662,208.282471,0.430631
-51.452637,943.176270,216.888428,0.431375
-50.720215,947.479248,225.952148,0.432119
-57.403564,944.183350,212.402344,0.432862
-60.058594,948.669434,221.282959,0.433616
-56.579590,943.084717,217.529297,0.434360
-47.790527,945.373535,216.339111,0.435104
-53.100586,956.817627,224.487305,0.435848
-55.938721,949.951172,218.536377,0.436602
-54.840088,950.042725,214.965820,0.437346
-46.875000,956.817627,230.529785,0.438174
-44.128418,947.845459,222.930908,0.438919
-48.980713,948.669434,226.684570,0.439673
-37.902832,948.852539,225.860596,0.440418
-45.776367,949.127197,238.037109,0.441162
-51.544189,951.965332,225.952148,0.441906
-56.213379,946.472168,222.381592,0.442660
-49.713135,948.120117,225.677490,0.443405
-50.262451,953.521729,220.001221,0.444149
-51.818848,960.479736,223.205566,0.444893
-59.600830,943.084717,214.874268,0.445659
-52.551270,950.225830,226.043701,0.446403
-50.354004,957.092285,224.212646,0.447148
-51.361084,951.324463,213.043213,0.447891
-49.987793,960.388184,217.529297,0.448646
-50.628662,960.754395,218.536377,0.449390
-48.889160,955.169678,218.994141,0.450187
-46.966553,955.352783,220.825195,0.451119
-54.931641,956.909180,225.219727,0.451869
-57.220459,962.127686,223.114014,0.452615
-60.882568,960.296631,225.128174,0.453377
-55.664062,960.296631,231.262207,0.454142
-52.001953,960.662842,223.846436,0.454889
-46.691895,955.993652,226.776123,0.455633
-62.713623,954.620361,226.684570,0.456377
-59.143066,960.754395,223.388672,0.457121
-60.607910,959.655762,217.803955,0.457873
-63.812256,958.648682,228.607178,0.458625
-74.157715,946.472168,226.318359,0.459386
-57.678223,960.388184,222.839355,0.460139
-62.988281,963.226318,221.923828,0.460884
-67.199707,966.522217,221.649170,0.461628
-64.727783,962.768555,221.740723,0.462372
-68.206787,959.197998,222.381592,0.463214
-58.776855,953.704834,213.409424,0.464009
-64.544678,957.824707,219.909668,0.464802
-63.995361,961.395264,221.374512,0.465614
-65.643311,956.268311,225.219727,0.466409
-74.157715,950.134277,226.776123,0.467166
-71.502686,957.092285,221.099854,0.467950
-65.093994,962.127686,221.466064,0.468713
-65.826416,945.281982,209.747314,0.469490
-73.059082,951.599121,215.240479,0.470321
-71.868896,956.085205,215.606689,0.471103
-66.009521,956.176758,215.606689,0.471936
-63.812256,947.570801,220.825195,0.472727
-60.424805,947.387695,216.064453,0.473529
-63.812256,952.514648,221.099854,0.474322
-67.108154,951.324463,221.923828,0.475116
-65.643311,951.507568,216.979980,0.475901
-70.220947,949.584961,216.613770,0.476704
-66.558838,945.007324,220.458984,0.477530
-66.467285,941.894531,219.268799,0.478368
-88.806152,942.626953,222.564697,0.479214
-70.770264,935.302734,228.332520,0.480026
-67.840576,942.352295,217.803955,0.480856
-68.756104,948.303223,216.247559,0.481682
-67.382812,942.626953,216.705322,0.482472
-67.749023,939.239502,211.944580,0.483247
-67.199707,938.415527,220.642090,0.484045
-66.467285,938.781738,218.719482,0.484823
-66.101074,941.986084,221.008301,0.485597
-60.333252,946.472168,214.782715,0.486365
-59.234619,947.387695,211.303711,0.487137
-57.495117,940.887451,216.247559,0.487886
-53.283691,948.760986,219.726562,0.488626
-59.143066,953.796387,214.050293,0.489370
-56.671143,946.380615,211.486816,0.490123
-69.580078,947.296143,217.254639,0.490884
-67.749023,948.394775,216.705322,0.491636
-61.431885,948.486328,217.163086,0.492382
-63.537598,952.056885,223.205566,0.493133
-69.396973,949.401855,216.613770,0.493729
-60.333252,956.176758,223.663330,0.494476
-63.903809,955.535889,226.226807,0.495222
-65.460205,949.859619,219.085693,0.495976
-60.882568,950.683594,218.994141,0.496713
-62.347412,947.479248,225.311279,0.497449
-66.101074,949.218750,222.381592,0.498183
-65.368652,951.507568,234.558105,0.498925
-63.171387,958.374023,230.438232,0.499734
-60.791016,958.740234,221.649170,0.500470
-66.650391,945.281982,219.818115,0.501205
-66.101074,959.838867,220.367432,0.501945
-61.706543,959.014893,222.381592,0.502695
-61.340332,956.634521,226.226807,0.503437
-55.480957,949.493408,218.719482,0.504173
-56.762695,958.648682,223.388672,0.504935
-58.685303,955.902100,218.627930,0.505679
-60.974121,949.584961,219.818115,0.506423
-65.277100,951.416016,222.198486,0.507165
-66.650391,960.021973,220.001221,0.507945
-66.284180,953.887939,223.480225,0.508710
-58.135986,955.902100,224.945068,0.509466
-62.438965,955.993652,229.614258,0.510230
-57.312012,964.416504,231.811523,0.511021
-61.157227,956.268311,223.205566,0.511790
-62.896729,965.148926,227.691650,0.512575
-58.593750,959.747314,225.769043,0.513436
-70.404053,960.021973,224.853516,0.514235
-66.101074,956.817627,224.395752,0.515010
-74.798584,955.261230,227.325439,0.515779
-63.720703,952.789307,223.663330,0.516589
-65.368652,962.677002,223.571777,0.517357
-60.424805,957.641602,223.388672,0.518135
-61.889648,961.029053,220.916748,0.518907
-63.812256,960.021973,218.444824,0.519680
-65.734863,958.374023,227.416992,0.520448
-61.889648,960.754395,221.466064,0.521214
-56.396484,965.972900,225.402832,0.521971
-64.178467,963.958740,219.085693,0.522761
-58.959961,964.782715,226.318359,0.523520
-56.671143,963.500977,224.395752,0.524285
-56.854248,957.275391,218.719482,0.525055
-59.875488,954.803467,219.268799,0.525895
-66.833496,958.557129,226.959229,0.526821
-62.805176,963.958740,224.395752,0.527603
-63.812256,964.782715,231.536865,0.528406
-57.861328,963.867188,228.515625,0.529249
-64.727783,965.698242,227.142334,0.530022
-66.009521,949.859619,221.832275,0.530848
-68.939209,952.423096,219.451904,0.531615
-61.706543,952.972412,216.979980,0.532407
-60.516357,958.648682,215.057373,0.533183
-59.234619,955.261230,216.796875,0.533995
-67.199707,949.951172,219.360352,0.534829
-58.044434,955.078125,215.881348,0.535598
-63.537598,951.873779,208.465576,0.536428
-61.798096,952.606201,211.761475,0.537264
-61.340332,960.388184,209.564209,0.538036
-56.121826,951.141357,216.156006,0.538785
-62.530518,958.648682,219.451904,0.539616
-57.495117,956.909180,221.282959,0.540373
-56.304932,960.845947,214.874268,0.541123
-59.051514,957.641602,222.381592,0.541884
-61.431885,953.155518,223.297119,0.542635
-64.819336,960.571289,211.944580,0.543377
-65.460205,958.831787,212.585449,0.544113
-55.297852,958.190918,218.353271,0.544861
-58.319092,954.345703,218.902588,0.545623
-50.720215,959.014893,220.092773,0.546427
-44.769287,959.838867,218.444824,0.547220
-55.297852,960.845947,209.472656,0.548021
-57.220459,970.916748,220.367432,0.548803
-58.135986,967.437744,217.071533,0.549579
-56.854248,963.684082,214.233398,0.550355
-58.227539,963.958740,220.275879,0.551155
-62.255859,971.740723,222.564697,0.551991
-58.319092,973.388672,230.072021,0.552769
-68.023682,975.769043,227.508545,0.553554
-63.079834,975.036621,225.128174,0.554352
-64.636230,969.085693,232.727051,0.555152
-65.093994,976.226807,224.853516,0.555931
-62.072754,978.515625,221.099854,0.556747
-69.213867,971.832275,222.198486,0.557528
-67.199707,978.607178,219.360352,0.558315
-65.093994,975.769043,216.888428,0.559132
-61.889648,974.945068,225.769043,0.559926
-65.917969,977.691650,230.529785,0.560708
-72.052002,979.522705,224.761963,0.561498
-66.467285,975.677490,226.959229,0.562356
-76.904297,973.022461,214.416504,0.563150
-72.326660,978.240967,222.381592,0.563937
-73.242188,978.240967,227.416992,0.564729
-74.432373,974.395752,216.430664,0.565542
-74.798584,978.790283,214.324951,0.566336
-80.017090,976.043701,224.487305,0.567126
-74.432373,976.776123,214.324951,0.567963
-71.411133,974.853516,218.627930,0.568757
-75.073242,979.248047,227.142334,0.569541
-78.643799,974.945068,223.205566,0.570307
-80.474854,979.248047,226.409912,0.571080
-77.728271,983.917236,227.416992,0.571859
-79.376221,982.543945,219.085693,0.572623
-79.742432,979.522705,223.297119,0.573380
-75.164795,978.607178,223.663330,0.574178
-78.186035,980.987549,224.945068,0.574951
-79.742432,977.874756,227.233887,0.575712
-79.559326,974.578857,233.642578,0.576493
-82.672119,972.930908,228.057861,0.577266
-77.087402,978.790283,231.903076,0.578033
-81.298828,972.839355,227.508545,0.578864
-75.073242,976.409912,224.029541,0.579654
-78.094482,971.923828,216.156006,0.580426
-82.489014,971.832275,222.198486,0.581199
-79.833984,971.649170,220.916748,0.581976
-71.136475,963.958740,215.057373,0.582757
-73.974609,972.656250,211.486816,0.583521
-76.263428,974.304199,213.958740,0.584281
-93.475342,966.064453,223.114014,0.585063
-78.552246,965.515137,219.268799,0.585819
-74.707031,967.254639,223.022461,0.586578
-70.129395,963.500977,219.818115,0.587338
-77.270508,967.895508,222.198486,0.588093
-74.798584,970.275879,219.360352,0.588828
-70.312500,965.698242,209.655762,0.589667
-73.516846,966.705322,211.120605,0.590476
-65.917969,966.064453,221.740723,0.591299
-72.235107,964.874268,225.036621,0.592086
-72.509766,969.818115,213.958740,0.592865
-61.157227,970.184326,213.500977,0.593639
-57.678223,971.466064,217.071533,0.594461
-54.656982,970.825195,220.184326,0.595242
-57.495117,975.311279,221.374512,0.595995
-59.600830,976.043701,212.768555,0.596758
-60.241699,965.057373,218.078613,0.597600
-54.840088,962.402344,220.092773,0.598393
-58.410645,963.317871,221.282959,0.599210
-53.466797,966.979980,225.860596,0.600385
-53.466797,973.663330,232.727051,0.601214
-56.030273,968.078613,218.902588,0.602022
-50.262451,971.466064,227.691650,0.602906
-50.262451,959.747314,228.973389,0.603718
-53.924561,971.374512,231.262207,0.604512
-54.016113,971.282959,230.987549,0.605320
-50.628662,966.888428,229.522705,0.606153
-48.248291,968.902588,229.339600,0.606935
-41.564941,968.719482,231.170654,0.607712
-43.487549,966.522217,216.064453,0.608490
-44.128418,962.036133,223.571777,0.609380
-48.065186,957.641602,221.374512,0.610157
-39.550781,961.944580,218.353271,0.610920
-42.388916,964.050293,223.846436,0.611700
-44.677734,960.937500,220.733643,0.612471
-44.403076,956.909180,220.184326,0.613224
-26.824951,956.909180,217.803955,0.614064
-43.762207,963.134766,217.987061,0.614883
-42.114258,956.359863,214.782715,0.615660
-44.219971,956.726074,226.043701,0.616408
-42.297363,951.873779,224.212646,0.617154
-48.522949,960.937500,218.627930,0.617937
-52.093506,956.817627,217.620850,0.618689
-49.713135,950.775146,221.557617,0.619435
-45.867920,959.381104,222.290039,0.620183
-41.564941,945.281982,225.036621,0.620952
-39.276123,955.718994,219.543457,0.621704
-49.621582,949.401855,223.754883,0.622452
-40.100098,945.190430,226.409912,0.623200
-52.825928,943.908691,228.240967,0.623965
-50.903320,939.514160,214.324951,0.624722
-51.269531,940.795898,222.015381,0.625472
-52.551270,943.725586,224.212646,0.626220
-46.051025,954.620361,214.874268,0.627002
-49.713135,951.873779,214.874268,0.627756
-51.452637,954.254150,222.930908,0.628346
-47.424316,945.098877,215.332031,0.629093
-48.431396,941.345215,215.972900,0.629891
-52.917480,941.802979,217.620850,0.630661
-51.452637,942.718506,216.430664,0.631418
-49.621582,946.197510,217.803955,0.632164
-49.255371,950.042725,220.458984,0.632939
-52.001953,954.620361,206.909180,0.633685
-45.684814,944.274902,219.268799,0.634430
-50.445557,951.599121,214.599609,0.635174
-51.818848,946.838379,219.818115,0.635929
-55.297852,949.859619,217.437744,0.636673
-51.635742,958.007812,214.233398,0.637417
-52.276611,949.401855,215.515137,0.638161
-54.565430,948.303223,217.803955,0.638927
-54.656982,945.831299,222.015381,0.639671
-48.431396,948.120117,217.529297,0.640415
-52.185059,953.796387,218.902588,0.641159
-57.037354,954.895020,223.114014,0.641920
-51.818848,955.902100,220.458984,0.642665
-52.185059,951.049805,215.881348,0.643409
-46.783447,952.880859,224.304199,0.644153
-52.459717,956.268311,221.832275,0.644908
-49.346924,941.711426,228.240967,0.645653
-51.544189,960.754395,225.311279,0.646396
-59.051514,962.860107,223.022461,0.647208
-54.840088,968.444824,227.050781,0.647965
-55.297852,961.029053,228.424072,0.648709
-57.403564,962.036133,222.839355,0.649453
-54.199219,959.472656,219.909668,0.650197
-57.495117,954.895020,220.458984,0.650954
-54.199219,965.515137,224.212646,0.651699
-60.058594,966.888428,227.783203,0.652443
-64.361572,952.514648,224.029541,0.653187
-60.516357,961.669922,219.726562,0.653942
-58.868408,957.366943,215.698242,0.654687
-57.495117,963.684082,211.853027,0.655430
-65.826416,961.212158,213.775635,0.656174
-56.854248,962.219238,219.360352,0.656912
-57.861328,962.493896,215.881348,0.657657
-64.544678,957.824707,215.606689,0.658401
-61.614990,959.838867,212.219238,0.659144
-58.044434,960.571289,212.768555,0.659899
-56.762695,959.472656,218.719482,0.660643
-60.058594,960.845947,220.642090,0.661387
-62.988281,948.120117,217.895508,0.662131
-61.889648,956.359863,218.353271,0.662875
-65.551758,954.162598,221.557617,0.663619
-64.636230,960.571289,223.022461,0.664363
-64.910889,954.620361,217.437744,0.665192
-66.009521,960.113525,214.050293,0.665949
-72.875977,959.381104,210.113525,0.666694
-73.883057,945.098877,220.092773,0.667437
-68.115234,962.768555,221.557617,0.668181
-69.396973,954.528809,216.888428,0.668934
-68.756104,953.247070,210.479736,0.669679
-74.249268,950.408936,222.564697,0.670423
-70.587158,952.514648,222.381592,0.671167
-70.495605,952.880859,220.367432,0.671912
-74.890137,948.944092,218.078613,0.672687
-70.770264,954.437256,223.205566,0.673455
-68.756104,951.965332,219.360352,0.674205
-93.750000,946.746826,218.627930,0.674974
-68.847656,947.387695,222.747803,0.675719
-68.847656,952.239990,218.261719,0.676607
-72.967529,941.711426,212.402344,0.677477
-69.671631,950.042725,208.557129,0.678263
-76.812744,943.359375,204.711914,0.679008
-73.699951,941.802979,205.993652,0.679752
-72.235107,945.922852,209.289551,0.680496
-65.551758,938.415527,199.584961,0.681240
-65.826416,942.626953,203.155518,0.681984
-73.242188,938.690186,205.993652,0.682728
-72.235107,938.049316,200.408936,0.683504
-72.235107,941.345215,208.099365,0.684259
-74.798584,935.668945,208.190918,0.685014
-75.439453,960.205078,211.761475,0.685767
-66.284180,936.492920,208.007812,0.686512
-71.685791,941.345215,211.944580,0.687256
-68.206787,942.535400,217.163086,0.688000
-72.143555,937.225342,213.775635,0.688809
-79.833984,937.591553,213.867188,0.689602
-73.608398,946.838379,216.339111,0.690350
-79.925537,936.950684,209.930420,0.691116
-70.495605,939.880371,214.233398,0.691857
-74.981689,943.450928,209.381104,0.692615
-83.679199,936.950684,202.423096,0.693364
-70.678711,947.662354,204.254150,0.694108
-71.228027,948.486328,212.127686,0.694853
-65.368652,941.986084,199.951172,0.695609
-65.734863,938.140869,207.733154,0.696354
-64.086914,942.535400,195.098877,0.697098
-62.713623,943.908691,198.211670,0.697841
-64.819336,942.993164,199.768066,0.698430
-67.474365,940.429688,198.211670,0.699174
-72.235107,953.796387,204.254150,0.699918
-72.967529,943.176270,218.170166,0.700506
-64.361572,944.458008,210.754395,0.701250
-63.354492,941.253662,208.465576,0.702009
-71.960449,953.155518,216.796875,0.702755
-67.657471,954.437256,206.909180,0.703499
-73.699951,948.394775,206.909180,0.704243
-66.925049,956.085205,200.866699,0.705000
-64.178467,956.268311,209.289551,0.705745
-66.101074,953.979492,213.134766,0.706489
-66.101074,957.275391,207.550049,0.707233
-67.749023,957.183838,214.050293,0.707985
-71.777344,960.571289,214.782715,0.708729
-90.179443,960.296631,215.972900,0.709473
-67.657471,957.733154,214.965820,0.710217
-70.037842,956.909180,211.120605,0.710971
-70.312500,955.993652,211.486816,0.711715
-64.727783,958.557129,218.353271,0.712460
-73.150635,966.979980,229.614258,0.713204
-82.946777,954.254150,227.050781,0.713968
-70.953369,962.127686,220.367432,0.714712
-72.692871,957.641602,227.233887,0.715456
-70.312500,973.388672,234.832764,0.716200
-76.538086,958.557129,231.079102,0.716952
-77.636719,960.662842,225.311279,0.717697
-82.763672,968.811035,217.437744,0.718441
-78.826904,962.402344,217.163086,0.719186
-79.467773,956.268311,217.803955,0.719939
-72.235107,959.014893,221.740723,0.720683
-81.848145,959.655762,211.212158,0.721427
-78.552246,958.374023,218.811035,0.722172
-76.446533,962.951660,218.261719,0.722980
-78.186035,960.571289,211.303711,0.723725
-75.805664,968.444824,218.902588,0.724313
-86.151123,956.726074,217.803955,0.725057
-82.489014,959.014893,213.226318,0.725811
-80.383301,956.451416,224.487305,0.726555
-78.643799,957.092285,224.945068,0.727299
-84.777832,952.148438,220.001221,0.728043
-90.545654,953.979492,218.261719,0.728796
-78.826904,958.557129,215.972900,0.729540
-78.277588,962.310791,221.649170,0.730284
-82.672119,954.254150,212.768555,0.731028
-82.214355,951.049805,216.156006,0.731783
-77.178955,954.711914,218.261719,0.732527
-73.333740,957.733154,219.818115,0.733271
-85.601807,952.148438,218.170166,0.734015
-79.376221,948.760986,220.733643,0.734769
-79.650879,950.683594,219.451904,0.735512
-77.453613,948.944092,216.064453,0.736256
-84.045410,938.232422,215.057373,0.737002
-80.566406,950.866699,217.437744,0.737837
-89.172363,942.352295,214.050293,0.738584
-88.256836,951.416016,220.001221,0.739330
-85.144043,945.465088,214.233398,0.740107
-84.869385,949.951172,214.233398,0.740879
-81.756592,949.401855,213.409424,0.741624
-85.327148,947.662354,213.684082,0.742368
-80.841064,945.556641,214.508057,0.743112
-86.334229,945.648193,204.803467,0.743866
-85.510254,939.331055,202.514648,0.744611
-74.707031,942.993164,215.972900,0.745355
-78.186035,942.077637,211.944580,0.746099
-78.186035,949.584961,218.078613,0.746853
-76.354980,949.768066,217.254639,0.747598
-74.249268,946.105957,217.529297,0.748186
-74.615479,948.394775,215.057373,0.748930
-74.707031,949.951172,209.930420,0.749683
-74.066162,947.296143,210.845947,0.750428
-74.066162,949.218750,210.113525,0.751172
-81.024170,942.718506,206.359863,0.751916
-70.953369,951.873779,207.092285,0.752870
-75.622559,953.338623,206.542969,0.753617
-79.284668,956.268311,211.120605,0.754361
-76.354980,954.895020,209.747314,0.755105
-74.615479,959.930420,213.500977,0.755862
-72.967529,960.937500,207.092285,0.756606
-75.256348,958.740234,210.021973,0.757350
-69.213867,962.127686,213.592529,0.758094
-72.143555,965.423584,210.205078,0.758857
-76.721191,963.409424,213.775635,0.759649
-72.509766,966.979980,219.451904,0.760402
-73.516846,967.803955,214.416504,0.761146
-73.699951,969.177246,217.071533,0.761914
-69.946289,972.473145,219.726562,0.762710
-70.495605,968.719482,223.846436,0.763480
-80.841064,967.071533,225.769043,0.764243
-74.249268,976.867676,226.776123,0.764998
-70.678711,971.008301,226.135254,0.765754
-73.059082,977.508545,212.677002,0.766504
-70.404053,972.473145,220.916748,0.767249
-69.213867,969.451904,217.437744,0.767994
-66.375732,974.945068,223.571777,0.768737
-69.763184,975.036621,220.916748,0.769481
-66.558838,981.170654,222.747803,0.770225
-67.474365,972.656250,220.825195,0.770969
-70.220947,971.557617,220.916748,0.771713
-66.101074,972.656250,218.170166,0.772301
-65.277100,978.607178,215.240479,0.773045
-72.418213,974.395752,208.557129,0.773804
-72.875977,976.684570,212.860107,0.774551
-68.756104,980.529785,216.796875,0.775301
-68.115234,975.860596,215.515137,0.776050
-66.833496,972.381592,209.564209,0.776837
-74.157715,969.268799,216.247559,0.777590
-75.256348,977.416992,213.043213,0.778334
-68.572998,976.226807,220.184326,0.779131
-73.699951,977.142334,220.458984,0.779939
-72.418213,973.937988,213.775635,0.780691
-64.819336,976.501465,216.613770,0.781435
-62.896729,977.142334,221.099854,0.782179
-66.558838,976.043701,220.275879,0.782924
-74.707031,980.529785,215.972900,0.783667
-71.411133,980.255127,220.001221,0.784411
-69.122314,972.930908,217.163086,0.785155
-65.185547,976.501465,214.141846,0.785899
-59.234619,977.142334,218.444824,0.786643
-63.262939,979.888916,217.987061,0.787387
-61.889648,975.585938,223.022461,0.788158
-63.812256,968.353271,223.205566,0.788903
-63.720703,973.388672,230.987549,0.789647
-64.910889,979.980469,228.332520,0.790391
-62.255859,982.086182,227.416992,0.791139
-67.291260,984.924316,232.177734,0.791884
-64.178467,980.804443,247.650146,0.792628
-60.699463,975.769043,235.656738,0.793371
-65.093994,975.769043,233.551025,0.794115
-60.058594,975.494385,236.206055,0.794869
-50.628662,981.628418,226.135254,0.795614
-52.185059,981.079102,223.022461,0.796358
-52.917480,983.093262,233.093262,0.797102
-52.368164,983.459473,228.881836,0.797855
-59.234619,973.480225,219.543457,0.798599
-61.889648,971.282959,219.818115,0.799343
-62.347412,969.268799,211.120605,0.800088
-61.248779,960.937500,203.613281,0.800841
-51.910400,967.529297,199.859619,0.801586
-53.375244,966.705322,206.817627,0.802329
-52.459717,963.043213,207.550049,0.803073
-52.734375,967.254639,209.381104,0.803836
-58.227539,970.275879,212.310791,0.804581
-55.023193,964.965820,209.289551,0.805325
-43.945312,971.099854,213.867188,0.806068
-50.170898,964.874268,218.627930,0.806822
-45.227051,972.473145,230.895996,0.807566
-56.488037,979.888916,228.790283,0.808310
-49.530029,971.923828,231.994629,0.809054
-49.346924,977.966309,224.395752,0.809806
-55.938721,969.268799,222.747803,0.810551
-53.741455,973.114014,227.233887,0.811376
-53.009033,972.198486,224.121094,0.812121
-50.262451,962.585449,229.980469,0.812898
-52.551270,964.416504,223.571777,0.813642
-53.741455,979.705811,220.092773,0.814386
-51.635742,973.205566,221.923828,0.815130
-53.741455,975.036621,216.796875,0.815885
-44.128418,973.205566,221.008301,0.816629
-50.537109,972.747803,220.367432,0.817373
-42.572021,972.015381,224.945068,0.818117
-50.170898,968.170166,219.451904,0.818872
-45.959473,971.557617,222.656250,0.819616
-52.917480,972.930908,225.219727,0.820360
-47.973633,978.332520,226.409912,0.821104
-54.656982,972.656250,218.627930,0.821858
-53.466797,975.585938,223.022461,0.822602
-57.128906,976.684570,226.776123,0.823346
-52.551270,976.593018,226.043701,0.824090
-51.818848,973.754883,224.121094,0.824844
-53.283691,975.036621,228.057861,0.825588
-54.199219,969.177246,223.297119,0.826331
-58.135986,973.297119,224.029541,0.827075
-57.037354,964.233398,221.740723,0.827734
-59.143066,966.156006,227.416992,0.828479
-59.509277,971.740723,224.670410,0.829302
-61.431885,968.811035,220.825195,0.830096
-59.234619,974.395752,225.860596,0.830862
-58.593750,977.325439,225.494385,0.831615
-59.509277,966.430664,219.177246,0.832446
-61.614990,974.945068,226.593018,0.833242
-59.417725,974.945068,231.262207,0.834039
-60.882568,979.339600,234.100342,0.834805
-61.340332,970.733643,230.529785,0.835569
-66.467285,967.987061,234.649658,0.836338
-61.523438,975.952148,222.473145,0.837165
-62.530518,969.268799,230.255127,0.837948
-63.354492,962.677002,222.930908,0.838728
-59.143066,967.254639,223.022461,0.839549
-62.713623,966.796875,221.649170,0.840342
-57.128906,976.135254,217.071533,0.841090
-58.959961,974.304199,224.395752,0.841834
-60.058594,968.902588,222.747803,0.842605
-62.896729,971.832275,225.402832,0.843349
-62.805176,972.473145,227.874756,0.844093
-57.128906,969.543457,226.409912,0.844838
-58.776855,973.937988,223.480225,0.845592
-68.847656,972.564697,228.515625,0.846336
-68.115234,972.381592,228.515625,0.847080
-74.249268,971.008301,227.966309,0.847824
-64.910889,973.114014,225.952148,0.848578
-63.720703,972.290039,225.860596,0.849325
-66.558838,964.416504,225.402832,0.850069
-68.298340,969.268799,221.008301,0.850812
-64.086914,973.663330,226.318359,0.851568
-56.671143,961.578369,224.945068,0.852312
-58.410645,975.219727,215.240479,0.853056
-55.480957,973.480225,219.177246,0.853800
-54.840088,971.282959,212.310791,0.854554
-61.889648,969.451904,210.845947,0.855298
-61.614990,973.937988,220.733643,0.856041
-64.178467,972.656250,222.473145,0.856785
-64.453125,969.635010,221.557617,0.857539
-66.558838,972.015381,223.937988,0.858284
-63.537598,978.057861,226.593018,0.859028
-61.340332,967.987061,215.515137,0.859771
-66.467285,971.832275,227.600098,0.860525
-64.086914,975.311279,216.064453,0.861269
-67.382812,968.902588,226.501465,0.862013
-59.051514,972.198486,226.043701,0.862757
-64.910889,980.712891,228.240967,0.863502
-60.516357,969.451904,227.416992,0.864091
-63.812256,965.606689,224.304199,0.864834
-63.720703,972.290039,226.501465,0.865578
-52.917480,977.966309,225.402832,0.866322
-55.114746,979.431152,230.987549,0.867066
-49.713135,977.416992,229.156494,0.867810
-57.312012,978.881836,227.233887,0.868554
-58.502197,974.853516,226.043701,0.869300
-60.607910,974.945068,220.550537,0.870044
-57.678223,974.853516,224.945068,0.870789
-56.854248,982.177734,223.663330,0.871533
-58.868408,971.099854,220.733643,0.872304
-59.326172,967.895508,220.092773,0.873048
-65.460205,968.536377,214.874268,0.873792
-57.769775,973.663330,221.923828,0.874535
-53.741455,974.121094,227.142334,0.875280
-55.847168,974.212646,222.930908,0.876024
-54.290771,962.860107,223.480225,0.876768
-54.931641,974.395752,215.698242,0.877512
-57.220459,970.550537,214.965820,0.878256
-55.389404,970.733643,218.170166,0.879000
-54.473877,977.874756,220.642090,0.879744
-50.903320,973.205566,209.564209,0.880488
-57.495117,978.973389,214.233398,0.881232
-61.706543,970.275879,213.409424,0.881976
-54.473877,976.318359,217.071533,0.882721
-65.551758,965.515137,214.050293,0.883464
-64.453125,974.853516,221.649170,0.884290
-65.185547,980.438232,220.916748,0.885035
-62.805176,977.874756,226.684570,0.885780
-63.629150,981.079102,226.593018,0.886524
-62.072754,978.698730,225.311279,0.887269
-63.720703,971.008301,224.212646,0.888013
-63.354492,963.500977,220.001221,0.888757
-69.213867,972.564697,224.304199,0.889502
-66.192627,971.557617,210.388184,0.890236
-65.734863,973.937988,216.247559,0.890996
-70.312500,964.233398,211.761475,0.891740
-70.495605,970.001221,232.727051,0.892484
-70.404053,965.148926,208.374023,0.893228
-70.495605,964.782715,211.669922,0.893981
-71.960449,968.261719,219.177246,0.894726
-72.418213,960.845947,210.937500,0.895469
-68.847656,961.029053,209.655762,0.896213
-70.220947,963.043213,206.451416,0.896975
-73.242188,967.346191,214.965820,0.897720
-69.305420,969.726562,216.979980,0.898464
-74.981689,963.226318,215.515137,0.899208
-75.073242,959.197998,216.522217,0.899963
-73.333740,958.099365,217.620850,0.900707
-72.418213,960.205078,214.874268,0.901451
-67.474365,956.909180,216.064453,0.902195
-68.023682,952.514648,210.571289,0.902949
-70.312500,959.564209,208.648682,0.903693
-76.995850,961.486816,211.303711,0.904437
-77.087402,966.156006,202.972412,0.905182
-83.496094,963.775635,207.000732,0.905968
-74.890137,965.057373,208.923340,0.906982
-74.890137,960.754395,231.994629,0.907888
-72.784424,965.972900,220.642090,0.908684
-81.481934,964.141846,211.578369,0.909442
-72.326660,965.606689,216.339111,0.910199
-78.735352,967.987061,204.986572,0.910998
-87.524414,967.071533,206.359863,0.911774
-81.024170,971.099854,210.845947,0.912551
-79.376221,965.698242,215.057373,0.913321
-88.897705,967.895508,210.113525,0.914148
-84.960938,969.543457,216.247559,0.914915
-90.087891,964.416504,218.078613,0.915677
-85.510254,961.120605,203.887939,0.916476
-85.327148,943.267822,205.993652,0.917254
-77.728271,961.120605,222.747803,0.918000
-85.052490,963.592529,217.529297,0.918744
-78.552246,963.134766,211.395264,0.919488
-80.932617,975.311279,218.536377,0.920242
-80.657959,970.916748,220.916748,0.920986
-83.312988,964.141846,220.001221,0.921733
-82.397461,967.712402,223.297119,0.922478
-86.700439,961.486816,216.522217,0.923234
-87.432861,961.486816,216.705322,0.923979
-83.679199,966.705322,219.909668,0.924723
-81.848145,960.754395,216.613770,0.925467
-85.784912,964.599609,217.071533,0.926211
-81.848145,965.423584,222.290039,0.926954
-78.094482,963.592529,222.015381,0.927698
-81.390381,968.261719,219.635010,0.928442
-80.841064,972.564697,222.106934,0.929187
-74.798584,964.416504,216.339111,0.929931
-74.432373,966.796875,226.776123,0.930675
-85.327148,962.402344,221.557617,0.931419
-80.932617,939.605713,220.184326,0.932169
-77.911377,965.789795,227.050781,0.932914
-82.397461,964.599609,228.515625,0.933658
-73.883057,963.409424,231.536865,0.934402
-78.643799,962.219238,224.670410,0.935147
-76.629639,982.269287,231.811523,0.935891
-82.122803,960.571289,235.382080,0.936480
-75.988770,960.021973,233.917236,0.937224
-91.186523,958.282471,234.008789,0.937967
-81.665039,952.331543,227.783203,0.938711
-83.129883,945.281982,226.226807,0.939455
-81.848145,950.317383,214.782715,0.940199
-77.178955,946.380615,216.156006,0.940788
-74.890137,958.831787,201.232910,0.941540
-78.643799,962.127686,183.471680,0.942285
-76.080322,936.218262,172.210693,0.943029
-74.707031,944.641113,179.901123,0.943773
-74.066162,946.014404,169.647217,0.944526
-74.798584,943.634033,171.569824,0.945270
-69.580078,948.669434,174.316406,0.946081
-64.270020,947.387695,209.655762,0.946826
-67.840576,946.014404,192.535400,0.947581
-64.270020,952.239990,208.465576,0.948325
-59.783936,955.993652,213.226318,0.949069
-65.551758,953.430176,226.135254,0.949813
-69.671631,953.613281,237.854004,0.950566
-66.467285,955.810547,245.910645,0.951311
-71.777344,960.479736,246.643066,0.952054
-75.805664,959.197998,246.002197,0.952798
-76.629639,960.113525,233.917236,0.953551
-79.193115,957.275391,233.551025,0.954295
-72.235107,961.669922,223.754883,0.955039
-63.903809,949.401855,208.099365,0.955783
-61.981201,948.120117,201.049805,0.956536
-57.403564,951.507568,209.472656,0.957124
-59.143066,950.225830,207.092285,0.957953
-53.283691,953.796387,206.909180,0.958698
-46.234131,951.782227,205.444336,0.959454
-55.389404,952.972412,207.550049,0.960199
-49.896240,953.521729,212.768555,0.960943
-56.579590,963.134766,212.310791,0.961687
-54.016113,962.860107,225.585938,0.962441
-56.488037,962.402344,221.832275,0.963185
-60.058594,966.522217,230.529785,0.963929
-63.171387,964.874268,232.086182,0.964673
-59.600830,963.592529,231.628418,0.965427
-60.607910,957.000732,221.740723,0.966171
-62.072754,937.500000,222.839355,0.966914
-55.938721,956.726074,214.782715,0.967658
-54.656982,958.557129,211.761475,0.968418
-53.466797,948.944092,190.155029,0.969162
-47.882080,955.535889,208.099365,0.969906
-44.036865,946.105957,204.254150,0.970650
-44.769287,950.500488,203.063965,0.971403
-43.029785,955.444336,208.282471,0.972147
-40.283203,958.831787,207.092285,0.972891
-41.381836,954.528809,215.515137,0.973635
-49.072266,957.275391,221.832275,0.974389
-54.199219,957.366943,222.564697,0.975134
-49.713135,962.402344,233.001709,0.975877
-56.488037,964.508057,230.987549,0.976621
-57.403564,963.409424,227.783203,0.977375
-59.692383,964.782715,225.128174,0.978126
-55.572510,960.479736,229.980469,0.978914
-59.051514,963.775635,229.980469,0.979681
-55.755615,960.113525,231.445312,0.980457
-47.149658,960.571289,224.578857,0.981202
-42.846680,959.930420,225.402832,0.981946
-43.395996,962.127686,220.825195,0.982793
-38.909912,949.859619,211.578369,0.983552
-46.966553,951.416016,211.669922,0.984344
-49.072266,958.374023,222.106934,0.985101
-55.664062,979.705811,227.142334,0.985903
-48.248291,961.395264,228.790283,0.986685
-52.276611,955.902100,225.860596,0.987432
-57.312012,956.634521,229.431152,0.988176
-54.748535,958.923340,229.705811,0.988920
-56.396484,950.683594,233.642578,0.989665
-46.051025,956.451416,225.677490,0.990409
-51.086426,957.916260,228.607178,0.991153
-52.093506,955.627441,227.142334,0.991908
-45.867920,954.162598,232.543945,0.992653
-55.114746,954.711914,217.529297,0.993397
-54.107666,953.247070,222.198486,0.994141
-52.185059,942.443848,215.423584,0.994885
-44.769287,952.789307,202.789307,0.995642
-46.966553,946.655273,200.134277,0.996388
-24.810791,946.563721,207.366943,0.997132
-46.234131,948.211670,213.500977,0.997877
-56.213379,949.493408,209.838867,0.998630
-56.121826,946.014404,217.529297,0.999375
-57.220459,951.049805,218.078613,1.000119
-53.009033,958.282471,217.437744,1.000862
-59.692383,953.796387,225.402832,1.001615
-59.051514,953.521729,220.825195,1.002359
-58.959961,957.275391,220.825195,1.003103
-59.600830,953.155518,219.451904,1.003846
-57.861328,952.606201,219.360352,1.004599
-52.459717,953.155518,233.001709,1.005344
-60.058594,960.021973,226.501465,1.006087
-64.270020,956.268311,231.445312,1.006831
-61.340332,965.515137,233.276367,1.007584
-59.600830,957.733154,225.128174,1.008329
-62.164307,958.282471,224.121094,1.009073
-63.171387,964.599609,227.508545,1.009817
-59.326172,955.078125,213.043213,1.010579
-64.544678,953.338623,221.557617,1.011324
-61.431885,963.500977,229.248047,1.012067
-60.791016,951.232910,222.290039,1.012655
-65.368652,952.239990,220.550537,1.013409
-65.826416,952.239990,232.269287,1.014153
-63.903809,958.740234,229.797363,1.014897
-64.727783,954.803467,226.684570,1.015640
-61.614990,952.606201,223.388672,1.016393
-59.234619,953.063965,225.769043,1.017137
-57.037354,961.212158,211.212158,1.017881
-66.741943,947.753906,222.015381,1.018656
-59.783936,950.592041,228.240967,1.019409
-56.579590,952.880859,232.452393,1.020153
-59.967041,944.274902,224.853516,1.020897
-59.326172,946.838379,219.177246,1.021641
-60.333252,937.316895,225.494385,1.022396
-49.804688,943.084717,226.501465,1.023140
-51.544189,944.458008,229.980469,1.023884
-56.030273,939.788818,230.804443,1.024628
-52.917480,941.619873,234.649658,1.025379
-57.403564,931.365967,226.135254,1.026123
-48.980713,934.936523,233.184814,1.026866
-51.086426,938.598633,235.931396,1.027610
-51.269531,929.626465,230.255127,1.028363
-56.762695,929.626465,229.980469,1.029107
-51.635742,929.809570,232.635498,1.029851
-54.382324,925.048828,230.163574,1.030680
-51.910400,923.492432,223.480225,1.031436
-51.177979,920.013428,219.726562,1.032180
-50.811768,921.661377,223.022461,1.032924
-58.044434,920.471191,218.994141,1.033667
-57.861328,906.188965,221.923828,1.034426
-55.664062,920.196533,212.219238,1.035170
-56.396484,913.696289,205.352783,1.035914
-59.783936,909.942627,222.839355,1.036658
-53.466797,916.259766,217.163086,1.037411
-50.170898,904.998779,217.803955,1.038155
-55.664062,898.040771,218.627930,1.038898
-62.896729,899.047852,217.803955,1.039642
-55.755615,896.759033,218.902588,1.040403
-61.889648,903.076172,213.958740,1.041147
-57.678223,894.378662,207.641602,1.041891
-53.100586,892.181396,218.994141,1.042634
-60.150146,896.026611,213.043213,1.043387
-57.586670,890.350342,209.197998,1.044131
-61.157227,889.984131,198.120117,1.044874
-64.727783,878.448486,192.077637,1.045618
-92.376709,874.969482,197.387695,1.046371
-67.016602,869.018555,187.316895,1.047114
-78.186035,878.082275,194.091797,1.047858
-79.833984,890.258789,186.401367,1.048602
-86.151123,864.990234,184.753418,1.049355
-85.510254,865.722656,177.886963,1.050099
-88.348389,857.574463,176.513672,1.050842
-86.883545,858.489990,163.696289,1.051586
-89.447021,863.433838,161.041260,1.052362
-96.954346,854.919434,163.055420,1.053114
-93.658447,855.285645,165.527344,1.053903
-94.116211,864.257812,159.027100,1.054655
-92.010498,857.849121,160.217285,1.055420
-99.792480,862.792969,153.442383,1.056165
-90.728760,858.398438,156.829834,1.056913
-96.771240,863.708496,176.879883,1.057708
-91.369629,855.285645,172.027588,1.058493
-84.045410,853.271484,167.083740,1.059368
-75.347900,861.053467,159.393311,1.060441
-77.362061,863.616943,153.808594,1.061237
-73.242188,863.525391,157.653809,1.062000
-76.995850,857.940674,148.681641,1.062768
-74.798584,859.680176,135.223389,1.063528
-81.115723,860.229492,135.406494,1.064326
-77.728271,867.736816,132.293701,1.065090
-75.714111,868.103027,134.857178,1.065859
-62.347412,869.201660,130.645752,1.066629
-57.128906,886.230469,131.927490,1.067386
-45.501709,883.300781,142.913818,1.068140
-46.691895,890.258789,145.660400,1.068885
-43.395996,894.195557,144.744873,1.069629
-30.487061,885.406494,151.794434,1.070373
-30.487061,877.899170,156.555176,1.071117
-26.641846,874.694824,144.195557,1.071860
-34.057617,894.927979,128.265381,1.072604
-27.557373,890.350342,78.002930,1.073210
-28.106689,892.730713,49.255371,1.073956
-45.043945,881.835938,13.824463,1.074699
-29.754639,886.138916,-1.647949,1.075443
-43.945312,915.252686,-61.889648,1.076196
-35.888672,919.372559,-80.657959,1.076940
-50.170898,913.787842,-74.707031,1.077683
-69.030762,904.632568,-35.980225,1.078271
-71.319580,876.800537,-21.697998,1.079024
-68.572998,881.835938,21.240234,1.079760
-31.494141,893.554688,21.972656,1.080495
-16.387939,890.075684,23.254395,1.081228
-15.106201,892.089844,27.282715,1.081997
1.281738,907.470703,29.022217,1.082741
-1.190186,920.654297,17.395020,1.083484
-12.176514,924.957275,32.958984,1.084227
13.275146,954.528809,54.840088,1.084979
19.592285,956.268311,60.241699,1.085723
15.014648,948.852539,64.086914,1.086311
-2.197266,939.147949,78.002930,1.087053
13.458252,930.450439,98.602295,1.087796
6.866455,927.337646,107.757568,1.088540
-20.141602,907.104492,111.694336,1.089282
-23.345947,906.738281,96.679688,1.090026
-19.042969,903.533936,89.355469,1.090769
-60.424805,897.766113,78.643799,1.091513
-63.537598,930.175781,42.846680,1.092256
-30.944824,919.281006,24.078369,1.092999
-100.341797,899.963379,-13.641357,1.093743
-91.003418,898.498535,-32.592773,1.094486
-70.404053,920.837402,-56.121826,1.095291
-96.954346,925.323486,-61.065674,1.096035
-94.665527,934.844971,-70.770264,1.096779
-56.671143,934.020996,-104.370117,1.097523
-74.523926,932.647705,-110.137939,1.098266
-130.462646,907.012939,-119.659424,1.099010
-109.130859,854.003906,-127.624512,1.099764
-145.751953,921.112061,-126.708984,1.100509
-62.347412,871.307373,-122.039795,1.101253
-110.778809,819.854736,-131.561279,1.101996
-156.646729,809.326172,-141.540527,1.102740
-103.820801,829.376221,-142.272949,1.103483
-127.075195,812.530518,-161.224365,1.104310
-155.364990,807.769775,-163.604736,1.105054
-154.907227,814.544678,-164.428711,1.105798
-140.991211,814.910889,-151.062012,1.106542
-216.430664,718.688965,-153.167725,1.107285
-264.312744,873.321533,-126.983643,1.108028
-133.666992,917.724609,-113.525391,1.108772
-289.489746,849.243164,-92.742920,1.109516
-305.236816,796.691895,-89.904785,1.110260
-128.997803,791.931152,-81.390381,1.111003
-193.450928,796.142578,-76.538086,1.111747
-173.217773,796.691895,-74.798584,1.112490
-242.431641,832.122803,-101.348877,1.113234
-193.542480,830.017090,-125.976562,1.113977
-216.888428,826.080322,-160.308838,1.114721
-239.776611,780.578613,-185.852051,1.115465
-146.301270,768.218994,-173.217773,1.116209
-169.647217,762.908936,-160.949707,1.116952
-166.992188,771.697998,-169.189453,1.117707
-309.722900,778.656006,-184.936523,1.118451
-252.960205,778.839111,-222.473145,1.119194
-291.595459,806.762695,-243.621826,1.119937
-330.230713,809.600830,-310.729980,1.120687
-281.524658,820.404053,-343.780518,1.121431
-352.386475,829.376221,-399.810791,1.122175
-420.227051,853.729248,-469.848633,1.122918
-369.598389,853.729248,-493.927002,1.123662
-446.594238,852.081299,-558.288574,1.124413
-487.701416,852.447510,-608.184814,1.125168
-436.706543,855.926514,-608.642578,1.125919
-466.827393,858.947754,-630.615234,1.126733
-536.132812,848.785400,-646.453857,1.127480
-497.589111,831.665039,-605.255127,1.128224
-941.894531,270.355225,680.145264,1.129016
-2012.603760,470.214844,698.364258,1.129776
-344.146729,969.635010,-197.937012,1.130528
-257.537842,1028.411865,-367.858887,1.131292
-635.375977,913.787842,-166.076660,1.132042
1554.107666,855.102539,356.323242,1.132787
2999.908447,1120.697021,218.719482,1.133532
-419.311523,994.537354,-127.075195,1.134276
-1332.733154,971.740723,101.623535,1.135019
-317.138672,1030.883789,181.640625,1.135810
268.981934,1240.173340,47.882080,1.136596
-546.936035,1175.628662,25.085449,1.137414
-737.731934,1158.691406,8.605957,1.138158
-409.881592,1141.754150,160.675049,1.138920
144.561768,1103.851318,232.727051,1.139662
-237.579346,969.360352,202.423096,1.140405
-720.336914,931.823730,148.864746,1.141147
-95.672607,962.677002,-29.754639,1.141904
-33.782959,964.691162,-212.310791,1.142647
-457.672119,886.322021,-276.489258,1.143388
-522.674561,893.829346,-443.756104,1.143975
-66.833496,879.089355,-497.863770,1.144727
-24.627686,837.615967,-636.016846,1.145469
-402.282715,805.480957,-690.856934,1.146210
-399.993896,754.486084,-763.458252,1.146952
-383.148193,781.494141,-842.468262,1.147703
-459.960938,843.841553,-858.306885,1.148446
-493.469238,899.230957,-844.116211,1.149188
-99.792480,917.724609,-920.104980,1.149930
575.408936,930.175781,108.306885,1.150682
-126.342773,710.723877,435.058594,1.151424
-911.773682,808.044434,234.558105,1.152166
-271.911621,957.733154,-215.789795,1.152908
324.462891,912.506104,-374.908447,1.153651
-556.182861,937.225342,-612.487793,1.154393
-633.911133,977.966309,-925.048828,1.155135
-538.970947,1079.956055,-1010.925293,1.155877
654.876709,2999.908447,2999.908447,1.156619
2999.908447,2999.908447,2999.908447,1.157361
2999.908447,2999.908447,2999.908447,1.158104
2999.908447,2999.908447,1617.095947,1.158845
1947.875977,1788.024902,-125.244141,1.159598
-182.922363,147.949219,-1950.805664,1.160341
-2101.226807,5.767822,-2011.871338,1.161083
-1113.555908,-334.167480,-1895.141602,1.161825
-672.363281,-173.217773,-1963.897705,1.162577
-1208.496094,40.832520,-1942.382812,1.163361
-1527.191162,379.211426,-1827.575684,1.164104
-1572.235107,548.034668,20.233154,1.164847
135.772705,2070.831299,2061.767578,1.165590
1134.429932,2468.719482,2417.175293,1.166332
1755.157471,2332.946777,1863.464355,1.167075
1153.381348,1870.330811,933.471680,1.167817
30.029297,1348.022461,-561.035156,1.168560
-1746.185303,490.631104,-837.158203,1.169302
-2234.069824,114.074707,-927.520752,1.170044
-3000.000000,81.207275,-1025.390625,1.170786
-3000.000000,457.672119,-928.253174,1.171529
-2525.299072,826.263428,-21.881104,1.172271
-99.426270,1400.207520,440.185547,1.173013
814.910889,982.818604,85.327148,1.173842
652.679443,727.935791,-544.738770,1.174585
247.833252,622.009277,-958.282471,1.175327
801.727295,420.043945,-955.718994,1.176069
2849.029541,710.449219,-1381.256104,1.176811
902.069092,682.159424,-1087.463379,1.177555
828.369141,838.897705,-458.221436,1.178297
279.510498,953.704834,-199.951172,1.179039
-832.580566,831.939697,-711.914062,1.179780
-1758.636475,1011.749268,-683.441162,1.180520
-503.265381,1136.260986,20.507812,1.181263
1785.369873,980.987549,391.296387,1.182005
-198.028564,406.036377,-1013.580322,1.182747
-668.701172,364.288330,-1030.334473,1.183489
295.898438,678.771973,-655.242920,1.184232
175.415039,1616.638184,1401.489258,1.184974
521.667480,2108.276367,2205.505371,1.185716
1029.327393,2159.637451,1091.857910,1.186463
1395.538330,1914.276123,-559.112549,1.187206
-50.628662,1018.890381,-1027.313232,1.187948
-2074.859619,845.214844,-777.740479,1.188690
-1990.722656,802.642822,-109.863281,1.189437
859.680176,958.007812,-141.998291,1.190186
820.037842,869.110107,-786.437988,1.190928
-294.250488,804.840088,-568.908691,1.191670
475.799561,1277.893066,145.843506,1.192412
191.802979,1338.500977,109.130859,1.193164
-1244.110107,1100.372314,-136.047363,1.193906
-1399.658203,1184.417725,531.188965,1.194648
1529.022217,1549.255371,754.211426,1.195391
1290.252686,1102.294922,-205.810547,1.196142
941.528320,954.254150,-408.782959,1.196885
420.684814,960.113525,-55.023193,1.197628
61.431885,1027.404785,-10.528564,1.198392
-710.998535,1100.097656,-43.579102,1.199165
-716.766357,1178.741455,210.571289,1.199937
-695.800781,1200.897217,389.099121,1.200686
-345.886230,1242.736816,395.874023,1.201428
-119.476318,1181.121826,158.843994,1.202189
83.221436,1170.501709,48.522949,1.202933
100.982666,1193.023682,-75.439453,1.203735
17.303467,1202.178955,-19.958496,1.204501
6.317139,1218.017578,102.355957,1.205251
-75.805664,1257.934570,71.868896,1.206025
-91.186523,1252.807617,-65.002441,1.206773
-147.949219,1292.541504,-80.383301,1.207516
-86.242676,1381.072998,87.158203,1.208259
-74.523926,1381.439209,127.716064,1.209002
-118.652344,1327.148438,39.642334,1.209744
-71.685791,1157.226562,-269.256592,1.210487
218.627930,1055.877686,-437.347412,1.211230
81.939697,897.491455,-465.637207,1.211979
25.909424,915.069580,-252.136230,1.212943
-605.621338,924.224854,-109.405518,1.213708
-896.575928,1073.455811,75.347900,1.214451
-451.812744,1132.049561,67.108154,1.215193
560.028076,917.358398,-600.677490,1.215935
789.459229,771.057129,-923.583984,1.216686
1369.903564,786.804199,-762.542725,1.217428
1358.917236,822.235107,-501.068115,1.218171
462.158203,913.604736,-273.193359,1.218913
-52.185059,1043.975830,-109.039307,1.219665
-325.469971,1008.453369,-174.316406,1.220407
-462.799072,915.618896,-315.032959,1.221149
-322.723389,793.670654,-461.334229,1.221891
-356.872559,764.099121,-443.023682,1.222643
-262.756348,825.256348,-401.275635,1.223385
-213.043213,861.602783,-423.522949,1.224127
28.564453,950.500488,-465.637207,1.224869
131.561279,939.605713,-342.498779,1.225620
173.034668,948.577881,-263.854980,1.226363
65.917969,822.418213,-149.688721,1.227104
-24.169922,949.127197,-218.444824,1.227846
-154.449463,922.943115,-373.809814,1.228598
-254.882812,986.389160,-678.680420,1.229340
-279.327393,984.924316,-666.229248,1.230082
-379.852295,1074.188232,-416.656494,1.230824
-404.846191,1090.667725,-329.223633,1.231575
-144.470215,1205.017090,-193.267822,1.232317
-49.255371,1206.481934,-257.537842,1.233059
-75.897217,1152.374268,-318.603516,1.233801
-205.535889,1126.373291,-360.809326,1.234544
-235.015869,1150.726318,-296.539307,1.235286
-335.174561,1152.923584,-208.648682,1.236028
-392.028809,1152.282715,-199.310303,1.236770
-1105.041504,945.739746,-10.070801,1.237550
912.322998,2048.583984,-179.168701,1.238293
1501.373291,1501.739502,-801.086426,1.239035
802.185059,695.068359,-741.394043,1.239777
679.779053,907.012939,-189.971924,1.240519
250.762939,1067.596436,-49.530029,1.241262
-207.092285,1280.822754,43.670654,1.242004
-314.208984,1288.238525,-196.014404,1.242746
-354.675293,1193.115234,-273.284912,1.243488
-139.526367,1156.402588,-332.061768,1.244313
-93.475342,1170.501709,-221.191406,1.245055
22.155762,1219.940186,-167.999268,1.245798
9.338379,1243.011475,-148.773193,1.246549
-21.240234,1242.736816,-169.372559,1.247292
-59.143066,1231.933594,-214.050293,1.248034
-28.656006,1234.039307,-245.361328,1.248776
-6.774902,1247.222900,-258.270264,1.249519
-28.472900,1239.532471,-293.426514,1.250261
-93.658447,1230.194092,-303.039551,1.251003
-96.496582,1230.926514,-249.023438,1.251745
-79.467773,1231.018066,-196.746826,1.252488
-35.980225,1219.116211,-201.049805,1.253230
-1.922607,1205.657959,-269.439697,1.253972
-2.288818,1172.424316,-310.821533,1.254714
-2.014160,1162.078857,-348.632812,1.255456
-46.325684,1164.642334,-354.949951,1.256198
-102.905273,1175.079346,-366.119385,1.256940
-104.553223,1151.458740,-393.493652,1.257682
-65.368652,1143.402100,-411.254883,1.258434
-42.480469,1134.246826,-448.699951,1.259176
-14.556885,1126.281738,-475.158691,1.259919
-22.430420,1099.456787,-553.344727,1.260661
-31.860352,1066.772461,-589.508057,1.261403
-58.319092,1079.589844,-593.627930,1.262145
-68.664551,1059.082031,-616.607666,1.262888
-50.262451,1060.913086,-622.558594,1.263630
-26.367188,1038.208008,-639.495850,1.264371
-21.057129,1029.968262,-640.777588,1.265124
-36.163330,1005.798340,-636.199951,1.265866
-64.270020,994.995117,-632.537842,1.266609
-52.551270,1000.946045,-636.108398,1.267351
-59.783936,1010.284424,-624.755859,1.268132
-48.614502,1023.010254,-616.516113,1.268882
-13.824463,1032.531738,-621.459961,1.269660
-27.740479,1033.172607,-620.269775,1.270413
-41.931152,1036.376953,-611.938477,1.271156
-44.403076,1053.314209,-602.691650,1.271899
-34.698486,1081.329346,-577.697754,1.272640
-14.373779,1091.217041,-529.541016,1.273468
-47.241211,1114.929199,-503.265381,1.274237
-51.910400,1127.929688,-480.834961,1.274986
-64.727783,1130.218506,-532.196045,1.275763
-108.398438,1121.704102,-537.872314,1.276529
-96.679688,1134.704590,-526.336670,1.277273
-82.122803,1133.697510,-524.230957,1.278016
-63.262939,1151.458740,-498.504639,1.278750
-94.024658,1160.797119,-454.376221,1.279492
-124.969482,1155.120850,-454.925537,1.280234
-115.447998,1155.853271,-468.750000,1.280976
-137.969971,1166.473389,-468.475342,1.281720
-115.722656,1141.113281,-469.757080,1.282464
-88.439941,1123.077393,-460.235596,1.283207
-105.285645,1098.083496,-440.277100,1.283949
-119.842529,974.945068,-398.162842,1.284691
28.289795,958.007812,-407.043457,1.285432
-66.558838,999.572754,-654.144287,1.286172
-183.746338,1115.295410,-703.674316,1.286912
-444.122314,1094.329834,-778.747559,1.287671
-492.004395,1086.822510,-551.513672,1.288428
-345.336914,1147.705078,-519.836426,1.289277
288.391113,1141.204834,-455.108643,1.290382
88.806152,1102.111816,-519.653320,1.291193
-155.090332,1091.308594,-588.500977,1.291945
-265.319824,1074.737549,-605.163574,1.292771
-266.052246,1118.316650,-483.581543,1.293523
-110.046387,1167.022705,-416.656494,1.294273
74.066162,1219.024658,-346.710205,1.295007
63.262939,1209.320068,-398.071289,1.295742
-19.683838,1145.416260,-414.001465,1.296476
-108.123779,1143.035889,-481.933594,1.297231
-163.604736,1129.302979,-459.320068,1.297975
-138.610840,1158.325195,-418.670654,1.298719
-129.821777,1171.234131,-421.234131,1.299463
-56.396484,1189.086914,-428.924561,1.300214
-87.615967,1162.445068,-451.538086,1.300958
-92.193604,1137.176514,-452.911377,1.301702
-91.278076,1144.500732,-479.553223,1.302445
-82.855225,1151.824951,-455.474854,1.303198
-115.631104,1160.247803,-419.036865,1.303942
-116.912842,1167.205811,-405.029297,1.304685
-117.004395,1171.966553,-437.347412,1.305429
-144.287109,1153.015137,-418.762207,1.306181
-138.061523,1138.092041,-432.403564,1.306925
-128.997803,1138.366699,-410.156250,1.307697
-134.857178,1139.923096,-433.868408,1.308441
-143.463135,1153.839111,-372.344971,1.309196
-104.278564,1152.282715,-373.443604,1.309940
-139.709473,1144.226074,-413.085938,1.310683
-129.364014,1125.274658,-439.453125,1.311427
-101.074219,1120.147705,-434.783936,1.312180
-99.975586,1124.633789,-418.121338,1.312924
-75.439453,1096.343994,-445.312500,1.313668
-48.797607,1090.759277,-427.734375,1.314498
-55.572510,1108.428955,-397.430420,1.315253
-66.833496,1119.049072,-374.633789,1.315997
-48.797607,1098.541260,-424.530029,1.316740
-19.866943,1084.991455,-474.151611,1.317483
1.831055,1054.046631,-476.165771,1.318237
10.070801,1062.652588,-455.657959,1.318980
36.346436,1072.906494,-436.889648,1.319723
42.297363,1059.631348,-452.728271,1.320467
47.149658,1049.835205,-451.446533,1.321220
65.826416,1048.370361,-456.390381,1.321964
72.967529,1054.229736,-442.016602,1.322708
56.945801,1049.011230,-429.382324,1.323451
53.192139,1054.962158,-413.177490,1.324196
50.537109,1062.561035,-406.677246,1.324939
56.396484,1043.884277,-413.818359,1.325683
64.544678,1037.017822,-415.557861,1.326426
65.643311,1034.637451,-409.240723,1.327179
65.277100,1038.116455,-406.951904,1.327923
61.981201,1023.742676,-412.170410,1.328667
71.777344,1024.841309,-417.938232,1.329410
90.728760,1021.728516,-406.951904,1.330155
71.685791,1012.664795,-404.022217,1.330899
72.875977,1015.777588,-404.388428,1.331642
79.833984,1015.045166,-410.247803,1.332385
80.932617,1010.101318,-402.282715,1.333129
80.841064,1008.819580,-407.135010,1.333872
67.565918,1009.277344,-409.698486,1.334616
77.087402,1013.763428,-409.790039,1.335359
85.418701,1014.862061,-403.381348,1.336103
82.305908,1013.214111,-405.578613,1.336846
87.341309,1014.770508,-416.839600,1.337590
112.426758,1001.953125,-418.395996,1.338350
113.433838,1001.220703,-410.705566,1.339101
110.595703,1014.770508,-411.621094,1.339892
106.018066,1017.608643,-404.296875,1.340640
73.791504,1020.172119,-389.923096,1.341384
81.481934,1021.728516,-393.310547,1.342039
77.636719,1010.467529,-396.423340,1.342805
75.897217,1003.143311,-407.775879,1.343556
78.643799,1010.192871,-400.268555,1.344331
72.875977,1008.636475,-392.852783,1.345082
78.002930,1007.354736,-383.697510,1.345827
70.861816,1015.686035,-377.838135,1.346570
61.889648,1005.249023,-392.669678,1.347313
58.227539,1004.150391,-396.423340,1.348057
59.692383,995.635986,-395.324707,1.348801
62.347412,997.650146,-400.268555,1.349545
57.220459,992.248535,-393.035889,1.350288
63.812256,991.607666,-399.353027,1.351052
68.115234,995.086670,-396.240234,1.351797
62.347412,995.086670,-398.254395,1.352544
63.629150,1000.671387,-400.543213,1.353288
58.319092,993.804932,-392.669678,1.354032
53.741455,997.558594,-394.409180,1.354776
56.762695,1003.509521,-390.289307,1.355519
48.248291,987.121582,-398.712158,1.356263
46.691895,992.248535,-400.634766,1.357007
40.649414,991.699219,-394.134521,1.357752
43.670654,994.445801,-381.317139,1.358495
43.487549,1005.340576,-382.781982,1.359238
27.282715,981.445312,-389.465332,1.359988
30.853271,994.537354,-384.521484,1.360732
25.451660,993.255615,-381.591797,1.361476
26.733398,995.727539,-388.458252,1.362220
28.015137,998.565674,-388.092041,1.362963
28.839111,997.924805,-386.627197,1.363737
29.296875,988.311768,-391.571045,1.364480
25.634766,993.164062,-387.908936,1.365243
8.697510,1000.488281,-378.204346,1.366290
6.042480,989.593506,-385.162354,1.367038
5.767822,1000.488281,-386.260986,1.367782
1.739502,1001.678467,-368.865967,1.368545
1.556396,1005.340576,-375.549316,1.369301
10.986328,1001.495361,-380.218506,1.370045
8.789062,998.291016,-382.598877,1.370788
8.514404,1000.030518,-385.253906,1.371532
13.824463,992.797852,-392.761230,1.372284
14.465332,991.058350,-390.747070,1.373028
21.423340,991.790771,-381.958008,1.373771
15.655518,987.121582,-372.528076,1.374515
9.613037,984.649658,-396.972656,1.375267
5.126953,991.516113,-378.479004,1.376010
-0.732422,993.988037,-378.845215,1.376753
-10.070801,995.910645,-367.950439,1.377549
0.457764,990.234375,-375.183105,1.378302
0.549316,981.353760,-387.176514,1.379045
10.162354,985.107422,-370.880127,1.379789
4.760742,983.001709,-356.597900,1.380532
-7.965088,988.952637,-364.837646,1.381286
1.464844,971.740723,-371.337891,1.382029
0.366211,960.479736,-375.915527,1.382772
-0.823975,969.268799,-365.570068,1.383516
-9.887695,967.254639,-362.365723,1.384269
-5.035400,966.247559,-332.061768,1.385012
-14.282227,959.289551,-355.316162,1.385755
-10.894775,942.993164,-363.647461,1.386578
-6.225586,939.239502,-365.936279,1.387333
-9.613037,936.035156,-362.365723,1.388076
-10.711670,940.521240,-349.914551,1.388819
-8.697510,934.295654,-358.886719,1.389563
-6.317139,934.936523,-360.443115,1.390315
-9.063721,934.295654,-356.781006,1.391059
-3.112793,920.928955,-356.140137,1.391801
-3.753662,925.140381,-363.189697,1.392544
-9.063721,924.041748,-358.154297,1.393297
-18.402100,911.499023,-351.837158,1.394040
-18.493652,914.611816,-356.048584,1.394784
-7.049561,923.217773,-351.104736,1.395528
-11.718750,921.478271,-353.576660,1.396280
-10.528564,907.928467,-355.865479,1.397024
-16.845703,917.907715,-343.414307,1.397768
-11.444092,907.470703,-372.436523,1.398512
-10.986328,904.815674,-349.822998,1.399273
-15.014648,916.717529,-337.371826,1.400016
-13.824463,915.344238,-343.872070,1.400760
-9.338379,911.590576,-330.230713,1.401503
-4.943848,911.499023,-321.990967,1.402256
-14.923096,914.337158,-325.195312,1.402999
0.366211,909.576416,-327.117920,1.403742
6.225586,905.822754,-330.047607,1.404486
1.281738,907.012939,-331.970215,1.405238
5.859375,908.660889,-316.589355,1.405982
-11.535645,899.322510,-312.561035,1.406725
-11.901855,900.878906,-305.236816,1.407472
-2.838135,899.322510,-308.441162,1.408260
-12.817383,900.238037,-313.201904,1.409050
-8.972168,875.427246,-314.392090,1.409795
-13.366699,877.716064,-320.526123,1.410383
-5.035400,883.941650,-312.469482,1.411148
0.549316,881.927490,-304.229736,1.411891
0.274658,886.505127,-318.969727,1.412705
6.408691,877.258301,-312.561035,1.413470
0.823975,877.624512,-307.983398,1.414270
-2.380371,881.195068,-305.694580,1.415017
-2.197266,854.827881,-320.159912,1.415760
6.683350,863.433838,-319.335938,1.416503
14.007568,860.687256,-302.947998,1.417256
1.647949,863.159180,-301.391602,1.417999
16.296387,856.658936,-307.434082,1.418742
18.218994,857.849121,-304.504395,1.419486
18.402100,859.039307,-302.764893,1.420238
17.028809,856.109619,-286.651611,1.420982
10.437012,850.158691,-290.863037,1.421725
10.894775,854.095459,-294.708252,1.422468
5.310059,849.517822,-296.356201,1.423221
4.211426,855.468750,-300.659180,1.423966
10.437012,849.060059,-294.708252,1.424710
14.923096,844.390869,-290.954590,1.425458
10.986328,846.038818,-283.172607,1.426213
3.753662,823.699951,-281.066895,1.426958
5.126953,837.890625,-281.250000,1.427702
12.268066,836.151123,-276.214600,1.428445
4.577637,834.777832,-284.179688,1.429198
21.240234,837.249756,-282.897949,1.429942
12.908936,836.791992,-283.172607,1.430685
5.493164,835.601807,-287.933350,1.431428
-3.845215,829.559326,-277.038574,1.432181
-7.781982,825.622559,-259.460449,1.432924
13.183594,832.855225,-289.489746,1.433667
8.514404,817.749023,-293.975830,1.434411
12.359619,818.389893,-292.877197,1.435173
15.747070,823.699951,-279.693604,1.435917
17.303467,826.629639,-274.841309,1.436660
15.197754,827.362061,-280.151367,1.437403
13.458252,818.572998,-279.968262,1.438156
8.422852,817.932129,-275.024414,1.438900
5.126953,824.340820,-275.939941,1.439644
5.767822,819.580078,-274.566650,1.440234
15.197754,808.685303,-277.770996,1.440987
11.627197,812.164307,-264.221191,1.441735
10.437012,839.721680,-263.488770,1.442647
7.781982,828.186035,-259.918213,1.443413
6.317139,831.298828,-264.221191,1.444204
4.669189,828.918457,-268.249512,1.444968
4.577637,819.854736,-267.150879,1.445730
10.711670,814.361572,-274.475098,1.446558
13.641357,815.643311,-273.651123,1.447348
9.521484,819.946289,-272.460938,1.448112
4.943848,817.016602,-250.213623,1.448872
9.521484,811.157227,-262.481689,1.449634
6.042480,810.516357,-267.333984,1.450420
0.823975,805.206299,-269.348145,1.451166
0.823975,812.988281,-257.904053,1.451910
-4.211426,815.551758,-262.115479,1.452653
-18.676758,813.171387,-252.044678,1.453407
0.823975,807.769775,-261.657715,1.454151
-3.204346,811.340332,-264.953613,1.454894
-2.929688,813.262939,-259.368896,1.455637
-3.112793,817.199707,-253.234863,1.456390
-1.190186,818.939209,-251.678467,1.457133
-8.148193,821.868896,-245.269775,1.457876
-11.810303,814.910889,-238.586426,1.458619
-8.697510,813.720703,-260.009766,1.459372
-9.979248,805.206299,-260.009766,1.460215
-15.197754,808.593750,-246.917725,1.460959
-10.711670,799.621582,-247.924805,1.461702
-11.718750,810.607910,-248.565674,1.462457
-14.923096,807.403564,-254.241943,1.463196
-13.092041,806.213379,-256.256104,1.463930
-25.817871,806.030273,-236.114502,1.464664
-25.909424,811.065674,-242.614746,1.465324
-20.690918,804.199219,-249.023438,1.466074
-14.648438,811.889648,-252.593994,1.466829
-20.324707,804.199219,-256.622314,1.467580
-37.261963,798.980713,-249.389648,1.468360
-37.353516,806.121826,-243.896484,1.469109
-25.634766,809.875488,-246.643066,1.469865
-43.579102,808.135986,-251.403809,1.470620
-23.895264,804.290771,-248.291016,1.471373
-24.078369,803.924561,-252.136230,1.472117
-20.690918,812.164307,-237.213135,1.472872
-26.458740,808.502197,-235.473633,1.473615
-31.585693,808.868408,-248.382568,1.474368
-24.536133,816.650391,-254.516602,1.475112
-25.726318,823.059082,-249.023438,1.475856
-35.522461,808.135986,-236.663818,1.476616
-60.516357,806.121826,-227.874756,1.477370
-40.557861,788.818359,-236.480713,1.478114
-32.318115,782.318115,-222.290039,1.478857
-14.007568,795.776367,-224.853516,1.479600
-0.549316,802.459717,-233.551025,1.480356
-21.606445,806.121826,-234.924316,1.481118
-46.142578,805.480957,-233.367920,1.481867
-58.319092,814.270020,-230.163574,1.482658
-68.115234,811.157227,-231.994629,1.483431
-27.191162,808.502197,-239.959717,1.484175
-16.571045,798.431396,-215.240479,1.484918
-11.444092,807.037354,-218.444824,1.485694
-20.416260,814.636230,-216.522217,1.486470
-32.318115,806.121826,-243.347168,1.487224
-50.079346,784.149170,-253.417969,1.487996
-35.705566,775.268555,-239.318848,1.488746
-26.275635,787.078857,-229.614258,1.489388
-0.457764,800.354004,-223.571777,1.490132
-9.613037,801.727295,-197.021484,1.490876
-14.556885,807.861328,-209.381104,1.491619
-18.768311,807.037354,-230.804443,1.492373
-23.162842,787.902832,-231.719971,1.493116
-25.817871,786.529541,-237.762451,1.493860
-20.233154,795.959473,-211.853027,1.494604
-11.077881,796.875000,-233.642578,1.495357
-11.993408,802.459717,-225.585938,1.496101
-8.056641,794.952393,-228.057861,1.496844
-6.866455,792.205811,-232.086182,1.497589
-6.866455,786.437988,-250.579834,1.498345
0.549316,792.297363,-228.698730,1.499089
-2.197266,795.227051,-226.684570,1.499832
-2.197266,794.494629,-233.001709,1.500575
2.380371,793.670654,-230.255127,1.501328
2.471924,797.698975,-226.684570,1.502071
0.000000,797.882080,-221.374512,1.502814
-2.746582,801.544189,-227.508545,1.503557
10.070801,803.466797,-230.163574,1.504310
9.521484,798.614502,-230.346680,1.505054
6.500244,802.001953,-229.888916,1.505801
12.268066,810.150146,-219.451904,1.506548
12.908936,811.523438,-223.663330,1.507302
23.712158,809.967041,-222.930908,1.508046
17.761230,820.220947,-226.135254,1.508790
22.338867,817.291260,-232.086182,1.509534
33.325195,824.981689,-223.297119,1.510298
36.529541,825.622559,-221.832275,1.511042
32.318115,832.580566,-211.669922,1.511785
32.867432,819.854736,-222.656250,1.512528
42.480469,824.890137,-223.388672,1.513282
47.149658,834.777832,-222.747803,1.514025
69.946289,841.552734,-215.423584,1.514769
49.163818,841.003418,-214.050293,1.515512
49.896240,841.094971,-227.233887,1.516265
60.333252,850.158691,-227.142334,1.517008
59.875488,843.658447,-214.141846,1.517751
58.502197,855.102539,-208.557129,1.518495
68.298340,852.539062,-215.698242,1.519444
62.347412,853.637695,-211.578369,1.520292
60.974121,853.363037,-217.987061,1.521038
62.713623,860.778809,-233.001709,1.521785
71.044922,854.827881,-212.768555,1.522529
66.650391,856.201172,-220.001221,1.523324
70.037842,853.912354,-219.818115,1.524068
72.418213,850.524902,-211.212158,1.524812
70.861816,850.524902,-207.000732,1.525556
83.038330,855.102539,-214.233398,1.526299
75.256348,855.926514,-213.592529,1.527043
73.425293,858.489990,-188.507080,1.527787
70.037842,863.616943,-212.402344,1.528530
73.059082,865.631104,-214.050293,1.529273
79.376221,853.729248,-218.170166,1.530017
77.270508,856.018066,-213.592529,1.530761
76.629639,858.215332,-212.860107,1.531505
77.178955,854.095459,-216.156006,1.532249
79.193115,852.447510,-215.606689,1.533080
75.073242,853.820801,-211.212158,1.533824
77.087402,854.187012,-221.374512,1.534569
82.214355,863.159180,-216.339111,1.535312
72.875977,861.694336,-215.881348,1.536056
77.636719,853.729248,-223.937988,1.536815
75.714111,857.666016,-212.127686,1.537559
70.404053,850.250244,-218.811035,1.538303
72.784424,845.947266,-231.536865,1.539046
75.805664,854.919434,-223.205566,1.539799
77.453613,848.785400,-211.944580,1.540543
72.235107,849.700928,-214.782715,1.541286
70.037842,856.475830,-220.275879,1.542030
68.023682,846.130371,-221.923828,1.542774
67.291260,855.468750,-221.740723,1.543517
61.340332,857.025146,-222.473145,1.544261
53.741455,847.137451,-217.071533,1.545004
59.051514,852.264404,-212.310791,1.545758
58.959961,847.137451,-216.796875,1.546501
52.825928,844.848633,-219.177246,1.547245
55.389404,851.989746,-222.564697,1.547988
48.339844,859.771729,-215.332031,1.548744
48.522949,864.898682,-218.902588,1.549488
41.564941,853.729248,-226.593018,1.550232
38.543701,854.736328,-213.867188,1.550976
35.430908,858.489990,-216.979980,1.551719
34.057617,859.130859,-217.620850,1.552463
31.494141,864.440918,-221.832275,1.553207
37.445068,863.159180,-225.494385,1.553953
32.958984,860.137939,-228.515625,1.554709
30.761719,859.680176,-229.248047,1.555483
31.677246,858.764648,-226.043701,1.556269
27.740479,864.440918,-223.571777,1.557015
7.324219,862.792969,-227.783203,1.557759
23.529053,857.757568,-223.663330,1.558503
21.514893,864.166260,-226.959229,1.559239
20.690918,863.525391,-224.853516,1.560020
15.289307,858.032227,-231.079102,1.560780
11.077881,864.257812,-231.811523,1.561533
12.634277,874.053955,-234.466553,1.562295
10.620117,872.497559,-233.367920,1.563044
7.781982,872.131348,-236.206055,1.563790
5.310059,873.138428,-213.592529,1.564534
-1.281738,871.307373,-228.973389,1.565281
-4.119873,874.694824,-228.881836,1.566024
-8.331299,879.821777,-231.628418,1.566777
-3.936768,877.624512,-239.410400,1.567520
-1.464844,881.103516,-234.466553,1.568263
-2.655029,874.603271,-236.846924,1.569006
-4.760742,877.716064,-239.593506,1.569749
-10.253906,880.462646,-236.114502,1.570494
-5.035400,881.927490,-235.107422,1.571238
-5.767822,874.877930,-239.227295,1.571981
-6.683350,881.195068,-239.318848,1.572725
-10.070801,881.103516,-230.255127,1.573468
-14.282227,883.209229,-235.748291,1.574211
-11.077881,879.730225,-238.494873,1.574982
-9.246826,885.223389,-238.494873,1.575735
-16.662598,887.145996,-238.128662,1.576478
-15.563965,889.892578,-236.297607,1.577222
-17.669678,889.434814,-246.276855,1.577965
-17.852783,888.519287,-241.241455,1.578709
-10.528564,883.392334,-234.375000,1.579453
-12.359619,890.625000,-243.804932,1.580197
-14.465332,883.758545,-240.509033,1.580941
-10.620117,884.399414,-242.980957,1.581701
-12.542725,884.216309,-242.706299,1.582445
-8.239746,892.547607,-243.713379,1.583188
-7.141113,889.434814,-245.269775,1.583931
1.464844,888.702393,-247.283936,1.584674
0.732422,885.955811,-245.635986,1.585419
-5.950928,894.195557,-248.291016,1.586164
-2.929688,892.272949,-233.184814,1.586906
-2.380371,893.829346,-241.149902,1.587650
-3.021240,891.082764,-240.509033,1.588404
-7.232666,894.378662,-235.198975,1.589147
1.556396,900.878906,-234.924316,1.589890
-21.057129,900.604248,-237.945557,1.590633
2.929688,902.435303,-239.776611,1.591388
6.683350,903.900146,-246.551514,1.592130
12.725830,913.421631,-237.670898,1.592874
3.845215,911.041260,-233.917236,1.593682
7.873535,905.364990,-243.164062,1.594425
6.866455,914.245605,-248.291016,1.595169
11.444092,914.154053,-249.664307,1.596179
10.345459,912.139893,-241.149902,1.596951
10.986328,936.767578,-249.023438,1.597696
10.528564,918.090820,-245.819092,1.598440
6.134033,919.097900,-237.030029,1.599184
5.584717,922.210693,-244.079590,1.599939
9.979248,926.971436,-247.192383,1.600683
9.796143,923.767090,-244.903564,1.601426
7.049561,927.886963,-234.649658,1.602170
10.894775,926.330566,-246.551514,1.602922
7.415771,923.034668,-247.467041,1.603666
11.260986,924.133301,-245.269775,1.604409
3.753662,923.126221,-239.593506,1.605152
14.007568,930.908203,-235.382080,1.606001
17.852783,923.583984,-243.896484,1.606746
12.176514,921.386719,-245.819092,1.607489
15.472412,921.203613,-236.297607,1.608233
11.901855,925.598145,-248.840332,1.608987
14.190674,935.852051,-238.037109,1.609731
17.120361,936.584473,-240.325928,1.610474
15.838623,931.365967,-246.002197,1.611217
17.669678,930.633545,-237.854004,1.611971
19.500732,923.126221,-244.354248,1.612715
17.303467,926.879883,-252.593994,1.613458
22.796631,935.485840,-243.072510,1.614201
12.451172,933.380127,-243.072510,1.614955
10.986328,930.175781,-238.128662,1.615698
22.888184,927.703857,-237.945557,1.616442
17.761230,928.344727,-238.128662,1.617185
3.479004,926.055908,-247.375488,1.617949
12.817383,933.380127,-235.931396,1.618692
14.099121,934.753418,-235.382080,1.619435
17.852783,924.957275,-238.861084,1.620179
18.035889,922.943115,-243.988037,1.620932
17.578125,920.928955,-243.896484,1.621675
9.429932,924.224854,-247.283936,1.622419
22.521973,928.161621,-240.325928,1.623163
19.683838,918.090820,-247.283936,1.623915
20.965576,923.034668,-237.579346,1.624659
18.951416,925.415039,-238.769531,1.625402
21.423340,916.534424,-246.185303,1.626146
17.486572,916.809082,-252.593994,1.626906
11.535645,917.541504,-249.847412,1.627663
-0.732422,913.330078,-236.206055,1.628413
18.676758,925.598145,-243.438721,1.629203
24.444580,921.386719,-256.164551,1.629973
22.796631,909.667969,-253.784180,1.630717
16.754150,918.090820,-248.657227,1.631461
10.620117,913.604736,-252.777100,1.632208
20.324707,918.548584,-246.368408,1.633016
18.951416,921.569824,-240.875244,1.633794
19.134521,929.534912,-254.241943,1.634548
16.021729,929.809570,-246.734619,1.635292
14.007568,933.654785,-242.889404,1.636060
13.092041,932.006836,-249.298096,1.636804
7.049561,939.056396,-248.291016,1.637548
10.437012,929.443359,-258.544922,1.638291
22.064209,940.979004,-257.446289,1.639044
22.064209,937.225342,-247.283936,1.639787
17.486572,955.444336,-240.142822,1.640531
1.831055,940.155029,-239.501953,1.641275
9.338379,942.810059,-253.417969,1.642027
13.275146,941.436768,-254.699707,1.642770
3.662109,941.436768,-243.804932,1.643515
15.563965,945.465088,-248.748779,1.644259
28.381348,942.626953,-248.474121,1.645013
16.296387,943.908691,-258.911133,1.645757
7.232666,939.422607,-253.601074,1.646500
3.662109,938.598633,-246.368408,1.647243
15.747070,939.605713,-251.403809,1.647996
16.113281,939.697266,-254.791260,1.648740
12.542725,943.817139,-254.974365,1.649483
12.451172,950.683594,-248.107910,1.650226
9.796143,944.641113,-250.305176,1.650979
17.211914,944.274902,-258.819580,1.651723
6.958008,943.725586,-264.862061,1.652467
14.923096,942.626953,-260.467529,1.653210
9.155273,950.134277,-251.129150,1.653963
2.288818,951.782227,-249.755859,1.654707
5.859375,951.049805,-254.241943,1.655450
6.225586,947.937012,-256.805420,1.656193
-4.852295,950.317383,-261.291504,1.656957
-2.563477,946.563721,-257.720947,1.657701
0.366211,949.401855,-259.277344,1.658442
-4.211426,947.479248,-250.946045,1.659177
2.746582,942.626953,-263.397217,1.659931
0.457764,947.479248,-248.657227,1.660675
-1.190186,947.387695,-239.227295,1.661418
-1.831055,955.261230,-252.136230,1.662161
3.204346,954.162598,-255.065918,1.662913
8.972168,953.338623,-251.495361,1.663656
2.014160,947.570801,-257.171631,1.664399
8.605957,954.162598,-266.601562,1.665143
5.310059,950.042725,-257.080078,1.665896
-19.866943,954.711914,-255.706787,1.666639
6.317139,960.662842,-261.016846,1.667387
7.965088,949.676514,-252.777100,1.668180
-16.387939,956.359863,-249.206543,1.668934
1.098633,952.880859,-249.206543,1.669678
14.373779,946.655273,-250.488281,1.670421
7.415771,948.852539,-254.150391,1.671164
-12.542725,946.838379,-248.931885,1.671935
11.718750,955.902100,-246.643066,1.673008
0.091553,959.930420,-250.946045,1.673941
-7.965088,957.275391,-247.833252,1.674974
-6.683350,961.669922,-230.895996,1.675722
-4.028320,966.430664,-224.029541,1.676466
1.647949,963.684082,-242.431641,1.677211
5.401611,953.796387,-270.538330,1.677954
12.268066,944.458008,-280.517578,1.678698
5.126953,939.056396,-275.665283,1.679441
-7.141113,941.802979,-234.832764,1.680288
-16.937256,968.994141,-216.522217,1.681034
-16.479492,966.156006,-237.213135,1.681778
4.394531,946.563721,-255.981445,1.682521
24.902344,936.309814,-275.207520,1.683273
17.944336,931.091309,-267.974854,1.684016
12.084961,933.288574,-269.073486,1.684760
5.859375,951.873779,-235.015869,1.685503
-27.099609,954.803467,-223.114014,1.686247
-7.232666,968.719482,-233.459473,1.686990
-3.936768,961.761475,-226.501465,1.687733
-10.253906,957.183838,-236.022949,1.688476
7.598877,948.211670,-251.037598,1.689220
18.127441,943.176270,-259.368896,1.689963
10.437012,948.120117,-258.087158,1.690706
-0.732422,946.014404,-256.347656,1.691450
-12.725830,947.570801,-254.425049,1.692194
-12.542725,952.423096,-246.643066,1.692937
9.063721,959.014893,-249.938965,1.693681
23.529053,941.436768,-252.044678,1.694424
7.690430,935.943604,-280.609131,1.695178
13.000488,908.020020,-332.153320,1.695921
79.010010,862.701416,-349.456787,1.696665
-25.817871,893.829346,-269.989014,1.697409
-55.664062,992.980957,-143.829346,1.698153
-27.832031,1018.524170,-143.005371,1.698897
2.288818,990.142822,-178.070068,1.699690
-19.500732,958.923340,-221.557617,1.700443
-15.747070,951.324463,-232.360840,1.701207
-10.162354,948.211670,-232.269287,1.701984
-3.570557,951.416016,-229.980469,1.702727
6.958008,949.218750,-235.473633,1.703476
18.218994,948.852539,-246.917725,1.704233
12.268066,941.253662,-255.798340,1.704977
20.050049,929.351807,-256.713867,1.705752
18.310547,927.703857,-263.854980,1.706511
15.106201,924.499512,-264.587402,1.707294
16.845703,927.886963,-264.404297,1.708050
14.648438,928.985596,-260.742188,1.708801
5.035400,930.358887,-254.791260,1.709545
6.591797,942.077637,-245.178223,1.710289
8.239746,943.725586,-247.283936,1.711032
7.873535,944.274902,-240.600586,1.711775
3.662109,947.753906,-227.508545,1.712518
4.669189,955.169678,-221.282959,1.713262
-0.915527,952.880859,-232.635498,1.714006
-3.112793,952.423096,-240.509033,1.714750
4.394531,946.563721,-247.467041,1.715493
3.295898,951.782227,-234.283447,1.716238
0.823975,961.669922,-226.776123,1.716981
6.500244,954.071045,-219.726562,1.717725
12.451172,951.324463,-232.727051,1.718469
12.451172,944.915771,-240.692139,1.719224
16.571045,952.697754,-235.473633,1.719968
16.754150,949.584961,-257.629395,1.720711
16.204834,952.239990,-250.671387,1.721455
25.177002,946.380615,-246.459961,1.722199
23.620605,946.380615,-237.213135,1.722942
27.282715,952.148438,-247.741699,1.723686
27.008057,945.465088,-247.100830,1.724429
29.205322,948.120117,-242.614746,1.725017
20.507812,952.697754,-214.965820,1.725773
17.761230,959.747314,-230.804443,1.726517
28.106689,938.140869,-248.565674,1.727260
21.972656,952.239990,-246.551514,1.728004
8.697510,952.972412,-241.516113,1.728757
17.486572,950.775146,-218.353271,1.729500
16.937256,950.866699,-243.804932,1.730243
26.367188,959.838867,-240.142822,1.730987
23.437500,957.000732,-235.931396,1.731749
24.627686,957.733154,-237.579346,1.732493
19.042969,959.564209,-241.973877,1.733237
18.127441,959.106445,-242.065430,1.733981
25.268555,953.521729,-241.424561,1.734734
29.663086,957.183838,-240.142822,1.735478
19.775391,956.817627,-239.685059,1.736221
24.078369,955.169678,-244.354248,1.736965
28.839111,957.000732,-243.804932,1.737717
26.824951,960.754395,-247.924805,1.738461
29.479980,964.141846,-236.389160,1.739205
29.937744,970.642090,-239.959717,1.739949
33.142090,962.677002,-249.664307,1.740767
33.142090,964.691162,-250.488281,1.741509
32.226562,965.423584,-247.558594,1.742243
29.388428,964.965820,-238.769531,1.742977
34.423828,961.303711,-240.325928,1.743734
35.339355,973.297119,-238.952637,1.744478
41.381836,976.501465,-238.311768,1.745222
36.987305,975.585938,-241.333008,1.745965
43.762207,974.670410,-242.614746,1.746684
45.593262,977.416992,-234.741211,1.747428
35.064697,974.304199,-231.262207,1.748171
31.036377,970.184326,-237.030029,1.749011
37.445068,970.001221,-236.663818,1.749818
28.747559,974.212646,-234.375000,1.750568
32.318115,974.761963,-238.403320,1.751314
34.332275,966.064453,-238.494873,1.752058
34.332275,966.705322,-245.910645,1.752801
36.254883,962.310791,-241.699219,1.753631
21.972656,968.353271,-238.586426,1.754375
31.768799,965.789795,-250.854492,1.755119
31.494141,962.768555,-246.551514,1.755862
33.508301,961.120605,-243.347168,1.756606
34.423828,958.190918,-243.438721,1.757349
29.205322,963.500977,-243.438721,1.758094
31.219482,959.564209,-248.291016,1.758838
28.747559,956.176758,-244.903564,1.759581
28.106689,955.535889,-239.135742,1.760325
28.930664,951.141357,-241.607666,1.761068
27.648926,949.676514,-250.396729,1.761812
24.993896,960.113525,-246.734619,1.762555
28.289795,957.550049,-238.861084,1.763299
27.923584,960.479736,-241.607666,1.764043
26.550293,948.944092,-247.100830,1.764786
24.993896,945.648193,-247.924805,1.765530
31.402588,956.909180,-246.917725,1.766273
26.824951,950.408936,-246.826172,1.767031
20.599365,944.274902,-245.544434,1.767775
25.085449,952.697754,-238.494873,1.768518
28.564453,950.775146,-240.875244,1.769262
23.071289,936.492920,-242.523193,1.770006
18.493652,947.113037,-240.875244,1.770749
22.796631,950.042725,-242.797852,1.771493
14.282227,946.929932,-245.727539,1.772236
23.529053,938.873291,-244.537354,1.772980
20.965576,942.260742,-239.868164,1.773745
14.648438,945.098877,-245.269775,1.774502
16.296387,948.852539,-241.607666,1.775252
18.035889,946.289062,-245.269775,1.776046
19.042969,941.070557,-240.417480,1.776803
11.444092,948.760986,-240.692139,1.777547
8.605957,950.683594,-243.164062,1.778290
13.275146,950.683594,-248.291016,1.779034
16.754150,949.676514,-242.614746,1.779778
16.571045,949.859619,-240.417480,1.780566
9.246826,951.873779,-236.572266,1.781326
7.507324,942.901611,-240.692139,1.782105
9.246826,941.345215,-236.114502,1.782859
6.774902,954.528809,-236.663818,1.783612
8.972168,949.493408,-250.762939,1.784364
13.641357,944.274902,-247.192383,1.785128
17.028809,949.218750,-242.431641,1.785916
9.613037,953.796387,-246.551514,1.786672
17.211914,953.796387,-241.516113,1.787419
10.711670,949.584961,-240.600586,1.788036
5.767822,954.528809,-238.403320,1.788782
6.500244,961.486816,-255.889893,1.789528
4.028320,957.641602,-247.192383,1.790277
11.444092,951.324463,-248.016357,1.791034
5.950928,953.155518,-240.783691,1.791786
6.683350,953.063965,-244.903564,1.792534
2.655029,953.155518,-245.269775,1.793282
5.859375,951.416016,-246.276855,1.794050
12.634277,957.824707,-237.579346,1.794799
11.535645,957.733154,-244.445801,1.795543
10.620117,958.557129,-253.509521,1.796287
9.613037,956.909180,-248.474121,1.797031
9.979248,955.444336,-245.635986,1.797775
6.134033,946.014404,-246.002197,1.798518
1.281738,952.697754,-245.910645,1.799261
9.063721,955.718994,-242.523193,1.800005
10.253906,953.704834,-248.107910,1.800759
14.556885,954.620361,-246.093750,1.801504
5.035400,959.197998,-244.079590,1.802247
12.817383,955.444336,-247.375488,1.802990
11.901855,949.218750,-256.713867,1.803744
4.577637,949.310303,-251.220703,1.804489
7.415771,957.275391,-232.635498,1.805232
4.760742,960.571289,-232.818604,1.805975
6.958008,958.374023,-230.987549,1.806728
18.493652,958.374023,-241.058350,1.807472
17.211914,948.211670,-242.340088,1.808215
15.289307,954.711914,-241.058350,1.808959
7.141113,949.859619,-244.812012,1.809728
10.803223,953.887939,-246.185303,1.810471
9.887695,954.803467,-237.396240,1.811215
17.028809,944.000244,-244.903564,1.811958
18.402100,946.105957,-247.100830,1.812707
22.430420,946.289062,-247.924805,1.813451
10.345459,947.662354,-237.670898,1.814194
14.282227,944.732666,-244.445801,1.814938
17.578125,953.155518,-237.213135,1.815691
46.234131,946.838379,-243.988037,1.816436
19.317627,944.000244,-247.375488,1.817180
14.465332,943.634033,-241.607666,1.817924
7.965088,944.366455,-240.051270,1.818693
17.395020,942.169189,-241.424561,1.819451
17.486572,947.204590,-232.910156,1.820195
14.190674,950.225830,-240.600586,1.820939
20.782471,949.951172,-239.135742,1.821693
15.747070,944.274902,-235.748291,1.822437
19.500732,946.105957,-230.804443,1.823180
13.183594,950.408936,-226.593018,1.823924
20.965576,950.592041,-237.213135,1.824677
26.916504,946.838379,-247.467041,1.825496
15.014648,942.443848,-241.241455,1.826243
19.775391,947.479248,-235.748291,1.827074
41.931152,949.676514,-239.685059,1.827879
23.895264,944.000244,-246.276855,1.828626
13.916016,945.831299,-236.663818,1.829371
8.056641,947.937012,-244.171143,1.830119
25.817871,943.267822,-250.122070,1.830864
45.593262,947.204590,-243.530273,1.831608
25.177002,943.542480,-240.966797,1.832352
22.613525,953.796387,-234.741211,1.833108
20.874023,941.619873,-241.790771,1.833853
25.817871,951.141357,-241.790771,1.834596
18.035889,946.197510,-239.044189,1.835340
23.895264,950.592041,-234.924316,1.836084
28.839111,952.423096,-237.670898,1.836828
28.381348,949.218750,-244.171143,1.837572
22.521973,952.423096,-238.037109,1.838315
43.304443,948.944092,-244.537354,1.839059
21.148682,954.254150,-239.501953,1.839803
25.451660,961.212158,-228.424072,1.840547
18.493652,960.479736,-239.227295,1.841284
21.057129,954.620361,-237.304688,1.842021
0.640869,953.613281,-243.164062,1.842765
22.430420,952.789307,-242.523193,1.843510
14.739990,953.338623,-251.861572,1.844253
20.782471,982.360840,-241.424561,1.844997
9.063721,961.669922,-236.938477,1.845731
8.880615,966.979980,-240.051270,1.846465
15.838623,962.127686,-247.833252,1.847198
19.317627,961.669922,-248.107910,1.847946
10.345459,957.733154,-240.875244,1.848734
18.035889,958.374023,-243.804932,1.849513
10.253906,948.303223,-245.819092,1.850262
22.155762,948.944092,-241.790771,1.851026
11.169434,944.641113,-241.882324,1.851771
19.775391,951.416016,-251.678467,1.852515
14.373779,952.606201,-255.523682,1.853259
4.302979,950.408936,-241.607666,1.854035
14.190674,957.183838,-251.953125,1.854793
20.599365,957.641602,-234.466553,1.855561
18.493652,955.718994,-254.882812,1.856319
6.591797,956.176758,-254.882812,1.857080
11.169434,960.662842,-258.087158,1.857837
7.781982,957.275391,-250.030518,1.858625
7.781982,954.986572,-244.720459,1.859379
4.577637,948.211670,-256.347656,1.860152
19.592285,950.592041,-261.932373,1.860900
14.373779,953.430176,-234.741211,1.861645
17.486572,948.944092,-258.819580,1.862389
15.014648,951.965332,-250.671387,1.863148
8.056641,949.401855,-252.593994,1.863893
4.394531,952.697754,-250.579834,1.864641
15.014648,958.007812,-255.065918,1.865385
9.521484,946.563721,-256.713867,1.866130
9.796143,950.958252,-250.488281,1.866874
8.422852,947.204590,-257.263184,1.867618
3.021240,949.676514,-254.882812,1.868361
-2.746582,948.669434,-238.861084,1.869105
16.662598,947.204590,-256.713867,1.869848
9.063721,947.570801,-252.410889,1.870592
19.134521,947.937012,-265.960693,1.871336
3.936768,951.873779,-248.931885,1.872080
8.697510,945.739746,-273.101807,1.872823
21.331787,951.965332,-273.193359,1.873566
19.500732,943.725586,-248.474121,1.874310
11.993408,949.676514,-250.396729,1.875055
21.881104,947.570801,-260.101318,1.875800
15.655518,948.944092,-252.319336,1.876543
3.479004,945.739746,-251.953125,1.877287
9.521484,946.655273,-247.650146,1.878036
18.493652,947.479248,-255.889893,1.878780
7.690430,954.620361,-250.762939,1.879524
-2.380371,952.514648,-240.600586,1.880267
15.289307,946.289062,-258.361816,1.881010
24.627686,940.795898,-266.510010,1.881775
14.373779,933.105469,-262.390137,1.882364
13.549805,946.197510,-261.108398,1.883108
5.126953,945.922852,-268.707275,1.883852
-0.732422,942.626953,-267.150879,1.884605
9.887695,942.718506,-257.080078,1.885349
17.028809,944.366455,-265.319824,1.886093
21.697998,951.049805,-252.685547,1.886836
12.451172,956.176758,-254.974365,1.887589
12.725830,936.401367,-258.728027,1.888333
10.437012,941.802979,-249.938965,1.889077
6.042480,941.162109,-248.474121,1.889820
5.676270,949.035645,-252.685547,1.890573
10.253906,955.352783,-262.664795,1.891384
6.408691,939.056396,-257.263184,1.892129
13.183594,945.556641,-257.354736,1.892873
28.839111,941.436768,-255.798340,1.893627
26.641846,943.817139,-256.256104,1.894371
14.190674,949.035645,-253.692627,1.895114
-6.134033,955.261230,-246.368408,1.895858
4.577637,955.627441,-244.537354,1.896611
15.014648,953.796387,-259.094238,1.897354
11.901855,938.415527,-254.241943,1.898098
14.282227,946.105957,-257.354736,1.898842
2.929688,949.493408,-243.164062,1.899595
12.084961,954.803467,-269.897461,1.900423
25.543213,955.352783,-266.143799,1.901168
12.817383,944.732666,-256.256104,1.901958
40.557861,952.789307,-251.220703,1.902989
21.789551,946.563721,-251.861572,1.903968
29.937744,955.261230,-256.988525,1.904716
19.409180,956.634521,-264.129639,1.905462
9.246826,947.753906,-253.875732,1.906207
7.324219,953.704834,-242.340088,1.906951
16.296387,959.472656,-232.452393,1.907694
35.797119,959.930420,-259.552002,1.908439
17.028809,945.465088,-249.847412,1.909182
39.184570,950.408936,-251.953125,1.909926
23.712158,962.036133,-253.143311,1.910677
30.761719,959.930420,-253.601074,1.911433
-0.274658,952.789307,-244.628906,1.912176
8.056641,956.451416,-251.220703,1.912934
12.359619,961.486816,-255.615234,1.913678
24.810791,952.148438,-234.649658,1.914431
28.381348,956.634521,-242.889404,1.915175
43.304443,954.986572,-242.156982,1.915919
22.430420,967.529297,-239.959717,1.916663
24.536133,959.106445,-245.178223,1.917404
19.958496,951.965332,-238.311768,1.918148
19.500732,953.613281,-249.664307,1.918892
24.719238,951.049805,-231.719971,1.919636
21.057129,959.472656,-244.354248,1.920389
40.191650,960.021973,-245.361328,1.921150
33.691406,957.733154,-235.931396,1.921899
38.726807,980.072021,-260.467529,1.922676
23.986816,962.860107,-262.847900,1.923305
19.500732,955.169678,-238.769531,1.924051
42.846680,950.866699,-250.305176,1.924794
45.776367,951.782227,-245.086670,1.925586
30.212402,954.986572,-250.671387,1.926370
30.120850,950.500488,-259.552002,1.927153
26.000977,954.345703,-230.804443,1.927903
29.205322,956.085205,-254.699707,1.928647
43.304443,954.345703,-260.375977,1.929415
36.529541,952.789307,-238.311768,1.930160
45.593262,950.592041,-248.474121,1.930903
25.909424,950.225830,-264.404297,1.931640
29.022217,941.802979,-248.931885,1.932405
30.578613,940.704346,-226.684570,1.933150
28.472900,954.162598,-247.833252,1.933894
38.269043,952.514648,-253.051758,1.934638
35.705566,945.556641,-259.552002,1.935392
38.452148,939.239502,-245.910645,1.936136
35.980225,939.147949,-248.107910,1.936879
25.817871,938.964844,-263.488770,1.937625
32.501221,945.922852,-239.959717,1.938381
26.367188,932.830811,-247.650146,1.939125
26.184082,945.739746,-268.615723,1.939869
43.762207,933.837891,-244.537354,1.940613
60.150146,935.760498,-278.411865,1.941366
59.417725,926.147461,-247.467041,1.942110
35.339355,938.690186,-245.361328,1.942854
47.973633,943.725586,-253.875732,1.943443
16.113281,930.358887,-259.826660,1.944196
27.832031,935.302734,-244.354248,1.944953
17.395020,930.541992,-242.614746,1.945700
35.888672,944.183350,-244.445801,1.946444
43.121338,947.570801,-271.728516,1.947206
27.832031,929.992676,-262.023926,1.947952
21.972656,928.070068,-249.572754,1.948695
22.888184,933.837891,-253.784180,1.949439
24.536133,930.450439,-235.931396,1.950205
37.811279,929.534912,-264.495850,1.950949
58.685303,939.788818,-252.319336,1.951693
15.014648,925.598145,-255.889893,1.952436
30.029297,925.323486,-245.269775,1.953189
14.556885,923.858643,-252.777100,1.953933
20.874023,921.569824,-251.770020,1.954677
26.916504,926.239014,-271.453857,1.955421
42.297363,928.344727,-252.960205,1.956173
23.986816,937.957764,-245.178223,1.956917
36.621094,926.879883,-248.931885,1.957661
36.163330,921.661377,-260.009766,1.958405
13.732910,933.746338,-264.221191,1.959158
15.838623,926.513672,-249.847412,1.959902
9.063721,935.119629,-239.959717,1.960646
23.162842,934.204102,-269.348145,1.961455
15.655518,923.034668,-229.888916,1.962209
30.487061,931.549072,-253.967285,1.962953
33.691406,918.365479,-269.897461,1.963697
16.754150,920.013428,-261.108398,1.964440
0.366211,923.675537,-258.178711,1.965193
2.929688,926.971436,-261.749268,1.965938
4.669189,933.837891,-256.988525,1.966681
18.951416,936.309814,-227.325439,1.967424
17.395020,932.098389,-262.298584,1.968180
-3.387451,924.774170,-244.537354,1.968924
8.331299,930.999756,-245.544434,1.969667
15.655518,927.429199,-238.861084,1.970410
5.218506,930.450439,-262.023926,1.971161
5.218506,927.886963,-272.003174,1.971904
-13.458252,919.921875,-256.530762,1.972647
-3.204346,923.767090,-245.727539,1.973391
8.514404,936.584473,-270.904541,1.974230
19.866943,922.393799,-274.475098,1.974974
7.781982,927.520752,-266.143799,1.975718
-2.838135,929.992676,-254.516602,1.976461
0.000000,933.654785,-251.037598,1.977214
-10.528564,934.295654,-267.883301,1.977958
-10.528564,933.654785,-262.847900,1.978759
-6.958008,937.591553,-254.882812,1.979519
-9.063721,932.556152,-265.594482,1.980280
-13.916016,930.084229,-250.854492,1.981034
8.056641,929.351807,-258.819580,1.981793
-14.465332,928.527832,-256.164551,1.982538
-16.204834,937.042236,-264.587402,1.983298
-11.810303,941.619873,-254.791260,1.984042
-22.247314,935.211182,-268.249512,1.984786
-8.239746,916.351318,-254.333496,1.985529
-5.401611,932.739258,-254.699707,1.986282
6.866455,928.894043,-274.749756,1.987026
-0.823975,923.034668,-264.953613,1.987769
-5.218506,925.415039,-253.601074,1.988513
-18.951416,942.535400,-258.087158,1.989265
-21.331787,935.485840,-261.108398,1.990010
-27.008057,928.161621,-281.616211,1.990753
-24.078369,914.703369,-278.503418,1.991497
-10.986328,921.295166,-278.045654,1.992250
2.746582,924.316406,-279.418945,1.992994
-9.338379,925.231934,-273.651123,1.993582
-2.929688,912.689209,-277.038574,1.994342
7.873535,925.231934,-272.552490,1.995115
0.457764,929.077148,-253.875732,1.995894
-4.943848,933.197021,-266.326904,1.996644
-4.302979,935.211182,-271.545410,1.997387
5.035400,927.154541,-290.130615,1.998150
-10.162354,922.393799,-272.460938,1.998894
-14.923096,927.154541,-282.531738,1.999638
-5.584717,917.358398,-261.840820,2.000452
10.070801,928.344727,-281.707764,2.001238
0.549316,924.957275,-259.643555,2.001989
19.409180,936.584473,-260.559082,2.002763
18.127441,936.676025,-266.143799,2.003509
2.563477,921.844482,-294.158936,2.004272
0.732422,913.421631,-291.687012,2.005015
-10.437012,908.203125,-288.574219,2.005759
-5.584717,914.062500,-289.764404,2.006502
-3.845215,928.070068,-270.172119,2.007255
-13.458252,939.331055,-259.826660,2.007998
7.873535,949.127197,-254.241943,2.008742
32.958984,942.443848,-262.298584,2.009485
23.803711,930.267334,-237.854004,2.010239
29.571533,940.338135,-286.376953,2.010983
21.606445,929.351807,-279.968262,2.011729
1.007080,927.886963,-279.693604,2.012474
-10.070801,913.146973,-291.870117,2.013231
4.211426,924.133301,-298.461914,2.013975
28.106689,921.112061,-287.384033,2.014719
28.564453,934.753418,-221.191406,2.015462
8.514404,951.324463,-216.064453,2.016213
3.662109,955.444336,-241.424561,2.016957
-0.915527,962.219238,-238.403320,2.017700
3.295898,948.852539,-240.875244,2.018443
-2.563477,950.317383,-259.460449,2.019195
-0.274658,947.387695,-280.792236,2.019939
17.395020,941.436768,-228.790283,2.020683
17.669678,948.669434,-256.896973,2.021426
30.120850,946.014404,-239.135742,2.022179
-7.781982,950.683594,-257.263184,2.022923
-3.479004,943.176270,-238.220215,2.023666
15.289307,962.677002,-236.938477,2.024410
2.563477,963.134766,-213.409424,2.025172
5.767822,963.867188,-212.677002,2.025916
11.352539,975.677490,-264.312744,2.026659
28.656006,967.254639,-252.136230,2.027402
4.760742,974.304199,-231.353760,2.028154
24.261475,963.775635,-252.593994,2.028898
26.458740,974.945068,-211.578369,2.029641
3.387451,975.219727,-218.627930,2.030388
35.339355,972.839355,-217.346191,2.031140
17.120361,968.261719,-252.868652,2.031884
17.669678,960.296631,-270.172119,2.032627
-24.444580,946.746826,-245.269775,2.033369
10.620117,949.493408,-275.482178,2.034089
-1.739502,939.147949,-224.029541,2.034898
-18.127441,971.191406,-240.142822,2.035642
-14.465332,969.360352,-241.973877,2.036386
11.535645,978.973389,-215.789795,2.037140
35.339355,962.677002,-228.057861,2.037884
27.648926,973.846436,-261.840820,2.038628
-14.099121,964.691162,-269.714355,2.039372
-21.331787,946.929932,-236.206055,2.040125
-16.571045,955.078125,-249.938965,2.040870
9.155273,949.859619,-246.002197,2.041614
7.690430,914.703369,-304.138184,2.042357
7.690430,918.457031,-280.792236,2.043110
20.050049,941.619873,-268.249512,2.043854
37.719727,956.085205,-246.917725,2.044598
32.684326,958.007812,-232.086182,2.045341
65.460205,980.072021,-223.205566,2.046095
116.821289,982.910156,-253.784180,2.046839
52.368164,969.451904,-248.748779,2.047668
16.754150,941.986084,-255.706787,2.048412
-62.255859,966.156006,-268.798828,2.049169
-49.163818,974.121094,-225.219727,2.049913
-10.711670,985.565186,-238.769531,2.050656
51.361084,960.845947,-243.164062,2.051400
70.129395,958.923340,-276.947021,2.052156
25.268555,946.838379,-294.708252,2.052900
9.521484,930.084229,-292.327881,2.053643
-14.923096,929.718018,-301.483154,2.054386
-16.296387,933.380127,-321.166992,2.055140
14.831543,920.837402,-251.861572,2.056083
18.951416,965.423584,-256.439209,2.056893
-27.282715,962.860107,-287.292480,2.057644
-33.874512,947.204590,-342.773438,2.058389
-23.803711,912.506104,-301.574707,2.059134
-48.980713,928.619385,-304.229736,2.059878
-23.071289,941.070557,-271.636963,2.060622
8.056641,934.387207,-274.658203,2.061355
-11.901855,943.176270,-375.640869,2.062089
-28.472900,911.041260,-321.258545,2.062823
-58.319092,921.752930,-299.194336,2.063557
-13.732910,933.929443,-313.934326,2.064333
-32.043457,925.964355,-308.441162,2.065076
-41.015625,923.034668,-337.921143,2.065818
-30.670166,926.879883,-272.094727,2.066571
-24.536133,943.817139,-326.293945,2.067314
-44.128418,924.407959,-258.178711,2.068062
-21.057129,935.302734,-309.906006,2.068814
-11.260986,900.329590,-393.676758,2.069578
-81.665039,882.202148,-358.978271,2.070328
-121.398926,907.287598,-378.387451,2.071071
-135.223389,903.808594,-296.264648,2.071813
-87.982178,907.104492,-252.960205,2.072565
7.598877,936.676025,-343.780518,2.073374
-0.823975,930.175781,-340.209961,2.074136
-69.122314,899.688721,-361.358643,2.074884
-133.392334,877.441406,-399.169922,2.075659
-171.386719,870.483398,-452.911377,2.076405
-198.760986,841.369629,-430.389404,2.077147
-168.731689,857.116699,-329.132080,2.077889
-72.784424,872.589111,-417.846680,2.078632
-54.290771,850.799561,-454.010010,2.079374
-110.687256,822.143555,-447.692871,2.080116
-68.756104,834.136963,-455.566406,2.080859
-111.419678,828.552246,-434.692383,2.081601
-74.890137,851.165771,-375.640869,2.082345
-14.556885,850.250244,-421.600342,2.083087
16.113281,818.206787,-464.538574,2.083830
-7.141113,821.594238,-599.853516,2.084592
-69.213867,788.909912,-713.104248,2.085337
-184.020996,736.541748,-660.003662,2.086080
-19.134521,718.872070,-555.267334,2.086822
0.091553,723.815918,-661.468506,2.087564
-28.930664,709.533691,-675.933838,2.088308
-2.746582,680.511475,-761.993408,2.089050
70.129395,668.060303,-764.007568,2.089792
197.296143,653.686523,-817.016602,2.090534
238.311768,634.368896,-962.677002,2.091286
141.998291,562.133789,-972.381592,2.092029
100.616455,482.757568,-1121.612549,2.092771
140.258789,427.368164,-1175.079346,2.093513
32.043457,351.928711,-1209.228516,2.094265
28.930664,311.187744,-1262.420654,2.095008
24.719238,258.728027,-1250.518799,2.095751
-35.247803,230.255127,-1263.610840,2.096493
-91.369629,211.120605,-1272.308350,2.097254
-92.742920,205.169678,-1314.239502,2.097996
-124.237061,213.775635,-1321.289062,2.098739
-174.682617,213.226318,-1346.649170,2.099482
-186.859131,391.296387,-1228.637695,2.100233
-208.099365,475.799561,-1109.893799,2.100976
-224.761963,602.233887,-857.482910,2.101718
-253.692627,588.592529,-706.695557,2.102460
-316.772461,536.407471,-738.281250,2.103212
-235.656738,565.246582,-843.566895,2.103954
-357.513428,557.006836,-860.687256,2.104696
-313.385010,656.066895,-803.558350,2.105439
-462.158203,646.545410,-599.761963,2.106192
-441.558838,711.181641,-565.338135,2.106935
-318.237305,740.753174,-553.802490,2.107535
-300.292969,734.436035,-552.154541,2.108313
-40.924072,770.965576,-716.491699,2.109064
4.577637,849.517822,-569.824219,2.109806
-333.251953,832.672119,-517.456055,2.110548
-130.920410,909.667969,-585.754395,2.111290
-106.567383,866.912842,-556.549072,2.112042
-185.943604,781.311035,-598.663330,2.112784
146.301270,799.346924,-841.278076,2.113526
189.056396,905.914307,-651.947021,2.114268
-185.668945,1199.066162,-37.445068,2.115020
-217.803955,1363.586426,119.293213,2.115762
-120.574951,1297.668457,267.333984,2.116505
1.739502,1279.083252,18.127441,2.117248
335.723877,1354.156494,-93.292236,2.117998
211.669922,1226.257324,-72.784424,2.118830
394.775391,1189.361572,-122.131348,2.119573
599.853516,1112.182617,-283.081055,2.120316
578.063965,940.246582,-565.155029,2.121069
660.369873,951.232910,-661.834717,2.121812
593.902588,1366.699219,-55.664062,2.122555
348.266602,1470.703125,242.980957,2.123298
265.411377,1386.566162,321.716309,2.124050
388.092041,1530.853271,132.202148,2.124793
534.301758,1523.712158,121.673584,2.125536
363.189697,1344.726562,82.580566,2.126278
451.446533,1258.483887,-86.517334,2.127053
463.531494,1228.820801,-190.155029,2.127801
395.324707,1093.414307,-413.909912,2.128546
397.705078,987.487793,-583.465576,2.129290
408.416748,791.290283,-688.751221,2.130055
679.046631,1007.904053,-335.540771,2.130644
336.456299,1519.042969,146.118164,2.131386
-353.942871,1488.555908,580.718994,2.132274
151.245117,1612.884521,404.754639,2.133038
289.581299,1656.829834,232.086182,2.133782
144.927979,1524.902344,205.810547,2.134526
13.458252,1358.642578,158.020020,2.135350
67.291260,1341.705322,9.246826,2.136097
179.809570,1293.182373,-47.607422,2.136841
184.661865,1181.396484,-110.504150,2.137585
116.455078,1122.711182,-154.266357,2.138328
