ACC_X,ACC_Y,ACC_Z,Time
-164.245605,677.307129,705.780029,0.000126
-167.083740,675.659180,705.780029,0.000252
-167.083740,673.461914,713.836670,0.000363
-167.633057,673.461914,713.836670,0.000472
-168.090820,680.969238,712.554932,0.000581
-168.090820,680.969238,702.850342,0.000690
-169.097900,671.173096,702.850342,0.000799
-169.097900,673.461914,696.899414,0.000907
-165.893555,673.461914,696.899414,0.001016
-162.780762,684.631348,706.054688,0.001125
-162.780762,684.631348,709.991455,0.001269
-159.942627,680.877686,709.991455,0.001388
-159.942627,677.764893,708.618164,0.001507
-162.414551,677.764893,708.618164,0.001629
-161.682129,676.574707,709.167480,0.001747
-161.682129,700.012207,715.301514,0.001865
-157.653809,681.610107,715.301514,0.001984
-161.407471,682.891846,711.547852,0.002102
-161.407471,682.891846,711.547852,0.002220
-162.231445,677.490234,710.174561,0.002338
-162.231445,682.342529,718.872070,0.002458
-165.252686,682.342529,718.872070,0.002578
-167.633057,682.617188,707.611084,0.002696
-167.633057,682.617188,711.364746,0.002814
-163.238525,678.955078,711.364746,0.002933
-163.238525,677.124023,715.759277,0.003050
-158.294678,677.124023,715.759277,0.003169
-157.928467,674.743652,708.892822,0.003287
-157.928467,674.743652,715.576172,0.003405
-163.055420,681.884766,715.576172,0.003523
-186.492920,675.659180,704.040527,0.003641
-165.344238,675.659180,704.040527,0.003772
-159.027100,687.927246,718.231201,0.003891
-159.027100,687.927246,715.576172,0.004010
-166.900635,678.955078,715.576172,0.004128
-166.900635,676.483154,716.125488,0.004246
-166.076660,676.483154,716.125488,0.004364
-161.773682,683.715820,716.674805,0.004481
-161.773682,660.278320,706.787109,0.004599
-163.421631,676.300049,706.787109,0.004717
-186.859131,680.328369,701.751709,0.004835
-166.717529,680.328369,701.751709,0.004965
-163.146973,691.406250,717.041016,0.005083
-163.146973,667.968750,707.336426,0.005201
-168.548584,676.666260,707.336426,0.005319
-162.322998,670.898438,700.927734,0.005436
-162.322998,670.898438,724.365234,0.005554
-168.365479,686.370850,711.547852,0.005672
-168.365479,662.933350,706.237793,0.005790
-167.449951,672.088623,706.237793,0.005908
-165.344238,677.764893,707.611084,0.006027
-165.344238,677.764893,707.611084,0.006145
-167.266846,674.468994,707.336426,0.006269
-167.266846,679.870605,705.596924,0.006387
-170.654297,679.870605,705.596924,0.006505
-170.104980,675.842285,699.554443,0.006623
-170.104980,675.842285,701.293945,0.006741
-171.020508,674.468994,701.293945,0.006858
-171.020508,672.912598,705.230713,0.006976
-165.527344,672.912598,705.230713,0.007094
-168.090820,669.342041,711.639404,0.007212
-168.090820,669.342041,718.048096,0.007329
-165.802002,680.511475,718.048096,0.007447
-142.364502,677.032471,708.251953,0.007575
-158.111572,677.032471,708.251953,0.007694
-161.773682,679.962158,713.745117,0.007811
-161.773682,679.962158,707.244873,0.007929
-165.069580,678.680420,707.244873,0.008048
-165.069580,680.145264,710.723877,0.008165
-164.794922,680.145264,710.723877,0.008283
-158.020020,675.567627,708.984375,0.008401
-158.020020,675.567627,704.223633,0.008519
-161.407471,674.743652,704.223633,0.008637
-184.844971,684.356689,713.104248,0.008764
-165.985107,684.356689,713.104248,0.008883
-165.069580,686.462402,717.498779,0.009000
-165.069580,663.024902,707.977295,0.009118
-166.717529,675.567627,707.977295,0.009236
-159.210205,682.617188,705.322266,0.009354
-159.210205,682.617188,705.322266,0.009472
-163.330078,684.814453,709.991455,0.009590
-163.330078,672.546387,707.244873,0.009708
-166.076660,672.546387,707.244873,0.009826
-164.337158,679.779053,711.364746,0.009944
-164.337158,679.779053,711.364746,0.010062
-165.985107,675.292969,706.054688,0.010180
-165.985107,681.427002,711.090088,0.010298
-166.076660,681.427002,711.090088,0.010415
-159.851074,677.581787,709.716797,0.010532
-159.851074,677.581787,706.237793,0.010650
-164.062500,672.546387,706.237793,0.010767
-164.062500,681.793213,713.653564,0.010885
-160.308838,681.793213,713.653564,0.011002
-166.625977,684.631348,710.083008,0.011121
-166.625977,684.631348,709.442139,0.011239
-171.386719,680.694580,709.442139,0.011471
-167.816162,676.391602,706.970215,0.011590
-167.816162,676.391602,708.251953,0.011708
-164.245605,676.025391,708.251953,0.011826
-164.245605,677.215576,704.956055,0.011944
-164.428711,677.215576,704.956055,0.012061
-164.978027,679.229736,702.209473,0.012179
-164.978027,679.229736,704.864502,0.012297
-161.315918,679.504395,704.864502,0.012414
-161.315918,666.961670,706.329346,0.012532
-163.146973,666.961670,706.329346,0.012650
-160.491943,685.272217,714.569092,0.012767
-160.491943,685.272217,710.266113,0.012885
-165.802002,676.940918,710.266113,0.013003
-142.364502,681.152344,710.357666,0.013120
-162.231445,681.152344,710.357666,0.013237
-163.513184,685.638428,721.893311,0.013355
-163.513184,662.200928,716.766357,0.013472
-162.506104,702.850342,703.033447,0.013606
-163.604736,683.990479,705.871582,0.013786
-142.364502,686.828613,706.787109,0.013914
-163.970947,686.828613,706.787109,0.014039
-164.886475,681.243896,701.110840,0.014170
-164.886475,681.243896,699.645996,0.014316
-163.970947,683.074951,699.645996,0.014449
-163.421631,680.511475,702.209473,0.014574
-163.421631,680.511475,708.251953,0.014701
-162.506104,680.877686,708.251953,0.014826
-162.506104,683.441162,703.216553,0.014949
-159.118652,683.441162,703.216553,0.015070
-159.484863,678.771973,703.491211,0.015192
-159.484863,678.771973,702.667236,0.015314
-163.604736,681.427002,702.667236,0.015437
-187.042236,677.398682,713.378906,0.015559
-166.168213,677.398682,713.378906,0.015680
-166.900635,674.926758,712.738037,0.015802
-166.900635,674.926758,707.427979,0.015924
-167.724609,678.497314,707.427979,0.016046
-167.724609,682.617188,707.153320,0.016168
-166.534424,682.617188,707.153320,0.016291
-164.703369,685.729980,708.801270,0.016413
-164.703369,685.729980,703.033447,0.016535
-164.245605,680.786133,703.033447,0.016657
-164.245605,675.933838,704.589844,0.016779
-172.760010,675.933838,704.589844,0.016901
-171.844482,670.166016,700.561523,0.017023
-171.844482,670.166016,723.999023,0.017144
-167.083740,684.539795,708.251953,0.017267
-167.083740,675.567627,702.941895,0.017389
-168.548584,675.567627,702.941895,0.017507
-163.787842,682.800293,710.357666,0.017620
-163.787842,682.800293,714.935303,0.017796
-162.139893,684.173584,714.935303,0.017921
-164.520264,688.751221,704.315186,0.018044
-164.520264,688.751221,712.463379,0.018166
-165.344238,683.715820,712.463379,0.018287
-165.344238,676.757812,706.604004,0.018409
-166.717529,676.757812,706.604004,0.018531
-166.442871,675.842285,707.427979,0.018653
-166.442871,675.842285,707.427979,0.018775
-167.083740,677.307129,712.005615,0.018919
-167.083740,675.018311,711.914062,0.019041
-158.203125,675.018311,711.914062,0.019163
-165.802002,677.398682,704.498291,0.019284
-165.802002,677.398682,704.498291,0.019407
-164.703369,692.596436,716.583252,0.019528
-164.703369,684.906006,721.343994,0.019650
-169.738770,684.906006,721.343994,0.019772
-164.794922,684.906006,713.104248,0.019893
-164.794922,684.906006,713.104248,0.020015
-169.189453,671.722412,708.618164,0.020137
-169.189453,671.722412,713.928223,0.020259
-167.358398,671.356201,713.928223,0.020380
-165.710449,676.116943,708.343506,0.020502
-165.710449,676.116943,708.343506,0.020624
-168.731689,679.962158,711.181641,0.020745
-168.731689,656.524658,710.266113,0.020867
-166.351318,675.018311,710.266113,0.020988
-166.351318,681.884766,709.350586,0.021110
-170.288086,681.884766,709.350586,0.021232
-162.231445,677.124023,713.287354,0.021353
-162.231445,700.561523,710.357666,0.021483
-159.942627,684.722900,710.357666,0.021594
-183.380127,680.236816,709.350586,0.021706
-165.527344,680.236816,709.350586,0.021817
-162.048340,673.004150,703.125000,0.021928
-162.048340,673.004150,679.687500,0.022039
-167.449951,675.018311,700.836182,0.022151
-167.449951,675.018311,704.772949,0.022262
-172.393799,675.567627,704.772949,0.022373
-172.393799,678.680420,701.751709,0.022484
-167.907715,678.680420,701.751709,0.022596
-165.435791,681.518555,705.871582,0.022708
-165.435791,681.518555,708.526611,0.022831
-162.963867,672.546387,708.526611,0.022952
-165.618896,681.793213,703.491211,0.023165
-165.618896,681.793213,703.491211,0.023288
-163.330078,678.680420,705.413818,0.023409
-163.330078,676.666260,710.357666,0.023530
-160.583496,676.666260,710.357666,0.023651
-163.421631,686.737061,716.949463,0.023772
-163.421631,686.737061,716.949463,0.023893
-164.245605,688.659668,717.407227,0.024015
-164.245605,688.659668,715.118408,0.024136
-159.576416,691.223145,715.118408,0.024258
-163.055420,686.920166,715.301514,0.024379
-163.055420,686.920166,715.301514,0.024500
-168.640137,683.715820,705.322266,0.024622
-168.640137,660.278320,705.596924,0.024743
-165.710449,672.912598,705.596924,0.024864
-165.710449,678.863525,710.998535,0.024986
-164.154053,678.863525,710.998535,0.025107
-163.787842,679.229736,706.237793,0.025228
-163.787842,679.229736,703.216553,0.025350
-164.794922,676.849365,703.216553,0.025471
-164.794922,678.955078,703.308105,0.025593
-165.252686,678.955078,703.308105,0.025715
-166.625977,677.947998,703.216553,0.025836
-166.625977,677.947998,706.878662,0.025958
-166.168213,678.131104,706.878662,0.026078
-166.168213,683.532715,719.696045,0.026199
-162.689209,683.532715,719.696045,0.026321
-165.893555,683.349609,716.125488,0.026441
-165.893555,683.349609,708.892822,0.026563
-165.252686,679.504395,708.892822,0.026684
-165.252686,673.187256,706.878662,0.026811
-166.442871,673.187256,706.878662,0.026923
-167.266846,678.131104,705.505371,0.027034
-167.266846,678.131104,705.505371,0.027147
-168.640137,678.314209,715.301514,0.027258
-168.640137,701.751709,713.287354,0.027370
-161.224365,681.060791,713.287354,0.027481
-184.661865,672.546387,712.646484,0.027592
-164.337158,672.546387,712.646484,0.027704
-166.076660,671.813965,710.357666,0.027816
-166.076660,671.813965,686.920166,0.027927
-168.457031,674.743652,701.843262,0.028052
-168.457031,678.405762,708.343506,0.028173
-165.527344,678.405762,708.343506,0.028292
-160.583496,684.082031,706.146240,0.028412
-160.583496,684.082031,706.146240,0.028532
-160.858154,677.947998,707.977295,0.028651
-160.858154,680.877686,708.526611,0.028770
-159.759521,680.877686,708.526611,0.028891
-162.322998,685.546875,707.153320,0.029010
-162.322998,685.546875,707.153320,0.029130
-172.210693,673.645020,706.787109,0.029249
-172.210693,673.645020,714.569092,0.029370
-165.069580,673.370361,714.569092,0.029489
-165.069580,676.666260,709.625244,0.029609
-165.161133,676.666260,709.625244,0.029729
-161.132812,678.131104,710.083008,0.029848
-161.132812,678.131104,704.681396,0.029968
-161.682129,675.476074,704.681396,0.030088
-185.119629,675.659180,703.765869,0.030208
-166.168213,675.659180,703.765869,0.030328
-170.196533,679.687500,704.132080,0.030448
-170.196533,679.687500,707.977295,0.030568
-162.597656,677.764893,707.977295,0.030689
-162.597656,681.152344,707.061768,0.030809
-162.322998,681.152344,707.061768,0.030929
-167.907715,678.222656,703.491211,0.031048
-167.907715,678.222656,707.427979,0.031168
-159.393311,680.786133,707.427979,0.031288
-159.393311,680.603027,710.723877,0.031408
-159.942627,680.603027,710.723877,0.031527
-158.935547,676.116943,698.547363,0.031647
-158.935547,676.116943,721.984863,0.031767
-159.301758,675.750732,703.125000,0.031887
-159.301758,675.750732,698.638916,0.032007
-165.252686,672.363281,698.638916,0.032127
-141.815186,680.786133,707.794189,0.032247
-161.865234,680.786133,707.794189,0.032367
-159.210205,678.222656,712.738037,0.032486
-159.210205,678.222656,710.998535,0.032606
-167.633057,674.743652,710.998535,0.032726
-144.195557,680.236816,710.449219,0.032846
-163.055420,680.236816,710.449219,0.032966
-165.435791,684.265137,706.695557,0.033085
-165.435791,684.265137,705.780029,0.033205
-165.069580,676.757812,705.780029,0.033326
-165.069580,673.095703,700.744629,0.033445
-169.189453,673.095703,700.744629,0.033565
-169.006348,678.863525,708.068848,0.033685
-169.006348,678.863525,702.850342,0.033805
-170.654297,672.180176,702.850342,0.033925
-170.654297,680.328369,708.801270,0.034045
-159.027100,680.328369,708.801270,0.034164
-165.802002,678.314209,711.456299,0.034284
-165.802002,678.314209,711.456299,0.034404
-163.696289,679.229736,712.188721,0.034524
-163.696289,682.250977,715.118408,0.034692
-162.231445,682.250977,715.118408,0.034812
-167.999268,677.856445,702.850342,0.034932
-167.999268,677.856445,706.970215,0.035052
-165.893555,689.208984,706.970215,0.035172
-165.893555,681.060791,703.582764,0.035292
-175.231934,681.060791,703.582764,0.035412
-175.323486,676.940918,697.448730,0.035531
-175.323486,676.940918,720.886230,0.035651
-161.407471,679.504395,703.674316,0.035771
-161.407471,682.250977,711.547852,0.035892
-165.802002,682.250977,711.547852,0.036012
-163.238525,678.680420,704.315186,0.036131
-163.238525,678.680420,704.315186,0.036252
-163.970947,679.870605,704.223633,0.036371
-163.970947,656.433105,704.406738,0.036491
-164.794922,676.849365,704.406738,0.036611
-141.357422,683.715820,710.998535,0.036731
-162.322998,683.715820,710.998535,0.036851
-161.132812,674.560547,702.941895,0.036971
-161.132812,674.560547,708.618164,0.037091
-164.794922,679.229736,708.618164,0.037211
-164.794922,678.863525,706.512451,0.037331
-167.816162,678.863525,706.512451,0.037451
-170.562744,683.532715,705.871582,0.037571
-170.562744,683.532715,707.977295,0.037691
-165.618896,675.018311,707.977295,0.037811
-165.618896,677.215576,713.653564,0.037931
-165.710449,677.215576,713.653564,0.038050
-167.633057,673.919678,700.012207,0.038201
-168.365479,681.518555,703.399658,0.038325
-168.365479,681.518555,716.857910,0.038446
-171.844482,689.575195,716.857910,0.038568
-171.844482,681.610107,707.885742,0.038689
-170.288086,681.610107,707.885742,0.038809
-160.583496,686.920166,708.343506,0.038930
-160.583496,686.920166,703.125000,0.039051
-163.055420,687.286377,703.125000,0.039172
-163.055420,683.441162,707.427979,0.039293
-169.006348,683.441162,707.427979,0.039414
-169.189453,675.567627,700.195312,0.039534
-169.189453,675.567627,700.469971,0.039656
-165.985107,681.060791,700.469971,0.039777
-165.985107,677.307129,706.787109,0.039898
-169.464111,677.307129,706.787109,0.040019
-168.731689,675.567627,702.850342,0.040140
-168.731689,675.567627,726.287842,0.040261
-167.907715,679.687500,704.589844,0.040382
-167.907715,677.307129,710.906982,0.040503
-166.900635,677.307129,710.906982,0.040624
-165.252686,673.645020,707.611084,0.040745
-165.252686,673.645020,707.611084,0.040866
-168.731689,677.673340,707.336426,0.040986
-168.731689,677.673340,703.674316,0.041105
-173.583984,674.377441,703.674316,0.041216
-173.583984,682.891846,708.343506,0.041328
-167.633057,682.891846,708.343506,0.041439
-164.062500,675.384521,706.512451,0.041550
-164.062500,675.384521,703.491211,0.041661
-161.865234,682.983398,703.491211,0.041772
-161.865234,680.145264,711.456299,0.041883
-165.435791,680.145264,711.456299,0.041995
-167.724609,677.307129,710.998535,0.042106
-167.724609,677.307129,710.998535,0.042217
-167.816162,674.011230,701.843262,0.042329
-167.816162,674.011230,703.857422,0.042451
-161.590576,675.933838,703.857422,0.042572
-161.590576,674.011230,716.217041,0.042693
-156.463623,674.011230,716.217041,0.042814
-162.872314,671.630859,702.850342,0.042935
-162.872314,671.630859,709.442139,0.043056
-160.034180,679.138184,709.442139,0.043177
-160.034180,677.581787,705.505371,0.043299
-168.731689,677.581787,705.505371,0.043420
-166.351318,677.673340,712.097168,0.043540
-166.351318,677.673340,706.054688,0.043661
-174.957275,675.842285,706.054688,0.043782
-174.957275,681.884766,706.146240,0.043903
-176.696777,681.884766,706.146240,0.044025
-171.661377,683.349609,699.005127,0.044145
-171.661377,683.349609,699.005127,0.044266
-165.710449,679.870605,701.934814,0.044387
-165.710449,682.434082,708.709717,0.044509
-171.569824,682.434082,708.709717,0.044629
-174.316406,679.412842,707.519531,0.044751
-174.316406,679.412842,707.519531,0.044872
-168.914795,679.504395,706.420898,0.044993
-168.914795,679.504395,709.533691,0.045114
-162.231445,671.356201,709.533691,0.045235
-185.668945,674.652100,709.167480,0.045352
-164.428711,674.652100,709.167480,0.045464
-162.780762,685.089111,702.850342,0.045575
-162.780762,685.089111,709.167480,0.045686
-160.858154,683.166504,709.167480,0.045798
-160.858154,684.173584,708.618164,0.045909
-161.407471,684.173584,708.618164,0.046064
-166.900635,681.610107,705.322266,0.046176
-166.900635,681.610107,712.554932,0.046291
-162.506104,676.849365,712.554932,0.046402
-162.506104,680.786133,711.181641,0.046514
-159.393311,680.786133,711.181641,0.046625
-159.301758,681.610107,711.914062,0.046736
-159.301758,681.610107,711.914062,0.046848
-160.675049,675.567627,700.469971,0.046959
-160.675049,675.567627,701.019287,0.047070
-166.534424,686.370850,701.019287,0.047181
-166.534424,686.370850,709.808350,0.047292
-170.379639,686.370850,709.808350,0.047404
-170.288086,674.652100,705.688477,0.047538
-170.288086,674.652100,711.639404,0.047659
-163.879395,678.039551,711.639404,0.047779
-163.879395,675.567627,709.899902,0.047899
-170.104980,675.567627,709.899902,0.048018
-172.302246,682.617188,708.709717,0.048138
-172.302246,682.617188,710.815430,0.048258
-170.013428,680.511475,710.815430,0.048378
-170.013428,678.131104,704.132080,0.048498
-166.351318,678.131104,704.132080,0.048617
-155.639648,677.215576,710.723877,0.048737
-155.639648,677.215576,710.723877,0.048857
-159.576416,678.680420,712.646484,0.048977
-159.576416,702.117920,703.399658,0.049097
-160.675049,681.060791,703.399658,0.049217
-169.464111,675.018311,701.202393,0.049337
-169.464111,675.018311,724.639893,0.049456
-171.936035,679.504395,707.061768,0.049576
-171.936035,679.504395,712.463379,0.049696
-164.337158,676.849365,712.463379,0.049817
-140.899658,680.603027,714.843750,0.049937
-161.956787,680.603027,714.843750,0.050056
-166.442871,685.272217,709.442139,0.050186
-166.442871,685.272217,706.787109,0.050306
-162.322998,684.082031,706.787109,0.050426
-185.760498,684.539795,705.688477,0.050546
-166.809082,684.539795,705.688477,0.050665
-161.041260,678.680420,698.913574,0.050785
-161.041260,678.680420,706.512451,0.050906
-162.322998,677.764893,706.512451,0.051025
-162.322998,683.166504,704.956055,0.051146
-168.090820,683.166504,704.956055,0.051266
-164.520264,675.842285,699.645996,0.051385
-164.520264,675.842285,704.406738,0.051506
-161.865234,675.476074,704.406738,0.051626
-161.865234,682.067871,707.519531,0.051746
-164.611816,682.067871,707.519531,0.051866
-165.710449,684.173584,712.005615,0.051986
-165.710449,684.173584,712.005615,0.052106
-162.231445,686.187744,712.738037,0.052226
-162.231445,686.187744,709.167480,0.052346
-168.914795,680.145264,709.167480,0.052465
-145.477295,685.272217,703.125000,0.052586
-160.858154,685.272217,703.125000,0.052705
-158.294678,683.715820,708.801270,0.052827
-158.294678,683.715820,713.012695,0.052947
-163.055420,680.969238,713.012695,0.053067
-163.055420,678.497314,708.343506,0.053187
-158.294678,678.497314,708.343506,0.053306
-158.020020,672.454834,709.075928,0.053426
-158.020020,672.454834,711.456299,0.053546
-163.238525,680.419922,711.456299,0.053666
-163.238525,676.574707,706.420898,0.053787
-163.146973,676.574707,706.420898,0.053906
-160.675049,684.814453,714.935303,0.054027
-160.675049,684.814453,707.427979,0.054147
-164.886475,683.807373,707.427979,0.054267
-164.886475,684.539795,702.209473,0.054387
-165.527344,684.539795,702.209473,0.054507
-171.020508,676.757812,699.371338,0.054626
-171.020508,676.757812,722.808838,0.054746
-171.295166,676.300049,709.350586,0.054866
-171.295166,676.300049,713.104248,0.054986
-165.710449,678.039551,713.104248,0.055106
-158.569336,678.955078,707.977295,0.055226
-158.569336,678.955078,707.977295,0.055346
-163.238525,673.553467,707.244873,0.055466
-163.238525,673.553467,707.336426,0.055586
-166.442871,678.680420,707.336426,0.055706
-143.005371,680.877686,710.906982,0.055826
-161.865234,680.877686,710.906982,0.055946
-162.963867,684.356689,707.794189,0.056066
-162.963867,684.356689,704.772949,0.056186
-163.879395,672.088623,704.772949,0.056306
-187.316895,671.997070,706.787109,0.056426
-166.900635,671.997070,706.787109,0.056545
-166.900635,677.856445,704.956055,0.056665
-166.900635,677.856445,701.202393,0.056785
-165.985107,676.940918,701.202393,0.056905
-165.985107,679.870605,714.202881,0.057025
-161.041260,679.870605,714.202881,0.057144
-163.513184,683.807373,707.427979,0.057264
-163.513184,683.807373,712.646484,0.057418
-168.914795,682.708740,712.646484,0.057538
-168.914795,682.617188,707.519531,0.057658
-164.154053,682.617188,707.519531,0.057778
-165.618896,675.292969,711.273193,0.057898
-165.618896,675.292969,713.653564,0.058018
-162.780762,682.708740,713.653564,0.058138
-162.780762,681.335449,715.759277,0.058258
-168.273926,681.335449,715.759277,0.058378
-165.161133,682.434082,707.519531,0.058498
-165.161133,682.434082,707.519531,0.058618
-166.717529,682.434082,704.772949,0.058738
-166.717529,658.996582,709.991455,0.058858
-163.787842,670.623779,709.991455,0.058977
-170.745850,673.736572,707.794189,0.059098
-170.745850,673.736572,707.794189,0.059217
-165.069580,683.166504,715.850830,0.059347
-165.069580,683.166504,711.547852,0.059467
-163.604736,685.455322,711.547852,0.059587
-187.042236,684.631348,713.836670,0.059707
-164.703369,684.631348,713.836670,0.059827
-160.125732,683.807373,714.569092,0.059947
-160.125732,683.807373,719.696045,0.060067
-163.970947,686.553955,719.696045,0.060187
-163.970947,682.800293,713.012695,0.060306
-162.597656,682.800293,713.012695,0.060426
-162.322998,683.715820,709.716797,0.060546
-162.322998,683.715820,706.695557,0.060666
-160.583496,683.166504,706.695557,0.060786
-160.583496,680.511475,708.526611,0.060905
-157.745361,680.511475,708.526611,0.061025
-162.414551,669.067383,707.244873,0.061145
-162.414551,669.067383,709.991455,0.061265
-172.027588,671.813965,709.991455,0.061385
-172.027588,674.011230,712.829590,0.061504
-167.907715,674.011230,712.829590,0.061624
-166.717529,677.947998,709.350586,0.061744
-166.717529,677.947998,709.350586,0.061864
-157.653809,676.208496,720.336914,0.061985
-157.653809,676.208496,710.906982,0.062105
-159.759521,677.947998,710.906982,0.062225
-159.759521,680.877686,711.822510,0.062345
-158.660889,680.877686,711.822510,0.062465
-160.491943,684.173584,707.427979,0.062585
-160.491943,684.173584,701.202393,0.062705
-165.802002,680.786133,701.202393,0.062825
-165.802002,680.511475,710.266113,0.062945
-167.175293,680.511475,710.266113,0.063065
-171.020508,672.180176,704.772949,0.063184
-171.020508,672.180176,703.948975,0.063305
-167.816162,678.131104,703.948975,0.063425
-167.816162,675.933838,702.301025,0.063545
-171.020508,675.933838,702.301025,0.063665
-167.358398,684.906006,711.273193,0.063784
-167.358398,684.906006,700.195312,0.063895
-169.372559,675.201416,700.195312,0.064006
-169.372559,679.412842,710.906982,0.064154
-162.322998,681.335449,707.519531,0.064269
-163.604736,681.335449,707.519531,0.064381
-164.703369,680.786133,715.301514,0.064492
-141.265869,677.947998,705.322266,0.064627
-163.787842,677.947998,705.322266,0.064752
-159.942627,675.750732,711.639404,0.064874
-159.942627,675.750732,705.322266,0.064996
-163.787842,672.729492,705.322266,0.065117
-163.787842,673.736572,709.167480,0.065238
-163.238525,673.736572,709.167480,0.065360
-164.337158,683.624268,710.815430,0.065481
-164.337158,683.624268,707.153320,0.065602
-163.330078,680.419922,707.153320,0.065723
-163.330078,677.398682,715.393066,0.065845
-164.520264,677.398682,715.393066,0.065966
-171.752930,676.940918,707.336426,0.066088
-171.752930,676.940918,709.625244,0.066209
-161.956787,681.701660,709.625244,0.066331
-161.956787,683.166504,707.427979,0.066452
-163.421631,683.166504,707.427979,0.066573
-164.794922,675.750732,692.504883,0.066694
-164.794922,675.750732,692.504883,0.066816
-167.724609,674.835205,699.737549,0.066937
-167.724609,674.835205,714.752197,0.067059
-167.724609,677.032471,714.752197,0.067174
-169.372559,675.292969,701.660156,0.067286
-169.372559,675.292969,701.660156,0.067397
-171.295166,676.666260,706.787109,0.067508
-171.295166,676.666260,713.470459,0.067619
-173.034668,680.877686,713.470459,0.067731
-173.034668,679.321289,708.526611,0.067842
-169.555664,679.321289,708.526611,0.067953
-166.076660,678.955078,712.371826,0.068065
-166.076660,678.955078,712.371826,0.068176
-165.161133,671.356201,713.745117,0.068287
-165.161133,671.356201,712.463379,0.068402
-163.330078,672.912598,712.463379,0.068524
-163.330078,679.779053,707.153320,0.068645
-154.907227,679.779053,707.153320,0.068767
-167.358398,675.201416,710.174561,0.068953
-167.358398,673.919678,705.505371,0.069075
-164.520264,673.919678,705.505371,0.069196
-160.766602,673.095703,708.251953,0.069317
-160.766602,673.095703,708.251953,0.069438
-165.985107,675.567627,708.984375,0.069559
-165.985107,699.005127,710.357666,0.069681
-168.548584,681.060791,710.357666,0.069802
-167.541504,685.455322,704.589844,0.069923
-167.541504,685.455322,681.152344,0.070044
-164.154053,685.089111,702.392578,0.070165
-164.154053,661.651611,711.547852,0.070287
-167.449951,677.307129,711.547852,0.070408
-167.449951,685.546875,707.702637,0.070529
-168.548584,685.546875,707.702637,0.070650
-165.893555,682.708740,712.097168,0.070772
-165.893555,682.708740,717.498779,0.070893
-165.252686,686.553955,717.498779,0.071014
-165.252686,679.595947,707.153320,0.071136
-166.442871,679.595947,707.153320,0.071257
-166.351318,678.405762,711.639404,0.071378
-166.351318,678.405762,704.132080,0.071499
-159.118652,682.983398,704.132080,0.071620
-159.118652,678.222656,715.484619,0.071741
-164.337158,678.222656,715.484619,0.071862
-159.393311,678.588867,704.956055,0.071984
-159.393311,678.588867,701.751709,0.072105
-156.280518,684.631348,701.751709,0.072226
-156.280518,682.708740,708.801270,0.072360
-161.590576,682.708740,708.801270,0.072472
-167.999268,681.610107,712.646484,0.072583
-167.999268,681.610107,712.646484,0.072694
-173.034668,680.053711,708.984375,0.072806
-173.034668,656.616211,707.061768,0.072917
-167.266846,675.842285,707.061768,0.073028
-167.266846,676.208496,709.808350,0.073139
-166.259766,676.208496,709.808350,0.073251
-166.900635,677.215576,714.294434,0.073361
-166.900635,677.215576,701.751709,0.073473
-166.625977,684.173584,701.751709,0.073585
-143.188477,683.807373,710.083008,0.073729
-159.942627,683.807373,710.083008,0.073850
-162.048340,675.292969,711.090088,0.073970
-162.048340,675.292969,703.399658,0.074089
-166.534424,680.328369,703.399658,0.074209
-166.534424,681.610107,702.758789,0.074329
-171.844482,681.610107,702.758789,0.074449
-165.527344,688.385010,708.251953,0.074569
-165.527344,688.385010,698.822021,0.074689
-162.872314,678.863525,698.822021,0.074809
-162.872314,679.229736,711.090088,0.074929
-161.773682,679.229736,711.090088,0.075049
-166.168213,673.553467,705.780029,0.075169
-166.168213,673.553467,705.780029,0.075289
-164.337158,681.793213,705.596924,0.075408
-164.337158,658.355713,696.624756,0.075528
-168.823242,677.764893,696.624756,0.075648
-166.625977,676.666260,703.582764,0.075768
-166.625977,676.666260,680.145264,0.075887
-166.717529,686.004639,702.850342,0.076007
-166.717529,662.567139,705.047607,0.076127
-170.013428,679.321289,705.047607,0.076258
-170.013428,686.737061,702.758789,0.076379
-169.281006,686.737061,702.758789,0.076499
-165.069580,685.272217,705.780029,0.076619
-165.069580,661.834717,705.596924,0.076739
-167.266846,675.292969,705.596924,0.076859
-167.266846,679.779053,703.216553,0.076979
-165.069580,679.779053,703.216553,0.077099
-171.295166,676.391602,701.568604,0.077219
-171.295166,676.391602,708.892822,0.077339
-169.281006,675.201416,708.892822,0.077458
-169.281006,678.955078,707.794189,0.077579
-168.365479,678.955078,707.794189,0.077699
-167.633057,684.173584,701.934814,0.077818
-167.633057,684.173584,702.667236,0.077939
-162.231445,675.567627,702.667236,0.078059
-162.231445,676.208496,701.934814,0.078179
-166.625977,676.208496,701.934814,0.078299
-161.224365,675.109863,705.505371,0.078419
-161.224365,675.109863,705.505371,0.078538
-157.287598,678.680420,706.146240,0.078658
-157.287598,678.680420,700.927734,0.078778
-158.843994,678.314209,700.927734,0.078899
-157.012939,682.342529,702.026367,0.079019
-157.012939,682.342529,702.026367,0.079139
-159.667969,680.419922,702.301025,0.079259
-159.667969,680.419922,708.709717,0.079379
-159.027100,685.089111,708.709717,0.079499
-182.464600,682.067871,708.526611,0.079619
-165.161133,682.067871,708.526611,0.079739
-165.618896,681.518555,707.794189,0.079859
-165.618896,681.518555,717.224121,0.079979
-160.949707,686.096191,717.224121,0.080099
-184.387207,669.616699,699.920654,0.080219
-166.900635,669.616699,699.920654,0.080381
-167.633057,679.046631,708.251953,0.080505
-167.633057,702.484131,707.611084,0.080627
-168.731689,683.349609,707.611084,0.080747
-168.731689,684.997559,704.681396,0.080867
-170.013428,684.997559,704.681396,0.080987
-167.633057,679.504395,703.582764,0.081107
-167.633057,679.504395,702.026367,0.081227
-166.534424,677.124023,702.026367,0.081346
-166.534424,674.468994,698.181152,0.081467
-167.358398,674.468994,698.181152,0.081587
-169.830322,665.039062,702.301025,0.081708
-169.830322,665.039062,701.751709,0.081828
-172.210693,677.856445,701.751709,0.081947
-172.210693,673.736572,703.582764,0.082067
-164.520264,673.736572,703.582764,0.082181
-162.414551,677.856445,715.118408,0.082292
-162.414551,677.856445,715.118408,0.082404
-163.330078,680.053711,705.780029,0.082516
-163.330078,680.053711,707.519531,0.082627
-164.703369,681.152344,707.519531,0.082738
-164.703369,680.969238,706.329346,0.082856
-168.914795,680.969238,706.329346,0.082977
-163.421631,671.997070,706.054688,0.083097
-163.421631,671.997070,705.688477,0.083248
-166.992188,700.195312,706.878662,0.083372
-166.900635,683.715820,706.878662,0.083493
-143.463135,680.328369,708.435059,0.083614
-163.330078,680.328369,708.435059,0.083736
-164.154053,681.701660,709.899902,0.083856
-164.154053,681.701660,711.639404,0.083977
-162.597656,680.694580,711.639404,0.084110
-186.035156,678.680420,705.963135,0.084271
-165.344238,680.786133,710.998535,0.084395
-170.379639,680.786133,710.998535,0.084515
-168.914795,679.595947,708.068848,0.084635
-168.914795,679.595947,713.287354,0.084755
-166.442871,680.786133,713.287354,0.084875
-166.442871,677.490234,709.808350,0.084995
-163.330078,677.490234,709.808350,0.085115
-166.900635,678.955078,712.371826,0.085234
-166.900635,678.955078,712.829590,0.085355
-166.351318,669.891357,712.829590,0.085475
-166.351318,680.145264,704.132080,0.085594
-166.809082,680.145264,704.132080,0.085715
-166.992188,680.969238,704.315186,0.085834
-166.992188,680.969238,704.315186,0.085954
-163.696289,680.236816,710.632324,0.086074
-163.696289,680.236816,711.730957,0.086194
-160.766602,690.124512,711.730957,0.086314
-165.069580,681.610107,705.596924,0.086434
-165.069580,681.610107,705.596924,0.086554
-159.027100,685.546875,708.892822,0.086685
-159.027100,685.546875,704.498291,0.086806
-163.330078,684.173584,704.498291,0.086926
-186.767578,688.293457,711.547852,0.087046
-164.520264,688.293457,711.547852,0.087166
-160.675049,677.215576,706.604004,0.087286
-160.675049,677.215576,703.033447,0.087406
-163.970947,677.947998,703.033447,0.087526
-163.970947,684.265137,709.533691,0.087645
-163.879395,684.265137,709.533691,0.087765
-162.048340,683.349609,709.167480,0.087885
-162.048340,683.349609,703.491211,0.088002
-167.724609,682.708740,703.491211,0.088114
-167.724609,684.997559,711.181641,0.088225
-166.442871,684.997559,711.181641,0.088336
-160.675049,684.173584,712.829590,0.088458
-167.083740,677.307129,708.618164,0.088584
-167.083740,677.307129,707.702637,0.088704
-165.802002,675.292969,707.702637,0.088817
-165.802002,686.462402,709.259033,0.088928
-169.555664,686.462402,709.259033,0.089040
-161.682129,687.194824,719.970703,0.089153
-185.119629,685.821533,710.083008,0.089305
-170.104980,685.821533,707.336426,0.089428
-165.527344,684.448242,707.336426,0.089549
-165.527344,687.927246,721.984863,0.089671
-169.921875,687.927246,721.984863,0.089792
-165.161133,681.152344,710.266113,0.089913
-165.161133,681.152344,710.174561,0.090035
-166.168213,683.532715,710.174561,0.090157
-166.168213,692.413330,709.716797,0.090321
-159.027100,681.243896,698.089600,0.090444
-162.414551,681.243896,698.089600,0.090565
-163.055420,678.955078,707.061768,0.090687
-163.055420,678.955078,703.308105,0.090809
-161.315918,675.842285,703.308105,0.090930
-161.315918,676.483154,706.604004,0.091052
-157.287598,676.483154,706.604004,0.091173
-162.506104,663.208008,710.083008,0.091294
-162.506104,663.208008,710.083008,0.091416
-167.266846,671.173096,707.153320,0.091537
-167.266846,694.610596,704.772949,0.091659
-166.076660,684.906006,704.772949,0.091780
-170.928955,679.504395,703.125000,0.091977
-170.928955,679.504395,712.371826,0.092099
-170.562744,683.074951,712.371826,0.092220
-147.125244,675.384521,708.160400,0.092342
-163.879395,675.384521,708.160400,0.092463
-158.203125,681.060791,711.639404,0.092585
-158.203125,681.060791,709.716797,0.092706
-165.161133,676.849365,709.716797,0.092828
-165.161133,673.095703,705.688477,0.092949
-169.921875,673.095703,705.688477,0.093069
-170.104980,676.025391,707.427979,0.093181
-170.104980,676.025391,707.427979,0.093292
-164.978027,680.145264,705.413818,0.093403
-164.978027,656.707764,705.139160,0.093515
-166.534424,679.412842,705.139160,0.093626
-166.534424,677.215576,701.568604,0.093737
-166.442871,677.215576,701.568604,0.093849
-167.633057,679.321289,710.540771,0.093960
-167.633057,679.321289,707.885742,0.094071
-168.731689,679.229736,707.885742,0.094183
-168.731689,685.455322,714.385986,0.094294
-160.766602,685.455322,714.385986,0.094437
-157.928467,688.751221,705.871582,0.094558
-157.928467,688.751221,705.322266,0.094680
-158.935547,683.990479,705.322266,0.094801
-158.935547,680.786133,712.463379,0.094922
-161.132812,680.786133,712.463379,0.095043
-163.513184,682.067871,713.745117,0.095165
-163.513184,682.067871,713.745117,0.095286
-160.858154,685.272217,710.174561,0.095407
-160.858154,685.272217,703.125000,0.095529
-160.949707,689.666748,703.125000,0.095650
-157.104492,686.828613,706.054688,0.095771
-157.104492,686.828613,706.054688,0.095893
-159.210205,684.082031,710.174561,0.096013
-159.210205,660.644531,707.427979,0.096134
-162.506104,677.581787,707.427979,0.096256
-162.506104,676.757812,711.730957,0.096377
-162.322998,676.757812,711.730957,0.096498
-166.351318,679.412842,709.350586,0.096620
-166.351318,702.850342,706.878662,0.096741
-167.541504,681.335449,706.878662,0.096862
-167.541504,679.595947,710.266113,0.096996
-164.337158,679.595947,710.266113,0.097118
-165.161133,676.025391,712.005615,0.097239
-165.161133,699.462891,711.273193,0.097360
-168.273926,681.335449,711.273193,0.097482
-144.836426,682.708740,706.054688,0.097603
-161.041260,682.708740,706.054688,0.097725
-156.555176,685.638428,707.885742,0.097846
-156.555176,685.638428,710.632324,0.097968
-158.203125,687.469482,710.632324,0.098089
-158.203125,681.701660,703.125000,0.098211
-158.020020,681.701660,703.125000,0.098338
-159.576416,672.454834,703.674316,0.098449
-159.576416,672.454834,707.611084,0.098560
-165.435791,674.102783,707.611084,0.098672
-165.435791,675.292969,706.329346,0.098783
-158.752441,675.292969,706.329346,0.098894
-158.752441,680.969238,701.293945,0.099005
-161.865234,680.969238,701.293945,0.099116
-161.956787,678.771973,700.836182,0.099227
-161.956787,678.771973,707.702637,0.099339
-162.231445,684.539795,707.702637,0.099450
-162.231445,680.511475,702.758789,0.099561
-167.358398,680.511475,702.758789,0.099678
-163.055420,676.940918,705.413818,0.099789
-163.055420,676.940918,705.413818,0.099901
-164.337158,682.342529,708.251953,0.100013
-164.337158,658.905029,708.709717,0.100124
-167.083740,674.468994,708.709717,0.100235
-167.083740,672.637939,700.653076,0.100346
-164.703369,672.637939,700.653076,0.100458
-166.534424,678.955078,711.914062,0.100570
-166.534424,678.955078,709.533691,0.100681
-161.682129,676.391602,709.533691,0.100794
-161.682129,682.434082,706.146240,0.100916
-163.330078,682.434082,706.146240,0.101037
-164.062500,680.328369,706.787109,0.101158
-164.062500,680.328369,706.787109,0.101279
-169.555664,681.976318,710.083008,0.101400
-169.555664,681.976318,699.005127,0.101521
-169.738770,679.962158,699.005127,0.101642
-162.322998,679.962158,708.251953,0.101764
-162.322998,679.962158,708.251953,0.101885
-159.851074,689.117432,710.449219,0.102006
-159.851074,689.117432,715.301514,0.102128
-164.062500,690.948486,715.301514,0.102249
-187.500000,681.793213,713.470459,0.102371
-169.921875,681.793213,713.470459,0.102492
-165.435791,680.145264,713.195801,0.102613
-165.435791,680.145264,714.935303,0.102735
-164.978027,683.349609,714.935303,0.102856
-164.978027,675.018311,709.350586,0.102977
-166.717529,675.018311,709.350586,0.103098
-171.661377,681.152344,705.413818,0.103253
-171.661377,681.152344,703.857422,0.103375
-163.604736,685.729980,703.857422,0.103507
-187.042236,680.511475,702.026367,0.103629
-166.259766,680.511475,702.026367,0.103750
-168.457031,672.821045,700.378418,0.103872
-168.457031,672.821045,697.174072,0.103993
-167.358398,673.095703,697.174072,0.104114
-143.920898,679.504395,708.984375,0.104235
-157.104492,679.504395,708.984375,0.104356
-162.872314,679.687500,709.259033,0.104478
-162.872314,679.687500,707.153320,0.104599
-163.330078,676.849365,707.153320,0.104720
-163.330078,676.757812,712.371826,0.104852
-159.851074,676.757812,712.371826,0.105013
-165.802002,677.490234,709.625244,0.105163
-160.217285,680.786133,709.625244,0.105289
-161.773682,683.898926,712.463379,0.105411
-161.773682,683.898926,689.025879,0.105533
-167.724609,674.194336,701.660156,0.105654
-167.724609,697.631836,709.442139,0.105775
-169.555664,680.419922,709.442139,0.105922
-174.774170,669.158936,704.406738,0.106049
-174.774170,669.158936,680.969238,0.106170
-169.647217,669.433594,697.540283,0.106292
-169.647217,678.771973,706.878662,0.106413
-159.210205,678.771973,706.878662,0.106534
-165.527344,679.138184,712.829590,0.106655
-165.527344,679.138184,712.829590,0.106776
-166.168213,679.779053,705.688477,0.106897
-166.168213,656.341553,704.864502,0.107018
-161.499023,676.666260,704.864502,0.107139
-184.936523,682.067871,718.963623,0.107261
-167.541504,682.067871,718.963623,0.107382
-171.478271,680.694580,706.512451,0.107503
-171.478271,657.257080,714.843750,0.107624
-169.464111,678.222656,714.843750,0.107745
-146.026611,677.581787,716.674805,0.107866
-160.766602,677.581787,716.674805,0.107987
-164.428711,680.328369,712.097168,0.108108
-164.428711,680.328369,713.653564,0.108229
-162.597656,681.518555,713.653564,0.108351
-186.035156,682.708740,709.259033,0.108472
-169.555664,682.708740,709.259033,0.108585
-164.428711,680.603027,707.153320,0.108696
-164.428711,680.603027,707.153320,0.108807
-167.541504,670.715332,710.174561,0.108918
-167.541504,670.715332,710.632324,0.109043
-176.696777,677.124023,710.632324,0.109166
-166.992188,676.116943,710.632324,0.109287
-166.992188,681.335449,705.780029,0.109408
-165.985107,681.335449,705.780029,0.109529
-163.421631,679.321289,702.850342,0.109650
-163.421631,679.321289,707.611084,0.109772
-164.062500,674.743652,707.611084,0.109893
-164.062500,679.962158,708.892822,0.110014
-158.660889,679.962158,708.892822,0.110135
-159.667969,691.864014,704.223633,0.110256
-159.667969,691.864014,702.575684,0.110377
-165.069580,682.891846,702.575684,0.110498
-165.069580,691.589355,708.984375,0.110620
-168.457031,691.589355,708.984375,0.110741
-168.914795,687.561035,712.097168,0.110862
-168.914795,687.561035,699.188232,0.110983
-163.055420,682.617188,699.188232,0.111116
-163.055420,681.793213,704.315186,0.111237
-163.970947,681.793213,704.315186,0.111358
-165.802002,682.800293,705.871582,0.111479
-165.802002,682.800293,708.618164,0.111599
-155.639648,684.906006,708.618164,0.111721
-155.639648,673.461914,702.575684,0.111841
-167.816162,673.461914,702.575684,0.111962
-167.541504,679.412842,709.625244,0.112083
-167.541504,679.412842,709.625244,0.112204
-164.886475,677.764893,707.427979,0.112325
-164.886475,680.053711,714.935303,0.112449
-164.245605,680.053711,714.935303,0.112560
-164.245605,677.673340,705.871582,0.112671
-166.625977,677.673340,705.871582,0.112783
-167.907715,680.694580,702.850342,0.112894
-167.907715,680.694580,707.061768,0.113005
-164.337158,678.039551,707.061768,0.113116
-164.337158,681.518555,708.618164,0.113227
-163.787842,681.518555,708.618164,0.113338
-164.520264,681.427002,702.667236,0.113449
-164.520264,681.427002,726.104736,0.113560
-168.457031,675.567627,706.329346,0.113675
-168.457031,699.005127,706.512451,0.113796
-166.992188,680.145264,706.512451,0.113917
-166.992188,679.321289,709.533691,0.114039
-164.154053,679.321289,709.533691,0.114160
-163.879395,681.884766,713.562012,0.114281
-163.879395,658.447266,708.526611,0.114402
-165.527344,677.124023,708.526611,0.114523
-165.527344,676.391602,703.308105,0.114644
-165.802002,676.391602,703.308105,0.114765
-155.639648,679.138184,709.533691,0.114968
-155.639648,673.095703,707.611084,0.115097
-163.146973,673.095703,707.611084,0.115219
-168.182373,678.222656,716.033936,0.115340
-168.182373,678.222656,716.033936,0.115465
-169.464111,683.715820,713.104248,0.115635
-169.281006,682.159424,713.104248,0.115760
-167.083740,690.765381,711.547852,0.115881
-167.083740,690.765381,706.146240,0.116003
-174.957275,689.483643,706.146240,0.116124
-174.957275,686.553955,698.272705,0.116265
-168.365479,686.553955,698.272705,0.116387
-161.315918,681.060791,705.322266,0.116508
-161.315918,681.060791,710.906982,0.116629
-163.604736,676.483154,710.906982,0.116750
-163.604736,679.412842,714.294434,0.116871
-170.562744,679.412842,714.294434,0.116992
-164.062500,682.067871,711.364746,0.117114
-164.062500,682.067871,711.730957,0.117235
-170.654297,676.208496,711.730957,0.117356
-170.654297,678.405762,711.364746,0.117477
-165.527344,678.405762,711.364746,0.117598
-167.449951,679.870605,709.259033,0.117719
-167.449951,679.870605,709.259033,0.117840
-164.978027,673.828125,709.625244,0.117961
-164.978027,675.109863,707.702637,0.118077
-158.752441,675.109863,707.702637,0.118189
-158.203125,689.392090,711.364746,0.118300
-158.203125,689.392090,711.364746,0.118411
-156.921387,678.405762,708.160400,0.118523
-156.921387,678.405762,703.491211,0.118634
-166.168213,672.637939,703.491211,0.118745
-166.168213,681.335449,708.526611,0.118857
-166.534424,681.335449,708.526611,0.118969
-166.534424,682.708740,706.146240,0.119079
-166.534424,682.708740,706.146240,0.119191
-166.900635,680.603027,707.061768,0.119302
-166.900635,657.165527,709.625244,0.119413
-165.527344,675.384521,709.625244,0.119524
-165.527344,684.722900,714.385986,0.119635
-166.442871,684.722900,714.385986,0.119746
-168.273926,672.088623,708.251953,0.119858
-168.273926,672.088623,684.814453,0.119969
-163.238525,676.666260,700.836182,0.120093
-163.238525,679.229736,706.878662,0.120215
-163.330078,679.229736,706.878662,0.120335
-156.646729,683.715820,712.646484,0.120456
-156.646729,683.715820,712.646484,0.120576
-164.154053,688.568115,710.449219,0.120696
-164.154053,688.568115,709.167480,0.120817
-164.062500,683.624268,709.167480,0.120937
-159.851074,679.687500,706.970215,0.121057
-159.851074,679.687500,706.970215,0.121178
-158.203125,681.701660,708.343506,0.121298
-158.203125,681.701660,702.117920,0.121428
-162.597656,681.884766,702.117920,0.121550
-162.597656,682.067871,706.420898,0.121671
-161.956787,682.067871,706.420898,0.121792
-166.259766,685.455322,707.702637,0.121916
-166.259766,662.017822,698.089600,0.122037
-167.358398,674.652100,698.089600,0.122158
-143.920898,680.053711,714.111328,0.122279
-162.689209,680.053711,714.111328,0.122400
-162.231445,681.152344,713.378906,0.122522
-162.231445,681.152344,708.801270,0.122643
-160.125732,679.779053,708.801270,0.122773
-183.563232,673.461914,702.758789,0.122894
-167.724609,673.461914,702.758789,0.123016
-166.809082,676.849365,709.899902,0.123136
-166.809082,676.849365,712.829590,0.123258
-166.992188,673.461914,712.829590,0.123379
-166.992188,675.659180,704.406738,0.123500
-167.358398,675.659180,704.406738,0.123621
-162.139893,677.490234,704.864502,0.123741
-162.139893,677.490234,702.301025,0.123863
-164.062500,676.483154,702.301025,0.123984
-164.062500,678.497314,701.019287,0.124119
-164.520264,678.314209,705.596924,0.124242
-162.780762,678.314209,705.596924,0.124363
-165.527344,686.920166,706.146240,0.124484
-165.527344,686.920166,706.146240,0.124605
-160.308838,682.617188,712.097168,0.124726
-160.308838,683.074951,701.934814,0.124848
-159.576416,683.074951,701.934814,0.124969
-163.055420,686.279297,705.322266,0.125090
-163.055420,686.279297,681.884766,0.125211
-161.132812,681.335449,702.301025,0.125333
-161.132812,681.335449,711.090088,0.125454
-160.858154,686.920166,711.090088,0.125575
-161.865234,678.497314,708.892822,0.125697
-161.865234,678.497314,708.892822,0.125818
-160.583496,680.786133,710.083008,0.125939
-160.583496,680.786133,712.829590,0.126059
-161.865234,679.779053,712.829590,0.126180
-161.865234,679.046631,706.512451,0.126302
-162.963867,679.046631,704.040527,0.126511
-155.364990,674.743652,704.040527,0.126633
-155.364990,681.610107,712.097168,0.126766
-164.978027,681.610107,712.097168,0.126887
-168.365479,678.314209,708.435059,0.127008
-168.365479,678.314209,704.681396,0.127129
-165.527344,675.842285,704.681396,0.127250
-165.527344,680.603027,708.160400,0.127371
-166.442871,680.603027,708.160400,0.127492
-160.400391,682.617188,708.068848,0.127613
-160.400391,682.617188,684.631348,0.127733
-163.970947,678.131104,702.026367,0.127854
-163.970947,701.568604,707.427979,0.127975
-162.597656,684.814453,707.427979,0.128091
-167.541504,679.229736,701.202393,0.128202
-167.541504,679.229736,701.202393,0.128313
-163.604736,681.243896,707.611084,0.128424
-163.604736,681.243896,711.730957,0.128535
-159.027100,681.518555,711.730957,0.128646
-159.027100,674.926758,707.153320,0.128757
-160.583496,674.926758,707.153320,0.128868
-168.914795,671.630859,711.364746,0.128979
-168.914795,671.630859,711.364746,0.129090
-163.421631,685.913086,718.231201,0.129201
-163.421631,685.913086,714.660645,0.129315
-153.533936,679.962158,714.660645,0.129437
-153.533936,681.060791,710.083008,0.129557
-157.287598,681.060791,710.083008,0.129678
-166.259766,678.222656,710.815430,0.129799
-166.259766,678.222656,707.244873,0.129920
-169.189453,676.483154,707.244873,0.130040
-169.189453,682.800293,714.202881,0.130162
-166.809082,682.800293,714.202881,0.130282
-163.696289,680.511475,709.625244,0.130403
-163.696289,680.511475,708.984375,0.130524
-168.457031,672.088623,708.984375,0.130646
-168.457031,682.708740,704.864502,0.130767
-164.611816,682.708740,704.864502,0.130888
-162.048340,678.222656,708.801270,0.131009
-162.048340,678.222656,704.498291,0.131130
-165.069580,679.870605,704.498291,0.131251
-165.069580,680.969238,707.885742,0.131372
-165.161133,680.969238,707.885742,0.131493
-162.506104,673.553467,701.934814,0.131614
-162.506104,673.553467,708.709717,0.131735
-164.520264,677.398682,708.709717,0.131856
-164.520264,684.631348,712.738037,0.131989
-169.921875,684.631348,712.738037,0.132110
-160.125732,684.265137,710.815430,0.132231
-160.125732,684.265137,710.815430,0.132352
-166.809082,677.764893,707.702637,0.132473
-166.809082,680.328369,708.618164,0.132594
-171.203613,680.328369,708.618164,0.132715
-164.794922,678.039551,712.097168,0.132836
-164.794922,678.039551,688.659668,0.132957
-172.576904,678.955078,702.209473,0.133077
-172.576904,678.955078,704.498291,0.133199
-172.943115,672.821045,704.498291,0.133321
-164.978027,678.222656,706.420898,0.133432
-164.978027,678.222656,706.420898,0.133543
-166.442871,675.018311,709.167480,0.133654
-166.442871,675.018311,700.653076,0.133765
-168.273926,674.926758,700.653076,0.133876
-168.273926,674.835205,707.427979,0.133987
-172.668457,674.835205,707.427979,0.134097
-172.943115,680.786133,705.596924,0.134208
-172.943115,680.786133,705.596924,0.134319
-160.400391,685.180664,712.188721,0.134430
-160.400391,661.743164,700.103760,0.134555
-164.978027,677.032471,700.103760,0.134676
-160.858154,682.891846,703.857422,0.134797
-160.858154,682.891846,680.419922,0.134918
-169.464111,675.109863,698.913574,0.135039
-169.464111,675.109863,700.836182,0.135160
-168.273926,671.722412,700.836182,0.135281
-168.273926,669.525146,698.730469,0.135402
-169.738770,669.525146,698.730469,0.135523
-170.745850,672.912598,707.244873,0.135644
-170.745850,696.350098,705.322266,0.135764
-167.633057,683.624268,705.322266,0.135892
-144.195557,679.412842,710.266113,0.136014
-160.858154,679.412842,710.266113,0.136135
-169.281006,677.581787,712.188721,0.136254
-170.837402,679.870605,708.251953,0.136379
-170.837402,679.870605,703.491211,0.136492
-166.534424,673.919678,703.491211,0.136603
-166.534424,675.476074,702.392578,0.136713
-169.921875,675.476074,702.392578,0.136824
-167.724609,673.919678,711.639404,0.136935
-167.724609,673.919678,711.639404,0.137056
-163.696289,674.926758,711.822510,0.137177
-163.696289,698.364258,709.533691,0.137298
-166.442871,682.800293,709.533691,0.137418
-159.576416,683.990479,698.455811,0.137539
-159.576416,683.990479,721.893311,0.137660
-155.822754,688.568115,704.589844,0.137849
-155.822754,672.912598,694.702148,0.137971
-159.484863,672.912598,694.702148,0.138098
-161.499023,675.292969,694.061279,0.138220
-163.787842,684.356689,711.090088,0.138353
-163.787842,684.356689,711.090088,0.138474
-170.379639,673.461914,709.899902,0.138595
-170.379639,671.630859,705.963135,0.138715
-169.921875,671.630859,705.963135,0.138836
-167.541504,682.159424,697.448730,0.138957
-167.541504,682.159424,720.886230,0.139078
-160.766602,679.138184,703.399658,0.139198
-160.766602,679.138184,701.385498,0.139328
-169.006348,679.138184,701.385498,0.139449
-162.322998,682.891846,705.963135,0.139569
-162.322998,682.891846,705.963135,0.139700
-164.886475,683.349609,716.217041,0.139820
-164.886475,659.912109,712.097168,0.139941
-163.879395,678.131104,712.097168,0.140062
-187.316895,685.546875,707.336426,0.140182
-164.337158,685.546875,707.336426,0.140304
-161.132812,682.159424,703.491211,0.140424
-161.132812,682.159424,695.251465,0.140545
-160.583496,679.962158,695.251465,0.140666
-160.583496,679.321289,706.878662,0.140786
-163.879395,679.321289,706.878662,0.140907
-163.055420,673.461914,703.125000,0.141031
-163.055420,673.461914,707.611084,0.141142
-167.449951,673.004150,707.611084,0.141252
-167.449951,678.131104,713.562012,0.141364
-166.534424,678.131104,713.562012,0.141475
-165.710449,678.222656,706.512451,0.141585
-165.710449,678.222656,706.512451,0.141696
-168.457031,681.060791,712.554932,0.141807
-168.457031,657.623291,708.618164,0.141917
-165.710449,672.912598,708.618164,0.142029
-165.710449,678.863525,712.005615,0.142139
-165.069580,678.863525,712.005615,0.142253
-168.365479,675.750732,712.097168,0.142374
-168.365479,675.750732,710.906982,0.142495
-167.449951,677.215576,710.906982,0.142616
-167.449951,673.645020,704.223633,0.142769
-170.196533,697.082520,702.026367,0.142892
-161.315918,681.335449,702.026367,0.143012
-161.315918,675.201416,710.906982,0.143133
-163.513184,675.201416,710.906982,0.143253
-167.816162,674.468994,709.259033,0.143373
-167.816162,674.468994,705.871582,0.143495
-169.006348,673.553467,705.871582,0.143616
-169.006348,683.349609,711.914062,0.143737
-164.428711,683.349609,711.914062,0.143857
-164.337158,681.518555,695.709229,0.143978
-164.337158,681.518555,702.575684,0.144099
-165.985107,675.842285,702.575684,0.144220
-165.985107,685.821533,708.892822,0.144341
-163.696289,685.821533,708.892822,0.144462
-165.252686,685.546875,715.301514,0.144582
-165.252686,685.546875,706.787109,0.144741
-164.428711,682.342529,702.301025,0.144865
-157.928467,682.525635,702.301025,0.144987
-157.928467,684.173584,710.266113,0.145108
-165.710449,684.173584,710.266113,0.145228
-166.351318,683.807373,708.618164,0.145349
-166.351318,683.807373,708.618164,0.145470
-175.140381,683.258057,707.702637,0.145590
-175.140381,675.292969,702.575684,0.145712
-171.478271,675.292969,702.575684,0.145832
-166.900635,680.328369,705.780029,0.145953
-166.900635,680.328369,705.780029,0.146085
-167.724609,674.468994,705.322266,0.146206
-167.724609,674.468994,707.611084,0.146327
-166.534424,677.581787,707.611084,0.146448
-161.773682,674.285889,705.139160,0.146568
-161.773682,674.285889,705.139160,0.146689
-168.640137,687.835693,706.604004,0.146809
-168.640137,687.835693,704.956055,0.146930
-168.182373,685.455322,704.956055,0.147051
-168.182373,677.673340,705.047607,0.147171
-172.119141,677.673340,705.047607,0.147292
-166.625977,685.638428,706.695557,0.147422
-166.625977,685.638428,705.596924,0.147533
-162.689209,683.624268,705.596924,0.147644
-162.689209,674.468994,706.146240,0.147755
-168.090820,674.468994,706.146240,0.147866
-171.020508,677.947998,705.688477,0.147977
-171.020508,679.962158,709.259033,0.148132
-165.161133,679.962158,709.259033,0.148256
-164.154053,675.476074,705.688477,0.148378
-164.154053,675.476074,714.477539,0.148499
-162.414551,673.828125,714.477539,0.148620
-161.132812,676.757812,714.935303,0.148742
-161.132812,676.757812,714.935303,0.148863
-166.717529,678.497314,709.167480,0.148984
-166.717529,701.934814,714.202881,0.149106
-165.252686,680.969238,714.202881,0.149227
-167.449951,677.673340,712.371826,0.149418
-167.449951,677.673340,716.308594,0.149540
-161.956787,679.412842,716.308594,0.149661
-161.956787,682.800293,710.449219,0.149782
-166.259766,682.800293,710.449219,0.149903
-165.435791,680.145264,706.054688,0.150024
-165.435791,680.145264,706.054688,0.150146
-160.491943,679.229736,707.611084,0.150267
-160.491943,678.497314,701.843262,0.150388
-164.520264,678.497314,701.843262,0.150509
-163.787842,676.025391,706.695557,0.150630
-163.787842,676.025391,706.695557,0.150751
-173.675537,683.990479,705.780029,0.150872
-173.675537,683.990479,709.350586,0.150993
-166.717529,682.342529,709.350586,0.151114
-166.717529,681.884766,713.012695,0.151235
-164.886475,681.884766,713.012695,0.151356
-169.647217,671.356201,703.948975,0.151467
-169.647217,671.356201,705.139160,0.151579
-167.083740,676.666260,705.139160,0.151690
-167.083740,681.152344,707.977295,0.151801
-168.090820,681.152344,707.977295,0.151912
-163.879395,682.159424,715.026855,0.152023
-163.879395,682.159424,715.026855,0.152134
-170.104980,677.581787,708.801270,0.152246
-170.104980,677.581787,715.118408,0.152357
-168.457031,678.039551,715.118408,0.152468
-168.457031,679.321289,707.702637,0.152579
-166.717529,679.321289,707.702637,0.152699
-164.703369,680.786133,704.315186,0.152821
-164.703369,680.786133,704.223633,0.152946
-165.161133,676.483154,701.934814,0.153099
-171.386719,666.320801,701.934814,0.153222
-171.386719,678.588867,707.977295,0.153344
-164.428711,678.588867,707.977295,0.153465
-165.527344,684.173584,709.991455,0.153586
-165.527344,684.173584,709.991455,0.153707
-166.076660,681.427002,703.216553,0.153822
-166.076660,687.103271,710.357666,0.153966
-164.428711,687.103271,710.357666,0.154087
-168.365479,674.835205,702.667236,0.154208
-168.365479,674.835205,726.104736,0.154329
-170.471191,682.891846,711.639404,0.154450
-170.471191,681.060791,705.230713,0.154571
-166.809082,681.060791,705.230713,0.154692
-164.245605,678.039551,706.329346,0.154812
-164.245605,678.039551,706.329346,0.154934
-163.696289,685.180664,708.618164,0.155055
-163.696289,661.743164,704.498291,0.155176
-165.893555,678.955078,704.498291,0.155298
-170.196533,682.525635,711.822510,0.155419
-170.196533,682.525635,711.822510,0.155541
-168.090820,678.955078,706.146240,0.155662
-168.090820,678.955078,709.167480,0.155783
-164.794922,671.722412,709.167480,0.155904
-141.357422,683.258057,704.223633,0.156025
-162.231445,683.258057,704.223633,0.156146
-161.132812,682.891846,715.209961,0.156268
-161.132812,659.454346,709.808350,0.156389
-164.520264,671.356201,709.808350,0.156511
-164.520264,679.321289,712.188721,0.156634
-164.703369,679.321289,712.188721,0.156746
-168.457031,682.891846,719.421387,0.156857
-168.457031,682.891846,714.202881,0.156969
-168.640137,678.955078,714.202881,0.157080
-168.640137,677.398682,708.526611,0.157191
-164.154053,677.398682,708.526611,0.157302
-166.992188,674.377441,702.758789,0.157413
-166.992188,674.377441,702.758789,0.157524
-161.590576,686.462402,717.224121,0.157636
-161.590576,686.004639,710.266113,0.157779
-164.520264,686.004639,710.357666,0.157903
-170.288086,680.328369,710.357666,0.158024
-170.288086,676.574707,707.794189,0.158145
-167.449951,676.574707,707.794189,0.158266
-167.907715,680.053711,710.083008,0.158388
-167.907715,680.053711,710.083008,0.158509
-164.611816,682.983398,705.139160,0.158631
-164.611816,682.983398,708.526611,0.158752
-166.442871,680.053711,708.526611,0.158873
-162.963867,678.588867,711.639404,0.158995
-162.963867,678.588867,711.639404,0.159117
-168.182373,673.736572,707.244873,0.159238
-168.182373,673.736572,707.885742,0.159359
-167.175293,678.680420,707.885742,0.159480
-143.737793,679.962158,710.906982,0.159601
-161.132812,679.962158,710.906982,0.159722
-157.653809,678.405762,707.611084,0.159843
-157.653809,701.843262,713.287354,0.159964
-168.457031,681.335449,713.287354,0.160086
-168.457031,679.962158,710.906982,0.160207
-166.076660,679.962158,710.906982,0.160327
-170.104980,676.025391,708.160400,0.160443
-170.104980,676.025391,708.801270,0.160554
-167.266846,679.779053,708.801270,0.160665
-167.266846,680.694580,714.752197,0.160776
-163.787842,680.694580,714.752197,0.160954
-163.330078,677.673340,701.385498,0.161065
-163.330078,677.673340,708.984375,0.161176
-165.161133,676.208496,708.984375,0.161287
-165.161133,680.328369,711.730957,0.161398
-172.576904,680.328369,711.730957,0.161509
-169.647217,674.377441,699.645996,0.161623
-169.647217,674.377441,723.083496,0.161739
-167.724609,672.180176,704.589844,0.161860
-167.724609,695.617676,709.625244,0.161981
-164.337158,683.166504,709.625244,0.162102
-164.428711,681.976318,708.709717,0.162223
-164.428711,681.976318,708.709717,0.162343
-163.604736,682.250977,706.146240,0.162464
-163.604736,658.813477,708.618164,0.162585
-165.344238,677.947998,708.618164,0.162706
-165.344238,682.434082,710.723877,0.162827
-169.372559,682.434082,710.723877,0.162948
-165.161133,684.448242,707.153320,0.163069
-165.161133,661.010742,706.970215,0.163205
-154.724121,678.497314,706.146240,0.163328
-161.865234,680.969238,706.146240,0.163449
-161.865234,680.603027,708.343506,0.163570
-168.090820,680.603027,708.343506,0.163691
-157.928467,684.906006,712.005615,0.163812
-157.928467,684.906006,710.266113,0.163933
-161.682129,674.468994,710.266113,0.164054
-161.682129,670.440674,709.350586,0.164175
-162.231445,670.440674,709.350586,0.164296
-163.970947,674.285889,715.942383,0.164417
-163.970947,674.285889,715.942383,0.164538
-164.062500,672.088623,718.139648,0.164659
-164.062500,695.526123,710.449219,0.164780
-164.428711,684.906006,710.449219,0.164901
-169.738770,681.610107,706.787109,0.165021
-169.738770,681.610107,706.787109,0.165142
-165.618896,685.913086,703.857422,0.165263
-165.618896,685.913086,706.695557,0.165384
-164.428711,686.828613,706.695557,0.165505
-164.428711,682.891846,703.125000,0.165640
-164.154053,682.891846,679.687500,0.165761
-162.780762,677.764893,701.660156,0.165882
-162.780762,677.764893,702.575684,0.166003
-167.083740,673.370361,702.575684,0.166124
-143.646240,676.391602,707.244873,0.166245
-164.062500,676.391602,707.244873,0.166366
-171.295166,682.434082,703.399658,0.166488
-171.295166,658.996582,703.857422,0.166609
-169.372559,676.483154,703.857422,0.166730
-169.372559,680.603027,708.618164,0.166851
-166.076660,680.603027,708.618164,0.166974
-164.337158,680.969238,706.512451,0.167085
-164.337158,680.969238,706.604004,0.167197
-159.484863,675.842285,706.604004,0.167307
-159.484863,680.419922,715.484619,0.167418
-161.132812,680.419922,715.484619,0.167529
-166.534424,678.863525,704.864502,0.167640
-166.534424,678.863525,704.864502,0.167751
-167.907715,685.638428,707.336426,0.167862
-167.907715,685.638428,703.857422,0.167974
-171.112061,680.786133,703.857422,0.168085
-171.112061,676.849365,704.406738,0.168202
-167.266846,676.849365,704.406738,0.168324
-175.323486,676.940918,706.329346,0.168444
-175.323486,676.940918,703.216553,0.168565
-169.464111,685.363770,703.216553,0.168686
-169.464111,681.335449,713.104248,0.168843
-161.773682,681.335449,710.723877,0.168968
-166.259766,680.236816,710.723877,0.169089
-159.393311,677.673340,704.223633,0.169211
-159.393311,677.673340,680.786133,0.169332
-169.921875,675.018311,702.209473,0.169454
-169.921875,675.018311,700.286865,0.169575
-165.527344,679.504395,700.286865,0.169696
-165.527344,674.652100,708.160400,0.169817
-170.745850,674.652100,708.160400,0.169938
-169.738770,673.919678,704.132080,0.170060
-169.738770,673.919678,710.632324,0.170181
-162.689209,678.039551,710.632324,0.170302
-162.689209,683.258057,714.294434,0.170423
-163.330078,683.258057,714.294434,0.170544
-156.280518,678.405762,713.104248,0.170665
-156.280518,678.405762,717.498779,0.170786
-163.330078,679.138184,717.498779,0.170902
-163.330078,681.793213,706.054688,0.171013
-160.125732,681.793213,706.054688,0.171124
-168.640137,674.652100,704.589844,0.171236
-168.640137,674.652100,681.152344,0.171347
-170.654297,675.476074,699.096680,0.171458
-170.654297,675.476074,696.533203,0.171569
-159.851074,678.222656,696.533203,0.171680
-159.851074,684.814453,711.090088,0.171790
-160.308838,684.814453,711.090088,0.171901
-161.773682,689.392090,710.998535,0.172015
-161.773682,689.392090,708.892822,0.172127
-167.633057,682.342529,708.892822,0.172302
-167.633057,680.328369,708.801270,0.172413
-165.985107,680.328369,708.801270,0.172524
-160.583496,674.560547,709.991455,0.172635
-160.583496,674.560547,712.097168,0.172746
-164.520264,683.166504,712.097168,0.172857
-164.520264,674.102783,704.132080,0.172968
-159.759521,674.102783,704.132080,0.173079
-159.759521,675.384521,710.632324,0.173190
-161.590576,675.384521,710.632324,0.173301
-164.154053,677.490234,706.878662,0.173422
-164.154053,677.490234,709.533691,0.173543
-164.428711,672.821045,709.533691,0.173664
-164.428711,678.314209,706.237793,0.173786
-165.618896,678.314209,706.237793,0.173907
-161.590576,678.314209,708.709717,0.174027
-161.590576,678.314209,707.427979,0.174148
-155.822754,678.222656,707.427979,0.174269
-155.822754,676.940918,706.420898,0.174390
-159.942627,676.940918,706.420898,0.174511
-160.583496,675.201416,709.808350,0.174632
-160.583496,675.201416,707.427979,0.174753
-166.259766,674.468994,707.427979,0.174874
-166.259766,678.314209,704.498291,0.174995
-166.717529,678.314209,704.498291,0.175115
-162.597656,674.102783,711.730957,0.175236
-162.597656,674.102783,706.054688,0.175357
-170.562744,682.434082,706.054688,0.175477
-170.562744,685.455322,712.829590,0.175598
-170.928955,685.455322,712.829590,0.175719
-164.337158,675.201416,709.167480,0.175840
-164.337158,675.201416,685.729980,0.175973
-171.203613,667.785645,698.272705,0.176094
-171.203613,672.363281,701.110840,0.176215
-172.393799,672.363281,701.110840,0.176337
-172.210693,677.856445,702.209473,0.176458
-172.210693,677.856445,702.209473,0.176579
-163.055420,679.962158,698.822021,0.176700
-163.055420,656.524658,707.061768,0.176821
-160.858154,674.377441,707.061768,0.176942
-165.985107,679.687500,707.794189,0.177063
-165.985107,679.687500,707.794189,0.177184
-170.288086,678.588867,705.230713,0.177309
-170.288086,678.588867,705.505371,0.177421
-167.999268,678.863525,705.505371,0.177532
-144.561768,685.089111,710.632324,0.177643
-158.569336,685.089111,710.632324,0.177754
-164.337158,675.018311,705.963135,0.177865
-164.337158,675.018311,705.230713,0.177976
-165.344238,678.222656,705.230713,0.178087
-165.344238,678.222656,704.406738,0.178198
-163.238525,676.666260,704.406738,0.178309
-186.676025,679.962158,705.688477,0.178419
-164.611816,679.962158,705.688477,0.178542
-166.442871,682.525635,710.083008,0.178664
-166.442871,682.525635,711.639404,0.178784
-168.640137,681.518555,711.639404,0.178905
-168.640137,682.067871,710.906982,0.179026
-166.717529,682.067871,710.906982,0.179147
-162.963867,684.814453,712.005615,0.179268
-162.963867,661.376953,706.237793,0.179393
-161.682129,672.637939,710.998535,0.179525
-161.407471,678.955078,710.998535,0.179648
-161.407471,682.159424,709.625244,0.179772
-164.062500,682.159424,709.625244,0.179893
-165.069580,675.842285,713.745117,0.180014
-165.069580,675.842285,704.132080,0.180135
-160.675049,679.595947,704.132080,0.180257
-160.675049,681.427002,707.244873,0.180378
-163.238525,681.427002,707.244873,0.180499
-168.914795,677.764893,698.547363,0.180619
-168.914795,677.764893,711.639404,0.180740
-166.534424,682.708740,711.639404,0.180861
-166.534424,675.659180,709.808350,0.180982
-167.266846,675.659180,709.808350,0.181115
-169.097900,671.905518,704.498291,0.181236
-169.097900,671.905518,705.505371,0.181357
-164.703369,684.997559,705.505371,0.181478
-164.703369,666.503906,700.469971,0.181598
-169.647217,666.503906,700.469971,0.181720
-168.365479,674.560547,706.604004,0.181840
-168.365479,674.560547,702.209473,0.181961
-166.076660,680.603027,702.209473,0.182082
-166.076660,669.433594,698.089600,0.182203
-173.492432,669.433594,698.089600,0.182324
-161.132812,677.947998,706.604004,0.182450
-161.132812,677.947998,683.166504,0.182561
-166.900635,672.729492,701.660156,0.182672
-166.900635,696.166992,702.026367,0.182784
-167.358398,681.793213,702.026367,0.182895
-167.358398,684.631348,710.815430,0.183006
-168.457031,684.631348,710.815430,0.183117
-168.548584,682.983398,701.385498,0.183228
-168.548584,682.983398,702.667236,0.183373
-168.365479,674.194336,726.104736,0.183486
-165.985107,675.842285,712.554932,0.183665
-166.992188,675.018311,697.540283,0.183787
-166.992188,675.018311,720.977783,0.183908
-163.238525,679.046631,707.885742,0.184029
-163.238525,677.124023,716.217041,0.184150
-165.802002,677.124023,716.217041,0.184271
-162.414551,668.792725,706.878662,0.184392
-162.414551,668.792725,706.878662,0.184513
-160.766602,681.518555,712.005615,0.184634
-160.766602,658.081055,711.364746,0.184755
-160.034180,675.384521,711.364746,0.184876
-164.337158,677.490234,712.738037,0.185000
-164.337158,677.490234,712.738037,0.185111
-164.520264,672.912598,705.047607,0.185222
-164.520264,672.912598,705.139160,0.185333
-173.309326,666.412354,705.139160,0.185444
-173.309326,672.546387,706.146240,0.185555
-165.802002,672.546387,706.146240,0.185665
-167.907715,674.926758,697.631836,0.185776
-167.907715,674.926758,721.069336,0.185887
-166.442871,683.898926,706.695557,0.185998
-166.442871,683.898926,707.702637,0.186109
-167.816162,682.617188,707.702637,0.186223
-167.816162,665.405273,706.512451,0.186334
-169.738770,665.405273,706.512451,0.186446
-165.252686,675.018311,710.174561,0.186557
-165.252686,675.018311,710.174561,0.186668
-165.527344,675.933838,706.237793,0.186779
-165.527344,675.933838,707.244873,0.186890
-163.055420,676.116943,707.244873,0.187001
-163.055420,682.983398,710.906982,0.187112
-163.421631,682.983398,710.906982,0.187223
-159.667969,683.532715,715.667725,0.187335
-159.667969,683.532715,703.582764,0.187460
-164.978027,677.307129,703.582764,0.187582
-141.540527,678.497314,706.604004,0.187703
-163.421631,678.497314,706.604004,0.187824
-164.428711,675.659180,701.385498,0.187945
-164.428711,675.659180,705.322266,0.188066
-165.985107,685.272217,705.322266,0.188187
-165.985107,671.081543,702.575684,0.188308
-165.710449,671.081543,702.575684,0.188429
-163.055420,677.032471,712.829590,0.188550
-163.055420,677.032471,715.301514,0.188671
-157.104492,681.976318,715.301514,0.188793
-157.104492,679.229736,707.244873,0.188913
-164.703369,679.229736,707.244873,0.189027
-169.189453,683.990479,711.090088,0.189139
-169.189453,683.990479,711.090088,0.189250
-164.520264,679.779053,706.329346,0.189361
-164.520264,679.779053,703.491211,0.189472
-173.126221,683.441162,703.491211,0.189583
-173.126221,679.962158,702.850342,0.189694
-168.640137,679.962158,702.850342,0.189806
-165.985107,683.715820,708.709717,0.189917
-165.985107,683.715820,708.709717,0.190042
-166.992188,676.025391,703.765869,0.190163
-166.992188,680.236816,704.406738,0.190284
-160.400391,680.236816,704.406738,0.190405
-164.794922,681.701660,709.350586,0.190525
-164.794922,681.701660,709.350586,0.190646
-164.611816,676.025391,710.266113,0.190767
-164.611816,699.462891,707.061768,0.190889
-169.464111,679.870605,707.061768,0.191009
-146.026611,679.962158,706.054688,0.191130
-164.062500,679.962158,706.054688,0.191252
-154.449463,684.539795,713.653564,0.191379
-154.449463,661.102295,714.111328,0.191491
-164.428711,677.490234,714.111328,0.191602
-140.991211,669.982910,704.406738,0.191713
-162.506104,669.982910,704.406738,0.191825
-167.724609,672.088623,703.491211,0.191937
-167.724609,672.088623,704.406738,0.192086
-170.013428,668.792725,704.406738,0.192208
-166.259766,677.124023,705.780029,0.192329
-166.259766,700.561523,713.195801,0.192451
-164.428711,682.983398,713.195801,0.192571
-164.428711,679.229736,705.871582,0.192703
-173.583984,679.229736,682.434082,0.192825
-167.541504,669.342041,702.301025,0.192945
-167.541504,669.342041,704.772949,0.193066
-168.365479,675.201416,704.772949,0.193187
-168.365479,676.025391,706.695557,0.193308
-166.259766,676.025391,706.695557,0.193429
-163.055420,681.152344,704.040527,0.193550
-163.055420,657.714844,706.787109,0.193671
-165.435791,677.856445,706.787109,0.193792
-141.998291,681.884766,711.273193,0.193913
-161.865234,681.884766,711.273193,0.194043
-163.238525,686.737061,706.878662,0.194165
-163.238525,686.737061,705.230713,0.194285
-165.527344,682.891846,705.230713,0.194406
-142.089844,673.187256,696.716309,0.194527
-162.506104,673.187256,696.716309,0.194648
-169.097900,680.694580,707.336426,0.194769
-169.097900,680.694580,708.251953,0.194938
-162.506104,682.708740,708.251953,0.195059
-162.506104,684.906006,711.639404,0.195180
-159.484863,684.906006,711.639404,0.195300
-163.970947,680.511475,700.012207,0.195411
-163.970947,680.511475,702.301025,0.195522
-162.506104,685.546875,702.301025,0.195633
-162.506104,683.715820,704.223633,0.195744
-162.780762,683.715820,704.223633,0.195855
-165.527344,681.793213,707.336426,0.195967
-165.527344,681.793213,707.336426,0.196078
-166.992188,683.532715,704.406738,0.196189
-166.992188,660.095215,704.772949,0.196300
-166.076660,678.588867,704.772949,0.196411
-142.639160,680.328369,705.413818,0.196521
-160.308838,680.328369,705.413818,0.196642
-167.449951,678.222656,700.653076,0.196763
-167.449951,678.222656,714.660645,0.196884
-166.168213,679.504395,714.660645,0.197005
-166.168213,675.842285,708.709717,0.197126
-169.647217,675.842285,708.709717,0.197247
-168.182373,678.314209,705.780029,0.197368
-168.182373,678.314209,707.336426,0.197489
-159.027100,680.694580,707.336426,0.197611
-159.027100,676.574707,700.836182,0.197732
-165.802002,676.574707,700.836182,0.197854
-160.308838,676.849365,712.188721,0.197975
-160.308838,676.849365,712.188721,0.198096
-164.520264,681.793213,707.061768,0.198217
-164.520264,676.300049,700.927734,0.198338
-168.548584,676.300049,700.927734,0.198459
-159.301758,684.356689,714.202881,0.198580
-159.301758,684.356689,714.202881,0.198701
-161.590576,685.272217,704.681396,0.198822
-161.590576,685.272217,717.315674,0.198942
-158.111572,685.638428,717.315674,0.199063
-158.111572,683.624268,709.808350,0.199193
-154.632568,683.624268,709.808350,0.199315
-165.344238,676.116943,703.948975,0.199436
-165.344238,699.554443,706.787109,0.199557
-167.999268,682.342529,706.787109,0.199677
-167.999268,682.159424,704.223633,0.199798
-167.266846,682.159424,704.223633,0.199919
-162.872314,685.638428,711.639404,0.200040
-162.872314,685.638428,702.575684,0.200161
-163.604736,681.427002,702.575684,0.200317
-166.900635,683.532715,710.174561,0.200441
-166.900635,677.032471,705.047607,0.200563
-172.393799,677.032471,705.047607,0.200684
-167.999268,687.011719,705.047607,0.200805
-167.999268,687.011719,705.047607,0.200925
-163.421631,674.285889,705.047607,0.201046
-163.421631,675.292969,707.885742,0.201166
-163.696289,675.292969,707.885742,0.201287
-163.604736,672.912598,706.695557,0.201408
-163.604736,672.912598,706.695557,0.201528
-164.154053,676.300049,703.308105,0.201649
-164.154053,677.581787,705.688477,0.201771
-159.759521,677.581787,705.688477,0.201892
-164.245605,668.609619,708.892822,0.202013
-164.245605,668.609619,708.892822,0.202133
-166.534424,671.630859,710.540771,0.202254
-166.534424,671.630859,705.780029,0.202374
-160.125732,678.955078,705.780029,0.202495
-183.563232,674.926758,698.089600,0.202616
-165.710449,674.926758,698.089600,0.202736
-169.921875,670.898438,699.371338,0.202857
-169.921875,670.898438,703.582764,0.202977
-169.464111,678.131104,703.582764,0.203097
-169.464111,678.955078,705.780029,0.203208
-166.168213,678.955078,705.780029,0.203318
-162.689209,670.074463,704.406738,0.203466
-168.640137,664.764404,698.455811,0.203589
-168.640137,664.764404,698.455811,0.203710
-171.478271,678.131104,701.019287,0.203831
-171.478271,678.131104,708.801270,0.203952
-173.309326,678.131104,708.801270,0.204073
-149.871826,682.159424,713.378906,0.204194
-162.322998,682.159424,713.378906,0.204315
-163.421631,680.603027,707.611084,0.204445
-163.421631,680.603027,706.146240,0.204566
-167.449951,682.891846,706.146240,0.204687
-167.449951,682.708740,705.139160,0.204808
-171.478271,682.708740,705.139160,0.204929
-167.724609,682.434082,702.484131,0.205050
-167.724609,682.434082,701.843262,0.205171
-171.478271,679.779053,701.843262,0.205292
-171.478271,675.018311,701.477051,0.205413
-165.344238,675.018311,701.477051,0.205533
-159.576416,678.314209,705.688477,0.205654
-159.576416,678.314209,703.491211,0.205776
-162.139893,678.405762,703.491211,0.205897
-162.139893,679.779053,707.061768,0.206018
-166.534424,679.779053,707.061768,0.206139
-174.499512,677.947998,702.026367,0.206260
-174.499512,677.947998,702.941895,0.206381
-169.921875,676.116943,702.941895,0.206559
-169.921875,688.293457,710.906982,0.206680
-171.752930,688.293457,710.906982,0.206801
-170.288086,682.891846,708.526611,0.206922
-170.288086,682.891846,708.068848,0.207042
-168.640137,677.215576,708.068848,0.207154
-145.202637,684.265137,706.787109,0.207266
-161.499023,684.265137,706.787109,0.207377
-167.541504,680.969238,705.780029,0.207488
-167.541504,680.969238,705.780029,0.207599
-166.442871,680.969238,706.787109,0.207710
-166.442871,657.531738,699.462891,0.207821
-173.492432,677.032471,699.462891,0.207933
-173.492432,681.427002,711.273193,0.208044
-172.576904,681.427002,711.273193,0.208155
-171.112061,678.863525,710.906982,0.208266
-171.112061,678.863525,710.723877,0.208409
-160.034180,683.349609,710.723877,0.208530
-183.471680,676.849365,711.547852,0.208651
-166.992188,676.849365,711.547852,0.208772
-160.675049,676.940918,709.075928,0.208893
-160.675049,676.940918,711.090088,0.209014
-160.308838,680.053711,711.090088,0.209134
-160.308838,678.405762,710.540771,0.209255
-166.717529,678.405762,710.540771,0.209376
-168.914795,683.532715,709.808350,0.209497
-168.914795,683.532715,704.315186,0.209619
-168.365479,682.708740,704.315186,0.209740
-168.365479,677.398682,701.751709,0.209861
-167.816162,677.398682,701.751709,0.209982
-167.083740,677.032471,697.357178,0.210103
-167.083740,677.032471,720.794678,0.210223
-164.154053,673.736572,704.864502,0.210344
-164.154053,697.174072,712.463379,0.210465
-160.675049,683.258057,712.463379,0.210587
-161.590576,672.363281,702.301025,0.210707
-161.590576,672.363281,725.738525,0.210828
-162.139893,683.074951,707.427979,0.210959
-162.139893,683.074951,704.589844,0.211080
-161.682129,684.356689,704.589844,0.211201
-185.119629,682.067871,705.139160,0.211322
-164.337158,682.067871,681.701660,0.211443
-172.393799,675.750732,702.117920,0.211564
-172.393799,699.188232,706.420898,0.211685
-166.351318,680.877686,706.420898,0.211806
-142.913818,671.264648,704.315186,0.211927
-159.393311,671.264648,704.315186,0.212048
-167.724609,671.539307,714.752197,0.212169
-167.724609,671.539307,705.963135,0.212287
-174.865723,665.313721,705.963135,0.212399
-174.865723,681.427002,705.596924,0.212510
-171.478271,681.427002,705.596924,0.212621
-167.907715,680.419922,711.914062,0.212732
-167.907715,680.419922,711.914062,0.212843
-167.541504,675.292969,708.709717,0.212955
-167.541504,675.292969,711.914062,0.213066
-164.794922,679.138184,711.914062,0.213177
-141.357422,679.321289,709.808350,0.213288
-163.970947,679.321289,709.808350,0.213400
-159.942627,680.786133,703.582764,0.213520
-159.942627,680.786133,698.822021,0.213641
-163.421631,673.004150,698.822021,0.213762
-163.421631,684.631348,711.181641,0.213884
-159.576416,684.631348,711.181641,0.214005
-159.851074,679.138184,711.181641,0.214126
-159.851074,679.138184,710.723877,0.214247
-161.407471,682.800293,710.723877,0.214368
-161.407471,676.300049,708.526611,0.214489
-163.513184,676.300049,708.526611,0.214610
-163.513184,679.779053,709.075928,0.214732
-163.513184,679.779053,703.308105,0.214853
-165.161133,680.969238,703.308105,0.214974
-165.161133,680.419922,713.745117,0.215095
-167.816162,680.419922,713.745117,0.215216
-173.492432,684.722900,710.540771,0.215337
-173.492432,684.722900,687.103271,0.215459
-166.992188,682.891846,702.667236,0.215580
-166.992188,659.454346,706.878662,0.215701
-169.097900,675.201416,706.878662,0.215822
-166.351318,676.025391,709.167480,0.215943
-166.351318,676.025391,685.729980,0.216064
-168.823242,678.588867,703.033447,0.216185
-168.823242,702.026367,707.153320,0.216306
-167.175293,681.335449,707.153320,0.216427
-167.175293,676.483154,709.442139,0.216548
-169.738770,676.483154,709.442139,0.216669
-164.978027,678.771973,706.787109,0.216791
-164.978027,702.209473,711.547852,0.216936
-155.731201,683.258057,701.202393,0.217068
-165.069580,680.877686,701.202393,0.217189
-165.069580,682.800293,701.019287,0.217310
-167.083740,682.800293,701.019287,0.217432
-162.780762,687.835693,710.540771,0.217552
-162.780762,687.835693,700.012207,0.217673
-158.843994,688.659668,700.012207,0.217794
-164.520264,675.201416,699.920654,0.217960
-164.520264,675.201416,723.358154,0.218081
-165.527344,674.011230,709.259033,0.218202
-165.527344,674.011230,708.801270,0.218323
-159.393311,670.349121,708.801270,0.218444
-182.830811,672.180176,706.604004,0.218565
-170.196533,672.180176,706.604004,0.218686
-160.675049,679.046631,712.646484,0.218804
-160.675049,679.046631,708.892822,0.218926
-158.935547,674.377441,708.892822,0.219048
-158.935547,678.405762,711.547852,0.219169
-157.104492,678.405762,711.547852,0.219291
-162.963867,679.412842,706.146240,0.219412
-162.963867,679.412842,708.984375,0.219534
-167.633057,682.434082,708.984375,0.219656
-144.195557,678.771973,711.090088,0.219777
-162.963867,678.771973,711.090088,0.219898
-163.513184,680.969238,705.596924,0.220019
-163.513184,680.969238,704.406738,0.220135
-168.182373,676.940918,704.406738,0.220256
-167.816162,685.638428,710.540771,0.220379
-167.816162,675.567627,700.286865,0.220500
-167.816162,675.567627,700.286865,0.220622
-164.337158,675.476074,701.202393,0.220743
-164.337158,675.476074,724.639893,0.220864
-166.076660,678.955078,706.695557,0.220985
-166.076660,678.955078,709.991455,0.221107
-172.760010,679.595947,709.991455,0.221228
-169.647217,683.807373,706.237793,0.221349
-169.647217,683.807373,682.800293,0.221471
-164.337158,676.391602,699.096680,0.221592
-164.337158,699.829102,710.723877,0.221713
-159.484863,680.877686,710.723877,0.221834
-159.484863,678.314209,709.533691,0.221956
-163.696289,678.314209,709.533691,0.222077
-155.364990,678.314209,707.702637,0.222198
-155.364990,701.751709,711.273193,0.222319
-162.780762,681.152344,711.273193,0.222440
-162.780762,680.236816,707.702637,0.222562
-161.956787,680.236816,707.702637,0.222683
-163.055420,676.300049,709.259033,0.222804
-163.055420,676.300049,706.787109,0.222925
-162.780762,677.215576,706.787109,0.223046
-186.218262,675.842285,702.301025,0.223168
-167.266846,675.842285,702.301025,0.223289
-164.428711,690.490723,708.526611,0.223410
-164.428711,690.490723,713.836670,0.223531
-164.245605,685.363770,713.836670,0.223652
-164.245605,675.567627,712.463379,0.223774
-168.823242,675.567627,712.463379,0.223895
-161.224365,682.067871,716.583252,0.224011
-161.224365,682.067871,716.583252,0.224122
-169.921875,675.933838,708.160400,0.224233
-169.921875,675.933838,707.336426,0.224344
-171.386719,678.405762,705.596924,0.224501
-167.266846,682.342529,705.596924,0.224625
-167.266846,683.441162,708.343506,0.224747
-168.823242,683.441162,708.343506,0.224869
-172.302246,684.448242,716.217041,0.224991
-172.302246,684.448242,710.998535,0.225113
-164.337158,675.842285,710.998535,0.225235
-164.337158,672.363281,714.019775,0.225355
-165.985107,672.363281,714.019775,0.225466
-163.879395,671.356201,716.308594,0.225578
-163.879395,671.356201,716.308594,0.225689
-165.893555,667.327881,705.963135,0.225800
-165.893555,667.327881,710.815430,0.225912
-164.794922,677.307129,710.815430,0.226023
-164.794922,680.236816,706.878662,0.226134
-169.921875,680.236816,706.878662,0.226245
-168.182373,684.082031,705.230713,0.226356
-168.182373,684.082031,709.350586,0.226470
-170.562744,684.082031,709.350586,0.226593
-170.562744,685.180664,712.371826,0.226714
-162.872314,685.180664,712.371826,0.226836
-165.710449,669.433594,711.273193,0.226957
-165.710449,669.433594,711.090088,0.227079
-171.020508,675.384521,711.090088,0.227200
-171.020508,671.264648,703.582764,0.227322
-167.541504,671.264648,703.582764,0.227443
-165.435791,678.222656,707.702637,0.227565
-165.435791,678.222656,707.702637,0.227687
-167.449951,672.729492,710.083008,0.227807
-167.449951,684.906006,712.371826,0.227918
-169.464111,684.906006,712.371826,0.228030
-169.464111,680.236816,711.273193,0.228140
-167.633057,680.236816,711.273193,0.228251
-160.766602,678.222656,707.794189,0.228362
-160.766602,678.222656,701.019287,0.228473
-155.364990,687.561035,701.019287,0.228585
-155.364990,678.314209,700.836182,0.228695
-167.816162,678.314209,700.836182,0.228806
-163.146973,687.011719,706.512451,0.228918
-163.146973,687.011719,706.512451,0.229047
-160.949707,675.018311,706.146240,0.229170
-160.949707,674.468994,704.315186,0.229336
-165.252686,674.468994,704.315186,0.229458
-165.344238,681.976318,706.054688,0.229580
-165.344238,681.976318,713.195801,0.229701
-168.823242,680.145264,713.195801,0.229823
-168.823242,687.377930,724.639893,0.229944
-165.802002,687.377930,724.639893,0.230066
-167.724609,681.243896,713.928223,0.230205
-166.351318,667.785645,699.920654,0.230329
-166.351318,667.785645,723.358154,0.230451
-163.787842,671.264648,705.047607,0.230573
-163.787842,694.702148,701.843262,0.230694
-165.069580,682.708740,701.843262,0.230815
-169.097900,682.525635,703.399658,0.230937
-169.097900,682.525635,703.399658,0.231058
-174.865723,676.574707,704.498291,0.231179
-174.865723,676.574707,707.519531,0.231300
-168.273926,675.933838,707.519531,0.231422
-168.273926,668.701172,708.343506,0.231543
-167.816162,668.701172,708.343506,0.231664
-164.520264,682.434082,708.892822,0.231786
-164.520264,682.434082,705.322266,0.231907
-160.583496,682.250977,705.322266,0.232029
-184.020996,681.060791,699.737549,0.232150
-164.703369,681.060791,699.737549,0.232271
-166.076660,679.595947,706.878662,0.232393
-166.076660,679.595947,704.498291,0.232514
-167.358398,675.384521,704.498291,0.232635
-167.358398,682.342529,706.146240,0.232756
-169.921875,682.342529,706.146240,0.232877
-167.266846,682.617188,702.484131,0.232998
-167.266846,682.617188,698.272705,0.233144
-167.541504,678.863525,721.710205,0.233266
-164.062500,676.025391,706.146240,0.233388
-164.062500,699.462891,706.695557,0.233509
-162.872314,680.694580,706.695557,0.233629
-186.309814,682.250977,709.259033,0.233751
-167.633057,682.250977,709.259033,0.233872
-167.816162,680.694580,706.878662,0.233993
-167.816162,657.257080,707.977295,0.234115
-160.949707,674.285889,707.977295,0.234235
-184.387207,679.595947,703.857422,0.234369
-164.245605,679.595947,703.857422,0.234491
-166.351318,678.863525,698.822021,0.234612
-166.351318,702.301025,706.054688,0.234733
-164.520264,680.694580,706.054688,0.234854
-141.082764,678.863525,713.745117,0.234975
-162.322998,678.863525,713.745117,0.235096
-156.646729,679.412842,704.223633,0.235217
-156.646729,679.412842,712.738037,0.235338
-161.315918,683.807373,712.738037,0.235460
-161.315918,684.997559,703.674316,0.235581
-157.653809,684.997559,703.674316,0.235711
-160.308838,683.258057,709.625244,0.235833
-160.308838,683.258057,705.871582,0.235954
-165.069580,674.652100,705.871582,0.236075
-165.069580,680.145264,709.991455,0.236196
-164.978027,680.145264,709.991455,0.236317
-160.675049,693.786621,713.745117,0.236438
-160.675049,693.786621,705.413818,0.236559
-163.238525,680.877686,705.413818,0.236680
-163.238525,684.265137,710.266113,0.236801
-158.111572,684.265137,710.266113,0.236923
-161.407471,685.913086,717.498779,0.237033
-161.407471,685.913086,717.498779,0.237144
-163.055420,675.384521,708.984375,0.237255
-163.055420,675.384521,707.153320,0.237366
-168.090820,672.454834,707.153320,0.237476
-168.090820,671.447754,703.948975,0.237587
-164.703369,671.447754,703.948975,0.237698
-163.696289,677.490234,707.885742,0.237809
-163.696289,677.490234,707.885742,0.237919
-164.062500,678.039551,704.956055,0.238030
-164.062500,701.477051,703.125000,0.238140
-166.168213,685.455322,703.125000,0.238258
-162.872314,683.532715,708.160400,0.238380
-162.872314,683.532715,684.722900,0.238501
-161.132812,674.560547,702.667236,0.238622
-161.132812,674.560547,709.167480,0.238743
-158.111572,669.616699,709.167480,0.238864
-181.549072,677.764893,708.251953,0.238985
-166.351318,677.764893,708.251953,0.239106
-172.393799,676.483154,707.977295,0.239227
-172.393799,699.920654,709.899902,0.239348
-163.055420,684.539795,709.899902,0.239470
-186.492920,682.708740,702.575684,0.239592
-169.372559,682.708740,702.575684,0.239712
-165.618896,683.715820,703.125000,0.239834
-165.618896,683.715820,703.491211,0.239955
-161.682129,680.511475,703.491211,0.240076
-161.682129,674.560547,715.942383,0.240197
-163.330078,674.560547,715.942383,0.240318
-160.583496,673.645020,710.723877,0.240440
-160.583496,673.645020,713.470459,0.240561
-166.717529,682.250977,713.470459,0.240681
-143.280029,675.933838,704.589844,0.240840
-161.956787,675.933838,704.589844,0.240962
-158.020020,680.603027,703.948975,0.241084
-158.020020,680.603027,706.420898,0.241205
-163.330078,685.821533,706.420898,0.241327
-186.767578,682.983398,702.392578,0.241448
-169.006348,682.983398,702.392578,0.241569
-165.618896,683.990479,708.801270,0.241691
-165.618896,683.990479,705.871582,0.241812
-157.745361,679.412842,705.871582,0.241934
-157.745361,682.708740,709.167480,0.242055
-153.442383,682.708740,709.167480,0.242174
-160.217285,675.201416,704.864502,0.242285
-160.217285,675.201416,704.864502,0.242397
-166.625977,686.187744,704.772949,0.242508
-166.625977,686.187744,701.934814,0.242619
-163.238525,684.265137,701.934814,0.242730
-186.676025,674.926758,709.350586,0.242841
-164.794922,674.926758,709.350586,0.242952
-165.710449,678.222656,704.406738,0.243063
-165.710449,678.222656,706.604004,0.243174
-172.302246,681.060791,706.604004,0.243285
-172.302246,685.821533,711.090088,0.243423
-167.816162,685.821533,711.090088,0.243545
-167.633057,678.039551,705.688477,0.243665
-167.633057,678.039551,712.371826,0.243776
-164.520264,678.222656,712.371826,0.243888
-164.520264,680.786133,709.259033,0.243999
-164.794922,680.786133,709.259033,0.244110
-162.139893,680.877686,703.308105,0.244221
-162.139893,680.877686,703.308105,0.244332
-159.759521,685.821533,701.568604,0.244443
-159.759521,685.821533,699.279785,0.244554
-163.696289,685.180664,699.279785,0.244680
-187.133789,672.729492,703.491211,0.244802
-165.252686,672.729492,703.491211,0.244924
-162.414551,666.137695,705.505371,0.245046
-162.414551,666.137695,703.491211,0.245168
-165.069580,665.954590,703.491211,0.245289
-165.069580,674.194336,700.561523,0.245411
-163.146973,674.194336,700.561523,0.245532
-162.963867,679.595947,703.857422,0.245654
-162.963867,679.595947,708.435059,0.245776
-158.294678,682.617188,708.435059,0.245898
-158.294678,677.124023,706.237793,0.246029
-166.717529,677.124023,706.237793,0.246151
-169.281006,682.525635,710.632324,0.246272
-169.281006,682.525635,710.632324,0.246394
-168.457031,681.701660,709.350586,0.246516
-168.457031,672.912598,711.364746,0.246637
-168.365479,672.912598,711.364746,0.246759
-166.717529,680.145264,712.829590,0.246881
-166.717529,680.145264,712.829590,0.247003
-172.302246,677.947998,712.463379,0.247124
-172.302246,677.947998,706.787109,0.247246
-164.245605,675.750732,706.787109,0.247369
-163.970947,679.504395,710.723877,0.247490
-163.970947,679.504395,710.723877,0.247612
-159.118652,676.666260,712.005615,0.247733
-159.118652,700.103760,712.646484,0.247855
-167.266846,682.617188,712.646484,0.247976
-167.266846,672.088623,710.815430,0.248098
-167.449951,672.088623,710.815430,0.248220
-167.266846,670.989990,704.315186,0.248341
-167.266846,670.989990,706.420898,0.248463
-166.625977,676.391602,706.420898,0.248584
-166.625977,686.096191,707.519531,0.248715
-169.738770,686.096191,707.519531,0.248835
-166.900635,674.926758,697.814941,0.248955
-166.900635,674.926758,705.780029,0.249076
-168.090820,678.588867,705.780029,0.249196
-144.653320,686.645508,715.759277,0.249338
-163.330078,671.264648,703.948975,0.249462
-163.330078,685.089111,708.709717,0.249583
-163.970947,685.089111,708.709717,0.249705
-164.703369,676.483154,699.279785,0.249827
-164.703369,676.483154,722.717285,0.249949
-168.182373,681.518555,704.040527,0.250070
-168.182373,681.518555,710.357666,0.250192
-167.633057,683.349609,710.357666,0.250314
-168.731689,680.694580,701.385498,0.250436
-168.731689,680.694580,724.822998,0.250557
-167.175293,678.314209,708.618164,0.250678
-167.175293,678.314209,706.787109,0.250801
-167.541504,672.363281,706.787109,0.250922
-144.104004,677.947998,711.730957,0.251043
-160.400391,677.947998,711.730957,0.251166
-168.457031,686.004639,704.864502,0.251287
-168.457031,686.004639,707.794189,0.251409
-165.344238,684.082031,707.794189,0.251530
-165.344238,689.483643,708.251953,0.251652
-166.351318,689.483643,708.251953,0.251773
-169.189453,676.300049,696.441650,0.251895
-169.189453,676.300049,701.202393,0.252016
-168.182373,669.799805,701.202393,0.252138
-144.744873,673.095703,705.505371,0.252259
-159.484863,673.095703,705.505371,0.252420
-161.499023,676.300049,704.956055,0.252561
-161.499023,699.737549,708.343506,0.252672
-167.266846,680.145264,708.343506,0.252784
-167.266846,680.145264,713.104248,0.252895
-165.710449,680.145264,713.104248,0.253006
-168.365479,675.109863,709.808350,0.253116
-168.365479,675.109863,709.808350,0.253228
-168.914795,675.659180,706.329346,0.253339
-168.914795,699.096680,708.068848,0.253450
-168.182373,680.053711,708.068848,0.253561
-168.182373,675.750732,711.639404,0.253671
-164.154053,675.750732,711.639404,0.253781
-169.281006,677.764893,711.547852,0.253903
-169.281006,677.764893,711.639404,0.254024
-166.076660,681.793213,711.639404,0.254146
-166.076660,676.483154,707.244873,0.254267
-166.625977,676.483154,707.244873,0.254388
-161.041260,672.180176,699.554443,0.254510
-161.041260,672.180176,711.822510,0.254631
-162.872314,674.194336,711.822510,0.254753
-162.872314,674.285889,705.413818,0.254874
-167.175293,674.285889,705.413818,0.254995
-166.809082,676.757812,711.364746,0.255117
-166.809082,676.757812,706.237793,0.255239
-166.717529,682.159424,706.237793,0.255361
-166.717529,680.419922,709.350586,0.255482
-168.548584,680.419922,709.350586,0.255604
-162.048340,672.454834,713.653564,0.255725
-162.048340,672.454834,713.653564,0.255846
-167.633057,677.215576,706.420898,0.255968
-167.633057,673.553467,697.631836,0.256089
-165.710449,673.553467,697.631836,0.256211
-163.696289,678.588867,698.638916,0.256332
-163.696289,678.588867,722.076416,0.256453
-165.161133,688.110352,708.343506,0.256575
-165.161133,688.110352,704.315186,0.256696
-169.097900,681.243896,704.315186,0.256817
-167.083740,679.870605,707.336426,0.256939
-167.083740,679.870605,707.336426,0.257060
-165.985107,681.793213,713.378906,0.257181
-165.985107,658.355713,711.914062,0.257302
-165.435791,677.307129,711.914062,0.257423
-165.435791,682.708740,710.632324,0.257544
-164.337158,682.708740,710.632324,0.257666
-166.534424,677.581787,702.392578,0.257792
-166.534424,701.019287,707.702637,0.257903
-167.724609,679.870605,707.702637,0.258014
-167.724609,676.208496,705.963135,0.258125
-166.809082,676.208496,705.963135,0.258236
-166.442871,678.771973,707.336426,0.258348
-166.442871,678.771973,683.898926,0.258458
-162.963867,681.152344,701.385498,0.258569
-162.963867,657.714844,712.188721,0.258680
-162.414551,676.666260,712.188721,0.258791
-185.852051,680.603027,701.934814,0.258902
-165.985107,680.603027,701.934814,0.259014
-163.696289,684.722900,713.836670,0.259135
-163.696289,684.722900,706.970215,0.259255
-164.886475,678.222656,706.970215,0.259376
-164.886475,673.736572,705.596924,0.259496
-169.738770,673.736572,705.596924,0.259616
-161.682129,682.525635,711.914062,0.259737
-161.682129,682.525635,709.350586,0.259912
-162.689209,680.328369,707.061768,0.260036
-163.696289,681.335449,707.061768,0.260191
-167.724609,679.046631,708.435059,0.260324
-144.287109,682.617188,704.040527,0.260446
-160.858154,682.617188,704.040527,0.260568
-158.660889,679.687500,703.674316,0.260689
-158.660889,679.687500,705.596924,0.260811
-163.146973,678.588867,705.596924,0.260932
-186.584473,677.124023,711.273193,0.261054
-165.527344,677.124023,711.273193,0.261176
-162.780762,681.701660,715.667725,0.261297
-162.780762,681.701660,706.787109,0.261419
-163.421631,675.750732,701.660156,0.261583
-186.767578,685.363770,713.928223,0.261763
-168.365479,685.363770,690.490723,0.261907
-165.802002,683.990479,702.209473,0.262041
-165.802002,683.532715,701.843262,0.262169
-168.090820,683.532715,701.843262,0.262311
-155.548096,678.588867,702.484131,0.262441
-161.224365,683.715820,703.491211,0.262589
-184.661865,682.342529,692.138672,0.262731
-166.809082,682.342529,716.217041,0.262855
-172.027588,686.279297,716.217041,0.262976
-172.027588,685.546875,718.597412,0.263097
-165.710449,685.546875,718.597412,0.263218
-163.604736,680.511475,712.371826,0.263339
-163.604736,680.511475,708.892822,0.263460
-165.527344,681.884766,708.892822,0.263580
-165.527344,682.159424,707.885742,0.263701
-164.520264,682.159424,707.885742,0.263823
-167.175293,674.835205,707.336426,0.263943
-167.175293,698.272705,716.583252,0.264153
-165.802002,683.715820,716.583252,0.264274
-165.802002,679.504395,709.259033,0.264395
-164.520264,681.884766,707.244873,0.264535
-143.096924,680.236816,708.618164,0.264667
-160.034180,680.236816,708.618164,0.264795
-161.132812,679.504395,699.554443,0.264921
-161.132812,679.504395,696.441650,0.265046
-168.273926,677.490234,696.441650,0.265168
-168.273926,680.511475,704.406738,0.265289
-168.182373,680.511475,704.406738,0.265420
-167.449951,680.053711,680.969238,0.265569
-166.076660,675.018311,699.554443,0.265698
-166.076660,687.652588,706.878662,0.265818
-158.477783,687.652588,706.878662,0.265939
-172.851562,675.476074,706.787109,0.266060
-172.851562,675.476074,705.963135,0.266181
-165.435791,679.962158,705.963135,0.266306
-165.435791,676.666260,716.400146,0.266427
-169.921875,676.666260,716.400146,0.266549
-169.830322,677.215576,709.442139,0.266670
-169.830322,677.215576,709.442139,0.266792
-167.816162,676.483154,716.400146,0.266914
-167.816162,668.792725,704.315186,0.267035
-171.020508,668.792725,704.315186,0.267157
-164.703369,675.750732,706.604004,0.267279
-164.703369,675.750732,706.604004,0.267401
-159.301758,679.870605,716.217041,0.267526
-159.301758,656.433105,705.322266,0.267665
-163.421631,676.757812,705.322266,0.267787
-169.464111,681.335449,706.787109,0.267909
-169.464111,681.335449,683.349609,0.268031
-167.541504,676.391602,707.702637,0.268180
-167.541504,668.792725,707.702637,0.268316
-166.717529,675.384521,702.575684,0.268444
-166.717529,675.384521,706.787109,0.268571
-170.104980,676.757812,706.787109,0.268700
-161.865234,677.947998,710.449219,0.268852
-161.865234,678.680420,707.611084,0.268975
-163.055420,678.680420,707.611084,0.269096
-160.675049,681.060791,702.392578,0.269217
-160.675049,681.060791,712.097168,0.269338
-165.710449,682.891846,712.097168,0.269459
-165.710449,670.989990,700.561523,0.269579
-169.555664,670.989990,700.561523,0.269700
-160.308838,679.962158,707.427979,0.269821
-160.308838,679.962158,708.892822,0.269942
-163.604736,680.053711,708.892822,0.270063
-163.604736,682.250977,711.181641,0.270184
-158.111572,682.250977,711.181641,0.270305
-161.224365,687.652588,712.738037,0.270426
-161.224365,687.652588,712.738037,0.270548
-161.132812,699.279785,705.688477,0.270689
-154.541016,682.434082,705.688477,0.270819
-164.703369,684.906006,717.773438,0.270948
-164.703369,684.906006,708.526611,0.271073
-169.097900,673.278809,708.526611,0.271196
-169.097900,677.947998,709.167480,0.271318
-170.745850,677.947998,709.167480,0.271473
-168.914795,676.483154,709.075928,0.271616
-165.161133,671.447754,711.639404,0.271744
-165.161133,671.447754,710.449219,0.271865
-160.949707,679.504395,710.449219,0.271986
-160.949707,675.018311,704.040527,0.272107
-158.935547,675.018311,704.040527,0.272227
-169.097900,678.588867,702.850342,0.272347
-169.097900,678.588867,701.660156,0.272468
-165.161133,683.074951,701.660156,0.272589
-165.161133,673.187256,710.540771,0.272710
-168.182373,673.187256,710.540771,0.272832
-167.541504,670.074463,710.449219,0.272954
-167.541504,670.074463,706.695557,0.273075
-156.372070,679.229736,706.695557,0.273196
-156.372070,681.427002,701.019287,0.273317
-161.956787,681.427002,701.019287,0.273439
-166.442871,680.969238,703.033447,0.273561
-166.442871,680.969238,726.470947,0.273682
-162.780762,686.462402,704.223633,0.273803
-162.780762,663.024902,700.012207,0.273925
-168.731689,669.708252,700.012207,0.274040
-161.773682,686.096191,719.512939,0.274151
-161.773682,686.096191,719.512939,0.274262
-164.337158,678.588867,701.751709,0.274374
-164.337158,678.588867,710.083008,0.274485
-167.266846,677.764893,710.083008,0.274596
-167.266846,678.955078,709.808350,0.274707
-166.625977,678.955078,709.808350,0.274818
-162.048340,682.159424,707.061768,0.274929
-162.048340,682.159424,683.624268,0.275040
-164.428711,678.955078,702.850342,0.275151
-164.428711,678.955078,715.942383,0.275265
-167.083740,674.377441,715.942383,0.275377
-167.083740,677.398682,714.111328,0.275488
-174.957275,677.398682,714.111328,0.275600
-169.647217,678.955078,712.829590,0.275711
-169.647217,678.955078,712.280273,0.275909
-160.766602,671.722412,712.280273,0.276021
-160.766602,682.067871,705.963135,0.276133
-163.421631,682.067871,705.963135,0.276245
-165.252686,679.412842,708.435059,0.276359
-165.252686,679.412842,707.885742,0.276474
-160.766602,677.490234,707.885742,0.276598
-184.204102,677.398682,708.984375,0.276723
-174.224854,677.398682,708.984375,0.276844
-167.083740,684.631348,713.012695,0.276969
-167.083740,677.764893,706.970215,0.277108
-166.076660,677.764893,706.054688,0.277234
-163.970947,677.307129,706.054688,0.277357
-187.408447,673.187256,707.794189,0.277479
-164.154053,673.187256,707.794189,0.277600
-162.872314,677.764893,710.906982,0.277722
-162.872314,677.764893,713.378906,0.277848
-163.513184,685.638428,713.378906,0.277969
-186.950684,679.962158,708.160400,0.278091
-167.907715,679.962158,708.160400,0.278212
-169.555664,672.729492,704.406738,0.278339
-167.724609,679.687500,712.921143,0.278461
-167.724609,679.687500,711.273193,0.278572
-164.337158,681.243896,711.456299,0.278701
-166.900635,681.427002,711.456299,0.278822
-166.900635,676.757812,704.772949,0.278982
-167.633057,676.757812,681.335449,0.279108
-167.816162,676.574707,701.385498,0.279230
-167.816162,700.012207,706.329346,0.279352
-166.076660,684.448242,706.329346,0.279478
-168.640137,689.025879,711.822510,0.279623
-168.640137,689.025879,707.885742,0.279747
-164.062500,682.250977,707.885742,0.279866
-187.500000,684.082031,711.181641,0.279984
-170.562744,684.082031,711.181641,0.280102
-164.611816,675.750732,711.456299,0.280219
-164.611816,699.188232,712.097168,0.280337
-162.231445,682.708740,712.097168,0.280455
-163.787842,681.610107,716.674805,0.280575
-163.787842,681.610107,716.674805,0.280693
-166.259766,678.131104,708.709717,0.280810
-166.259766,679.962158,702.758789,0.280927
-166.442871,679.962158,702.758789,0.281044
-166.992188,668.975830,705.596924,0.281160
-166.992188,668.975830,705.596924,0.281277
-161.865234,682.617188,707.611084,0.281394
-161.865234,674.377441,704.406738,0.281546
-164.886475,674.377441,704.406738,0.281674
-161.407471,685.638428,709.259033,0.281790
-161.407471,685.638428,706.878662,0.281903
-159.301758,685.638428,706.878662,0.282016
-159.301758,674.743652,708.984375,0.282158
-160.400391,674.743652,708.984375,0.282276
-159.667969,674.377441,711.181641,0.282386
-159.667969,674.377441,714.843750,0.282495
-166.442871,679.138184,707.611084,0.282628
-163.238525,678.222656,707.611084,0.282765
-165.344238,678.955078,707.885742,0.282877
-165.344238,702.392578,720.153809,0.282988
-164.978027,686.462402,720.153809,0.283099
-166.442871,678.588867,711.730957,0.283208
-166.442871,678.588867,711.730957,0.283318
-163.330078,675.659180,704.315186,0.283451
-160.675049,683.898926,710.815430,0.283573
-184.112549,690.032959,711.456299,0.283685
-165.893555,690.032959,711.456299,0.283795
-168.273926,682.525635,712.371826,0.283939
-168.273926,682.525635,709.259033,0.284051
-166.717529,680.694580,709.259033,0.284161
-143.280029,683.807373,711.730957,0.284298
-155.731201,679.504395,706.787109,0.284424
-155.731201,675.292969,707.519531,0.284537
-164.062500,675.292969,707.519531,0.284649
-169.464111,681.701660,713.653564,0.284760
-169.464111,681.701660,709.899902,0.284869
-169.097900,682.159424,709.899902,0.285013
-169.097900,678.314209,707.794189,0.285126
-171.569824,678.314209,707.794189,0.285245
-170.928955,672.271729,703.582764,0.285373
-162.597656,678.771973,711.547852,0.285552
-164.611816,683.349609,706.329346,0.285671
-164.611816,687.377930,712.280273,0.285781
-163.146973,687.377930,712.280273,0.285891
-167.083740,684.448242,705.780029,0.286002
-167.083740,684.448242,705.780029,0.286112
-160.675049,685.913086,704.498291,0.286226
-184.112549,678.131104,699.371338,0.286353
-167.175293,678.222656,710.174561,0.286480
-169.647217,678.222656,705.047607,0.286597
-165.527344,671.264648,705.047607,0.286708
-165.527344,680.145264,713.928223,0.286831
-165.069580,672.637939,708.892822,0.286948
-157.562256,672.637939,708.892822,0.287058
-156.921387,680.053711,712.829590,0.287168
-156.921387,680.053711,707.336426,0.287294
-157.653809,683.074951,707.336426,0.287501
-164.611816,680.877686,710.540771,0.287620
-164.611816,680.145264,716.217041,0.287730
-169.555664,680.145264,716.217041,0.287839
-173.217773,676.300049,704.772949,0.287947
-173.217773,676.300049,681.335449,0.288055
-174.682617,663.208008,698.455811,0.288163
-174.682617,663.208008,709.899902,0.288271
-161.224365,678.955078,709.899902,0.288378
-161.224365,678.131104,706.787109,0.288487
-157.562256,678.131104,706.787109,0.288596
-164.245605,680.145264,705.688477,0.288704
-164.245605,680.145264,710.083008,0.288813
-163.238525,682.708740,710.083008,0.288920
-186.676025,668.975830,702.850342,0.289029
-170.379639,668.975830,702.850342,0.289137
-160.308838,684.265137,709.442139,0.289245
-160.308838,684.265137,704.772949,0.289356
-161.132812,682.617188,704.772949,0.289468
-164.611816,677.764893,707.336426,0.289582
-164.611816,701.202393,700.378418,0.289695
-166.809082,682.159424,700.378418,0.289805
-165.252686,680.694580,703.765869,0.289914
-165.252686,680.694580,703.765869,0.290022
-162.322998,681.793213,705.596924,0.290130
-162.322998,658.355713,716.583252,0.290238
-164.886475,678.680420,716.583252,0.290347
-141.448975,687.561035,710.815430,0.290455
-162.322998,687.561035,710.815430,0.290563
-168.640137,678.771973,709.716797,0.290671
-168.640137,678.771973,712.371826,0.290781
-162.048340,688.385010,712.371826,0.290889
-185.485840,679.962158,709.991455,0.290997
-165.069580,679.962158,709.991455,0.291105
-164.428711,680.694580,697.448730,0.291213
-164.428711,680.694580,703.857422,0.291321
-166.809082,680.328369,703.857422,0.291429
-166.809082,684.356689,703.674316,0.291537
-169.006348,684.356689,703.674316,0.291645
-167.907715,674.102783,705.596924,0.291753
-167.907715,674.102783,705.596924,0.291861
-165.527344,685.729980,706.604004,0.291969
-165.527344,685.729980,710.449219,0.292078
-162.872314,683.349609,710.449219,0.292186
-162.872314,680.419922,701.477051,0.292294
-162.689209,680.419922,701.477051,0.292402
-161.590576,684.173584,704.498291,0.292510
-161.590576,684.173584,700.286865,0.292618
-164.611816,678.314209,700.286865,0.292726
-164.611816,688.110352,708.160400,0.292834
-157.287598,688.110352,708.160400,0.292942
-164.245605,686.004639,701.660156,0.293050
-164.245605,686.004639,704.315186,0.293161
-161.407471,682.891846,704.315186,0.293271
-161.407471,685.455322,708.526611,0.293379
-160.034180,685.455322,708.526611,0.293488
-167.633057,677.032471,703.857422,0.293596
-167.633057,677.032471,703.857422,0.293704
-162.689209,679.962158,709.442139,0.293812
-162.689209,656.524658,703.582764,0.293920
-168.365479,675.476074,703.582764,0.294028
-168.365479,686.920166,711.914062,0.294137
-168.823242,686.920166,711.914062,0.294245
-176.330566,675.476074,704.132080,0.294354
-176.330566,675.476074,698.181152,0.294463
-168.365479,671.722412,698.181152,0.294571
-144.927979,684.631348,704.315186,0.294679
-162.139893,684.631348,704.315186,0.294787
-165.344238,681.976318,708.709717,0.294896
-165.344238,681.976318,700.469971,0.295005
-163.055420,669.067383,700.469971,0.295113
-163.055420,677.947998,705.688477,0.295222
-163.238525,677.947998,705.688477,0.295330
-165.069580,684.814453,707.061768,0.295438
-165.069580,684.814453,707.061768,0.295551
-165.161133,674.377441,705.230713,0.295667
-165.161133,678.863525,720.428467,0.295782
-164.428711,678.863525,720.428467,0.295897
-173.217773,680.877686,721.435547,0.296012
-173.217773,680.877686,721.435547,0.296127
-168.914795,676.025391,705.688477,0.296242
-168.914795,678.497314,703.125000,0.296362
-173.217773,701.934814,711.456299,0.296478
-165.893555,680.236816,711.456299,0.296592
-165.893555,680.419922,711.730957,0.296715
-164.886475,682.708740,711.822510,0.296835
-159.576416,682.708740,711.822510,0.296953
-162.231445,680.603027,705.963135,0.297072
-162.231445,680.603027,705.963135,0.297190
-167.083740,676.849365,703.308105,0.297308
-167.083740,681.335449,703.399658,0.297427
-162.689209,681.335449,703.399658,0.297545
-161.315918,676.940918,700.103760,0.297663
-161.315918,676.940918,697.174072,0.297782
-163.879395,681.427002,697.174072,0.297900
-163.879395,672.729492,696.350098,0.298011
-163.146973,672.729492,696.350098,0.298183
-164.245605,676.574707,699.371338,0.298292
-164.245605,676.574707,698.364258,0.298401
-161.224365,678.497314,698.364258,0.298509
-161.224365,687.286377,711.181641,0.298617
-161.865234,687.286377,711.181641,0.298725
-164.337158,685.729980,710.174561,0.298833
-164.337158,685.729980,703.857422,0.298942
-164.154053,684.173584,703.857422,0.299050
-164.154053,679.229736,704.956055,0.299159
-166.900635,679.229736,704.956055,0.299279
-166.351318,675.384521,703.125000,0.299398
-166.351318,675.384521,707.061768,0.299516
-166.076660,672.454834,707.061768,0.299635
-142.639160,676.757812,712.738037,0.299753
-160.583496,676.757812,712.738037,0.299871
-161.132812,684.631348,707.611084,0.299989
-161.132812,684.631348,704.040527,0.300111
-162.780762,683.074951,704.040527,0.300230
-162.689209,679.321289,706.237793,0.300348
-162.689209,679.321289,706.237793,0.300461
-167.449951,674.926758,707.153320,0.300570
-167.449951,698.364258,714.019775,0.300678
-164.611816,681.060791,714.019775,0.300786
-167.175293,675.567627,705.322266,0.300894
-167.175293,675.567627,705.322266,0.301003
-166.076660,684.631348,712.921143,0.301110
-166.076660,661.193848,710.449219,0.301219
-160.949707,679.504395,710.449219,0.301327
-184.387207,676.300049,710.998535,0.301435
-164.337158,676.300049,710.998535,0.301543
-160.308838,678.497314,707.977295,0.301655
-160.308838,678.497314,703.125000,0.301770
-168.731689,677.673340,703.125000,0.301885
-168.731689,682.708740,703.857422,0.302010
-167.816162,681.518555,705.139160,0.302128
-170.928955,681.518555,705.139160,0.302242
-166.259766,680.053711,712.829590,0.302365
-166.259766,656.616211,714.477539,0.302482
-168.823242,675.384521,714.477539,0.302599
-164.978027,680.603027,714.294434,0.302720
-164.978027,680.603027,714.294434,0.302839
-165.344238,688.201904,714.294434,0.302956
-141.906738,683.532715,709.991455,0.303074
-162.872314,683.532715,709.991455,0.303191
-162.048340,681.793213,708.801270,0.303309
-162.048340,681.793213,705.505371,0.303426
-168.090820,681.335449,705.505371,0.303543
-164.245605,676.849365,701.660156,0.303660
-164.245605,676.849365,725.097656,0.303778
-158.660889,679.779053,714.385986,0.303894
-158.660889,656.341553,703.674316,0.304012
-166.809082,675.109863,703.674316,0.304127
-166.259766,677.032471,711.273193,0.304255
-165.435791,679.870605,708.251953,0.304374
-165.435791,679.870605,710.723877,0.304491
-163.146973,677.215576,710.723877,0.304608
-186.584473,685.913086,707.885742,0.304726
-169.647217,685.913086,707.885742,0.304843
-176.422119,678.039551,696.441650,0.304960
-176.422119,678.039551,707.336426,0.305077
-167.266846,674.652100,707.336426,0.305195
-143.829346,683.441162,717.956543,0.305312
-163.970947,683.441162,717.956543,0.305429
-161.956787,676.940918,705.871582,0.305547
-161.956787,700.378418,708.892822,0.305664
-157.379150,684.814453,708.892822,0.305781
-157.379150,682.617188,708.709717,0.305898
-156.646729,682.617188,685.272217,0.306016
-162.139893,683.807373,701.110840,0.306133
-162.139893,683.807373,704.589844,0.306251
-159.851074,684.356689,704.589844,0.306368
-159.851074,671.813965,702.850342,0.306483
-159.576416,671.813965,702.850342,0.306599
-163.879395,673.553467,694.610596,0.306713
-163.879395,696.990967,696.258545,0.306828
-171.203613,680.236816,696.258545,0.306942
-169.189453,684.722900,696.624756,0.307061
-169.189453,684.722900,706.420898,0.307177
-162.231445,680.603027,706.420898,0.307292
-162.231445,672.180176,704.040527,0.307412
-165.893555,679.504395,704.223633,0.307530
-165.893555,679.504395,704.223633,0.307646
-163.421631,686.096191,708.892822,0.307761
-163.421631,687.469482,709.075928,0.307876
-163.970947,687.469482,709.075928,0.307991
-164.886475,681.427002,708.801270,0.308119
-164.886475,677.856445,707.885742,0.308235
-162.139893,677.856445,707.885742,0.308354
-165.618896,686.096191,715.026855,0.308473
-165.618896,686.096191,714.385986,0.308590
-161.224365,686.920166,714.385986,0.308707
-184.661865,677.581787,711.090088,0.308825
-167.816162,677.581787,711.090088,0.308941
-162.780762,674.560547,705.505371,0.309058
-162.780762,678.771973,707.702637,0.309234
-165.161133,678.771973,707.702637,0.309352
-165.802002,675.018311,705.780029,0.309470
-165.802002,675.018311,714.202881,0.309587
-165.893555,686.004639,714.202881,0.309704
-142.456055,688.018799,708.251953,0.309821
-158.386230,688.018799,708.251953,0.309938
-158.203125,675.750732,701.751709,0.310055
-158.203125,699.188232,709.167480,0.310169
-159.576416,680.603027,709.167480,0.310284
-159.576416,671.630859,706.054688,0.310399
-161.041260,671.630859,706.054688,0.310514
-158.569336,668.609619,704.315186,0.310634
-158.386230,673.278809,702.301025,0.310753
-158.386230,673.278809,725.738525,0.310871
-163.146973,679.779053,703.399658,0.310988
-163.146973,682.983398,709.259033,0.311105
-161.590576,682.983398,709.259033,0.311222
-162.506104,676.483154,711.181641,0.311357
-162.506104,676.483154,715.484619,0.311472
-161.956787,682.342529,715.484619,0.311587
-161.956787,681.884766,718.231201,0.311702
-159.484863,681.884766,718.231201,0.311817
-166.809082,667.785645,701.660156,0.311943
-164.611816,672.363281,702.941895,0.312059
-164.611816,672.363281,704.498291,0.312174
-169.281006,675.476074,704.498291,0.312295
-162.597656,683.074951,707.427979,0.312413
-162.597656,683.074951,700.286865,0.312530
-162.780762,676.666260,700.286865,0.312647
-162.780762,678.405762,708.801270,0.312764
-166.900635,678.405762,708.801270,0.312882
-168.365479,673.187256,703.948975,0.312999
-168.365479,673.187256,712.738037,0.313116
-168.273926,674.102783,712.738037,0.313233
-168.273926,671.997070,709.533691,0.313350
-171.112061,671.997070,709.533691,0.313467
-163.513184,668.334961,700.836182,0.313584
-163.513184,668.334961,713.104248,0.313701
-159.667969,681.335449,713.104248,0.313818
-159.667969,677.947998,698.455811,0.313936
-160.308838,677.947998,698.455811,0.314052
-157.104492,676.666260,703.582764,0.314170
-157.104492,676.666260,706.787109,0.314287
-162.139893,678.039551,706.787109,0.314404
-185.577393,677.856445,705.230713,0.314522
-164.886475,677.856445,705.230713,0.314639
-172.302246,677.947998,697.265625,0.314756
-172.302246,677.947998,707.977295,0.314873
-165.802002,679.046631,707.977295,0.314990
-165.802002,673.553467,703.948975,0.315107
-167.266846,673.553467,703.948975,0.315225
-164.520264,687.835693,707.427979,0.315341
-164.520264,687.835693,708.709717,0.315458
-158.294678,688.568115,708.709717,0.315576
-167.449951,681.427002,704.681396,0.315692
-167.449951,681.427002,681.243896,0.315809
-158.294678,680.694580,697.540283,0.315926
-158.294678,680.694580,707.611084,0.316044
-162.506104,683.624268,707.611084,0.316160
-165.710449,678.405762,700.012207,0.316275
-165.710449,682.434082,703.491211,0.316404
-163.238525,682.434082,703.491211,0.316520
-163.604736,689.758301,708.068848,0.316638
-163.604736,689.758301,710.815430,0.316757
-159.667969,684.356689,710.815430,0.316875
-159.667969,678.131104,710.815430,0.316992
-159.301758,678.131104,710.815430,0.317109
-166.442871,679.504395,713.104248,0.317227
-166.442871,702.941895,712.646484,0.317343
-156.097412,684.997559,712.646484,0.317461
-179.534912,682.159424,710.723877,0.317578
-166.900635,682.159424,687.286377,0.317696
-169.006348,682.067871,702.301025,0.317813
-169.006348,682.067871,706.146240,0.317929
-171.386719,679.779053,706.146240,0.318047
-172.393799,670.989990,701.019287,0.318164
-172.393799,670.989990,724.456787,0.318281
-172.027588,681.335449,704.315186,0.318398
-172.027588,657.897949,705.596924,0.318516
-166.717529,678.314209,705.596924,0.318633
-161.224365,671.447754,702.301025,0.318750
-161.224365,671.447754,702.301025,0.318867
-156.829834,672.363281,698.547363,0.318984
-156.829834,675.476074,704.223633,0.319101
-163.879395,675.476074,704.223633,0.319218
-160.949707,679.504395,709.167480,0.319335
-160.949707,679.504395,708.892822,0.319453
-161.682129,685.272217,708.892822,0.319570
-161.682129,675.018311,698.913574,0.319687
-169.921875,675.018311,698.913574,0.319804
-165.710449,675.842285,696.258545,0.319920
-165.710449,675.842285,700.836182,0.320035
-164.062500,682.983398,700.836182,0.320158
-165.802002,688.018799,703.674316,0.320279
-165.802002,674.560547,702.301025,0.320456
-163.879395,674.560547,702.301025,0.320574
-168.090820,670.623779,709.625244,0.320692
-168.090820,670.623779,716.583252,0.320810
-165.893555,688.201904,716.583252,0.320927
-165.893555,685.363770,703.674316,0.321045
-168.365479,685.363770,703.674316,0.321161
-164.337158,685.363770,715.942383,0.321276
-164.337158,685.363770,718.231201,0.321391
-162.139893,680.419922,718.231201,0.321505
-185.577393,681.518555,720.703125,0.321620
-165.710449,658.081055,706.329346,0.321745
-169.097900,676.025391,706.329346,0.321864
-164.611816,679.504395,708.709717,0.321982
-164.611816,679.504395,685.272217,0.322099
-167.083740,673.736572,699.279785,0.322217
-167.083740,676.391602,706.512451,0.322335
-169.372559,676.391602,706.512451,0.322453
-166.076660,677.673340,705.963135,0.322570
-166.076660,677.673340,708.251953,0.322687
-167.358398,677.673340,708.251953,0.322804
-167.358398,684.631348,713.470459,0.322922
-163.421631,684.631348,713.470459,0.323039
-166.168213,682.891846,700.195312,0.323157
-166.168213,682.891846,703.857422,0.323275
-167.083740,678.588867,703.857422,0.323404
-171.295166,675.018311,707.427979,0.323523
-171.295166,698.455811,708.526611,0.323655
-169.006348,682.434082,708.526611,0.323773
-169.006348,680.419922,708.435059,0.323890
-166.717529,680.419922,708.435059,0.324008
-166.351318,681.884766,705.413818,0.324125
-166.351318,658.447266,708.068848,0.324243
-163.696289,676.757812,708.068848,0.324360
-187.133789,680.419922,696.899414,0.324477
-166.534424,680.419922,720.336914,0.324594
-166.625977,689.025879,705.963135,0.324711
-166.625977,689.025879,718.780518,0.324829
-155.090332,680.328369,718.780518,0.324948
-157.653809,681.060791,710.815430,0.325064
-157.653809,681.060791,710.815430,0.325181
-163.787842,682.800293,716.583252,0.325299
-163.787842,682.800293,712.921143,0.325416
-158.020020,682.525635,712.921143,0.325534
-165.435791,678.588867,704.772949,0.325651
-165.435791,678.588867,704.772949,0.325768
-170.379639,676.025391,706.512451,0.325886
-170.379639,671.997070,701.568604,0.326003
-170.013428,671.997070,701.568604,0.326127
-165.252686,679.138184,704.956055,0.326241
-165.252686,679.138184,681.518555,0.326356
-165.618896,682.708740,702.758789,0.326471
-165.618896,675.476074,702.667236,0.326586
-167.816162,675.476074,702.667236,0.326700
-164.794922,681.518555,704.406738,0.326815
-164.794922,681.518555,704.406738,0.326930
-165.527344,677.764893,712.921143,0.327044
-165.527344,674.468994,701.385498,0.327166
-175.323486,672.821045,698.638916,0.327294
-170.196533,696.258545,713.012695,0.327419
-160.858154,690.032959,713.012695,0.327538
-169.464111,682.891846,708.435059,0.327655
-169.464111,659.454346,704.589844,0.327773
-167.083740,676.849365,704.589844,0.327890
-158.294678,680.328369,708.892822,0.328008
-158.294678,680.328369,708.892822,0.328125
-166.625977,682.250977,704.681396,0.328243
-166.625977,682.067871,709.625244,0.328360
-166.717529,682.067871,709.625244,0.328478
-161.132812,682.891846,705.139160,0.328595
-161.132812,682.891846,681.701660,0.328712
-166.809082,673.370361,701.660156,0.328830
-166.809082,677.490234,701.843262,0.328947
-165.435791,677.490234,701.843262,0.329064
-168.182373,681.152344,707.885742,0.329181
-168.182373,681.152344,707.153320,0.329299
-166.625977,671.813965,707.153320,0.329416
-166.625977,681.243896,704.040527,0.329533
-165.344238,681.243896,704.040527,0.329650
-168.823242,685.638428,714.935303,0.329777
-168.823242,685.638428,708.435059,0.329893
-172.210693,680.969238,708.435059,0.330008
-172.210693,677.947998,709.167480,0.330122
-165.710449,677.947998,709.167480,0.330237
-167.816162,682.067871,717.864990,0.330352
-167.816162,682.067871,714.569092,0.330466
-163.787842,682.983398,714.569092,0.330587
-167.358398,668.884277,709.991455,0.330705
-167.358398,668.884277,709.991455,0.330822
-170.288086,680.236816,708.526611,0.330940
-170.288086,656.799316,706.878662,0.331058
-162.414551,678.588867,706.878662,0.331175
-165.527344,674.285889,706.787109,0.331292
-165.527344,674.285889,706.787109,0.331409
-167.175293,683.624268,703.399658,0.331526
-143.737793,686.828613,713.653564,0.331700
-162.689209,686.828613,713.653564,0.331818
-171.661377,671.813965,704.681396,0.331936
-171.661377,671.813965,711.547852,0.332053
-171.661377,678.131104,711.547852,0.332170
-171.661377,682.617188,705.139160,0.332293
-168.823242,682.617188,705.139160,0.332408
-159.301758,678.039551,708.160400,0.332522
-159.301758,701.477051,707.427979,0.332637
-165.985107,681.610107,707.427979,0.332754
-167.449951,672.912598,698.547363,0.332875
-167.449951,672.912598,702.575684,0.332993
-160.766602,677.764893,702.575684,0.333110
-184.204102,676.666260,701.019287,0.333227
-167.633057,676.666260,701.019287,0.333345
-162.872314,679.870605,702.850342,0.333461
-162.872314,679.870605,703.125000,0.333576
-161.865234,680.786133,703.125000,0.333691
-161.865234,681.793213,713.287354,0.333813
-159.851074,681.793213,710.723877,0.333932
-163.421631,682.525635,710.723877,0.334049
-186.859131,678.314209,705.871582,0.334166
-168.548584,678.314209,705.871582,0.334284
-168.548584,689.941406,709.442139,0.334401
-168.548584,666.503906,706.970215,0.334519
-170.837402,674.743652,706.970215,0.334637
-163.513184,686.645508,714.935303,0.334755
-163.513184,686.645508,691.497803,0.334872
