ACC_X,ACC_Y,ACC_Z,Time
-427.185059,795.959473,446.868896,0.000151
-444.122314,793.945312,452.545166,0.000947
-416.473389,795.867920,429.840088,0.001688
-420.959473,793.121338,454.925537,0.002429
-417.938232,789.459229,447.326660,0.003169
-420.593262,792.205811,444.854736,0.003920
-415.466309,791.656494,452.362061,0.004661
-419.403076,787.902832,450.897217,0.005401
-415.557861,783.416748,447.601318,0.006141
-413.635254,784.057617,451.538086,0.006893
-416.198730,779.296875,448.883057,0.007633
-413.085938,775.726318,452.453613,0.008373
-409.149170,783.508301,443.939209,0.009113
-407.409668,780.853271,451.080322,0.009863
-407.409668,776.550293,442.840576,0.010603
-417.388916,772.430420,449.981689,0.011367
-421.875000,772.613525,450.073242,0.012125
-418.212891,775.177002,444.213867,0.012893
-413.543701,768.585205,448.883057,0.013635
-418.853760,773.529053,447.875977,0.014375
-425.811768,777.465820,446.319580,0.015115
-413.635254,778.289795,441.101074,0.015882
-406.677246,777.557373,452.728271,0.016649
-407.501221,779.022217,447.326660,0.017396
-401.458740,796.234131,452.819824,0.018157
-411.346436,769.042969,447.784424,0.018898
-408.782959,770.050049,446.502686,0.019638
-412.170410,768.310547,423.980713,0.020377
-415.832520,769.775391,440.093994,0.021128
-413.635254,773.162842,431.121826,0.021865
-409.332275,778.472900,443.939209,0.022602
-416.381836,770.965576,443.206787,0.023356
-408.142090,773.712158,452.911377,0.024123
-404.937744,776.184082,445.129395,0.024863
-405.670166,779.205322,448.425293,0.025602
-408.142090,778.747559,450.531006,0.026341
-402.923584,784.606934,456.024170,0.027095
-410.797119,774.993896,456.481934,0.027834
-408.416748,783.233643,452.911377,0.028573
-400.817871,784.973145,457.214355,0.029312
-409.240723,774.902344,447.418213,0.030065
-398.895264,774.902344,451.995850,0.030815
-402.740479,779.479980,459.411621,0.031555
-397.979736,778.381348,447.326660,0.032294
-375.274658,781.219482,450.897217,0.033041
-397.796631,784.057617,452.270508,0.033784
-400.360107,789.916992,450.988770,0.034524
-409.240723,780.395508,454.742432,0.035263
-402.282715,782.867432,448.883057,0.036013
-394.134521,783.142090,460.510254,0.036768
-397.338867,782.409668,455.566406,0.037512
-396.606445,782.592773,447.967529,0.038264
-399.719238,779.205322,449.707031,0.039017
-399.993896,779.388428,453.002930,0.039759
-397.247314,784.149170,457.946777,0.040499
-399.169922,781.036377,453.094482,0.041249
-398.712158,782.775879,449.707031,0.041986
-402.832031,777.923584,450.347900,0.042723
-403.015137,771.514893,460.418701,0.043473
-405.120850,778.106689,451.812744,0.044214
-408.874512,771.972656,452.362061,0.044953
-398.254395,776.458740,453.460693,0.045692
-394.134521,752.288818,452.178955,0.046435
-399.993896,767.211914,458.496094,0.047179
-396.057129,768.859863,452.636719,0.047928
-401.458740,772.705078,455.108643,0.048668
-397.613525,775.634766,454.376221,0.049417
-395.874023,777.099609,456.756592,0.050157
-393.402100,774.902344,446.044922,0.050896
-397.613525,771.697998,447.235107,0.051635
-398.895264,753.479004,452.728271,0.052375
-396.881104,772.888184,454.101562,0.053114
-391.845703,772.521973,455.474854,0.053853
-393.585205,775.360107,461.059570,0.054592
-393.218994,778.015137,453.186035,0.055332
-395.782471,754.302979,449.157715,0.056071
-390.930176,768.585205,453.369141,0.056810
-395.233154,770.416260,447.235107,0.057549
-394.317627,774.536133,448.883057,0.058298
-397.430420,771.789551,458.587646,0.059038
-397.064209,772.521973,456.481934,0.059778
-407.958984,773.986816,460.418701,0.060517
-398.071289,770.416260,454.742432,0.061256
-403.472900,770.324707,454.467773,0.062003
-402.648926,767.944336,456.848145,0.062740
-377.471924,767.120361,455.474854,0.063483
-393.218994,762.817383,455.383301,0.064233
-395.233154,769.042969,450.256348,0.065031
-394.866943,770.507812,454.284668,0.065784
-399.993896,763.732910,443.756104,0.066556
-403.015137,764.099121,455.017090,0.067295
-405.212402,766.571045,457.122803,0.068035
-402.648926,766.662598,443.664551,0.068774
-395.874023,762.542725,445.404053,0.069521
-399.169922,760.620117,446.502686,0.070258
-404.846191,752.929688,449.981689,0.071100
-401.000977,756.591797,449.981689,0.071837
-409.881592,756.317139,442.565918,0.072592
-401.824951,758.148193,447.235107,0.073333
-400.817871,765.838623,448.699951,0.074073
-402.557373,762.268066,445.129395,0.074825
-400.726318,771.423340,452.911377,0.075565
-417.755127,763.000488,450.531006,0.076305
-411.254883,765.930176,451.812744,0.077044
-400.634766,766.479492,450.347900,0.077783
-405.029297,766.204834,430.938721,0.078522
-401.184082,768.768311,450.073242,0.079261
-405.120850,765.838623,450.897217,0.080000
-405.578613,766.204834,451.538086,0.080738
-411.346436,767.395020,451.538086,0.081486
-406.585693,769.866943,455.017090,0.082234
-407.226562,772.979736,446.777344,0.082984
-409.790039,770.507812,450.805664,0.083723
-403.381348,771.697998,457.763672,0.084462
-404.846191,770.507812,448.516846,0.085200
-409.698486,771.331787,443.023682,0.085939
-411.163330,765.472412,459.777832,0.086688
-416.198730,766.845703,452.178955,0.087427
-408.142090,772.796631,450.622559,0.088165
-409.606934,772.430420,449.157715,0.088904
-411.987305,775.543213,454.376221,0.089668
-410.614014,770.874023,456.390381,0.090416
-406.860352,796.051025,458.312988,0.091156
-412.078857,773.071289,451.354980,0.091895
-409.423828,771.514893,452.636719,0.092656
-410.339355,768.768311,453.460693,0.093395
-413.452148,774.627686,451.812744,0.094134
-408.233643,781.127930,448.883057,0.094873
-415.832520,773.437500,448.333740,0.095623
-408.782959,775.268555,443.115234,0.096363
-411.529541,771.789551,444.122314,0.097102
-414.367676,777.557373,449.707031,0.097841
-415.649414,780.395508,445.678711,0.098590
-414.184570,783.050537,438.812256,0.099329
-410.156250,782.318115,452.178955,0.100067
-409.423828,778.747559,452.911377,0.100806
-409.149170,777.923584,446.502686,0.101554
-415.374756,775.634766,443.939209,0.102294
-414.093018,773.345947,446.868896,0.103032
-417.022705,779.022217,446.777344,0.103771
-421.325684,782.958984,449.157715,0.104517
-421.234131,776.458740,451.263428,0.105253
-420.318604,777.465820,449.615479,0.105989
-420.684814,780.120850,444.946289,0.106742
-422.424316,776.733398,450.805664,0.107496
-424.621582,769.317627,439.910889,0.108236
-439.178467,780.670166,445.770264,0.108975
-418.762207,772.888184,443.206787,0.109714
-424.713135,783.142090,452.911377,0.110464
-427.734375,778.015137,450.073242,0.111204
-421.325684,777.923584,443.115234,0.111942
-426.635742,780.487061,447.692871,0.112681
-426.086426,783.416748,453.735352,0.113434
-423.614502,776.458740,446.319580,0.114174
-422.882080,778.381348,451.721191,0.114913
-424.438477,787.078857,453.552246,0.115653
-425.262451,777.465820,454.925537,0.116402
-427.551270,776.275635,450.164795,0.117142
-424.987793,785.797119,447.601318,0.117880
-423.522949,782.775879,447.326660,0.118619
-420.867920,779.479980,445.861816,0.119359
-422.607422,776.824951,444.580078,0.120090
-423.339844,784.973145,446.411133,0.120820
-428.924561,782.684326,444.488525,0.121561
-427.185059,784.149170,450.531006,0.122313
-425.994873,777.648926,450.897217,0.123054
-431.304932,774.719238,445.495605,0.123792
-427.459717,783.508301,449.707031,0.124531
-424.438477,779.022217,446.594238,0.125282
-430.297852,788.177490,443.023682,0.126021
-420.501709,780.761719,440.734863,0.126760
-425.537109,776.092529,423.156738,0.127498
-419.677734,789.733887,448.883057,0.128245
-420.043945,787.628174,446.777344,0.128981
-417.022705,788.269043,448.974609,0.129716
-424.987793,787.261963,445.587158,0.130467
-430.572510,781.127930,442.840576,0.131218
-421.234131,777.648926,443.206787,0.131959
-425.445557,781.768799,447.418213,0.132699
-418.212891,780.578613,439.178467,0.133440
-422.973633,787.628174,446.777344,0.134190
-418.762207,785.705566,441.284180,0.134930
-432.128906,779.388428,442.749023,0.135672
-421.691895,783.782959,447.509766,0.136412
-419.586182,782.318115,448.150635,0.137163
-430.206299,784.515381,445.312500,0.137904
-426.635742,786.712646,449.615479,0.138644
-420.959473,786.254883,447.418213,0.139384
-424.804688,790.924072,451.446533,0.140135
-423.431396,780.853271,444.580078,0.140875
-425.262451,782.318115,442.382812,0.141697
-420.684814,789.825439,445.770264,0.142439
-423.431396,786.346436,445.129395,0.143179
-422.515869,788.452148,442.291260,0.143930
-425.903320,787.078857,446.777344,0.144676
-422.607422,789.276123,453.460693,0.145425
-424.072266,786.437988,444.580078,0.146156
-428.100586,787.811279,458.953857,0.146886
-430.572510,777.099609,466.552734,0.147616
-424.346924,780.761719,443.298340,0.148368
-425.903320,784.515381,456.939697,0.149107
-424.987793,791.473389,448.333740,0.149846
-422.882080,788.269043,445.404053,0.150584
-422.058105,781.951904,446.228027,0.151333
-422.058105,789.825439,445.220947,0.152072
-445.129395,787.902832,442.749023,0.152811
-426.910400,787.078857,448.150635,0.153550
-428.100586,787.445068,445.404053,0.154296
-424.713135,786.712646,441.284180,0.155047
-428.009033,779.846191,467.742920,0.155789
-425.537109,785.522461,445.678711,0.156529
-424.804688,786.163330,449.157715,0.157280
-426.361084,780.944824,447.418213,0.158021
-420.593262,788.452148,444.122314,0.158761
-425.354004,779.754639,450.805664,0.159502
-426.452637,785.156250,453.094482,0.160252
-439.361572,784.698486,448.791504,0.161007
-415.008545,795.867920,449.157715,0.161750
-419.952393,786.163330,444.671631,0.162550
-423.431396,778.289795,454.559326,0.163309
-424.346924,784.881592,448.242188,0.164050
-424.163818,788.635254,449.066162,0.164781
-420.867920,783.966064,447.052002,0.165548
-427.551270,775.543213,441.284180,0.166289
-425.537109,777.191162,441.925049,0.167029
-405.487061,784.240723,451.721191,0.167769
-417.114258,781.768799,448.699951,0.168513
-427.093506,771.057129,446.411133,0.169244
-428.100586,785.064697,445.037842,0.169974
-431.579590,775.360107,446.777344,0.170704
-430.114746,778.381348,451.171875,0.171369
-424.163818,775.909424,445.129395,0.172110
-428.375244,773.986816,442.840576,0.172850
-426.544189,774.078369,445.953369,0.173590
-431.396484,773.895264,438.629150,0.174340
-427.276611,775.085449,438.995361,0.175080
-430.389404,778.381348,444.122314,0.175821
-426.910400,782.867432,442.840576,0.176561
-422.515869,777.374268,437.988281,0.177321
-424.896240,780.029297,444.396973,0.178067
-429.656982,774.078369,440.826416,0.178806
-423.980713,774.719238,444.946289,0.179545
-425.262451,771.789551,464.447021,0.180301
-429.290771,781.860352,442.108154,0.181040
-430.572510,771.331787,440.551758,0.181779
-423.614502,781.951904,445.587158,0.182518
-421.600342,776.184082,441.741943,0.183267
-421.325684,778.289795,444.671631,0.184006
-422.241211,768.493652,443.389893,0.184745
-418.670654,784.240723,441.192627,0.185484
-420.684814,777.282715,446.777344,0.186232
-427.551270,776.733398,436.431885,0.186972
-424.713135,771.057129,436.340332,0.187710
-422.790527,776.275635,440.093994,0.188449
-406.402588,771.514893,448.242188,0.189198
-424.346924,775.909424,441.192627,0.189937
-421.142578,771.789551,441.192627,0.190676
-424.713135,771.240234,442.016602,0.191415
-420.318604,767.944336,437.072754,0.192164
-418.304443,777.282715,441.741943,0.192904
-423.248291,773.803711,447.692871,0.193644
-420.959473,775.268555,437.896729,0.194382
-418.487549,769.775391,436.340332,0.195132
-415.100098,781.036377,441.375732,0.195872
-414.276123,778.106689,441.467285,0.196610
-412.719727,775.085449,441.558838,0.197349
-420.135498,779.113770,439.910889,0.198098
-420.501709,778.381348,440.917969,0.198837
-419.494629,783.599854,448.242188,0.199576
-421.051025,778.656006,444.122314,0.200325
-419.860840,776.092529,445.587158,0.201101
-423.339844,782.135010,446.502686,0.201854
-421.966553,785.247803,446.411133,0.202606
-418.670654,777.008057,445.312500,0.203345
-420.043945,776.641846,444.946289,0.204084
-416.931152,778.747559,444.122314,0.204838
-413.543701,779.846191,447.967529,0.205596
-416.381836,781.402588,443.847656,0.206343
-417.205811,786.621094,438.812256,0.207109
-420.227051,787.811279,445.770264,0.207856
-413.543701,782.501221,446.502686,0.208595
-417.480469,785.156250,443.206787,0.209362
-424.346924,786.529541,442.840576,0.210115
-408.508301,792.114258,443.756104,0.210874
-416.381836,787.994385,441.558838,0.211625
-420.776367,784.698486,445.495605,0.212414
-424.072266,790.924072,438.629150,0.213262
-416.564941,788.726807,440.185547,0.214003
-416.564941,790.374756,444.671631,0.214743
-414.367676,788.635254,444.396973,0.215497
-416.198730,792.572021,445.953369,0.216228
-420.227051,786.804199,443.847656,0.216959
-423.706055,781.311035,442.016602,0.217689
-422.241211,786.621094,442.382812,0.218443
-413.360596,789.642334,446.777344,0.219182
-419.860840,788.452148,441.925049,0.219921
-420.501709,787.261963,443.481445,0.220659
-407.958984,779.846191,435.791016,0.221407
-416.015625,789.184570,441.101074,0.222146
-413.909912,786.621094,445.861816,0.222884
-420.684814,792.572021,434.234619,0.223623
-422.058105,788.177490,437.805176,0.224379
-421.508789,786.254883,445.678711,0.225121
-418.487549,777.099609,440.368652,0.225860
-422.607422,785.888672,441.009521,0.226600
-420.227051,784.606934,442.749023,0.227355
-423.522949,785.980225,442.199707,0.228097
-423.614502,793.212891,441.925049,0.228836
-415.832520,787.536621,442.474365,0.229575
-420.227051,785.888672,446.136475,0.230324
-420.043945,784.149170,447.784424,0.231061
-417.755127,788.177490,447.875977,0.231798
-428.009033,785.064697,443.572998,0.232560
-424.438477,788.360596,434.417725,0.233302
-420.867920,785.430908,438.354492,0.234060
-419.860840,790.283203,441.925049,0.234800
-433.685303,786.804199,434.143066,0.235575
-428.741455,787.628174,442.565918,0.236317
-430.389404,792.297363,442.199707,0.237057
-427.276611,791.839600,441.925049,0.237798
-430.938721,797.698975,438.354492,0.238543
-431.579590,792.755127,438.995361,0.239273
-427.093506,800.170898,423.248291,0.240004
-432.769775,791.839600,443.572998,0.240734
-429.199219,782.409668,433.685303,0.241485
-425.903320,785.247803,442.749023,0.242224
-430.480957,791.381836,444.122314,0.242964
-435.150146,781.768799,443.115234,0.243704
-431.488037,782.684326,432.495117,0.244452
-425.720215,776.367188,436.614990,0.245192
-425.994873,778.930664,441.467285,0.245932
-426.727295,788.085938,438.995361,0.246671
-434.783936,779.479980,440.185547,0.247421
-430.755615,779.754639,445.312500,0.248161
-433.227539,784.881592,442.749023,0.248900
-433.685303,785.522461,433.959961,0.249651
-436.431885,788.177490,434.417725,0.250407
-435.241699,783.416748,440.277100,0.251147
-438.354492,783.966064,436.065674,0.251887
-438.720703,782.226562,437.622070,0.252627
-435.699463,782.318115,442.565918,0.253377
-433.776855,777.648926,450.256348,0.254117
-430.023193,777.099609,439.086914,0.254857
-432.128906,776.733398,442.565918,0.255596
-431.030273,780.395508,444.030762,0.256345
-429.382324,783.874512,445.129395,0.257084
-429.199219,774.536133,439.270020,0.257823
-427.276611,784.057617,442.199707,0.258563
-428.100586,776.733398,437.622070,0.259312
-429.656982,787.902832,445.770264,0.260052
-425.811768,785.888672,438.262939,0.260792
-431.945801,783.325195,439.819336,0.261531
-426.177979,774.444580,438.995361,0.262280
-426.452637,784.698486,433.776855,0.263021
-428.100586,786.712646,435.516357,0.263760
-425.628662,788.269043,435.882568,0.264499
-423.889160,782.409668,442.932129,0.265249
-430.755615,786.163330,436.889648,0.265989
-428.283691,788.269043,437.347412,0.266729
-430.480957,791.198730,441.101074,0.267468
-424.987793,797.241211,443.389893,0.268218
-426.086426,796.325684,447.143555,0.268958
-425.170898,790.832520,439.636230,0.269697
-422.973633,789.184570,447.052002,0.270437
-419.860840,794.494629,441.650391,0.271187
-414.459229,793.487549,439.727783,0.271926
-417.022705,793.853760,444.305420,0.272666
-416.107178,792.572021,442.199707,0.273405
-421.966553,798.522949,444.671631,0.274154
-421.417236,793.853760,448.333740,0.274904
-411.804199,804.199219,454.742432,0.275657
-416.564941,791.290283,445.312500,0.276415
-406.951904,793.853760,455.017090,0.277188
-406.951904,779.113770,448.150635,0.277928
-414.367676,801.452637,453.002930,0.278668
-407.684326,798.889160,443.389893,0.279407
-408.233643,806.213379,447.509766,0.280156
-406.494141,798.339844,442.657471,0.280896
-403.015137,802.185059,442.565918,0.281635
-409.973145,799.255371,447.601318,0.282374
-403.656006,797.790527,456.207275,0.283123
-411.621094,776.184082,447.875977,0.283952
-414.184570,795.043945,445.495605,0.284692
-411.437988,796.325684,442.382812,0.285432
-403.930664,801.910400,446.868896,0.286171
-407.501221,793.487549,440.368652,0.286910
-407.867432,788.635254,444.763184,0.287649
-399.993896,791.473389,445.129395,0.288390
-406.311035,796.783447,447.509766,0.289129
-402.923584,802.551270,449.981689,0.289869
-408.874512,788.543701,447.875977,0.290608
-403.381348,797.698975,446.319580,0.291348
-407.409668,788.543701,445.953369,0.292099
-407.226562,789.825439,445.495605,0.292838
-402.740479,783.416748,444.396973,0.293577
-401.092529,790.924072,437.896729,0.294316
-400.451660,788.269043,447.052002,0.295062
-401.641846,793.945312,446.685791,0.295799
-398.803711,787.902832,445.678711,0.296551
-403.381348,789.093018,445.770264,0.297292
-406.677246,789.916992,448.699951,0.298031
-401.275635,786.437988,438.629150,0.298770
-403.747559,779.113770,443.756104,0.299509
-396.697998,790.832520,447.784424,0.300248
-420.410156,787.628174,438.903809,0.301002
-398.071289,786.346436,444.030762,0.301741
-402.740479,792.663574,448.059082,0.302480
-403.289795,786.804199,442.108154,0.303220
-401.184082,785.430908,436.614990,0.303959
-397.613525,788.543701,446.319580,0.304689
-398.986816,781.860352,442.199707,0.305444
-398.803711,778.472900,443.481445,0.306217
-405.578613,782.043457,441.650391,0.306983
-402.740479,782.775879,447.052002,0.307731
-409.606934,780.395508,440.002441,0.308472
-400.360107,780.029297,446.044922,0.309234
-408.966064,772.338867,437.530518,0.309978
-397.705078,782.958984,437.805176,0.310720
-405.761719,789.001465,440.093994,0.311462
-402.557373,780.487061,433.868408,0.312257
-400.451660,780.395508,436.523438,0.313029
-410.064697,782.135010,437.988281,0.313792
-407.318115,783.050537,443.389893,0.314540
-406.677246,776.641846,437.072754,0.315298
-403.106689,781.219482,432.220459,0.316028
-415.191650,780.670166,430.114746,0.316758
-413.177490,789.825439,438.446045,0.317488
-410.247803,782.592773,427.185059,0.318244
-414.916992,786.163330,433.776855,0.318985
-412.078857,786.163330,431.488037,0.319726
-411.895752,781.951904,434.417725,0.320484
-411.712646,777.191162,426.727295,0.321235
-411.529541,780.670166,441.009521,0.321976
-416.564941,789.733887,439.086914,0.322717
-416.564941,785.797119,442.016602,0.323458
-417.114258,785.614014,438.995361,0.324199
-418.670654,790.374756,437.164307,0.324940
-420.593262,785.705566,436.706543,0.325682
-418.579102,783.508301,435.516357,0.326423
-419.311523,784.790039,438.354492,0.327164
-420.776367,787.261963,438.995361,0.327905
-419.860840,791.015625,433.959961,0.328646
-416.564941,785.522461,434.326172,0.329387
-412.811279,791.198730,431.030273,0.330128
-419.952393,786.895752,436.340332,0.330869
-422.790527,786.621094,442.199707,0.331610
-422.241211,783.142090,438.354492,0.332364
-422.790527,781.311035,432.037354,0.333105
-413.177490,777.282715,431.579590,0.333846
-416.381836,778.289795,436.706543,0.334586
-421.966553,783.966064,441.375732,0.335336
-420.867920,778.289795,437.438965,0.336077
-422.332764,783.233643,437.530518,0.336819
-422.515869,788.452148,431.671143,0.337559
-417.846680,788.085938,437.713623,0.338307
-430.480957,794.769287,431.488037,0.339038
-426.544189,786.254883,437.805176,0.339768
-427.734375,792.480469,431.762695,0.340498
-401.367188,791.290283,437.622070,0.341232
-419.677734,789.184570,433.868408,0.341973
-425.445557,787.719727,430.664062,0.342714
-428.009033,789.825439,432.220459,0.343455
-421.691895,789.276123,434.600830,0.344197
-426.818848,788.635254,425.354004,0.344938
-422.241211,790.466309,428.924561,0.345679
-432.312012,789.825439,437.255859,0.346420
-429.016113,792.572021,443.023682,0.347171
-426.635742,790.832520,447.052002,0.347912
-425.170898,797.973633,448.516846,0.348654
-422.424316,797.882080,443.939209,0.349395
-434.875488,793.579102,450.805664,0.350147
-430.114746,788.818359,446.960449,0.350888
-426.086426,798.889160,462.158203,0.351630
-422.241211,797.973633,443.115234,0.352371
-421.783447,796.234131,444.488525,0.353121
-418.395996,793.304443,439.636230,0.353863
-425.537109,796.234131,447.875977,0.354690
-424.896240,779.754639,441.467285,0.355431
-428.649902,795.959473,440.734863,0.356173
-433.227539,794.128418,444.671631,0.356914
-426.635742,797.882080,443.298340,0.357656
-422.515869,794.860840,434.600830,0.358404
-422.607422,792.572021,430.755615,0.359173
-421.875000,791.564941,432.769775,0.359916
-419.128418,791.839600,440.460205,0.360656
-418.487549,792.755127,440.643311,0.361397
-425.628662,792.938232,441.101074,0.362137
-403.015137,789.916992,435.699463,0.362878
-418.945312,789.642334,439.727783,0.363619
-416.564941,796.508789,441.925049,0.364359
-421.051025,791.198730,442.108154,0.365097
-423.156738,791.656494,443.572998,0.365827
-418.579102,792.114258,443.756104,0.366557
-417.938232,790.100098,468.658447,0.367287
-414.184570,793.945312,440.185547,0.368023
-412.445068,791.015625,442.840576,0.368764
-418.579102,792.297363,443.115234,0.369504
-419.952393,785.522461,447.967529,0.370243
-418.304443,789.733887,444.488525,0.370984
-414.093018,781.036377,440.917969,0.371724
-416.748047,792.022705,441.375732,0.372464
-412.811279,794.494629,434.051514,0.373203
-407.409668,785.156250,447.235107,0.373943
-404.937744,793.304443,447.326660,0.374681
-413.543701,808.135986,455.017090,0.375417
-412.261963,794.311523,445.861816,0.376185
-417.388916,792.938232,449.615479,0.376936
-410.064697,788.269043,445.587158,0.377701
-418.029785,786.529541,448.791504,0.378450
-415.557861,779.205322,448.333740,0.379191
-413.818359,787.261963,439.727783,0.379958
-410.156250,787.994385,444.763184,0.380699
-405.761719,786.254883,441.284180,0.381440
-407.135010,787.994385,443.756104,0.382183
-417.755127,790.740967,450.073242,0.382937
-411.804199,787.628174,440.826416,0.383679
-416.015625,786.621094,436.065674,0.384420
-409.515381,793.579102,449.798584,0.385161
-410.156250,794.219971,445.404053,0.385912
-407.318115,796.142578,441.925049,0.386654
-408.691406,795.135498,445.587158,0.387395
-411.346436,787.445068,448.608398,0.388136
-407.135010,784.973145,441.009521,0.388888
-413.818359,791.839600,455.749512,0.389629
-397.064209,792.114258,447.601318,0.390370
-401.641846,782.501221,443.389893,0.391116
-412.353516,792.480469,452.819824,0.391883
-407.958984,792.938232,452.728271,0.392623
-405.487061,796.142578,460.601807,0.393363
-404.205322,789.825439,449.432373,0.394102
-402.465820,792.297363,451.629639,0.394852
-407.409668,785.705566,447.875977,0.395592
-405.395508,792.938232,443.664551,0.396333
-403.198242,794.586182,444.213867,0.397073
-404.754639,793.487549,446.868896,0.397822
-405.120850,793.945312,441.009521,0.398563
-398.437500,788.085938,445.861816,0.399302
-399.261475,794.586182,443.115234,0.400042
-408.599854,789.001465,440.734863,0.400792
-404.754639,790.740967,437.347412,0.401532
-406.860352,787.719727,436.798096,0.402271
-405.395508,791.839600,442.657471,0.403011
-406.860352,785.797119,446.685791,0.403761
-400.817871,788.818359,440.368652,0.404500
-404.205322,785.980225,443.298340,0.405240
-402.740479,779.022217,441.925049,0.405979
-404.754639,787.536621,442.474365,0.406729
-400.177002,787.902832,437.255859,0.407469
-400.634766,779.022217,442.291260,0.408208
-405.212402,779.113770,432.128906,0.408948
-407.867432,780.944824,431.762695,0.409698
-398.345947,777.648926,439.544678,0.410439
-394.775391,791.473389,439.361572,0.411179
-411.163330,784.606934,439.453125,0.411918
-404.022217,778.656006,449.066162,0.412668
-411.987305,780.761719,434.143066,0.413408
-405.395508,780.944824,438.446045,0.414147
-401.184082,782.043457,441.558838,0.414887
-411.895752,780.212402,440.917969,0.415636
-406.677246,773.803711,435.058594,0.416375
-404.113770,779.205322,434.967041,0.417115
-408.966064,779.388428,435.241699,0.417854
-411.621094,770.965576,435.791016,0.418604
-411.529541,773.986816,440.277100,0.419344
-410.064697,776.000977,433.868408,0.420083
-406.585693,773.620605,438.262939,0.420822
-410.705566,772.521973,429.016113,0.421572
-405.395508,772.521973,437.255859,0.422312
-415.283203,768.035889,431.030273,0.423051
-412.719727,760.711670,437.988281,0.423790
-415.283203,763.916016,430.297852,0.424540
-415.649414,765.747070,435.516357,0.425280
-413.543701,768.493652,432.586670,0.426115
-418.212891,774.627686,431.488037,0.426856
-411.621094,776.916504,435.607910,0.427606
-415.649414,777.008057,439.270020,0.428346
-418.670654,763.000488,435.058594,0.429085
-416.290283,769.317627,429.290771,0.429825
-419.036865,767.669678,423.522949,0.430600
-419.311523,775.726318,430.572510,0.431353
-415.008545,795.227051,435.058594,0.432121
-419.128418,774.902344,439.910889,0.432869
-419.952393,763.183594,424.896240,0.433609
-423.614502,764.190674,427.093506,0.434348
-412.902832,767.761230,428.466797,0.435088
-420.043945,764.739990,435.241699,0.435829
-420.318604,767.944336,431.030273,0.436568
-425.354004,767.578125,426.544189,0.437308
-427.185059,770.874023,426.635742,0.438048
-421.966553,773.437500,429.565430,0.438788
-419.311523,776.092529,419.860840,0.439528
-418.304443,776.367188,422.424316,0.440268
-418.670654,772.430420,434.234619,0.441009
-422.882080,752.929688,432.128906,0.441750
-420.410156,772.155762,427.459717,0.442490
-420.867920,771.972656,431.579590,0.443229
-419.311523,783.325195,431.213379,0.443969
-421.051025,788.269043,436.706543,0.444709
-422.515869,792.572021,436.340332,0.445446
-429.473877,789.825439,437.896729,0.446183
-425.994873,791.290283,439.819336,0.446941
-431.488037,778.930664,435.974121,0.447722
-427.551270,793.487549,436.981201,0.448488
-429.290771,792.022705,448.425293,0.449238
-432.037354,784.973145,434.692383,0.449979
-426.361084,788.909912,448.699951,0.450742
-424.896240,790.557861,465.087891,0.451484
-429.199219,795.135498,444.854736,0.452224
-430.206299,791.381836,443.298340,0.452965
-432.678223,790.283203,442.382812,0.453715
-427.734375,786.254883,432.586670,0.454457
-429.840088,786.621094,434.967041,0.455197
-428.924561,782.867432,433.959961,0.455938
-432.128906,780.761719,437.530518,0.456689
-429.565430,783.142090,432.678223,0.457431
-430.206299,785.797119,433.959961,0.458172
-427.459717,785.522461,436.798096,0.458913
-426.910400,768.859863,432.952881,0.459660
-424.346924,774.078369,438.446045,0.460390
-427.917480,780.761719,436.798096,0.461120
-423.614502,776.550293,440.917969,0.461850
-427.368164,781.219482,432.861328,0.462599
-430.755615,778.930664,435.516357,0.463332
-427.917480,777.465820,431.030273,0.464062
-429.107666,787.811279,436.340332,0.464793
-424.438477,784.332275,435.791016,0.465549
-430.572510,784.515381,438.262939,0.466290
-430.480957,782.318115,450.256348,0.467030
-419.677734,778.198242,447.875977,0.467769
-416.656494,788.085938,443.847656,0.468522
-421.051025,786.529541,437.347412,0.469262
-426.635742,786.254883,445.220947,0.470001
-428.009033,789.550781,441.925049,0.470750
-421.417236,785.064697,446.868896,0.471528
-416.107178,786.895752,426.544189,0.472286
-419.860840,782.501221,447.418213,0.473034
-421.691895,786.804199,441.558838,0.473778
-416.473389,778.839111,445.404053,0.474519
-421.325684,788.726807,443.389893,0.475260
-421.691895,786.895752,446.960449,0.476001
-414.001465,783.599854,443.298340,0.476759
-419.403076,783.508301,444.396973,0.477501
-422.058105,786.895752,423.248291,0.478242
-420.227051,772.979736,436.798096,0.478982
-415.649414,778.015137,440.460205,0.479734
-414.916992,781.402588,442.474365,0.480475
-415.649414,778.198242,441.558838,0.481217
-416.564941,782.958984,442.840576,0.481958
-415.740967,776.458740,443.206787,0.482700
-412.628174,783.874512,436.431885,0.483441
-408.782959,780.944824,437.164307,0.484182
-417.755127,767.028809,445.129395,0.484923
-412.261963,773.437500,444.946289,0.485668
-405.944824,777.374268,448.150635,0.486416
-404.571533,777.099609,439.727783,0.487157
-411.987305,781.585693,440.368652,0.487898
-410.430908,790.100098,440.002441,0.488642
-411.254883,783.508301,446.777344,0.489389
-411.346436,779.205322,443.481445,0.490130
-404.937744,782.684326,444.396973,0.490871
-408.508301,784.881592,446.594238,0.491612
-413.360596,782.135010,448.791504,0.492363
-414.825439,777.191162,442.016602,0.493104
-411.437988,780.303955,446.960449,0.493846
-407.043457,789.916992,440.460205,0.494587
-407.318115,782.501221,443.298340,0.495338
-405.761719,782.409668,437.622070,0.496079
-408.325195,782.409668,440.368652,0.496928
-400.085449,784.606934,444.854736,0.497685
-404.663086,781.768799,445.129395,0.498416
-413.909912,779.754639,439.727783,0.499148
-411.987305,785.247803,441.467285,0.499881
-405.120850,779.754639,433.044434,0.500620
-407.592773,787.261963,439.910889,0.501361
-409.698486,782.592773,441.375732,0.502100
-408.874512,781.951904,440.551758,0.502839
-411.437988,776.733398,438.446045,0.503579
-407.684326,781.494141,434.143066,0.504319
-401.367188,781.768799,430.664062,0.505058
-408.142090,775.268555,430.480957,0.505798
-401.824951,778.930664,443.023682,0.506549
-408.508301,788.635254,436.798096,0.507289
-404.846191,790.924072,446.136475,0.508028
-403.656006,784.423828,441.284180,0.508767
-408.508301,790.008545,445.037842,0.509508
-409.973145,791.290283,441.925049,0.510247
-406.311035,789.916992,439.544678,0.510987
-406.951904,790.100098,440.460205,0.511726
-378.295898,799.346924,441.467285,0.512466
-404.571533,781.402588,463.806152,0.513205
-405.120850,783.142090,443.115234,0.513944
-403.930664,774.444580,441.375732,0.514684
-409.057617,786.254883,444.763184,0.515423
-400.909424,785.156250,437.164307,0.516160
-403.381348,783.508301,430.755615,0.516897
-408.233643,784.057617,437.255859,0.517634
-405.120850,780.853271,441.101074,0.518408
-407.318115,779.296875,436.340332,0.519160
-410.980225,781.127930,429.290771,0.519924
-415.100098,782.135010,428.924561,0.520670
-409.423828,780.853271,430.114746,0.521428
-413.269043,783.233643,429.382324,0.522169
-409.332275,780.212402,432.220459,0.522912
-407.409668,782.592773,437.988281,0.523652
-411.071777,781.677246,432.769775,0.524405
-416.107178,782.135010,419.677734,0.525146
-412.078857,781.219482,430.206299,0.525887
-413.818359,777.832031,427.001953,0.526628
-413.635254,787.261963,428.924561,0.527379
-421.508789,785.247803,430.755615,0.528120
-424.072266,784.790039,434.509277,0.528861
-412.994385,783.691406,430.206299,0.529602
-413.818359,785.888672,423.889160,0.530355
-413.818359,789.642334,429.473877,0.531097
-420.684814,780.395508,431.579590,0.531838
-415.832520,787.536621,433.044434,0.532579
-418.121338,786.712646,431.945801,0.533330
-425.811768,781.311035,433.502197,0.534085
-423.706055,776.641846,432.312012,0.534827
-415.924072,790.374756,427.917480,0.535566
-421.783447,785.614014,430.206299,0.536320
-423.156738,784.973145,430.938721,0.537060
-417.205811,798.248291,432.312012,0.537800
-424.713135,792.297363,430.297852,0.538539
-424.255371,784.606934,427.185059,0.539288
-420.867920,791.931152,432.128906,0.540028
-424.072266,790.100098,432.220459,0.540768
-424.621582,791.473389,440.093994,0.541511
-419.586182,791.473389,438.720703,0.542274
-433.227539,795.501709,437.347412,0.543016
-430.480957,788.726807,428.924561,0.543755
-422.973633,798.706055,434.143066,0.544494
-422.882080,803.375244,438.995361,0.545249
-424.346924,782.135010,437.622070,0.545988
-437.072754,798.614502,435.607910,0.546728
-432.495117,800.445557,437.530518,0.547467
-432.495117,802.276611,439.910889,0.548217
-430.297852,803.833008,441.467285,0.548956
-428.649902,811.798096,443.206787,0.549695
-433.593750,803.283691,440.002441,0.550435
-430.023193,802.185059,439.636230,0.551185
-435.516357,798.156738,435.974121,0.551924
-434.051514,800.994873,425.445557,0.552664
-434.783936,809.600830,436.614990,0.553404
-426.544189,808.410645,438.537598,0.554154
-435.699463,808.227539,438.262939,0.554894
-431.762695,811.889648,437.713623,0.555634
-438.171387,812.255859,446.044922,0.556373
-447.418213,810.241699,438.354492,0.557123
-438.995361,803.100586,438.446045,0.557863
-444.122314,805.572510,442.016602,0.558609
-442.932129,804.016113,445.861816,0.559352
-438.079834,807.769775,440.185547,0.560118
-437.164307,808.044434,443.023682,0.560863
-429.107666,819.488525,440.734863,0.561603
-433.044434,801.635742,437.713623,0.562343
-443.389893,802.093506,435.150146,0.563096
-438.079834,811.157227,439.910889,0.563838
-445.495605,795.593262,430.664062,0.564580
-443.939209,803.009033,432.312012,0.565319
-442.016602,803.741455,427.551270,0.566072
-441.925049,808.319092,429.565430,0.566813
-441.101074,803.649902,439.544678,0.567641
-443.115234,802.551270,444.305420,0.568381
-450.531006,803.558350,438.720703,0.569132
-447.235107,800.445557,430.389404,0.569872
-449.615479,800.994873,433.593750,0.570612
-443.389893,807.037354,425.811768,0.571352
-447.784424,806.304932,430.755615,0.572101
-444.763184,804.016113,436.889648,0.572841
-449.157715,799.713135,436.157227,0.573581
-444.030762,797.332764,431.945801,0.574321
-445.953369,798.797607,435.882568,0.575069
-442.932129,804.656982,430.572510,0.575809
-446.319580,800.628662,444.671631,0.576548
-442.932129,805.480957,440.734863,0.577287
-445.312500,806.213379,433.135986,0.578036
-450.531006,807.220459,442.382812,0.578776
-442.016602,813.079834,441.009521,0.579515
-443.023682,803.924561,438.720703,0.580255
-439.910889,801.910400,439.453125,0.581004
-444.671631,799.530029,438.262939,0.581776
-440.185547,805.847168,442.474365,0.582527
-433.410645,797.149658,433.593750,0.583296
-431.304932,794.677734,430.023193,0.584043
-436.065674,793.304443,434.417725,0.584782
-436.065674,800.720215,432.312012,0.585521
-436.157227,793.945312,433.868408,0.586276
-431.854248,798.797607,438.079834,0.587014
-434.875488,788.726807,429.565430,0.587750
-437.438965,787.536621,437.622070,0.588487
-428.192139,791.656494,440.185547,0.589247
-425.445557,797.698975,445.861816,0.590002
-423.522949,782.867432,431.579590,0.590767
-420.593262,792.938232,425.170898,0.591515
-430.297852,787.628174,426.635742,0.592281
-432.586670,795.410156,431.213379,0.593022
-420.867920,794.860840,430.847168,0.593763
-427.917480,796.691895,429.107666,0.594504
-428.558350,791.931152,428.375244,0.595255
-423.156738,793.487549,432.128906,0.595997
-428.558350,791.656494,432.037354,0.596738
-418.304443,797.332764,424.896240,0.597478
-415.466309,793.029785,430.572510,0.598229
-413.726807,790.557861,431.762695,0.598970
-413.909912,791.564941,435.607910,0.599710
-420.959473,789.276123,428.558350,0.600451
-404.205322,793.945312,431.854248,0.601201
-408.050537,790.924072,425.903320,0.601942
-413.909912,790.466309,426.635742,0.602683
-413.085938,788.085938,429.382324,0.603424
-414.642334,792.572021,431.304932,0.604189
-407.043457,789.459229,427.185059,0.604935
-403.930664,790.649414,435.882568,0.605677
-402.374268,793.945312,433.959961,0.606417
-410.522461,783.325195,430.297852,0.607177
-407.501221,791.015625,443.939209,0.607918
-406.494141,790.649414,442.474365,0.608658
-399.810791,792.114258,434.509277,0.609400
-404.479980,791.107178,437.530518,0.610152
-410.705566,793.395996,439.453125,0.610884
-409.149170,791.473389,439.086914,0.611614
-406.219482,790.466309,443.847656,0.612344
-404.113770,791.198730,440.551758,0.613105
-399.902344,788.543701,438.446045,0.613845
-402.557373,793.395996,437.072754,0.614585
-407.409668,794.494629,431.030273,0.615324
-404.388428,794.494629,426.818848,0.616072
-403.289795,791.290283,431.671143,0.616811
-403.381348,796.325684,431.579590,0.617551
-405.487061,784.606934,427.185059,0.618292
-408.416748,781.219482,421.051025,0.619049
-407.775879,782.684326,428.375244,0.619815
-409.698486,775.451660,426.818848,0.620563
-404.479980,782.501221,429.290771,0.621302
-401.367188,778.656006,431.671143,0.622042
-405.303955,778.106689,432.220459,0.622781
-407.318115,779.846191,428.558350,0.623550
-400.726318,781.677246,433.044434,0.624306
-408.050537,779.846191,434.509277,0.625070
-403.472900,785.156250,427.917480,0.625818
-408.050537,780.761719,428.833008,0.626560
-400.543213,779.846191,426.177979,0.627332
-409.515381,782.501221,429.748535,0.628073
-405.578613,772.064209,438.720703,0.628815
-403.930664,778.656006,436.340332,0.629556
-412.628174,778.106689,440.734863,0.630310
-404.205322,781.768799,434.417725,0.631051
-400.817871,784.881592,437.072754,0.631793
-403.656006,779.846191,432.128906,0.632533
-406.219482,782.409668,436.340332,0.633284
-403.015137,785.614014,430.480957,0.634025
-409.057617,783.050537,431.304932,0.634766
-402.282715,778.564453,427.734375,0.635508
-408.233643,776.824951,430.206299,0.636263
-409.149170,787.353516,437.438965,0.637008
-409.973145,778.015137,435.241699,0.637750
-407.226562,791.015625,439.727783,0.638579
-406.402588,783.691406,439.270020,0.639330
-403.930664,782.501221,438.629150,0.640061
-408.874512,779.113770,436.981201,0.640791
-404.388428,790.649414,434.783936,0.641521
-413.177490,779.754639,427.825928,0.642274
-411.437988,781.860352,431.945801,0.643015
-405.120850,785.156250,431.030273,0.643756
-408.966064,785.614014,438.812256,0.644497
-409.606934,780.029297,437.713623,0.645247
-414.825439,779.937744,429.656982,0.645988
-416.198730,785.247803,439.270020,0.646729
-414.916992,783.782959,433.410645,0.647470
-410.888672,787.811279,438.079834,0.648221
-407.409668,786.437988,435.150146,0.648963
-411.346436,785.247803,426.269531,0.649707
-400.634766,783.691406,435.058594,0.650454
-405.944824,786.163330,433.319092,0.651216
-411.712646,792.022705,437.347412,0.651948
-404.754639,790.466309,436.889648,0.652678
-406.219482,792.663574,438.354492,0.653408
-406.402588,783.691406,438.171387,0.654159
-408.416748,787.261963,438.171387,0.654899
-410.064697,788.909912,433.044434,0.655638
-410.980225,782.592773,429.656982,0.656377
-412.261963,797.790527,435.424805,0.657123
-411.529541,794.128418,437.805176,0.657867
-411.804199,781.860352,433.044434,0.658610
-411.987305,791.198730,441.009521,0.659368
-404.113770,784.698486,438.171387,0.660143
-419.403076,783.508301,428.283691,0.660909
-416.381836,779.479980,439.270020,0.661658
-411.529541,782.318115,435.424805,0.662399
-409.423828,780.944824,434.509277,0.663140
-405.670166,795.135498,438.079834,0.663880
-407.409668,792.846680,429.840088,0.664621
-414.184570,789.093018,431.488037,0.665362
-409.606934,785.797119,432.586670,0.666103
-407.226562,779.205322,429.656982,0.666844
-404.846191,780.944824,442.108154,0.667586
-401.916504,784.240723,431.854248,0.668328
-406.036377,783.874512,432.128906,0.669069
-397.613525,785.705566,429.840088,0.669809
-400.451660,782.592773,425.354004,0.670550
-396.697998,788.269043,425.994873,0.671293
-408.966064,786.987305,428.100586,0.672034
-401.641846,785.156250,434.234619,0.672774
-404.388428,787.170410,436.340332,0.673515
-405.395508,788.360596,431.579590,0.674283
-411.621094,790.374756,425.903320,0.675043
-401.275635,787.353516,435.333252,0.675787
-406.219482,788.909912,431.121826,0.676526
-403.747559,786.895752,432.128906,0.677267
-405.303955,791.290283,432.952881,0.678006
-396.606445,790.466309,431.579590,0.678745
-399.719238,795.593262,431.030273,0.679484
-404.296875,790.100098,435.607910,0.680224
-406.219482,786.529541,437.255859,0.680963
-403.564453,791.381836,434.143066,0.681702
-406.127930,786.895752,440.551758,0.682441
-399.078369,790.832520,441.467285,0.683181
-407.775879,783.966064,430.206299,0.683921
-407.135010,784.790039,429.748535,0.684661
-411.712646,782.135010,438.812256,0.685401
-403.930664,787.994385,429.656982,0.686152
-405.487061,793.579102,432.312012,0.686892
-405.853271,792.022705,439.453125,0.687631
-410.339355,785.888672,435.974121,0.688370
-407.318115,791.107178,431.121826,0.689119
-404.388428,791.107178,435.791016,0.689859
-407.684326,789.093018,433.319092,0.690599
-408.966064,789.001465,439.178467,0.691338
-407.867432,793.029785,431.854248,0.692079
-407.318115,785.339355,437.072754,0.692834
-402.191162,791.839600,432.128906,0.693608
-402.099609,786.712646,437.530518,0.694358
-403.839111,791.381836,435.882568,0.695168
-401.824951,792.297363,434.326172,0.695923
-403.747559,790.374756,437.713623,0.696702
-404.571533,789.093018,432.312012,0.697456
-402.282715,788.452148,431.396484,0.698232
-409.332275,785.247803,433.319092,0.699031
-406.951904,780.120850,430.023193,0.699853
-409.790039,787.536621,425.354004,0.700675
-404.296875,781.677246,432.769775,0.701436
-406.127930,786.254883,432.495117,0.702223
-400.543213,787.719727,424.346924,0.703008
-405.944824,780.120850,436.523438,0.703762
-404.937744,792.480469,434.509277,0.704504
-403.289795,781.677246,430.938721,0.705289
-408.782959,778.381348,429.748535,0.706025
-405.303955,780.944824,434.326172,0.706758
-408.142090,787.261963,434.051514,0.707490
-405.944824,788.726807,433.868408,0.708284
-411.254883,784.698486,431.396484,0.709036
-407.592773,785.797119,433.868408,0.709770
-410.522461,792.022705,429.748535,0.710621
-407.958984,788.452148,432.037354,0.711355
-403.656006,784.332275,428.833008,0.712088
-405.853271,791.656494,434.692383,0.712821
-408.691406,790.008545,432.952881,0.713567
-408.233643,795.043945,433.135986,0.714306
-406.951904,791.381836,434.692383,0.715040
-412.536621,791.656494,428.283691,0.715773
-412.628174,795.501709,434.143066,0.716518
-412.811279,797.515869,432.128906,0.717251
-410.522461,794.677734,433.593750,0.717984
-406.494141,793.212891,438.171387,0.718717
-414.184570,796.691895,437.164307,0.719482
-412.719727,797.058105,441.558838,0.720226
-415.100098,792.755127,433.959961,0.720970
-411.346436,792.480469,429.290771,0.721715
-414.367676,796.875000,434.509277,0.722470
-414.916992,799.346924,434.692383,0.723215
-404.205322,797.698975,435.333252,0.723959
-411.804199,796.691895,430.389404,0.724703
-414.459229,791.290283,436.157227,0.725447
-414.093018,792.022705,432.403564,0.726180
-414.276123,798.797607,437.347412,0.726914
-417.663574,801.361084,435.424805,0.727647
-415.191650,793.487549,433.319092,0.728381
-417.663574,792.388916,431.030273,0.729125
-415.100098,792.755127,438.446045,0.729863
-410.614014,802.917480,443.847656,0.730634
-407.684326,801.818848,440.551758,0.731382
-411.621094,802.276611,434.600830,0.732125
-410.614014,800.445557,431.488037,0.732868
-411.621094,795.135498,434.051514,0.733611
-410.705566,797.790527,433.227539,0.734354
-419.219971,797.424316,436.065674,0.735096
-415.100098,803.283691,439.270020,0.735839
-415.924072,799.896240,434.417725,0.736582
-414.001465,806.945801,439.544678,0.737320
-416.748047,791.931152,432.128906,0.738054
-413.818359,795.684814,439.819336,0.738802
-416.748047,798.248291,440.551758,0.739536
-417.114258,796.508789,435.058594,0.740286
-416.107178,803.009033,422.424316,0.741039
-421.783447,804.473877,439.270020,0.741782
-421.783447,805.023193,436.981201,0.742537
-415.740967,806.030273,441.833496,0.743288
-416.198730,801.727295,438.995361,0.744032
-423.614502,792.663574,432.037354,0.744775
-424.346924,804.199219,438.446045,0.745518
-420.593262,808.044434,437.896729,0.746271
-421.691895,793.121338,429.748535,0.747013
-418.579102,797.515869,436.523438,0.747773
-419.403076,773.620605,433.319092,0.748519
-423.706055,797.058105,436.614990,0.749260
-429.382324,801.177979,436.706543,0.750000
-428.009033,803.649902,432.586670,0.750733
-428.741455,792.846680,435.150146,0.751466
-417.846680,796.691895,435.150146,0.752240
-424.072266,788.543701,431.213379,0.752974
-423.065186,796.051025,431.030273,0.753707
-419.586182,791.290283,431.945801,0.754440
-420.501709,806.213379,434.692383,0.755186
-425.079346,796.875000,433.227539,0.755919
-427.917480,795.501709,430.664062,0.756653
-425.170898,787.719727,432.952881,0.757385
-422.607422,817.565918,432.128906,0.758121
-423.431396,795.410156,437.896729,0.758854
-440.460205,797.973633,428.192139,0.759594
-427.093506,802.825928,432.403564,0.760328
-425.811768,793.762207,428.283691,0.761087
-429.382324,794.769287,435.607910,0.761830
-425.354004,798.339844,434.234619,0.762626
-427.185059,794.769287,432.678223,0.763412
-422.058105,801.177979,424.987793,0.764164
-422.973633,791.107178,426.818848,0.764940
-433.135986,791.107178,425.628662,0.765689
-431.030273,788.635254,429.565430,0.766452
-422.607422,791.381836,433.502197,0.767193
-418.945312,787.719727,431.854248,0.767934
-422.882080,790.557861,428.649902,0.768703
-418.212891,793.945312,430.114746,0.769446
-419.311523,793.853760,430.480957,0.770197
-422.882080,800.170898,433.593750,0.770954
-416.564941,791.290283,429.656982,0.771704
-422.515869,792.572021,423.980713,0.772438
-425.537109,789.276123,424.713135,0.773171
-418.212891,774.444580,422.058105,0.773904
-418.670654,794.036865,434.051514,0.774648
-420.410156,796.600342,428.466797,0.775393
-415.466309,793.395996,433.227539,0.776137
-426.727295,782.958984,432.128906,0.776881
-416.198730,775.085449,428.833008,0.777625
-415.100098,802.276611,431.030273,0.778369
-422.698975,795.593262,430.480957,0.779114
-418.304443,798.248291,434.692383,0.779850
-420.684814,791.381836,427.825928,0.780589
-419.311523,797.515869,428.741455,0.781429
-424.255371,786.987305,428.833008,0.782174
-422.241211,793.304443,429.473877,0.782918
-422.332764,796.600342,434.509277,0.783662
-425.079346,785.156250,433.319092,0.784396
-422.973633,793.029785,437.622070,0.785129
-429.382324,793.670654,439.270020,0.785863
-425.811768,789.184570,435.791016,0.786618
-420.410156,785.339355,427.459717,0.787386
-421.051025,788.452148,433.959961,0.788134
-402.648926,790.283203,428.924561,0.788878
-421.875000,795.227051,427.642822,0.789621
-418.853760,796.325684,437.530518,0.790356
-414.733887,796.142578,427.551270,0.791089
-418.395996,787.902832,431.396484,0.791823
-427.642822,792.388916,427.459717,0.792576
-416.107178,800.354004,434.875488,0.793317
-423.706055,793.304443,432.586670,0.794057
-418.579102,774.444580,428.192139,0.794803
-418.029785,797.515869,435.791016,0.795549
-421.600342,789.276123,434.417725,0.796283
-421.051025,798.797607,439.544678,0.797016
-413.909912,799.896240,434.326172,0.797754
-420.043945,793.212891,436.157227,0.798514
-415.191650,798.706055,421.508789,0.799258
-421.325684,797.149658,428.466797,0.800001
-415.100098,795.593262,434.509277,0.800744
-410.522461,790.283203,424.438477,0.801498
-415.557861,790.374756,438.720703,0.802250
-414.184570,794.311523,440.551758,0.802999
-414.367676,792.480469,441.650391,0.803770
-411.529541,800.170898,438.995361,0.804539
-414.093018,800.445557,435.424805,0.805279
-409.973145,795.410156,432.678223,0.806024
-411.712646,792.480469,430.114746,0.806782
-402.191162,792.388916,432.220459,0.807526
-403.472900,794.403076,433.685303,0.808271
-405.395508,798.797607,435.699463,0.809015
-410.980225,787.719727,443.023682,0.809760
-422.332764,793.762207,435.424805,0.810494
-421.142578,789.916992,442.474365,0.811228
-418.212891,787.902832,440.368652,0.811962
-416.839600,799.530029,442.840576,0.812695
-411.621094,800.445557,437.347412,0.813454
-412.628174,794.952393,440.734863,0.814197
-405.578613,794.494629,446.228027,0.814940
-415.466309,795.593262,440.368652,0.815683
-416.473389,787.445068,438.354492,0.816434
-419.311523,780.853271,427.368164,0.817174
-412.445068,787.719727,436.523438,0.817933
-414.093018,791.290283,433.593750,0.818680
-414.093018,795.227051,436.981201,0.819438
-416.015625,789.550781,434.967041,0.820182
-418.487549,792.846680,436.431885,0.820926
-412.353516,788.635254,438.171387,0.821670
-443.206787,797.424316,437.713623,0.822415
-417.663574,798.706055,445.312500,0.823149
-411.621094,791.107178,438.537598,0.823882
-412.719727,790.100098,438.354492,0.824616
-421.234131,786.254883,437.347412,0.825383
-412.994385,792.755127,435.516357,0.826143
-416.473389,786.163330,436.523438,0.826887
-415.100098,789.001465,434.051514,0.827641
-414.459229,788.543701,429.565430,0.828403
-412.536621,796.234131,437.164307,0.829152
-413.452148,785.247803,429.382324,0.829927
-417.755127,788.085938,438.446045,0.830694
-416.381836,794.219971,445.495605,0.831439
-418.304443,795.227051,438.354492,0.832183
-413.177490,795.593262,439.453125,0.832927
-419.311523,780.029297,437.255859,0.833684
-418.670654,780.487061,427.093506,0.834429
-419.219971,784.881592,431.396484,0.835173
-415.100098,788.543701,427.917480,0.835917
-414.459229,789.093018,431.304932,0.836661
-417.846680,784.240723,440.093994,0.837395
-416.564941,789.733887,432.861328,0.838128
-413.452148,788.269043,433.502197,0.838861
-415.924072,783.599854,433.135986,0.839619
-409.881592,786.163330,434.783936,0.840363
-411.071777,781.036377,434.509277,0.841105
-411.254883,788.818359,430.480957,0.841848
-416.290283,781.219482,430.389404,0.842596
-411.987305,783.142090,429.473877,0.843340
-404.388428,779.663086,428.558350,0.844083
-408.508301,786.895752,429.382324,0.844826
-409.881592,779.754639,421.966553,0.845591
-411.346436,780.487061,422.698975,0.846336
-410.614014,782.867432,424.255371,0.847080
-409.423828,776.458740,429.382324,0.847825
-407.684326,783.233643,429.107666,0.848569
-406.677246,781.036377,426.727295,0.849303
-405.670166,778.289795,430.023193,0.850037
-412.078857,780.487061,415.740967,0.850770
-411.163330,782.684326,427.368164,0.851536
-417.572021,779.388428,427.917480,0.852374
-408.142090,781.677246,427.551270,0.853119
-407.592773,775.634766,419.860840,0.853863
-410.522461,786.254883,423.339844,0.854621
-413.177490,786.621094,426.727295,0.855365
-408.233643,781.311035,430.206299,0.856109
-411.346436,782.775879,418.762207,0.856854
-407.684326,782.135010,423.156738,0.857597
-415.008545,784.057617,426.818848,0.858331
-404.846191,783.874512,431.945801,0.859065
-399.627686,784.790039,421.691895,0.859798
-412.994385,785.339355,424.438477,0.860551
-412.170410,785.430908,432.312012,0.861297
-403.564453,785.888672,429.199219,0.862041
-406.860352,790.466309,424.255371,0.862783
-408.599854,782.592773,428.833008,0.863537
-411.712646,780.395508,429.107666,0.864280
-412.170410,780.212402,424.255371,0.865022
-411.437988,786.437988,432.861328,0.865765
-411.163330,786.437988,429.473877,0.866518
-404.846191,788.543701,421.691895,0.867260
-402.648926,792.388916,430.114746,0.868003
-408.508301,783.599854,433.593750,0.868789
-409.790039,782.958984,435.699463,0.869533
-411.895752,791.015625,427.734375,0.870274
-408.782959,784.973145,428.375244,0.871014
-409.423828,787.811279,422.515869,0.871768
-407.135010,785.430908,424.163818,0.872507
-408.782959,784.515381,426.544189,0.873250
-409.057617,781.311035,432.586670,0.873995
-406.768799,784.332275,425.262451,0.874787
-406.219482,786.621094,429.748535,0.875535
-408.325195,789.001465,431.488037,0.876275
-410.980225,786.895752,428.741455,0.877014
-408.416748,786.346436,430.572510,0.877766
-405.853271,790.740967,430.480957,0.878506
-405.487061,794.677734,435.333252,0.879245
-408.966064,797.241211,434.143066,0.879985
-418.212891,791.839600,443.939209,0.880735
-416.015625,790.191650,434.234619,0.881476
-414.459229,803.649902,431.396484,0.882215
-409.606934,793.579102,429.107666,0.882955
-412.811279,800.994873,436.889648,0.883709
-405.853271,794.860840,440.917969,0.884449
-412.994385,789.642334,434.509277,0.885188
-412.261963,794.036865,441.833496,0.885929
-414.459229,796.600342,442.016602,0.886676
-413.635254,794.128418,439.819336,0.887433
-408.874512,800.811768,439.178467,0.888177
-414.093018,795.593262,432.586670,0.888919
-417.938232,794.219971,432.861328,0.889675
-413.269043,794.586182,435.241699,0.890417
-412.261963,798.339844,442.565918,0.891157
-414.825439,798.614502,441.833496,0.891898
-412.811279,797.149658,436.889648,0.892648
-412.353516,794.403076,435.699463,0.893388
-419.311523,798.339844,443.298340,0.894129
-419.128418,791.015625,438.720703,0.894869
-417.572021,798.339844,428.741455,0.895628
-412.170410,802.368164,435.241699,0.896371
-418.945312,805.114746,442.016602,0.897113
-415.924072,803.375244,440.002441,0.897854
-415.924072,800.628662,438.720703,0.898650
-419.219971,796.325684,433.685303,0.899435
-414.367676,797.790527,438.720703,0.900200
-417.480469,801.361084,442.840576,0.900931
-425.079346,802.368164,438.812256,0.901661
-420.318604,802.001953,436.798096,0.902392
-415.283203,805.389404,442.474365,0.903144
-422.698975,806.762695,439.544678,0.903885
-422.790527,799.987793,433.502197,0.904625
-419.677734,809.051514,437.164307,0.905365
-421.142578,811.431885,444.488525,0.906107
-420.501709,805.938721,444.488525,0.906837
-417.297363,815.551758,437.164307,0.907567
-415.008545,810.699463,439.544678,0.908298
-421.508789,801.635742,439.086914,0.909039
-421.691895,799.987793,438.446045,0.909779
-421.508789,807.312012,441.925049,0.910520
-445.129395,801.177979,437.072754,0.911260
-424.346924,797.332764,441.192627,0.911999
-425.262451,797.790527,442.108154,0.912740
-417.938232,803.009033,441.741943,0.913480
-417.388916,807.769775,440.093994,0.914221
-402.099609,806.762695,437.255859,0.914962
-419.036865,801.086426,434.051514,0.915703
-420.410156,802.185059,437.713623,0.916443
-424.621582,798.889160,440.643311,0.917184
-426.269531,799.896240,435.424805,0.917942
-424.163818,796.417236,434.326172,0.918683
-422.607422,796.325684,432.952881,0.919423
-418.579102,793.762207,432.678223,0.920163
-418.304443,792.388916,436.340332,0.920912
-418.395996,797.149658,440.460205,0.921654
-415.374756,796.875000,431.213379,0.922397
-399.261475,786.895752,434.967041,0.923250
-416.748047,795.501709,423.706055,0.923995
-411.346436,793.212891,432.220459,0.924734
-420.593262,789.184570,431.579590,0.925473
-419.128418,795.959473,429.565430,0.926215
-416.198730,794.036865,430.480957,0.926957
-413.818359,792.388916,431.762695,0.927688
-413.635254,798.614502,432.128906,0.928423
-411.712646,791.290283,429.199219,0.929162
-417.205811,785.522461,419.494629,0.929901
-416.564941,787.445068,431.854248,0.930640
-419.494629,785.522461,433.410645,0.931379
-415.740967,789.367676,432.220459,0.932115
-418.029785,788.269043,437.438965,0.932851
-407.592773,781.768799,427.276611,0.933592
-413.543701,792.297363,434.051514,0.934332
-409.515381,799.072266,433.319092,0.935097
-414.459229,791.839600,431.579590,0.935847
-414.184570,795.501709,438.079834,0.936592
-414.825439,793.945312,430.389404,0.937358
-414.642334,792.663574,431.854248,0.938102
-415.924072,818.847656,432.952881,0.938846
-414.916992,798.156738,431.671143,0.939590
-416.290283,789.184570,434.875488,0.940344
-412.902832,787.902832,431.030273,0.941088
-408.416748,792.114258,428.009033,0.941840
-413.635254,789.276123,428.833008,0.942590
-409.606934,797.698975,445.037842,0.943382
-404.388428,787.261963,427.093506,0.944131
-405.578613,789.367676,432.037354,0.944873
-415.924072,795.318604,424.346924,0.945616
-409.698486,788.818359,431.213379,0.946372
-410.888672,788.818359,425.354004,0.947165
-407.318115,782.043457,426.269531,0.947909
-407.867432,783.874512,420.867920,0.948663
-410.064697,784.515381,429.656982,0.949403
-412.994385,785.705566,436.614990,0.950143
-412.445068,778.472900,427.093506,0.950894
-411.163330,779.937744,425.811768,0.951658
-411.163330,787.170410,424.713135,0.952415
-421.325684,776.916504,427.642822,0.953163
-413.177490,781.768799,424.072266,0.953937
-417.297363,774.169922,416.748047,0.954711
-412.078857,785.430908,420.410156,0.955454
-416.198730,783.599854,428.009033,0.956196
-412.994385,782.867432,429.199219,0.956939
-419.219971,781.036377,419.311523,0.957689
-422.332764,778.839111,425.537109,0.958430
-414.001465,779.479980,432.495117,0.959190
-414.001465,785.522461,428.009033,0.959937
-414.550781,782.592773,425.445557,0.960683
-422.607422,781.951904,422.698975,0.961417
-416.931152,783.966064,430.847168,0.962150
-413.726807,777.282715,431.213379,0.962883
-420.410156,777.191162,427.185059,0.963645
-422.424316,778.656006,429.565430,0.964389
-417.846680,780.578613,428.558350,0.965132
-409.606934,782.043457,424.438477,0.965875
-421.966553,780.578613,423.156738,0.966630
-422.424316,784.790039,434.783936,0.967374
-422.607422,774.627686,422.882080,0.968118
-420.959473,787.261963,426.544189,0.968861
-428.100586,777.923584,424.255371,0.969615
-425.994873,774.261475,424.438477,0.970359
-415.557861,785.980225,430.023193,0.971103
-417.572021,788.452148,424.163818,0.971847
-423.522949,781.585693,423.065186,0.972583
-444.671631,779.754639,429.107666,0.973316
-429.931641,778.747559,439.910889,0.974049
-424.713135,773.895264,434.875488,0.974783
-425.994873,769.226074,433.593750,0.975530
-419.586182,775.451660,438.720703,0.976274
-422.973633,776.916504,434.234619,0.977017
-416.931152,785.797119,429.107666,0.977761
-418.579102,782.135010,428.100586,0.978505
-416.107178,779.022217,428.466797,0.979248
-423.889160,777.923584,427.734375,0.979992
-433.319092,771.057129,435.516357,0.980735
-435.607910,775.634766,429.016113,0.981475
-427.276611,772.155762,421.234131,0.982208
-429.473877,776.733398,427.734375,0.982942
-422.424316,777.374268,425.354004,0.983676
-422.058105,766.296387,419.952393,0.984427
-414.825439,771.148682,415.374756,0.985237
-419.311523,772.064209,412.078857,0.985984
-420.410156,782.135010,423.522949,0.986729
-425.628662,771.148682,424.438477,0.987509
-417.572021,770.874023,424.438477,0.988256
-418.029785,792.480469,441.192627,0.988999
-419.677734,773.986816,442.108154,0.989743
-425.720215,774.078369,436.523438,0.990498
-421.875000,775.360107,434.783936,0.991242
-426.727295,764.465332,427.642822,0.991985
-426.727295,768.859863,436.248779,0.992729
-425.628662,765.380859,432.220459,0.993472
-429.107666,770.507812,425.170898,0.994205
-428.833008,768.951416,422.790527,0.995036
-426.635742,770.050049,425.994873,0.995771
-419.219971,764.465332,431.854248,0.996515
-424.072266,766.845703,433.776855,0.997259
-423.065186,768.310547,434.692383,0.998003
-413.543701,773.345947,440.185547,0.998753
-419.311523,768.310547,437.347412,0.999498
-427.825928,765.838623,435.150146,1.000241
-420.318604,757.965088,428.558350,1.000985
-423.431396,759.338379,437.164307,1.001729
-432.403564,763.549805,426.544189,1.002473
-430.847168,763.366699,423.156738,1.003216
-430.847168,757.507324,419.128418,1.003959
-428.466797,769.226074,426.452637,1.004703
-427.276611,769.042969,420.318604,1.005447
-430.114746,768.585205,429.473877,1.006180
-427.001953,767.578125,432.952881,1.006913
-425.170898,772.064209,426.361084,1.007646
-430.206299,776.550293,430.938721,1.008404
-430.572510,780.303955,432.495117,1.009137
-428.009033,772.888184,437.164307,1.009870
-425.262451,777.923584,424.072266,1.010603
-426.635742,768.676758,423.889160,1.011354
-420.593262,779.205322,429.565430,1.012088
-422.882080,778.106689,431.121826,1.012821
-422.698975,778.839111,426.177979,1.013553
-427.917480,775.817871,432.678223,1.014297
-433.593750,772.705078,434.417725,1.015037
-432.312012,774.627686,440.917969,1.015774
-433.227539,775.268555,438.995361,1.016548
-430.297852,779.205322,443.481445,1.017312
-433.959961,778.930664,439.727783,1.018044
-436.889648,778.015137,450.897217,1.018777
-433.685303,770.690918,448.883057,1.019510
-435.882568,770.050049,423.431396,1.020272
-431.579590,769.866943,436.248779,1.021016
-432.037354,773.345947,436.340332,1.021760
-432.220459,763.916016,428.833008,1.022503
-430.664062,770.874023,433.959961,1.023248
-439.178467,777.648926,437.713623,1.023981
-438.995361,780.670166,446.960449,1.024714
-439.819336,754.119873,445.678711,1.025447
-434.967041,775.726318,449.340820,1.026205
-435.424805,781.768799,445.404053,1.026947
-432.586670,776.184082,447.601318,1.027689
-433.868408,780.395508,446.044922,1.028431
-437.347412,783.325195,442.657471,1.029188
-429.382324,778.381348,448.425293,1.029930
-430.755615,773.895264,440.185547,1.030672
-427.185059,771.240234,427.734375,1.031414
-429.382324,778.747559,442.657471,1.032180
-430.572510,781.768799,447.784424,1.032961
-434.326172,779.479980,444.854736,1.033706
-437.896729,770.782471,443.481445,1.034453
-442.382812,779.388428,449.066162,1.035196
-431.945801,782.043457,450.531006,1.035938
-423.980713,790.374756,451.538086,1.036704
-426.086426,784.332275,450.988770,1.037485
-425.628662,784.790039,452.545166,1.038235
-425.903320,784.149170,453.186035,1.039003
-427.642822,779.205322,455.017090,1.039746
-431.304932,783.874512,455.657959,1.040505
-429.290771,793.304443,447.143555,1.041258
-428.741455,791.290283,452.270508,1.041994
-423.248291,791.015625,463.439941,1.042727
-418.304443,788.726807,461.883545,1.043484
-412.445068,801.635742,464.630127,1.044217
-423.797607,793.579102,464.172363,1.044950
-419.219971,790.283203,463.439941,1.045683
-419.769287,788.818359,468.383789,1.046427
-419.311523,784.332275,467.742920,1.047160
-421.600342,771.148682,453.643799,1.047892
-421.142578,773.895264,458.129883,1.048625
-415.100098,786.712646,456.481934,1.049376
-422.607422,777.191162,457.214355,1.050109
-425.170898,777.557373,445.678711,1.050842
-418.487549,764.282227,454.193115,1.051574
-414.825439,769.134521,453.002930,1.052322
-419.311523,778.564453,457.946777,1.053056
-420.227051,777.740479,462.432861,1.053788
-419.769287,773.529053,458.587646,1.054526
-413.726807,771.606445,457.031250,1.055285
-423.706055,771.697998,453.918457,1.056029
-423.522949,764.648438,449.615479,1.056773
-421.234131,772.705078,447.052002,1.057516
-407.409668,772.613525,449.707031,1.058259
-416.015625,773.162842,442.382812,1.058993
-413.360596,774.169922,443.389893,1.059726
-404.388428,772.064209,446.044922,1.060459
-408.416748,796.325684,440.185547,1.061226
-402.465820,752.471924,455.383301,1.061997
-392.486572,733.337402,461.059570,1.062745
-390.655518,742.675781,452.636719,1.063488
-368.041992,759.155273,445.404053,1.064221
-380.493164,771.697998,443.847656,1.064954
-412.536621,777.740479,441.741943,1.065784
-451.538086,789.459229,438.354492,1.066530
-466.918945,796.051025,455.657959,1.067272
-457.305908,798.614502,463.348389,1.068014
-437.438965,815.185547,471.588135,1.068756
-409.698486,822.143555,482.116699,1.069496
-379.852295,818.847656,476.348877,1.070231
-338.836670,817.657471,482.116699,1.070964
-338.378906,816.833496,484.313965,1.071697
-363.189697,802.642822,447.967529,1.072435
-368.957520,798.980713,421.691895,1.073178
-403.930664,802.551270,410.430908,1.073921
-417.572021,797.973633,397.705078,1.074665
-443.847656,803.100586,404.846191,1.075409
-456.756592,809.143066,417.297363,1.076152
-457.672119,802.093506,430.480957,1.076896
-450.714111,806.396484,442.382812,1.077639
-433.319092,809.051514,443.664551,1.078397
-401.184082,809.143066,446.044922,1.079141
-355.682373,815.277100,462.432861,1.079885
-343.872070,818.847656,461.608887,1.080628
-341.766357,812.988281,465.454102,1.081389
-375.640869,812.622070,455.749512,1.082133
-423.431396,814.636230,432.037354,1.082877
-446.777344,808.868408,422.790527,1.083620
-489.532471,810.424805,418.579102,1.084364
-495.208740,803.741455,427.825928,1.085107
-489.807129,795.684814,429.931641,1.085851
-452.911377,793.121338,437.072754,1.086594
-432.037354,786.621094,440.460205,1.087359
-380.310059,790.649414,451.171875,1.088098
-368.865967,791.473389,462.158203,1.088869
-373.992920,787.445068,464.996338,1.089617
-397.796631,773.803711,461.700439,1.090379
-413.269043,763.549805,460.784912,1.091123
-451.904297,767.669678,465.270996,1.091866
-473.876953,752.288818,442.382812,1.092610
-494.567871,739.379883,439.910889,1.093378
-506.744385,732.513428,438.629150,1.094135
-486.968994,716.400146,439.270020,1.094884
-480.010986,713.195801,447.326660,1.095655
-450.256348,709.899902,445.312500,1.096424
-433.776855,714.569092,450.439453,1.097171
-424.072266,713.012695,452.636719,1.097912
-438.354492,696.533203,459.869385,1.098654
-445.587158,704.589844,456.481934,1.099406
-469.665527,699.371338,460.876465,1.100148
-514.434814,710.357666,461.883545,1.100890
-520.935059,708.435059,456.848145,1.101632
-533.294678,713.470459,457.397461,1.102386
-535.491943,715.118408,461.517334,1.103124
-512.237549,717.498779,466.278076,1.103857
-493.011475,731.048584,470.214844,1.104591
-481.842041,730.407715,472.045898,1.105356
-473.785400,730.682373,470.764160,1.106100
-472.686768,731.231689,468.475342,1.106844
-475.708008,730.957031,466.186523,1.107587
-477.172852,723.999023,461.517334,1.108342
-474.975586,734.252930,454.284668,1.109086
-474.700928,743.225098,455.383301,1.109829
-484.771729,752.929688,444.763184,1.110572
-481.292725,758.514404,449.157715,1.111326
-483.032227,763.549805,454.925537,1.112070
-478.363037,766.387939,453.918457,1.112813
-462.615967,788.269043,467.559814,1.113556
-435.241699,801.086426,479.644775,1.114299
-421.783447,808.868408,479.461670,1.115033
-420.043945,818.756104,492.645264,1.115767
-416.015625,842.285156,497.680664,1.116500
-415.374756,827.819824,500.610352,1.117268
-409.790039,838.989258,492.004395,1.118011
-403.289795,840.454102,472.503662,1.118755
-377.929688,861.053467,489.349365,1.119498
-369.415283,882.110596,501.892090,1.120251
-365.020752,879.272461,502.716064,1.120994
-358.520508,878.631592,513.885498,1.121737
-365.203857,885.864258,521.301270,1.122480
-364.562988,884.674072,520.935059,1.123223
-360.900879,899.230957,523.223877,1.123956
-358.978271,899.139404,524.505615,1.124689
-357.055664,904.083252,527.343750,1.125422
-353.942871,906.646729,533.203125,1.126164
-363.372803,919.464111,524.230957,1.126907
-364.196777,917.541504,527.893066,1.127650
-365.295410,919.372559,529.449463,1.128393
-355.316162,934.204102,528.350830,1.129144
-367.950439,929.077148,550.598145,1.129886
-356.323242,945.281982,537.689209,1.130628
-360.534668,948.760986,536.865234,1.131371
-366.119385,949.218750,540.618896,1.132114
-362.823486,946.014404,532.745361,1.132857
-378.021240,949.676514,534.118652,1.133599
-381.683350,948.028564,534.027100,1.134341
-375.183105,947.296143,523.864746,1.135084
-381.774902,950.500488,520.385742,1.135826
-386.169434,956.268311,520.843506,1.136661
-386.444092,975.128174,529.083252,1.137404
-385.803223,974.029541,548.950195,1.138160
-387.451172,982.727051,563.964844,1.138903
-379.852295,996.917725,603.332520,1.139645
-377.655029,1002.960205,627.136230,1.140387
-372.436523,1016.784668,684.356689,1.141140
-370.605469,1015.411377,693.878174,1.141882
-369.140625,1011.840820,684.631348,1.142625
-373.077393,1003.051758,646.820068,1.143367
-385.528564,982.177734,595.825195,1.144194
-402.648926,937.225342,612.854004,1.144943
-420.135498,904.449463,679.321289,1.145686
-478.271484,920.104980,680.603027,1.146430
-495.300293,1005.157471,674.194336,1.147185
-509.216309,982.452393,651.489258,1.147929
-494.110107,946.746826,620.178223,1.148673
-471.862793,926.971436,571.105957,1.149416
-426.177979,903.350830,553.344727,1.150159
-404.388428,897.216797,508.117676,1.150893
-404.571533,884.674072,498.229980,1.151626
-405.944824,855.010986,479.461670,1.152360
-416.748047,853.546143,469.482422,1.153121
-440.460205,852.905273,471.862793,1.153952
-448.974609,856.842041,474.517822,1.154698
-491.271973,859.680176,486.053467,1.155441
-493.011475,868.743896,492.462158,1.156184
-507.476807,880.096436,512.878418,1.156928
-509.948730,884.582520,544.006348,1.157671
-520.294189,875.152588,609.100342,1.158437
-496.948242,874.877930,620.178223,1.159187
-466.003418,894.287109,658.172607,1.159949
-446.960449,902.801514,672.271729,1.160699
-419.677734,928.527832,702.758789,1.161443
-413.818359,943.084717,720.611572,1.162187
-401.458740,949.768066,720.886230,1.162930
-408.508301,954.803467,716.491699,1.163673
-422.882080,956.359863,716.125488,1.164417
-432.220459,952.606201,727.478027,1.165161
-435.058594,953.704834,721.069336,1.165904
-459.136963,956.726074,724.273682,1.166647
-480.560303,947.296143,736.816406,1.167386
-458.038330,948.577881,742.218018,1.168120
-437.805176,977.233887,767.761230,1.168853
-106.933594,1088.745117,809.783936,1.169585
-324.279785,1047.637939,828.277588,1.170320
-395.599365,1006.256104,830.841064,1.171060
-390.472412,1000.762939,830.200195,1.171800
-403.198242,1023.376465,826.904297,1.172540
-394.500732,1080.139160,806.945801,1.173301
-582.183838,1184.051514,819.763184,1.174048
-521.942139,1176.818848,843.566895,1.174792
-419.860840,1084.259033,848.419189,1.175536
18.585205,898.498535,857.116699,1.176281
-30.029297,1033.264160,871.398926,1.177025
-152.160645,1477.844238,800.811768,1.177769
308.349609,1322.021484,870.117188,1.178512
519.653320,1014.129639,930.267334,1.179255
-543.914795,373.992920,932.006836,1.179989
-894.836426,1286.590576,804.199219,1.180722
-1170.959473,710.266113,879.364014,1.181455
-1250.610352,838.348389,883.575439,1.182188
-1037.933350,710.449219,855.926514,1.182953
-821.777344,980.346680,876.251221,1.183693
539.245605,1195.678711,812.713623,1.184427
497.589111,1114.471436,939.239502,1.185170
-373.077393,1019.256592,996.368408,1.185912
-611.206055,1001.495361,1056.976318,1.186671
-244.720459,1057.342529,1079.772949,1.187441
-163.787842,1117.584229,1115.295410,1.188303
-144.104004,1262.969971,1134.979248,1.189109
31.402588,1214.630127,1138.275146,1.189855
-291.320801,748.077393,1150.360107,1.190629
-110.595703,467.834473,1121.520996,1.191363
104.827881,658.630371,969.177246,1.192097
-407.135010,1710.388184,955.444336,1.192829
-549.041748,1374.938965,974.212646,1.193576
-823.608398,954.071045,963.226318,1.194309
-978.332520,928.985596,812.805176,1.195042
-283.813477,1442.047119,793.121338,1.195775
-206.634521,525.695801,876.342773,1.196520
-507.202148,948.211670,970.275879,1.197253
-423.889160,1112.457275,962.768555,1.197986
484.680176,11.444092,891.174316,1.198719
192.810059,932.373047,658.355713,1.199480
420.501709,929.260254,594.177246,1.200224
288.848877,913.330078,615.692139,1.200967
254.241943,968.811035,598.388672,1.201710
253.234863,895.751953,471.496582,1.202463
-339.385986,630.798340,625.305176,1.203207
-1412.475586,510.681152,584.381104,1.203950
-1120.147705,604.156494,359.252930,1.204694
-973.297119,566.894531,347.534180,1.205447
-944.000244,518.920898,380.035400,1.206191
-721.893311,535.491943,296.997070,1.206934
-512.512207,663.024902,375.091553,1.207773
-356.231689,638.031006,399.993896,1.208521
-254.699707,693.695068,342.041016,1.209254
-266.601562,703.674316,361.999512,1.209987
-280.334473,656.433105,403.106689,1.210720
-273.193359,674.835205,384.063721,1.211489
-297.454834,633.361816,391.662598,1.212233
-348.541260,591.247559,409.149170,1.212976
-338.012695,589.691162,404.388428,1.213720
-306.884766,608.459473,408.142090,1.214463
-289.947510,624.298096,382.324219,1.215196
-263.305664,604.614258,361.358643,1.215929
-262.207031,597.106934,342.224121,1.216663
-262.115479,592.620850,354.309082,1.217417
-261.932373,570.556641,384.338379,1.218161
-242.797852,583.648682,411.529541,1.218904
-190.795898,563.964844,431.579590,1.219648
-144.195557,557.647705,564.422607,1.220400
-111.145020,550.506592,600.402832,1.221143
-48.065186,541.442871,627.410889,1.221886
-14.648438,543.273926,631.256104,1.222630
15.655518,562.500000,619.995117,1.223383
20.416260,552.612305,613.952637,1.224131
7.415771,537.963867,582.641602,1.224876
-10.894775,545.654297,567.260742,1.225619
-43.121338,548.309326,577.880859,1.226373
-43.304443,539.062500,587.493896,1.227117
-34.881592,537.872314,584.930420,1.227860
-3.845215,520.843506,612.213135,1.228612
13.549805,503.906250,619.720459,1.229380
19.683838,496.582031,618.438721,1.230151
44.219971,489.074707,617.614746,1.230897
51.635742,499.328613,608.459473,1.231641
45.227051,525.695801,596.374512,1.232403
32.043457,526.885986,578.613281,1.233147
-18.768311,554.901123,567.352295,1.233912
-49.438477,575.500488,557.189941,1.234669
-58.959961,574.035645,525.512695,1.235419
-52.825928,563.964844,491.821289,1.236188
-217.895508,488.250732,485.687256,1.236935
-291.320801,731.781006,-664.672852,1.237701
-432.952881,779.846191,218.170166,1.238445
-217.437744,640.869141,529.449463,1.239189
-356.323242,272.003174,322.998047,1.239932
-528.625488,364.837646,161.590576,1.240674
-167.816162,544.464111,126.251221,1.241407
-219.451904,533.935547,188.781738,1.242140
-410.797119,398.803711,214.599609,1.242874
-293.426514,383.422852,245.269775,1.243629
-381.774902,378.295898,160.217285,1.244371
-275.573730,417.572021,134.307861,1.245107
-271.087646,430.389404,195.098877,1.245840
-329.315186,404.022217,192.169189,1.246577
-332.885742,407.775879,182.556152,1.247320
-323.638916,434.051514,167.816162,1.248063
-332.611084,404.205322,161.041260,1.248806
-329.956055,376.739502,185.394287,1.249558
-275.756836,397.064209,188.781738,1.250301
-294.250488,416.015625,186.950684,1.251044
-309.082031,410.247803,233.917236,1.251788
-341.674805,408.691406,236.480713,1.252531
-324.737549,424.896240,273.010254,1.253275
-343.231201,384.796143,301.208496,1.254019
-350.921631,396.331787,365.203857,1.254761
-332.336426,402.557373,391.387939,1.255505
-393.127441,422.882080,414.367676,1.256250
-390.106201,463.073730,453.277588,1.256983
-368.133545,470.764160,480.377197,1.257716
-381.774902,510.955811,544.006348,1.258449
-381.866455,518.920898,594.360352,1.259217
-356.781006,518.463135,620.819092,1.259960
-361.999512,556.274414,661.010742,1.260704
-365.386963,532.012939,671.173096,1.261447
-372.436523,527.526855,702.850342,1.262190
-371.246338,524.230957,740.020752,1.262923
-372.344971,538.055420,752.655029,1.263657
-370.605469,527.435303,782.775879,1.264390
-379.577637,527.343750,795.227051,1.265241
-393.402100,523.681641,797.241211,1.265988
-394.958496,513.336182,795.776367,1.266732
-429.656982,501.617432,788.269043,1.267491
-440.185547,502.899170,766.571045,1.268235
-450.805664,497.222900,738.464355,1.269027
-479.370117,497.680664,739.105225,1.269772
-479.736328,493.286133,739.471436,1.270532
-465.820312,509.582520,733.795166,1.271276
-440.460205,514.343262,762.359619,1.272021
-412.994385,515.899658,797.882080,1.272765
-347.259521,514.160156,813.354492,1.273521
-293.518066,510.498047,821.685791,1.274264
-238.403320,512.237549,823.333740,1.275008
-188.690186,526.153564,807.952881,1.275751
-145.751953,524.322510,786.437988,1.276495
-98.693848,530.364990,769.775391,1.277228
-95.123291,524.597168,754.028320,1.277962
-79.559326,522.216797,743.957520,1.278694
-74.523926,524.505615,751.373291,1.279557
-74.523926,524.322510,763.458252,1.280297
-67.474365,492.187500,780.944824,1.281031
-74.798584,468.383789,800.262451,1.281764
-22.613525,440.460205,807.861328,1.282521
-18.127441,443.115234,764.190674,1.283265
-62.530518,442.382812,743.225098,1.284008
-66.925049,429.382324,739.105225,1.284753
-15.014648,421.691895,740.478516,1.285507
-13.183594,400.817871,728.851318,1.286251
-24.719238,404.846191,715.118408,1.286995
-20.690918,404.754639,719.421387,1.287738
-14.465332,383.056641,702.301025,1.288481
-16.021729,377.197266,697.723389,1.289214
-10.620117,367.675781,702.026367,1.289947
-2.380371,365.203857,692.779541,1.290680
-10.437012,369.049072,682.525635,1.291449
-2.197266,365.478516,666.870117,1.292191
-0.915527,373.443604,648.376465,1.292932
-2.288818,358.154297,644.439697,1.293676
4.669189,344.329834,640.777588,1.294427
6.958008,309.173584,640.045166,1.295169
6.591797,279.693604,643.981934,1.295955
30.578613,271.636963,624.664307,1.296699
17.486572,271.636963,586.578369,1.297454
6.958008,291.870117,585.662842,1.298197
11.352539,281.890869,552.703857,1.298941
19.317627,268.981934,542.633057,1.299684
5.950928,257.720947,526.062012,1.300448
11.718750,244.354248,495.941162,1.301196
13.732910,256.988525,492.095947,1.301968
7.965088,247.375488,472.503662,1.302715
5.767822,250.671387,445.587158,1.303479
12.268066,246.002197,455.474854,1.304223
6.774902,262.847900,427.734375,1.304966
-3.570557,263.671875,420.776367,1.305709
-4.577637,273.559570,400.085449,1.306462
-5.676270,282.989502,382.690430,1.307205
-18.768311,267.242432,381.591797,1.307948
-9.796143,269.805908,372.436523,1.308692
-4.119873,285.278320,356.231689,1.309435
-17.028809,322.082520,325.653076,1.310168
-21.606445,328.582764,315.399170,1.310901
-13.366699,343.872070,312.652588,1.311634
-11.627197,357.879639,303.588867,1.312393
-10.070801,370.605469,293.060303,1.313135
-25.268555,390.563965,261.566162,1.313877
-35.614014,379.943848,261.383057,1.314619
-41.748047,368.774414,272.094727,1.315368
-27.465820,365.020752,266.693115,1.316108
-26.458740,366.760254,254.150391,1.316865
-38.818359,370.513916,254.241943,1.317611
-59.783936,374.542236,234.741211,1.318365
-8.880615,365.203857,217.987061,1.319108
108.489990,361.816406,187.774658,1.319851
123.229980,360.900879,174.957275,1.320594
126.068115,358.703613,167.907715,1.321336
111.877441,369.964600,186.584473,1.322146
117.187500,395.782471,217.895508,1.322894
133.300781,454.742432,242.980957,1.323639
96.038818,462.158203,275.207520,1.324382
58.410645,486.785889,349.731445,1.325124
62.713623,499.969482,365.295410,1.325867
40.374756,528.533936,400.817871,1.326619
1.922607,556.274414,447.784424,1.327362
18.218994,562.591553,476.257324,1.328105
3.662109,584.197998,519.195557,1.328847
-12.359619,606.445312,537.506104,1.329586
-45.593262,638.580322,576.232910,1.330319
-77.178955,643.249512,623.657227,1.331051
-136.871338,679.138184,643.157959,1.331870
-138.793945,690.765381,685.180664,1.332628
-109.588623,723.083496,702.667236,1.333370
-119.201660,730.041504,740.112305,1.334112
-160.949707,741.943359,738.006592,1.334854
-158.752441,753.021240,763.641357,1.335609
-168.273926,762.908936,787.628174,1.336350
-173.858643,770.233154,812.896729,1.337102
-185.668945,774.078369,826.995850,1.337838
-194.549561,794.494629,854.095459,1.338609
-194.274902,808.959961,872.222900,1.339356
-199.951172,810.607910,888.977051,1.340122
-196.014404,817.382812,908.203125,1.340886
-200.500488,807.037354,915.527344,1.341620
-202.239990,800.170898,926.147461,1.342353
-192.535400,803.375244,939.422607,1.343086
-184.936523,794.219971,934.478760,1.343831
-134.857178,786.895752,928.070068,1.344564
-89.263916,788.452148,929.077148,1.345296
-77.545166,780.212402,923.767090,1.346029
-101.257324,765.472412,911.132812,1.346767
-99.243164,755.584717,908.569336,1.347501
-81.024170,737.182617,910.125732,1.348234
-48.980713,723.999023,900.054932,1.348968
-66.833496,720.245361,887.237549,1.349700
-61.065674,698.547363,858.581543,1.350458
-52.551270,700.836182,842.193604,1.351202
-37.078857,688.385010,819.305420,1.351945
-33.874512,666.137695,801.910400,1.352785
-9.613037,649.108887,767.944336,1.353530
-1.739502,644.805908,744.323730,1.354277
-11.077881,631.805420,732.238770,1.355071
7.873535,617.889404,729.400635,1.355833
12.817383,601.135254,731.781006,1.356576
15.655518,588.867188,703.399658,1.357320
18.218994,582.275391,722.534180,1.358064
16.754150,556.182861,722.076416,1.358830
18.218994,547.943115,730.041504,1.359575
19.958496,548.767090,721.893311,1.360318
42.846680,537.231445,710.357666,1.361062
72.784424,532.287598,693.145752,1.361817
146.209717,517.639160,686.370850,1.362561
156.097412,486.145020,661.926270,1.363304
184.387207,490.905762,654.327393,1.364047
240.142822,487.976074,643.707275,1.364801
216.156006,484.405518,640.960693,1.365545
187.683105,472.137451,631.713867,1.366288
205.718994,459.869385,630.615234,1.367031
217.254639,450.164795,635.101318,1.367774
206.085205,446.411133,632.720947,1.368507
201.416016,444.305420,628.417969,1.369240
217.895508,442.932129,628.601074,1.369973
205.444336,439.727783,612.945557,1.370737
199.401855,427.551270,614.685059,1.371487
214.874268,427.093506,610.015869,1.372235
214.050293,425.720215,604.431152,1.372999
211.853027,413.635254,602.142334,1.373772
218.719482,423.889160,591.888428,1.374515
213.043213,426.361084,583.374023,1.375259
216.613770,439.178467,579.711914,1.376003
216.064453,442.474365,573.028564,1.376756
213.592529,439.086914,577.789307,1.377500
210.021973,448.425293,573.394775,1.378269
217.254639,444.030762,574.218750,1.379031
225.036621,455.383301,576.507568,1.379782
220.458984,465.637207,561.859131,1.380552
207.641602,478.271484,556.091309,1.381298
202.789307,486.419678,563.964844,1.382045
208.099365,486.328125,561.859131,1.382787
208.374023,500.427246,567.443848,1.383529
205.078125,505.920410,561.950684,1.384271
202.331543,510.589600,556.915283,1.385013
206.909180,517.547607,561.218262,1.385754
202.697754,524.139404,560.485840,1.386496
203.704834,538.055420,569.458008,1.387238
211.761475,549.499512,562.225342,1.387976
217.346191,550.140381,568.450928,1.388709
222.381592,557.922363,562.133789,1.389458
226.959229,539.337158,565.429688,1.390193
214.599609,567.626953,567.077637,1.390934
222.564697,578.979492,572.296143,1.391674
222.381592,586.212158,582.458496,1.392413
219.451904,592.803955,581.909180,1.393152
217.071533,601.135254,585.113525,1.393910
215.789795,610.473633,588.226318,1.394654
229.064941,631.530762,593.811035,1.395396
226.043701,623.291016,600.585938,1.396138
224.945068,637.298584,607.269287,1.396880
219.909668,642.700195,621.734619,1.397620
225.128174,649.291992,625.946045,1.398376
223.754883,660.095215,633.636475,1.399120
227.966309,660.369873,647.644043,1.399859
229.522705,668.060303,651.947021,1.400593
227.508545,669.067383,657.073975,1.401326
223.388672,679.595947,662.658691,1.402059
224.395752,687.652588,666.687012,1.402813
230.895996,692.413330,670.898438,1.403556
232.452393,695.068359,673.278809,1.404300
228.149414,703.308105,680.419922,1.405043
235.473633,701.751709,675.476074,1.405786
232.543945,709.625244,688.293457,1.406519
231.536865,708.343506,698.455811,1.407317
238.952637,716.857910,690.490723,1.408051
244.171143,712.738037,693.603516,1.408796
245.361328,709.442139,692.230225,1.409602
237.487793,705.413818,696.258545,1.410346
232.269287,702.392578,691.680908,1.411089
255.249023,700.927734,688.293457,1.411840
249.298096,709.991455,679.412842,1.412584
242.523193,705.322266,677.032471,1.413327
241.333008,708.343506,675.476074,1.414070
247.283936,711.914062,668.792725,1.414824
243.164062,716.125488,668.334961,1.415568
247.100830,720.520020,661.010742,1.416312
247.375488,721.618652,661.743164,1.417055
238.861084,720.428467,662.841797,1.417799
236.755371,726.745605,655.426025,1.418532
249.114990,726.196289,652.404785,1.419265
246.551514,746.887207,645.812988,1.419999
246.368408,756.042480,652.496338,1.420756
249.938965,756.317139,651.672363,1.421499
247.009277,763.549805,659.729004,1.422243
235.656738,765.289307,664.215088,1.422986
236.572266,781.677246,674.285889,1.423739
227.600098,785.156250,683.441162,1.424482
210.296631,798.431396,710.540771,1.425226
185.119629,805.847168,747.894287,1.426125
148.315430,809.051514,739.105225,1.426886
119.659424,803.558350,741.668701,1.427630
73.150635,802.001953,728.302002,1.428374
29.937744,793.395996,710.723877,1.429118
19.317627,789.367676,681.976318,1.429871
-6.134033,769.226074,663.482666,1.430615
-11.077881,765.380859,644.439697,1.431358
-10.345459,763.000488,632.812500,1.432102
-14.099121,765.014648,614.318848,1.432845
-17.028809,762.451172,611.663818,1.433579
-5.126953,772.247314,606.445312,1.434312
-5.767822,777.648926,606.628418,1.435045
0.823975,772.155762,602.508545,1.435800
12.908936,782.592773,607.543945,1.436543
11.718750,776.458740,601.776123,1.437284
5.310059,779.022217,600.494385,1.438027
7.141113,780.944824,595.550537,1.438811
-4.394531,780.578613,566.619873,1.439573
-17.211914,771.606445,579.711914,1.440355
-23.895264,769.134521,567.443848,1.441128
-23.071289,774.719238,554.351807,1.441890
-26.550293,762.817383,546.386719,1.442676
-33.691406,765.655518,538.238525,1.443446
-42.755127,761.718750,535.400391,1.444207
-43.029785,757.873535,530.822754,1.445027
-43.121338,752.380371,523.406982,1.445806
-35.888672,759.429932,528.350830,1.446574
-40.649414,756.958008,516.357422,1.447445
-50.903320,754.943848,502.899170,1.448240
-56.030273,746.429443,492.370605,1.448998
-59.875488,750.183105,481.384277,1.449776
-51.177979,758.789062,474.517822,1.450609
-49.072266,756.408691,466.369629,1.451371
-48.980713,757.141113,454.101562,1.452118
-42.388916,762.634277,446.594238,1.452861
-44.494629,762.176514,432.128906,1.453624
-40.008545,775.817871,431.945801,1.454368
-42.205811,769.683838,423.065186,1.455111
-41.748047,792.297363,416.290283,1.455855
-34.881592,803.375244,414.642334,1.456598
-31.311035,812.530518,405.029297,1.457332
-28.747559,811.157227,399.078369,1.458066
-31.402588,812.530518,378.021240,1.458799
-29.022217,828.826904,384.704590,1.459543
-29.571533,838.623047,393.493652,1.460276
-34.973145,845.214844,394.042969,1.461009
-31.585693,861.785889,385.711670,1.461742
-31.219482,864.898682,415.374756,1.462508
-31.402588,882.568359,404.479980,1.463255
-27.740479,909.667969,439.727783,1.463998
-23.529053,915.161133,463.073730,1.464741
-8.789062,937.957764,504.821777,1.465502
-5.218506,941.802979,536.315918,1.466245
-1.373291,975.219727,553.344727,1.466988
6.683350,994.720459,571.105957,1.467731
4.302979,999.938965,581.085205,1.468484
-0.640869,1019.989014,593.627930,1.469226
-1.464844,1023.193359,589.874268,1.469970
-7.598877,1035.827637,589.141846,1.470714
-8.880615,1035.919189,593.902588,1.471455
-17.578125,1035.827637,594.635010,1.472188
-27.740479,1042.968750,583.648682,1.472921
-37.628174,1049.926758,594.726562,1.473655
-32.226562,1055.145264,598.388672,1.474425
-39.733887,1065.582275,604.888916,1.475168
-35.156250,1075.927734,604.339600,1.475911
-35.247803,1089.202881,605.529785,1.476665
-34.790039,1124.359131,621.734619,1.477430
-27.008057,1117.675781,639.404297,1.478297
-37.536621,1134.521484,650.299072,1.479042
-36.895752,1130.950928,673.461914,1.479791
-35.614014,1143.768311,675.842285,1.480534
-41.564941,1171.325684,686.737061,1.481276
-47.882080,1165.740967,686.737061,1.482018
-26.367188,1162.994385,699.188232,1.482771
-49.804688,1170.227051,722.991943,1.483511
-47.332764,1184.143066,717.681885,1.484251
-69.671631,1186.706543,715.393066,1.485002
-66.833496,1187.255859,722.900391,1.485755
-67.657471,1186.340332,730.590820,1.486495
-79.925537,1181.854248,746.978760,1.487245
-81.665039,1179.473877,726.654053,1.487978
-83.953857,1172.973633,735.717773,1.488727
-94.116211,1164.276123,733.978271,1.489467
-108.947754,1167.663574,733.245850,1.490213
-104.370117,1157.501221,734.710693,1.490953
-107.574463,1144.134521,733.612061,1.491732
-116.912842,1146.697998,738.830566,1.492472
-114.532471,1135.437012,752.471924,1.493205
-110.961914,1128.112793,751.098633,1.494005
-102.355957,1118.133545,750.457764,1.494754
-84.869385,1125.640869,746.154785,1.495497
-82.580566,1108.703613,737.091064,1.496241
-69.763184,1108.886719,734.527588,1.496996
-31.860352,1093.963623,727.294922,1.497739
-19.317627,1080.505371,703.399658,1.498483
26.275635,1078.491211,682.983398,1.499322
39.916992,1071.441650,664.123535,1.500071
28.930664,1078.765869,615.875244,1.500835
41.473389,1076.385498,614.959717,1.501580
26.458740,1063.568115,609.741211,1.502333
-10.162354,1063.385010,613.677979,1.503078
-28.656006,1055.694580,632.904053,1.503821
-40.557861,1050.933838,637.756348,1.504565
-57.678223,1042.877197,644.897461,1.505309
-47.424316,1040.771484,650.848389,1.506063
-42.480469,1041.046143,640.228271,1.506806
-13.641357,1029.785156,637.664795,1.507550
5.584717,1033.996582,613.128662,1.508293
29.937744,1014.770508,598.937988,1.509036
35.339355,1000.305176,584.564209,1.509769
27.923584,994.812012,568.817139,1.510502
15.930176,978.424072,552.246094,1.511236
4.028320,952.972412,535.583496,1.512043
-4.760742,941.436768,527.343750,1.512789
-20.599365,942.535400,523.132324,1.513532
-28.747559,934.844971,530.090332,1.514288
-37.261963,940.063477,531.372070,1.515031
-44.128418,932.189941,520.477295,1.515775
-37.261963,932.830811,516.998291,1.516518
-33.874512,912.414551,495.391846,1.517319
-27.923584,903.717041,474.151611,1.518087
-22.705078,894.561768,472.229004,1.518825
-26.733398,870.208740,450.256348,1.519558
-24.627686,872.955322,443.206787,1.520323
-28.472900,856.567383,423.706055,1.521075
-32.409668,838.073730,419.586182,1.521846
-31.860352,826.904297,408.325195,1.522597
-41.839600,815.093994,386.993408,1.523390
-61.706543,809.600830,378.662109,1.524140
-92.559814,788.635254,363.372803,1.524883
-78.826904,783.508301,350.738525,1.525627
-82.580566,780.578613,330.047607,1.526384
-78.186035,750.823975,310.089111,1.527127
-52.185059,752.655029,298.645020,1.527871
-15.930176,728.576660,276.306152,1.528614
-12.176514,725.830078,242.523193,1.529367
13.549805,740.478516,223.663330,1.530110
12.817383,785.064697,195.281982,1.530853
-8.605957,794.494629,171.020508,1.531597
-11.718750,800.720215,166.534424,1.532339
-4.028320,785.339355,169.555664,1.533073
19.500732,773.071289,178.985596,1.533805
26.092529,759.063721,176.239014,1.534538
0.915527,767.578125,169.921875,1.535296
4.760742,768.585205,170.196533,1.536047
-7.141113,774.169922,182.739258,1.536791
-37.994385,772.979736,206.359863,1.537534
-27.191162,766.204834,214.416504,1.538291
-49.438477,767.761230,224.670410,1.539035
-65.734863,756.408691,234.924316,1.539779
-61.614990,760.437012,248.565674,1.540521
-79.010010,793.487549,251.861572,1.541275
-89.538574,849.792480,216.247559,1.542018
-100.158691,863.067627,216.522217,1.542762
-103.179932,828.460693,262.390137,1.543504
-83.129883,831.390381,300.750732,1.544247
-85.144043,270.812988,407.684326,1.544980
37.170410,461.608887,358.520508,1.545713
162.872314,617.065430,246.002197,1.546446
-152.160645,773.895264,260.467529,1.547213
-9.429932,691.680908,276.306152,1.547956
73.974609,679.321289,274.475098,1.548699
21.148682,736.541748,205.810547,1.549442
-37.078857,856.750488,191.345215,1.550185
54.656982,856.109619,159.393311,1.550986
36.163330,793.487549,162.414551,1.551722
-31.860352,802.459717,121.856689,1.552455
54.840088,854.644775,94.299316,1.553213
-21.057129,837.982178,142.272949,1.553957
-61.798096,819.488525,173.492432,1.554701
21.057129,878.540039,187.042236,1.555445
-27.465820,896.484375,234.375000,1.556197
-35.064697,867.919922,255.889893,1.556941
-30.578613,888.702393,333.068848,1.557684
-76.995850,889.984131,343.505859,1.558428
-41.564941,923.767090,351.470947,1.559170
-43.212891,919.281006,394.592285,1.559904
-68.298340,935.394287,389.556885,1.560637
-78.277588,933.746338,412.261963,1.561370
-74.249268,928.070068,431.121826,1.562128
-86.334229,965.057373,410.980225,1.562872
-117.095947,993.347168,410.156250,1.563616
-105.102539,1000.030518,453.186035,1.564359
-81.207275,997.467041,567.718506,1.565112
-69.213867,1002.410889,595.825195,1.565856
-59.600830,1000.396729,628.417969,1.566600
-46.966553,994.445801,622.467041,1.567343
-63.537598,999.572754,608.734131,1.568096
-92.926025,1052.032471,549.499512,1.568840
-87.158203,1077.026367,514.892578,1.569584
-98.968506,1118.865967,477.447510,1.570328
-110.595703,1168.579102,459.686279,1.571073
-105.926514,1184.051514,488.250732,1.571899
-98.785400,1196.960449,524.597168,1.572633
-39.001465,1262.054443,565.246582,1.573366
-42.663574,1290.252686,577.423096,1.574158
-75.439453,1313.232422,611.389160,1.574893
-50.720215,1303.619385,633.453369,1.575626
-52.368164,1274.230957,660.003662,1.576403
-77.819824,1258.026123,683.990479,1.577150
-38.818359,1236.968994,702.667236,1.577894
-58.227539,1193.481445,732.696533,1.578637
-47.790527,1181.854248,736.267090,1.579390
-21.514893,1150.360107,752.929688,1.580134
-25.909424,1147.155762,770.965576,1.580877
-20.965576,1123.809814,774.078369,1.581621
-8.789062,1096.343994,795.227051,1.582365
-23.986816,1081.512451,794.311523,1.583098
-7.781982,1064.392090,751.739502,1.583831
3.021240,1031.250000,650.756836,1.584564
-47.241211,1013.397217,600.585938,1.585308
0.274658,978.973389,507.751465,1.586051
-13.824463,957.183838,457.946777,1.586795
-17.211914,944.732666,346.801758,1.587584
52.276611,974.853516,289.123535,1.588339
18.310547,1036.468506,227.691650,1.589083
32.592773,1069.152832,207.000732,1.589826
56.579590,1075.561523,253.326416,1.590569
67.565918,1055.969238,306.335449,1.591324
129.272461,1042.236328,379.486084,1.592076
147.125244,1033.447266,443.115234,1.592844
156.188965,1040.039062,479.461670,1.593598
189.880371,1049.652100,509.124756,1.594364
175.872803,1042.327881,525.421143,1.595108
155.548096,1008.636475,528.717041,1.595852
132.385254,999.664307,519.927979,1.596596
101.348877,973.754883,480.102539,1.597350
14.923096,1017.700195,472.778320,1.598093
22.155762,1042.602539,386.901855,1.598836
-47.058105,984.375000,406.768799,1.599580
-45.776367,895.568848,416.015625,1.600323
9.246826,930.541992,326.934814,1.601057
-53.009033,959.381104,305.236816,1.601790
-18.676758,951.049805,310.546875,1.602522
125.244141,939.056396,328.857422,1.603280
56.213379,948.120117,353.027344,1.604023
131.744385,960.571289,357.147217,1.604764
165.344238,941.802979,394.958496,1.605506
138.153076,909.942627,380.493164,1.606256
170.288086,908.203125,371.704102,1.606996
153.808594,925.048828,340.667725,1.607736
118.835449,931.915283,245.178223,1.608484
107.940674,936.950684,219.177246,1.609243
108.673096,906.738281,174.774170,1.609986
65.460205,910.858154,146.118164,1.610729
69.030762,912.414551,106.018066,1.611472
56.854248,913.055420,107.116699,1.612207
68.298340,916.717529,104.370117,1.612940
70.678711,940.338135,114.990234,1.613673
73.974609,942.718506,115.539551,1.614406
110.504150,974.212646,163.604736,1.615147
122.680664,970.275879,205.993652,1.615889
151.611328,1006.530762,210.388184,1.616631
172.210693,1024.566650,233.367920,1.617372
154.632568,1025.756836,242.614746,1.618115
164.062500,1014.129639,304.229736,1.618857
178.253174,1003.692627,301.574707,1.619598
155.731201,1035.369873,290.679932,1.620341
110.961914,1030.883789,328.857422,1.621083
132.568359,1031.066895,339.202881,1.621825
116.363525,1060.272217,354.125977,1.622568
85.601807,1072.540283,364.837646,1.623310
122.955322,1108.886719,381.317139,1.624052
91.094971,1138.824463,437.164307,1.624843
74.890137,1146.972656,460.418701,1.625589
140.625000,1162.353516,454.467773,1.626330
109.497070,1128.570557,438.446045,1.627100
138.702393,1095.886230,401.641846,1.627843
161.590576,1095.245361,372.802734,1.628585
159.759521,1097.808838,346.710205,1.629327
146.301270,1095.794678,327.117920,1.630079
157.562256,1099.456787,311.370850,1.630819
157.745361,1112.365723,298.004150,1.631558
185.577393,1123.718262,273.193359,1.632310
196.289062,1147.705078,239.044189,1.633068
196.929932,1164.550781,254.425049,1.633801
207.000732,967.712402,276.763916,1.634534
335.083008,1046.905518,215.972900,1.635316
156.646729,1042.694092,257.354736,1.636127
-280.517578,1104.492188,281.341553,1.636862
70.953369,1094.329834,238.494873,1.637612
-149.322510,1102.844238,275.573730,1.638361
-162.414551,1119.415283,274.383545,1.639094
-5.218506,1134.246826,281.890869,1.639846
-97.412109,1107.055664,303.131104,1.640592
5.310059,1122.711182,304.962158,1.641381
31.494141,1095.062256,309.997559,1.642152
140.533447,1101.379395,311.828613,1.642899
174.957275,1104.309082,352.661133,1.643643
125.518799,1077.850342,342.132568,1.644511
64.636230,1024.017334,348.907471,1.645255
-180.999756,1031.616211,388.000488,1.645999
74.249268,1019.256592,373.535156,1.646742
129.364014,1058.074951,363.739014,1.647496
125.427246,998.016357,339.477539,1.648240
84.594727,973.663330,317.413330,1.648984
-60.516357,929.626465,273.284912,1.649755
126.525879,931.732178,229.614258,1.650501
169.647217,930.908203,191.162109,1.651245
89.172363,927.886963,167.724609,1.651989
37.445068,908.111572,109.405518,1.652745
59.051514,910.125732,88.714600,1.653488
90.087891,894.744873,25.360107,1.654231
3.845215,888.244629,-22.613525,1.655024
-18.218994,885.314941,-55.572510,1.655769
21.240234,895.660400,-60.241699,1.656512
25.360107,922.027588,-81.573486,1.657256
3.387451,915.435791,-100.341797,1.657999
-9.887695,938.781738,-104.003906,1.658753
49.346924,852.447510,-79.559326,1.659497
223.205566,932.647705,20.965576,1.660240
42.663574,839.080811,120.758057,1.660984
21.057129,843.933105,101.257324,1.661720
133.209229,884.582520,59.509277,1.662453
-58.044434,899.871826,15.563965,1.663186
35.705566,867.553711,-14.831543,1.663928
125.793457,886.138916,-59.417725,1.664699
-64.910889,866.729736,-108.032227,1.665471
4.486084,861.053467,-141.815186,1.666220
82.489014,917.175293,-197.845459,1.666963
-20.507812,893.554688,-205.169678,1.667700
75.164795,914.886475,-248.565674,1.668467
110.229492,917.724609,-260.375977,1.669202
100.524902,920.288086,-257.904053,1.669935
162.689209,919.921875,-265.045166,1.670703
157.470703,952.239990,-221.374512,1.671448
161.590576,1007.354736,-200.042725,1.672192
215.240479,1039.031982,-175.689697,1.672936
161.499023,1015.045166,-117.553711,1.673699
182.189941,977.600098,-115.264893,1.674443
188.781738,977.233887,-71.228027,1.675187
216.705322,985.290527,-11.077881,1.675931
252.410889,1033.721924,14.923096,1.676677
394.592285,1071.533203,42.846680,1.677412
387.451172,1051.208496,76.904297,1.678145
392.303467,1006.988525,92.742920,1.678878
337.921143,933.929443,146.118164,1.679649
331.970215,883.026123,180.267334,1.680405
263.946533,862.243652,481.201172,1.681178
-791.656494,400.726318,1002.685547,1.681963
1149.993896,779.663086,371.887207,1.682709
1735.198975,1106.323242,-15.014648,1.683453
149.597168,764.739990,100.524902,1.684198
-825.988770,922.668457,776.092529,1.684943
-508.209229,1136.627197,600.494385,1.685687
-73.516846,1261.230469,399.993896,1.686431
-302.947998,1196.228027,448.242188,1.687175
653.686523,1190.917969,458.953857,1.687919
1988.250732,1623.504639,473.419189,1.688653
2999.908447,1392.608643,498.321533,1.689386
-732.604980,1236.236572,101.165771,1.690120
-1241.455078,1112.548828,241.882324,1.690853
-841.369629,1047.821045,167.083740,1.691624
-341.857910,1153.747559,-38.909912,1.692368
786.071777,1190.826416,-102.081299,1.693112
860.137939,1243.652344,-190.338135,1.693856
634.552002,1198.791504,-298.919678,1.694610
2.563477,1078.857422,-357.696533,1.695355
-352.294922,987.670898,-402.099609,1.696098
-658.447266,981.994629,-392.944336,1.696841
141.998291,1042.510986,-383.605957,1.697594
733.795166,1106.140137,-345.428467,1.698338
928.436279,1151.550293,-343.505859,1.699133
-68.481445,1074.462891,-368.499756,1.699880
-552.337646,991.058350,-412.353516,1.700624
-474.426270,979.888916,-432.403564,1.701368
-58.959961,1029.693604,-440.551758,1.702112
118.194580,1046.264648,-451.354980,1.702856
182.098389,988.220215,-484.130859,1.703600
-91.644287,954.986572,-571.197510,1.704344
-684.722900,968.627930,-507.751465,1.705088
-565.429688,1011.749268,-35.247803,1.705831
-180.541992,1068.786621,104.827881,1.706565
-16.662598,1301.696777,67.016602,1.707298
327.941895,1354.064941,-67.657471,1.708031
821.777344,1295.471191,-121.215820,1.708764
128.814697,1042.419434,-37.536621,1.709513
-273.468018,1014.221191,7.232666,1.710247
-214.233398,1195.678711,6.774902,1.710980
110.504150,1451.202393,-106.842041,1.711713
696.624756,1628.723145,-80.474854,1.712468
850.341797,1284.667969,341.949463,1.713213
-307.800293,1268.188477,291.778564,1.713958
-1266.906738,1400.299072,250.122070,1.714702
-297.729492,1547.790527,48.431396,1.715460
1852.935791,1564.636230,-72.967529,1.716298
1040.679932,1536.254883,-87.524414,1.717042
-673.370361,1400.299072,-128.265381,1.717795
-829.925537,1350.769043,-292.602539,1.718528
127.258301,1363.311768,-405.395508,1.719261
1089.477539,1290.435791,-559.753418,1.719995
962.036133,1202.362061,-617.340088,1.720740
-962.768555,913.787842,-369.415283,1.721484
-1795.074463,914.062500,-13.092041,1.722226
-331.146240,1115.936279,3.387451,1.722968
1057.708740,1414.398193,-101.165771,1.723711
1617.919922,1466.949463,-164.245605,1.724453
-553.161621,1349.487305,-185.760498,1.725195
-1302.246094,1315.246582,-250.854492,1.725938
-898.773193,1253.631592,-299.835205,1.726680
-241.424561,1408.447266,-423.431396,1.727432
482.666016,1437.377930,-483.581543,1.728175
327.117920,1448.547363,-508.392334,1.728917
536.865234,1380.249023,-104.919434,1.729659
294.158936,1054.504395,-25.360107,1.730411
-1148.437500,1037.384033,176.879883,1.731153
-1470.520020,1129.119873,275.024414,1.731895
-1534.698486,1417.419434,156.921387,1.732637
-1506.500244,1453.125000,69.946289,1.733389
-757.049561,1454.132080,36.529541,1.734132
1700.775146,1666.442871,-148.681641,1.734874
1912.170410,1704.711914,-203.430176,1.735616
1046.905518,1483.428955,40.740967,1.736367
2002.166748,2053.161621,2999.908447,1.737112
1224.426270,2999.908447,2999.908447,1.737860
-195.556641,2561.828613,2781.646729,1.738635
-883.392334,1861.907959,-2803.527832,1.739460
-1788.940430,1363.403320,-2849.029541,1.740209
-463.623047,1139.556885,-865.631104,1.740954
-415.740967,808.319092,1509.246826,1.741699
-231.353760,897.766113,926.788330,1.742443
-216.339111,1057.708740,-946.563721,1.743187
-591.705322,767.852783,-1132.873535,1.743931
-343.048096,693.511963,-693.695068,1.744683
-50.720215,874.420166,672.729492,1.745427
205.627441,1100.646973,556.365967,1.746171
440.917969,1309.020996,49.346924,1.746915
371.520996,1215.820312,-614.044189,1.747658
-278.228760,1179.199219,-816.650391,1.748419
-720.153809,1174.438477,-736.541748,1.749168
-715.576172,1214.813232,-98.693848,1.749911
-226.409912,1270.843506,13.183594,1.750653
537.963867,1161.346436,142.639160,1.751393
531.463623,1118.133545,190.063477,1.752133
189.605713,1137.084961,-207.183838,1.752873
-144.287109,1027.679443,-416.564941,1.753635
-395.324707,1033.447266,-436.340332,1.754382
-236.663818,1068.328857,-360.809326,1.755125
-127.258301,1085.449219,-159.667969,1.755869
97.778320,1162.994385,-81.390381,1.756627
128.265381,1192.749023,-85.235596,1.757360
124.053955,1160.339355,-129.364014,1.758094
145.202637,1111.267090,-199.859619,1.758826
135.406494,1097.991943,-343.597412,1.759564
73.974609,1028.045654,-390.472412,1.760309
63.171387,981.353760,-374.908447,1.761057
78.918457,929.718018,-334.533691,1.761801
145.477295,842.193604,-288.391113,1.762552
191.253662,830.657959,-312.835693,1.763296
299.652100,874.603271,-318.969727,1.764040
337.005615,958.831787,-198.303223,1.764784
443.572998,968.536377,-165.710449,1.765528
481.842041,992.980957,-220.184326,1.766272
479.187012,972.564697,-291.687012,1.767015
356.781006,968.261719,-322.082520,1.767759
307.342529,1036.010742,-344.329834,1.768503
211.578369,1091.033936,-316.680908,1.769246
323.547363,1200.073242,-239.685059,1.769979
326.477051,1250.335693,-155.364990,1.770713
456.939697,1304.534912,-80.108643,1.771446
493.835449,1274.780273,-131.561279,1.772226
440.002441,1204.284668,-284.729004,1.772965
291.412354,1153.930664,-324.554443,1.773699
65.368652,1141.937256,-311.553955,1.774456
-193.267822,1191.101074,-212.951660,1.775233
-335.815430,1202.270508,-152.893066,1.775976
-538.238525,1187.255859,-180.541992,1.776732
-641.235352,1152.099609,-263.946533,1.777490
-629.608154,1145.874023,-261.932373,1.778230
-526.611328,1154.022217,-242.156982,1.778969
-433.959961,1162.719727,-244.903564,1.779715
-229.064941,1135.437012,-311.004639,1.780471
1.464844,1123.901367,-330.871582,1.781205
78.918457,1119.232178,-322.265625,1.781937
63.262939,1121.429443,-282.165527,1.782670
12.817383,1124.450684,-283.630371,1.783414
-33.416748,1114.013672,-310.913086,1.784147
-92.559814,1090.484619,-317.138672,1.784880
-115.264893,1064.849854,-316.497803,1.785780
-85.510254,1056.701660,-283.447266,1.786516
-37.261963,1054.412842,-291.137695,1.787249
-16.571045,1053.222656,-306.793213,1.787982
15.655518,1014.862061,-329.772949,1.788729
14.831543,1013.854980,-320.800781,1.789473
15.014648,1013.763428,-316.864014,1.790236
-1.373291,1024.383545,-300.018311,1.790996
-13.641357,1027.130127,-303.863525,1.791771
5.950928,1015.960693,-311.279297,1.792544
38.635254,1016.784668,-296.447754,1.793355
37.078857,1026.580811,-261.383057,1.794104
36.621094,1030.792236,-250.946045,1.794870
29.663086,1024.200439,-256.072998,1.795614
24.444580,1017.700195,-275.024414,1.796359
18.768311,1013.854980,-284.088135,1.797102
8.880615,1021.911621,-265.686035,1.797858
21.057129,1037.109375,-255.065918,1.798602
39.825439,1044.708252,-239.959717,1.799346
12.634277,1058.441162,-222.747803,1.800093
10.620117,1063.751221,-222.106934,1.800836
-14.099121,1074.462891,-226.409912,1.801569
-9.429932,1070.434570,-235.015869,1.802302
6.866455,1077.117920,-228.881836,1.803035
21.240234,1079.956055,-203.338623,1.803793
17.486572,1095.336914,-205.535889,1.804584
8.239746,1096.801758,-210.937500,1.805328
-13.916016,1082.977295,-212.860107,1.806068
-20.416260,1090.942383,-211.029053,1.806814
-45.135498,1089.660645,-200.225830,1.807548
-49.896240,1086.639404,-206.176758,1.808285
-42.663574,1085.815430,-207.275391,1.809025
-29.296875,1072.723389,-208.923340,1.809791
-16.296387,1066.314697,-227.783203,1.810541
-20.599365,1037.292480,-228.881836,1.811291
-29.205322,1073.455811,-222.198486,1.812057
-38.543701,1058.166504,-219.177246,1.812822
-47.973633,1034.729004,-237.579346,1.813602
-42.663574,1020.812988,-255.889893,1.814345
-15.380859,1010.284424,-259.094238,1.815111
12.176514,1001.953125,-268.341064,1.815853
17.669678,1002.868652,-273.376465,1.816594
26.733398,992.156982,-275.207520,1.817337
22.155762,971.649170,-285.461426,1.818088
2.014160,978.515625,-290.222168,1.818831
-1.373291,974.029541,-312.469482,1.819573
1.464844,978.057861,-308.807373,1.820315
-11.352539,970.550537,-307.159424,1.821056
-11.077881,984.191895,-301.849365,1.821824
-3.845215,978.057861,-305.969238,1.822560
5.493164,970.916748,-309.631348,1.823292
1.373291,967.803955,-315.032959,1.824055
14.831543,962.219238,-309.997559,1.824798
17.578125,962.951660,-307.067871,1.825542
23.345947,965.698242,-310.546875,1.826286
30.944824,960.205078,-318.878174,1.827040
24.353027,960.845947,-310.272217,1.827784
19.134521,962.219238,-304.962158,1.828527
14.465332,971.374512,-296.905518,1.829271
15.472412,977.416992,-302.215576,1.830024
19.409180,980.895996,-302.398682,1.830768
22.521973,973.663330,-299.194336,1.831513
36.071777,973.388672,-304.687500,1.832257
34.057617,980.987549,-286.834717,1.833001
25.177002,981.719971,-290.771484,1.833735
29.754639,993.347168,-283.721924,1.834468
25.726318,995.178223,-283.447266,1.835202
32.867432,984.924316,-290.313721,1.835974
28.106689,990.783691,-289.306641,1.836721
22.888184,991.607666,-269.897461,1.837465
30.578613,1002.410889,-264.129639,1.838208
60.333252,1007.812500,-261.749268,1.838964
51.818848,1005.432129,-272.552490,1.839708
63.995361,1008.361816,-274.475098,1.840452
63.537598,1003.143311,-279.510498,1.841195
62.530518,1017.883301,-263.214111,1.841949
93.292236,1026.489258,-257.995605,1.842692
74.249268,1023.834229,-260.925293,1.843436
115.814209,1030.426025,-254.516602,1.844180
111.602783,1029.052734,-267.700195,1.844933
70.587158,1018.432617,-269.531250,1.845677
31.494141,1021.728516,-256.439209,1.846421
37.170410,1015.502930,-261.016846,1.847165
85.968018,1018.524170,-244.812012,1.847919
108.032227,1024.017334,-228.881836,1.848663
121.398926,1020.355225,-234.924316,1.849406
97.412109,1004.241943,-248.748779,1.850150
113.525391,1006.530762,-245.361328,1.850892
105.194092,1011.932373,-227.325439,1.851626
96.954346,1009.277344,-214.141846,1.852359
100.433350,1018.798828,-233.459473,1.853111
124.237061,1003.875732,-235.565186,1.853868
133.483887,1004.333496,-225.952148,1.854612
116.546631,1007.537842,-221.466064,1.855356
107.299805,1016.967773,-223.663330,1.856100
107.208252,1006.164551,-230.438232,1.856949
139.617920,986.572266,-237.304688,1.857695
127.258301,990.325928,-237.945557,1.858439
120.025635,985.198975,-231.811523,1.859183
122.039795,1006.164551,-214.050293,1.859927
115.173340,987.487793,-219.543457,1.860660
117.919922,979.156494,-226.684570,1.861393
124.603271,975.402832,-235.656738,1.862219
141.998291,968.353271,-238.403320,1.862966
157.836914,965.789795,-231.536865,1.863708
141.540527,963.958740,-225.677490,1.864449
132.751465,968.444824,-229.064941,1.865212
130.187988,961.029053,-238.586426,1.865954
133.117676,953.521729,-236.572266,1.866695
135.498047,955.261230,-225.494385,1.867437
139.251709,957.916260,-212.402344,1.868178
140.441895,981.719971,-220.367432,1.868918
143.463135,954.254150,-225.128174,1.869659
145.935059,939.971924,-229.797363,1.870399
144.378662,937.316895,-227.050781,1.871151
152.435303,932.098389,-228.149414,1.871892
151.519775,943.634033,-211.761475,1.872632
158.477783,943.084717,-211.853027,1.873373
162.597656,936.584473,-227.050781,1.874122
162.689209,932.464600,-224.670410,1.874863
164.794922,934.661865,-221.374512,1.875603
163.055420,925.048828,-218.353271,1.876344
155.822754,921.112061,-228.790283,1.877095
157.745361,932.739258,-217.895508,1.877847
153.717041,918.548584,-227.966309,1.878594
149.322510,922.943115,-230.072021,1.879342
166.076660,920.104980,-226.043701,1.880085
162.231445,920.928955,-224.029541,1.880826
152.801514,909.851074,-226.226807,1.881568
145.385742,925.048828,-220.275879,1.882309
146.850586,916.534424,-218.902588,1.883050
148.681641,914.794922,-227.050781,1.883791
150.238037,914.154053,-228.515625,1.884532
145.202637,908.020020,-219.635010,1.885273
140.167236,913.238525,-218.536377,1.886030
144.470215,913.513184,-228.515625,1.886772
142.272949,903.167725,-228.790283,1.887513
132.568359,904.815674,-234.741211,1.888253
140.441895,902.252197,-237.304688,1.889003
134.674072,905.731201,-230.072021,1.889744
127.258301,903.900146,-234.649658,1.890485
128.448486,901.428223,-236.206055,1.891225
123.779297,894.195557,-241.699219,1.891976
117.187500,891.540527,-239.776611,1.892717
110.412598,887.145996,-240.875244,1.893458
109.771729,891.723633,-237.579346,1.894200
114.257812,900.421143,-233.917236,1.894951
109.405518,911.956787,-223.663330,1.895693
99.243164,898.498535,-228.057861,1.896434
107.940674,896.942139,-241.790771,1.897175
100.341797,904.815674,-235.565186,1.897924
95.947266,905.731201,-227.966309,1.898665
82.031250,905.639648,-225.677490,1.899407
88.439941,907.745361,-225.677490,1.900150
79.101562,909.851074,-226.409912,1.900892
78.369141,916.534424,-212.677002,1.901633
83.679199,920.654297,-216.156006,1.902374
84.411621,915.710449,-210.113525,1.903116
85.418701,930.267334,-214.416504,1.903857
81.573486,911.956787,-217.163086,1.904599
84.045410,922.576904,-214.416504,1.905339
76.904297,917.724609,-218.170166,1.906080
70.312500,919.647217,-214.141846,1.906836
70.404053,922.393799,-222.106934,1.907578
66.925049,911.499023,-230.163574,1.908319
72.875977,912.506104,-216.705322,1.909059
72.784424,911.590576,-230.072021,1.909800
64.361572,925.323486,-225.494385,1.910541
65.185547,920.379639,-217.346191,1.911283
73.516846,921.752930,-217.712402,1.912024
63.812256,913.513184,-223.388672,1.912765
60.974121,910.766602,-219.268799,1.913506
60.241699,916.259766,-219.451904,1.914246
61.889648,926.879883,-214.416504,1.914987
49.896240,927.520752,-213.226318,1.915728
55.938721,924.865723,-222.106934,1.916469
58.502197,921.203613,-212.036133,1.917210
50.445557,932.281494,-208.099365,1.917950
57.403564,934.478760,-206.726074,1.918700
67.108154,931.640625,-206.542969,1.919441
54.656982,929.077148,-211.578369,1.920183
54.107666,936.950684,-202.331543,1.920923
56.854248,932.006836,-207.092285,1.921675
50.537109,932.006836,-208.923340,1.922416
50.079346,932.464600,-210.845947,1.923157
53.649902,945.831299,-200.408936,1.923900
54.107666,937.774658,-212.860107,1.924645
45.501709,928.253174,-207.550049,1.925386
36.712646,917.999268,-206.451416,1.926126
46.325684,914.794922,-203.247070,1.926872
55.847168,929.809570,-204.437256,1.927615
50.628662,922.302246,-204.803467,1.928447
42.938232,916.625977,-204.803467,1.929189
49.530029,921.661377,-206.634521,1.929933
47.607422,924.591064,-215.789795,1.930676
44.677734,921.020508,-219.268799,1.931417
37.445068,902.160645,-217.712402,1.932157
42.205811,907.653809,-206.268311,1.932897
47.882080,907.379150,-215.240479,1.933638
49.438477,901.885986,-223.022461,1.934379
48.797607,901.702881,-221.191406,1.935119
48.889160,902.526855,-218.078613,1.935860
50.445557,897.857666,-220.367432,1.936600
48.980713,896.118164,-223.297119,1.937341
48.065186,892.089844,-232.635498,1.938082
52.551270,888.061523,-219.909668,1.938822
48.339844,889.984131,-224.029541,1.939563
46.508789,891.632080,-229.705811,1.940304
51.910400,890.075684,-229.339600,1.941045
46.234131,883.209229,-224.853516,1.941786
35.797119,891.357422,-224.761963,1.942536
49.713135,888.977051,-226.409912,1.943285
49.621582,891.998291,-220.458984,1.944035
59.509277,884.399414,-215.972900,1.944781
60.974121,894.927979,-210.754395,1.945522
56.396484,886.779785,-216.979980,1.946263
54.565430,888.244629,-222.656250,1.947004
53.649902,886.138916,-219.177246,1.947745
62.713623,913.421631,-228.515625,1.948486
60.424805,889.434814,-221.191406,1.949227
60.333252,882.293701,-221.557617,1.949978
65.734863,879.913330,-237.121582,1.950723
70.861816,876.434326,-237.396240,1.951469
74.249268,883.666992,-223.297119,1.952211
76.995850,886.688232,-228.881836,1.952951
76.995850,865.997314,-237.213135,1.953692
74.432373,889.434814,-237.762451,1.954433
73.974609,880.187988,-229.156494,1.955174
77.636719,879.180908,-231.262207,1.955925
71.044922,877.990723,-235.565186,1.956675
75.531006,884.857178,-236.297607,1.957426
52.551270,876.525879,-230.895996,1.958173
70.220947,879.272461,-226.684570,1.958914
69.305420,880.554199,-225.860596,1.959655
79.284668,886.413574,-228.149414,1.960397
72.692871,879.821777,-225.402832,1.961140
70.404053,884.033203,-213.226318,1.961882
68.389893,885.864258,-214.965820,1.962623
67.932129,884.857178,-227.416992,1.963364
65.826416,890.808105,-221.191406,1.964105
77.178955,886.322021,-217.346191,1.964846
80.657959,887.786865,-221.649170,1.965588
73.974609,877.990723,-232.635498,1.966331
81.665039,883.666992,-225.860596,1.967073
81.207275,875.701904,-227.691650,1.967814
77.636719,882.202148,-224.761963,1.968555
72.784424,880.920410,-225.402832,1.969296
82.580566,882.843018,-231.536865,1.970036
78.552246,881.103516,-228.881836,1.970777
69.854736,877.258301,-225.128174,1.971518
63.903809,876.617432,-233.276367,1.972259
67.382812,875.427246,-230.438232,1.973000
58.410645,880.371094,-227.783203,1.973741
62.072754,882.019043,-224.304199,1.974481
54.565430,882.110596,-229.156494,1.975242
54.382324,880.096436,-221.282959,1.975985
54.840088,874.786377,-224.487305,1.976726
56.762695,878.906250,-222.106934,1.977467
48.797607,878.540039,-229.064941,1.978209
49.621582,874.786377,-230.895996,1.978950
44.219971,871.307373,-226.776123,1.979691
52.459717,881.378174,-225.769043,1.980432
47.241211,882.293701,-228.973389,1.981184
50.170898,894.744873,-225.128174,1.981925
42.205811,893.188477,-219.085693,1.982666
44.311523,883.026123,-224.395752,1.983407
48.248291,889.068604,-222.930908,1.984156
47.882080,892.730713,-212.768555,1.984897
48.980713,889.984131,-217.071533,1.985637
37.811279,892.822266,-218.078613,1.986378
33.416748,888.244629,-222.381592,1.987128
39.916992,888.610840,-229.522705,1.987869
37.902832,890.899658,-214.416504,1.988609
43.212891,896.209717,-212.493896,1.989350
40.832520,902.252197,-215.240479,1.990092
41.473389,898.223877,-220.550537,1.990833
39.184570,896.850586,-216.430664,1.991574
39.459229,895.385742,-228.057861,1.992315
38.452148,903.808594,-219.909668,1.993056
34.606934,896.118164,-215.606689,1.993796
34.973145,901.794434,-219.543457,1.994537
34.606934,891.448975,-223.571777,1.995277
35.430908,896.301270,-222.564697,1.996018
30.853271,903.350830,-224.761963,1.996760
30.578613,898.956299,-226.318359,1.997500
32.318115,894.287109,-217.895508,1.998241
27.282715,892.364502,-218.994141,1.998982
25.726318,897.125244,-215.423584,1.999723
45.043945,892.089844,-221.191406,2.000464
26.916504,898.864746,-225.219727,2.001292
22.888184,895.019531,-220.550537,2.002048
19.042969,896.667480,-216.522217,2.002789
16.571045,890.167236,-213.867188,2.003529
17.303467,887.420654,-221.923828,2.004270
16.662598,885.681152,-217.803955,2.005022
16.296387,889.068604,-222.381592,2.005763
15.197754,888.153076,-220.916748,2.006504
13.366699,884.124756,-220.092773,2.007245
7.049561,884.216309,-225.402832,2.007996
8.239746,888.702393,-224.395752,2.008737
11.627197,884.124756,-222.473145,2.009477
4.486084,883.758545,-222.839355,2.010218
7.965088,882.385254,-217.712402,2.010968
10.711670,874.420166,-222.106934,2.011708
10.711670,881.927490,-216.613770,2.012449
10.620117,874.603271,-214.691162,2.013189
13.183594,879.455566,-213.134766,2.013931
12.451172,876.434326,-216.430664,2.014671
16.296387,877.899170,-216.339111,2.015412
13.366699,874.511719,-209.472656,2.016152
17.852783,862.518311,-213.500977,2.016893
12.542725,867.553711,-218.536377,2.017634
13.092041,869.842529,-215.148926,2.018374
20.782471,870.208740,-210.388184,2.019114
26.275635,872.131348,-217.071533,2.019855
22.888184,877.166748,-216.888428,2.020596
23.345947,875.335693,-212.860107,2.021347
20.965576,874.603271,-214.599609,2.022095
18.402100,875.793457,-217.346191,2.022840
17.578125,871.856689,-213.134766,2.023587
22.430420,882.659912,-215.515137,2.024328
28.656006,875.976562,-220.275879,2.025069
31.951904,876.251221,-213.775635,2.025813
31.860352,882.385254,-214.233398,2.026567
34.606934,884.765625,-216.430664,2.027315
25.451660,893.737793,-215.972900,2.028064
25.817871,889.251709,-208.374023,2.028829
36.621094,890.808105,-212.585449,2.029581
38.360596,891.723633,-204.711914,2.030325
39.825439,902.526855,-202.148438,2.031067
36.987305,902.801514,-200.592041,2.031824
34.240723,905.181885,-205.078125,2.032566
32.501221,903.625488,-201.141357,2.033307
37.353516,908.752441,-204.162598,2.034048
30.670166,912.689209,-198.028564,2.034801
30.487061,909.851074,-200.500488,2.035542
29.571533,912.139893,-202.880859,2.036282
39.825439,910.949707,-207.824707,2.037023
34.423828,915.435791,-204.254150,2.037773
29.846191,914.428711,-198.120117,2.038516
33.325195,912.414551,-195.190430,2.039257
34.423828,909.942627,-204.071045,2.039998
33.782959,915.344238,-199.127197,2.040750
28.198242,915.985107,-204.345703,2.041491
28.564453,911.865234,-199.951172,2.042232
32.684326,911.865234,-199.859619,2.042974
27.740479,916.992188,-201.782227,2.043724
38.635254,921.203613,-198.120117,2.044466
36.163330,917.907715,-198.211670,2.045206
22.338867,914.428711,-198.852539,2.045947
32.135010,910.308838,-201.965332,2.046698
40.557861,917.999268,-195.739746,2.047438
39.184570,913.879395,-200.500488,2.048179
31.219482,913.970947,-193.817139,2.048919
30.944824,908.843994,-194.641113,2.049670
25.085449,914.703369,-189.056396,2.050411
38.269043,919.097900,-189.605713,2.051151
33.233643,913.787842,-189.697266,2.051892
37.902832,899.414062,-195.281982,2.052650
46.142578,909.118652,-193.908691,2.053408
39.184570,901.611328,-186.676025,2.054168
37.445068,904.174805,-189.788818,2.054926
37.353516,901.519775,-187.866211,2.055717
38.269043,902.984619,-192.077637,2.056480
40.100098,900.970459,-204.620361,2.057238
43.762207,899.230957,-190.612793,2.057995
35.339355,891.723633,-193.908691,2.058784
34.790039,903.991699,-194.732666,2.059544
41.015625,893.554688,-206.268311,2.060294
49.255371,904.083252,-191.070557,2.061035
35.705566,896.759033,-198.303223,2.061803
30.487061,898.681641,-197.296143,2.062544
31.585693,882.202148,-204.711914,2.063285
35.614014,899.871826,-196.746826,2.064026
40.924072,894.653320,-193.359375,2.064777
20.141602,896.759033,-195.190430,2.065517
40.649414,892.181396,-204.528809,2.066258
39.367676,899.139404,-205.993652,2.066999
39.733887,898.132324,-191.070557,2.067750
37.261963,897.949219,-183.013916,2.068491
38.177490,901.702881,-185.394287,2.069231
41.839600,897.857666,-190.155029,2.069972
32.867432,896.392822,-170.013428,2.070723
33.599854,907.196045,-180.541992,2.071464
40.557861,906.005859,-192.352295,2.072205
47.607422,910.034180,-188.507080,2.072946
42.663574,907.012939,-178.344727,2.073783
36.071777,898.864746,-182.830811,2.074526
41.931152,900.512695,-191.711426,2.075267
41.564941,899.230957,-188.781738,2.076008
37.902832,905.731201,-199.218750,2.076762
44.952393,900.695801,-196.838379,2.077504
48.431396,895.202637,-204.528809,2.078245
50.720215,884.124756,-206.817627,2.078985
44.219971,888.793945,-201.232910,2.079737
44.036865,895.568848,-196.746826,2.080478
48.980713,893.096924,-201.782227,2.081219
45.684814,893.737793,-198.211670,2.081960
42.938232,893.188477,-198.486328,2.082711
34.973145,885.498047,-194.274902,2.083452
42.755127,899.871826,-193.084717,2.084192
45.776367,890.075684,-193.817139,2.084933
51.727295,897.033691,-193.450928,2.085685
56.396484,901.977539,-186.950684,2.086426
51.361084,897.033691,-187.500000,2.087166
58.044434,900.512695,-185.943604,2.087906
58.776855,891.998291,-175.781250,2.088657
64.727783,908.111572,-185.394287,2.089398
58.685303,897.857666,-182.281494,2.090139
65.185547,902.435303,-182.006836,2.090880
57.403564,899.505615,-193.817139,2.091630
67.840576,909.027100,-191.436768,2.092371
60.424805,899.414062,-191.436768,2.093113
67.199707,901.153564,-188.415527,2.093855
