ACC_X,ACC_Y,ACC_Z,Time
-533.203125,579.162598,615.417480,0.000146
-527.526855,580.535889,595.184326,0.000900
-526.702881,586.212158,608.459473,0.001678
-533.294678,582.092285,604.339600,0.002419
-530.914307,584.564209,606.628418,0.003160
-529.541016,593.444824,611.846924,0.003900
-531.372070,587.219238,610.198975,0.004673
-532.653809,589.416504,608.642578,0.005430
-527.526855,595.184326,606.170654,0.006174
-527.801514,592.254639,630.432129,0.006915
-526.062012,599.212646,613.128662,0.007666
-525.787354,585.296631,607.452393,0.008410
-525.787354,597.106934,611.022949,0.009150
-526.794434,592.437744,609.283447,0.009890
-522.766113,585.571289,615.875244,0.010630
-533.752441,585.937500,609.558105,0.011370
-528.808594,583.831787,612.579346,0.012110
-527.984619,589.691162,610.839844,0.012850
-528.533936,584.930420,607.543945,0.013592
-531.921387,583.374023,608.825684,0.014338
-533.660889,580.261230,612.213135,0.015092
-521.209717,579.162598,603.424072,0.015859
-522.308350,578.155518,612.487793,0.016604
-527.435303,579.528809,609.832764,0.017345
-530.090332,589.965820,606.994629,0.018085
-527.435303,581.268311,602.966309,0.018838
-529.541016,578.704834,608.184814,0.019579
-523.132324,564.147949,607.360840,0.020319
-526.153564,577.056885,608.276367,0.021060
-528.991699,571.746826,601.959229,0.021799
-528.808594,571.655273,606.811523,0.022540
-528.350830,576.232910,604.339600,0.023284
-524.963379,573.120117,608.642578,0.024030
-529.083252,574.218750,607.910156,0.024777
-529.357910,576.141357,607.452393,0.025523
-527.893066,578.704834,603.973389,0.026263
-531.829834,570.739746,604.797363,0.027003
-527.618408,577.056885,607.269287,0.027742
-530.181885,578.887939,613.769531,0.028481
-536.315918,571.197510,603.240967,0.029221
-531.738281,574.859619,609.191895,0.029961
-530.548096,578.338623,608.276367,0.030702
-528.167725,583.282471,609.100342,0.031443
-527.618408,585.662842,610.382080,0.032183
-528.350830,585.662842,611.938477,0.032924
-528.625488,582.092285,604.705811,0.033691
-527.893066,583.190918,611.114502,0.034444
-523.773193,577.148438,608.642578,0.035189
-526.153564,583.007812,608.184814,0.035929
-526.153564,585.479736,601.776123,0.036670
-530.273438,582.458496,606.170654,0.037409
-531.738281,580.718994,611.572266,0.038149
-525.604248,581.909180,601.135254,0.038888
-526.611328,582.733154,603.881836,0.039627
-529.907227,569.732666,608.276367,0.040367
-525.878906,578.521729,607.360840,0.041106
-522.949219,582.000732,628.692627,0.041846
-523.315430,581.817627,610.565186,0.042586
-526.885986,579.345703,602.142334,0.043350
-529.724121,566.894531,608.093262,0.044100
-531.372070,574.218750,600.128174,0.044841
-529.541016,579.345703,600.860596,0.045581
-524.963379,583.007812,604.431152,0.046321
-526.428223,577.697754,604.522705,0.047061
-531.738281,577.697754,607.360840,0.047800
-529.632568,574.035645,603.698730,0.048541
-530.090332,577.789307,605.621338,0.049282
-533.752441,574.493408,604.064941,0.050022
-532.196045,570.465088,607.452393,0.050763
-526.062012,567.535400,605.072021,0.051548
-531.921387,579.986572,606.811523,0.052300
-533.294678,569.091797,598.571777,0.053048
-523.040771,569.641113,604.614258,0.053792
-528.808594,570.465088,599.578857,0.054561
-528.808594,572.937012,606.445312,0.055308
-531.097412,578.155518,606.903076,0.056049
-522.766113,578.887939,596.923828,0.056795
-525.695801,577.606201,596.923828,0.057537
-528.808594,580.627441,599.121094,0.058276
-529.541016,578.796387,607.543945,0.059018
-529.632568,583.831787,605.255127,0.059779
-532.653809,586.395264,606.353760,0.060569
-526.428223,586.029053,609.649658,0.061323
-532.012939,580.718994,609.008789,0.062062
-532.196045,586.669922,610.473633,0.062802
-535.491943,585.479736,604.064941,0.063543
-534.210205,580.169678,604.888916,0.064283
-517.547607,588.958740,603.424072,0.065031
-541.625977,582.733154,607.818604,0.065776
-537.414551,594.451904,606.903076,0.066517
-528.717041,588.592529,608.917236,0.067257
-536.315918,584.838867,609.832764,0.067997
-530.822754,581.268311,612.670898,0.068737
-538.421631,580.535889,606.445312,0.069476
-531.738281,588.043213,610.015869,0.070216
-537.506104,592.163086,609.649658,0.071059
-534.576416,592.254639,609.008789,0.071800
-535.491943,589.508057,610.198975,0.072540
-537.414551,583.007812,602.142334,0.073297
-534.942627,590.789795,611.755371,0.074041
-536.865234,584.014893,609.832764,0.074787
-537.414551,589.233398,613.128662,0.075530
-532.928467,583.740234,615.692139,0.076272
-538.146973,582.550049,611.022949,0.077015
-542.358398,582.550049,588.592529,0.077755
-543.365479,582.366943,608.825684,0.078494
-539.794922,567.260742,597.656250,0.079234
-540.069580,582.916260,596.832275,0.079973
-533.843994,579.254150,612.121582,0.080712
-532.836914,588.409424,602.508545,0.081452
-533.660889,583.282471,597.839355,0.082191
-531.829834,583.923340,610.015869,0.082939
-532.012939,583.007812,608.367920,0.083691
-534.759521,583.190918,593.719482,0.084437
-534.667969,580.169678,602.691650,0.085182
-537.963867,580.718994,601.776123,0.085923
-515.808105,584.930420,607.269287,0.086663
-538.604736,585.479736,586.578369,0.087403
-534.210205,576.232910,608.001709,0.088142
-525.787354,565.155029,606.903076,0.088881
-534.118652,581.451416,600.952148,0.089621
-536.590576,584.838867,597.381592,0.090359
-532.379150,591.156006,602.874756,0.091096
-535.766602,585.205078,604.705811,0.091833
-535.308838,586.944580,599.212646,0.092582
-529.174805,588.317871,602.691650,0.093334
-531.188965,589.416504,600.128174,0.094082
-537.231445,593.902588,605.804443,0.094824
-534.118652,583.282471,605.804443,0.095565
-536.499023,596.282959,602.142334,0.096309
-534.210205,590.698242,603.881836,0.097051
-530.273438,598.663330,609.924316,0.097792
-532.653809,598.480225,610.473633,0.098532
-527.709961,596.374512,613.037109,0.099305
-534.484863,592.620850,610.198975,0.100049
-537.231445,600.219727,608.276367,0.100791
-529.449463,595.916748,605.895996,0.101533
-556.915283,599.029541,614.227295,0.102285
-537.689209,597.381592,610.839844,0.103034
-536.956787,595.001221,608.551025,0.103776
-535.217285,589.141846,608.551025,0.104517
-539.978027,594.543457,613.677979,0.105258
-535.125732,592.529297,611.114502,0.106000
-541.442871,598.388672,607.360840,0.106741
-542.358398,601.684570,609.924316,0.107481
-560.852051,591.888428,607.452393,0.108225
-541.259766,591.430664,601.043701,0.108967
-533.477783,601.776123,611.572266,0.109708
-537.139893,595.916748,609.008789,0.110450
-537.963867,588.592529,610.107422,0.111200
-534.851074,591.339111,609.008789,0.111947
-532.012939,596.923828,607.177734,0.112689
-533.294678,586.853027,612.579346,0.113431
-534.576416,587.677002,612.670898,0.114172
-536.315918,590.423584,609.100342,0.114914
-544.097900,591.613770,610.107422,0.115655
-539.520264,595.916748,612.854004,0.116398
-538.604736,596.008301,615.051270,0.117142
-561.584473,582.366943,609.283447,0.117885
-544.372559,586.578369,606.994629,0.118626
-545.471191,583.923340,606.536865,0.119368
-545.562744,587.127686,605.895996,0.120120
-543.182373,586.578369,603.607178,0.120868
-531.463623,590.148926,609.741211,0.121609
-538.513184,592.437744,602.874756,0.122350
-538.238525,592.071533,604.980469,0.123092
-538.696289,589.416504,605.804443,0.123834
-538.604736,588.500977,604.888916,0.124574
-538.604736,587.036133,606.994629,0.125315
-535.858154,581.176758,613.403320,0.126072
-531.188965,589.782715,616.058350,0.126815
-532.928467,588.134766,602.416992,0.127556
-532.653809,579.528809,609.466553,0.128299
-542.724609,580.261230,605.072021,0.129046
-535.949707,582.458496,602.783203,0.129799
-536.407471,582.458496,609.924316,0.130553
-532.379150,580.261230,601.135254,0.131298
-532.928467,583.007812,604.705811,0.132042
-535.858154,579.620361,610.656738,0.132789
-544.281006,585.479736,603.607178,0.133533
-534.759521,584.289551,605.438232,0.134274
-528.442383,583.465576,598.937988,0.135016
-529.083252,574.951172,610.839844,0.135757
-532.928467,573.211670,599.304199,0.136498
-530.273438,584.930420,605.346680,0.137240
-531.463623,573.120117,600.585938,0.137981
-535.400391,569.732666,609.832764,0.138722
-534.942627,574.401855,611.022949,0.139462
-527.709961,578.613281,607.086182,0.140204
-531.280518,582.092285,612.213135,0.140952
-528.533936,574.493408,606.170654,0.141792
-524.597168,574.401855,604.064941,0.142539
-520.660400,579.345703,608.734131,0.143279
-526.336670,579.162598,603.149414,0.144041
-524.414062,572.662354,607.452393,0.144783
-524.597168,575.592041,606.445312,0.145524
-526.245117,579.711914,610.748291,0.146264
-526.885986,572.204590,602.142334,0.147017
-526.794434,575.225830,605.438232,0.147759
-521.759033,578.247070,601.776123,0.148500
-525.787354,572.479248,603.790283,0.149243
-527.801514,567.077637,607.635498,0.150017
-522.674561,566.528320,607.452393,0.150767
-521.575928,568.634033,599.212646,0.151511
-518.005371,569.458008,599.578857,0.152254
-524.597168,567.718506,605.712891,0.153016
-514.801025,565.521240,603.149414,0.153759
-522.674561,567.169189,604.248047,0.154500
-525.512695,561.584473,601.776123,0.155241
-519.927979,569.458008,603.424072,0.155993
-517.639160,569.183350,603.424072,0.156734
-524.047852,569.183350,596.099854,0.157474
-519.653320,570.556641,598.114014,0.158215
-520.843506,576.416016,604.522705,0.158967
-528.533936,577.606201,599.029541,0.159718
-525.054932,569.274902,601.043701,0.160461
-523.315430,572.387695,606.079102,0.161202
-522.583008,569.549561,605.438232,0.161948
-520.660400,576.690674,610.382080,0.162680
-518.096924,580.078125,605.895996,0.163411
-525.146484,574.035645,608.917236,0.164148
-517.089844,576.049805,608.093262,0.164930
-517.730713,579.345703,606.079102,0.165708
-515.991211,578.247070,599.945068,0.166472
-516.815186,584.472656,604.064941,0.167264
-514.434814,583.831787,612.396240,0.168079
-510.772705,582.366943,603.240967,0.168848
-505.279541,573.577881,597.839355,0.169633
-493.286133,580.444336,606.536865,0.170430
-519.653320,577.514648,610.473633,0.171278
-518.920898,576.416016,596.557617,0.172077
-515.167236,576.965332,605.895996,0.172853
-516.357422,582.641602,601.501465,0.173615
-514.160156,583.190918,605.255127,0.174430
-515.808105,582.733154,600.585938,0.175233
-511.322021,583.465576,599.853516,0.176019
-519.653320,583.648682,606.353760,0.176833
-513.885498,593.444824,607.910156,0.177615
-517.730713,590.972900,610.839844,0.178411
-517.547607,582.550049,599.670410,0.179160
-519.012451,583.923340,598.937988,0.179901
-514.801025,584.564209,604.980469,0.180641
-511.322021,588.867188,607.910156,0.181396
-516.632080,583.007812,611.206055,0.182136
-520.294189,582.641602,617.980957,0.182875
-515.258789,590.057373,607.452393,0.183615
-517.272949,591.705322,604.431152,0.184366
-517.822266,587.402344,630.523682,0.185108
-522.308350,594.177246,608.001709,0.185855
-526.611328,596.649170,608.459473,0.186600
-528.991699,590.606689,611.938477,0.187361
-522.857666,591.247559,613.403320,0.188103
-517.730713,590.698242,611.022949,0.188845
-523.864746,593.353271,611.389160,0.189600
-524.688721,593.627930,610.748291,0.190388
-525.238037,588.958740,602.416992,0.191143
-521.026611,582.000732,604.797363,0.191890
-522.766113,584.930420,609.649658,0.192631
-527.343750,596.282959,612.487793,0.193392
-522.766113,589.050293,608.367920,0.194137
-520.019531,589.599609,610.473633,0.194895
-522.766113,592.163086,600.402832,0.195655
-521.942139,586.303711,615.509033,0.196443
-518.280029,593.994141,612.030029,0.197207
-528.442383,588.409424,617.340088,0.197955
-526.245117,590.240479,606.353760,0.198696
-524.047852,591.888428,613.128662,0.199436
-529.357910,584.655762,606.903076,0.200175
-524.230957,582.092285,612.762451,0.200915
-528.625488,584.381104,603.240967,0.201657
-528.808594,587.219238,614.501953,0.202398
-533.020020,582.275391,600.677490,0.203137
-529.632568,583.374023,607.818604,0.203883
-540.252686,587.768555,613.220215,0.204629
-537.506104,587.677002,606.994629,0.205382
-531.097412,588.043213,611.938477,0.206133
-527.709961,583.923340,611.846924,0.206896
-521.759033,580.810547,613.128662,0.207643
-529.632568,593.353271,608.734131,0.208386
-531.738281,564.056396,604.797363,0.209126
-533.843994,594.085693,609.466553,0.209867
-536.407471,590.606689,608.642578,0.210608
-526.977539,581.085205,615.417480,0.211348
-532.836914,583.831787,615.692139,0.212087
-531.555176,586.669922,610.748291,0.212829
-530.822754,597.381592,607.727051,0.213591
-533.477783,586.212158,608.734131,0.214424
-529.815674,587.036133,609.466553,0.215165
-528.717041,582.275391,606.353760,0.215905
-533.111572,586.761475,611.297607,0.216661
-528.625488,591.430664,601.593018,0.217402
-534.667969,589.782715,595.092773,0.218142
-532.104492,589.508057,597.564697,0.218889
-540.618896,586.944580,595.642090,0.219638
-533.203125,596.466064,605.072021,0.220378
-537.597656,594.818115,605.438232,0.221115
-543.273926,588.592529,603.424072,0.221852
-538.330078,591.430664,609.191895,0.222616
-533.477783,595.367432,601.684570,0.223362
-536.315918,588.592529,598.663330,0.224105
-535.858154,589.965820,605.163574,0.224846
-527.709961,587.585449,632.171631,0.225586
-536.407471,591.247559,602.691650,0.226327
-533.935547,596.466064,603.881836,0.227067
-539.520264,592.163086,612.945557,0.227815
-538.238525,589.141846,616.699219,0.228566
-534.301758,595.916748,611.297607,0.229311
-538.421631,587.860107,605.072021,0.230052
-541.076660,588.684082,608.276367,0.230794
-543.273926,592.620850,609.832764,0.231536
-542.541504,595.001221,606.079102,0.232278
-538.604736,592.987061,613.494873,0.233033
-538.421631,595.550537,613.128662,0.233786
-541.076660,600.402832,613.037109,0.234565
-541.625977,602.142334,612.304688,0.235312
-539.794922,596.099854,612.121582,0.236053
-561.676025,593.994141,609.100342,0.236805
-538.787842,590.057373,609.008789,0.237558
-538.970947,595.367432,604.705811,0.238304
-540.985107,590.515137,604.248047,0.239045
-537.414551,589.965820,609.283447,0.239786
-540.161133,597.381592,606.903076,0.240527
-540.435791,595.458984,630.981445,0.241267
-534.484863,597.564697,609.649658,0.242008
-534.210205,591.522217,604.248047,0.242749
-533.203125,598.205566,612.304688,0.243491
-540.710449,594.268799,611.022949,0.244248
-540.710449,587.677002,600.677490,0.244998
-532.928467,598.846436,610.656738,0.245768
-539.703369,593.627930,605.987549,0.246557
-547.119141,608.825684,609.649658,0.247304
-545.837402,598.571777,608.367920,0.248045
-536.956787,591.705322,606.811523,0.248786
-539.428711,595.001221,615.600586,0.249542
-537.872314,591.064453,606.811523,0.250282
-541.168213,588.226318,605.255127,0.251023
-538.146973,592.071533,607.269287,0.251770
-535.308838,591.247559,607.727051,0.252535
-541.168213,585.571289,607.177734,0.253277
-548.583984,588.317871,609.466553,0.254019
-536.682129,588.134766,606.994629,0.254761
-538.787842,595.825195,609.741211,0.255539
-544.281006,590.972900,615.509033,0.256294
-538.513184,593.902588,608.825684,0.257036
-544.006348,592.346191,607.910156,0.257777
-536.315918,593.444824,611.846924,0.258538
-546.386719,564.788818,610.748291,0.259280
-542.358398,587.768555,608.551025,0.260021
-562.042236,592.437744,608.184814,0.260762
-550.689697,592.987061,610.015869,0.261513
-544.189453,590.515137,607.543945,0.262253
-542.816162,588.317871,613.128662,0.262993
-546.844482,587.036133,605.072021,0.263733
-540.527344,590.972900,610.015869,0.264490
-539.611816,592.254639,607.635498,0.265235
-541.625977,584.197998,608.825684,0.265978
-538.513184,590.240479,612.762451,0.266726
-541.717529,584.106445,586.761475,0.267493
-539.611816,580.810547,604.522705,0.268279
-538.238525,585.113525,612.030029,0.269024
-536.315918,578.613281,608.001709,0.269769
-532.379150,580.993652,605.072021,0.270531
-535.858154,577.239990,596.099854,0.271277
-542.907715,568.634033,597.564697,0.272021
-533.569336,582.092285,598.846436,0.272764
-537.231445,573.944092,608.184814,0.273525
-539.154053,576.873779,610.565186,0.274272
-540.802002,571.838379,603.881836,0.275016
-537.689209,580.078125,605.255127,0.275758
-536.315918,574.859619,601.043701,0.276521
-517.364502,570.831299,612.670898,0.277265
-530.181885,578.247070,605.987549,0.278010
-531.829834,574.127197,600.860596,0.278754
-531.097412,572.662354,602.325439,0.279527
-540.069580,572.845459,601.226807,0.280356
-534.484863,570.098877,600.036621,0.281184
-529.174805,570.281982,612.121582,0.282036
-535.766602,570.007324,607.910156,0.282852
-527.801514,565.338135,609.741211,0.283646
-531.921387,567.810059,602.966309,0.284400
-535.217285,563.232422,598.937988,0.285192
-528.167725,572.845459,605.895996,0.286061
-522.583008,570.007324,597.290039,0.286852
-521.942139,570.831299,599.853516,0.287599
-526.519775,566.711426,601.226807,0.288332
-527.435303,572.845459,606.262207,0.289063
-530.364990,572.204590,600.311279,0.289819
-523.864746,566.894531,594.543457,0.290569
-522.674561,573.303223,598.846436,0.291316
-525.329590,575.042725,605.712891,0.292047
-523.132324,571.380615,598.388672,0.292797
-519.836426,573.028564,603.240967,0.293565
-520.294189,569.366455,604.980469,0.294315
-523.132324,568.359375,604.888916,0.295105
-520.202637,566.619873,610.839844,0.295881
-523.956299,569.824219,604.797363,0.296655
-524.505615,570.281982,598.022461,0.297540
-519.378662,577.606201,607.269287,0.298297
-522.857666,576.232910,615.692139,0.299058
-524.414062,576.049805,614.410400,0.299798
-524.780273,574.310303,607.360840,0.300565
-527.618408,572.387695,606.536865,0.301299
-528.442383,575.042725,612.670898,0.302085
-532.745361,576.507568,605.255127,0.302891
-527.343750,568.634033,608.001709,0.303637
-522.399902,579.620361,601.318359,0.304399
-532.745361,579.071045,608.093262,0.305138
-523.590088,576.873779,603.973389,0.305882
-526.062012,578.796387,594.360352,0.306625
-531.280518,572.387695,598.846436,0.307367
-525.970459,567.993164,602.508545,0.308108
-532.928467,575.500488,603.332520,0.308863
-525.878906,579.071045,601.409912,0.309604
-532.653809,580.078125,605.529785,0.310345
-529.357910,576.782227,607.452393,0.311086
-533.660889,571.929932,607.910156,0.311831
-532.379150,569.549561,605.346680,0.312564
-534.851074,568.542480,608.001709,0.313298
-527.893066,577.880859,603.698730,0.314097
-534.484863,575.866699,608.001709,0.314898
-518.188477,580.993652,608.001709,0.315680
-527.801514,582.641602,611.846924,0.316435
-531.188965,573.211670,610.656738,0.317177
-534.576416,568.450928,604.248047,0.317944
-537.689209,570.098877,603.698730,0.318696
-536.041260,566.253662,605.804443,0.319439
-534.027100,574.676514,605.712891,0.320180
-529.266357,583.007812,607.635498,0.320943
-530.731201,577.697754,602.325439,0.321685
-530.639648,578.338623,605.346680,0.322428
-539.520264,577.606201,606.353760,0.323170
-515.808105,574.310303,606.903076,0.323913
-534.851074,565.887451,603.332520,0.324645
-533.203125,569.000244,608.734131,0.325411
-536.041260,570.556641,604.339600,0.326160
-535.034180,573.028564,632.080078,0.326903
-534.484863,574.218750,610.290527,0.327645
-531.921387,577.331543,609.741211,0.328387
-532.379150,574.218750,604.248047,0.329129
-531.097412,579.620361,612.213135,0.329870
-531.188965,576.873779,614.044189,0.330611
-529.632568,572.937012,609.008789,0.331352
-525.512695,581.451416,612.854004,0.332094
-532.012939,578.704834,609.924316,0.332825
-537.689209,579.528809,611.389160,0.333556
-537.872314,584.289551,611.022949,0.334288
-534.027100,583.831787,613.952637,0.335019
-535.949707,583.740234,609.283447,0.335770
-528.259277,581.085205,609.375000,0.336503
-533.752441,579.620361,611.022949,0.337234
-534.027100,579.345703,604.797363,0.337965
-531.829834,577.514648,601.776123,0.338718
-527.801514,588.958740,601.226807,0.339460
-525.512695,586.578369,602.600098,0.340201
-530.181885,580.993652,605.804443,0.340942
-529.632568,579.437256,604.431152,0.341686
-532.653809,581.451416,603.240967,0.342420
-524.780273,574.951172,601.318359,0.343151
-523.406982,585.113525,590.240479,0.343882
-531.555176,581.909180,605.987549,0.344623
-525.421143,580.169678,606.262207,0.345411
-523.681641,580.078125,609.924316,0.346163
-526.519775,587.127686,607.177734,0.346908
-527.343750,578.704834,605.895996,0.347653
-522.491455,576.965332,601.318359,0.348395
-518.280029,586.120605,598.388672,0.349142
-522.583008,583.740234,600.128174,0.349891
-522.033691,585.754395,610.015869,0.350634
-524.780273,580.993652,609.741211,0.351376
-520.660400,573.028564,605.712891,0.352119
-520.568848,579.528809,610.473633,0.352786
-517.730713,584.381104,610.015869,0.353538
-523.406982,566.619873,618.621826,0.354280
-521.026611,581.726074,618.438721,0.355022
-520.568848,586.853027,609.649658,0.355772
-513.519287,583.648682,610.382080,0.356512
-516.632080,580.261230,606.903076,0.357392
-522.949219,586.578369,611.480713,0.358139
-538.146973,584.564209,614.318848,0.358903
-515.808105,588.500977,590.057373,0.359645
-514.434814,579.345703,611.755371,0.360384
-516.723633,586.303711,608.825684,0.361124
-514.160156,587.768555,610.107422,0.361875
-513.427734,589.599609,607.177734,0.362616
-512.054443,588.500977,604.797363,0.363355
-515.716553,582.824707,609.100342,0.364094
-512.786865,582.733154,612.121582,0.364835
-514.709473,570.098877,605.438232,0.365605
-538.696289,582.366943,605.895996,0.366418
-519.836426,576.873779,627.410889,0.367234
-512.512207,590.972900,608.459473,0.367996
-513.793945,586.486816,604.705811,0.368756
-516.448975,584.838867,604.888916,0.369519
-513.153076,586.029053,604.888916,0.370301
-537.139893,588.592529,609.008789,0.371044
-516.082764,587.860107,611.663818,0.371774
-521.026611,579.986572,610.931396,0.372505
-516.540527,579.437256,612.945557,0.373282
-514.617920,573.303223,611.297607,0.374033
-523.956299,581.085205,615.234375,0.374782
-517.089844,605.438232,609.466553,0.375524
-519.653320,582.733154,605.255127,0.376258
-519.653320,588.958740,613.037109,0.376992
-525.604248,608.367920,602.966309,0.377744
-520.202637,589.599609,604.705811,0.378487
-520.660400,585.754395,604.248047,0.379286
-525.238037,581.909180,609.924316,0.380033
-531.005859,575.958252,603.240967,0.380802
-513.244629,592.987061,614.501953,0.381545
-526.885986,585.937500,605.072021,0.382323
-529.541016,591.339111,605.072021,0.383066
-531.005859,587.585449,605.895996,0.383806
-526.519775,580.352783,609.100342,0.384546
-534.118652,586.669922,614.227295,0.385302
-528.533936,589.324951,603.515625,0.386045
-530.456543,591.522217,600.036621,0.386786
-523.040771,591.339111,600.494385,0.387527
-530.364990,580.902100,602.691650,0.388269
-527.709961,576.873779,602.691650,0.389000
-533.111572,586.029053,605.346680,0.389731
-538.238525,580.810547,608.551025,0.390462
-529.724121,586.486816,598.205566,0.391220
-530.914307,585.205078,603.057861,0.391961
-538.421631,587.402344,601.959229,0.392701
-540.618896,585.845947,598.571777,0.393443
-531.555176,593.353271,604.156494,0.394213
-539.886475,588.226318,607.177734,0.394962
-538.238525,593.902588,603.790283,0.395703
-543.365479,589.508057,606.262207,0.396443
-540.893555,590.789795,604.248047,0.397200
-540.618896,588.043213,617.065430,0.397941
-538.696289,592.712402,612.121582,0.398683
-536.956787,580.718994,602.783203,0.399424
-538.146973,588.317871,600.402832,0.400165
-541.717529,589.324951,601.593018,0.400897
-540.344238,591.613770,608.184814,0.401628
-545.471191,582.733154,603.973389,0.402359
-543.457031,586.120605,609.558105,0.403117
-543.823242,590.698242,598.022461,0.403894
-548.034668,588.134766,603.149414,0.404663
-543.731689,591.979980,607.360840,0.405433
-543.182373,590.057373,600.585938,0.406225
-540.435791,587.219238,606.811523,0.406982
-546.752930,585.937500,600.494385,0.407736
-540.435791,590.332031,598.022461,0.408506
-544.464111,593.536377,603.515625,0.409284
-540.893555,590.057373,595.458984,0.410055
-541.625977,591.430664,599.029541,0.410821
-542.358398,599.487305,598.114014,0.411585
-536.956787,589.965820,605.255127,0.412338
-538.146973,592.712402,600.494385,0.413088
-542.083740,592.712402,605.346680,0.413850
-542.266846,591.522217,600.769043,0.414613
-539.794922,595.825195,605.529785,0.415373
-533.203125,592.712402,590.789795,0.416127
-544.464111,589.691162,610.015869,0.416872
-542.175293,593.902588,608.001709,0.417620
-542.724609,588.592529,604.705811,0.418386
-545.013428,587.860107,602.966309,0.419130
-534.210205,593.902588,609.741211,0.419871
-540.161133,588.684082,611.663818,0.420631
-544.006348,594.268799,604.705811,0.421374
-545.196533,589.050293,600.494385,0.422115
-540.618896,593.536377,606.994629,0.422855
-538.421631,594.268799,607.635498,0.423607
-543.457031,590.332031,607.818604,0.424348
-534.301758,589.874268,610.748291,0.425089
-538.970947,588.043213,610.290527,0.425834
-536.682129,594.818115,607.452393,0.426610
-529.907227,595.367432,604.797363,0.427360
-533.752441,596.191406,607.635498,0.428101
-526.519775,594.268799,608.825684,0.428846
-533.843994,590.057373,602.050781,0.429696
-534.027100,590.423584,606.445312,0.430452
-526.977539,593.170166,588.409424,0.431195
-527.069092,594.177246,605.346680,0.431937
-529.907227,590.148926,603.790283,0.432699
-532.653809,592.895508,605.346680,0.433441
-528.076172,595.825195,604.064941,0.434182
-530.822754,592.987061,605.621338,0.434923
-530.639648,593.444824,604.797363,0.435678
-529.083252,596.008301,606.445312,0.436420
-529.998779,594.726562,625.305176,0.437161
-528.350830,592.346191,599.945068,0.437902
-526.428223,591.064453,607.635498,0.438657
-524.139404,591.796875,608.276367,0.439415
-528.167725,600.036621,610.473633,0.440161
-528.533936,594.451904,603.790283,0.440902
-531.372070,595.092773,611.480713,0.441669
-529.632568,597.930908,609.466553,0.442412
-533.752441,592.346191,615.417480,0.443153
-528.167725,593.902588,613.128662,0.443894
-528.991699,592.346191,607.360840,0.444648
-523.315430,592.803955,597.198486,0.445391
-532.928467,593.261719,606.262207,0.446132
-527.435303,597.198486,609.283447,0.446873
-526.428223,607.269287,606.628418,0.447617
-528.533936,588.409424,605.895996,0.448349
-530.548096,596.282959,601.501465,0.449079
-533.020020,587.585449,607.727051,0.449820
-535.400391,593.719482,609.008789,0.450626
-527.801514,591.339111,604.614258,0.451397
-523.864746,592.620850,603.057861,0.452159
-529.541016,592.071533,606.536865,0.452902
-527.252197,590.972900,601.501465,0.453680
-528.350830,597.381592,606.811523,0.454429
-527.984619,588.592529,600.860596,0.455170
-525.970459,589.324951,599.304199,0.455932
-522.491455,589.141846,602.233887,0.456673
-527.069092,590.057373,596.923828,0.457415
-528.533936,589.233398,600.311279,0.458156
-528.717041,587.127686,602.966309,0.458898
-527.160645,584.655762,604.888916,0.459639
-528.625488,590.423584,610.382080,0.460380
-529.357910,587.127686,605.438232,0.461121
-528.350830,592.071533,603.881836,0.461865
-525.695801,591.522217,599.212646,0.462596
-523.315430,593.811035,598.754883,0.463326
-526.519775,580.993652,605.804443,0.464087
-527.343750,587.951660,603.607178,0.464902
-534.210205,583.465576,604.248047,0.465662
-538.146973,596.099854,602.966309,0.466447
-535.217285,588.958740,602.691650,0.467204
-529.357910,586.944580,609.100342,0.467972
-533.935547,589.416504,610.198975,0.468716
-524.139404,591.796875,607.086182,0.469457
-535.308838,589.599609,610.290527,0.470198
-527.801514,588.958740,601.593018,0.470951
-534.942627,591.339111,606.811523,0.471693
-535.491943,588.592529,604.705811,0.472434
-533.569336,586.486816,603.057861,0.473175
-536.865234,586.669922,597.656250,0.473916
-538.513184,584.655762,599.670410,0.474647
-534.576416,568.359375,602.050781,0.475378
-534.484863,590.789795,602.874756,0.476109
-532.928467,585.205078,598.388672,0.476864
-534.118652,590.148926,605.621338,0.477606
-538.055420,590.606689,614.227295,0.478346
-528.900146,589.599609,601.684570,0.479088
-533.477783,587.677002,601.501465,0.479841
-530.456543,587.402344,604.614258,0.480582
-532.196045,589.324951,597.290039,0.481323
-532.196045,578.613281,593.444824,0.482064
-516.632080,582.733154,602.508545,0.482815
-536.499023,583.190918,602.416992,0.483556
-529.907227,583.923340,598.480225,0.484298
-529.449463,584.655762,605.163574,0.485040
-529.907227,574.035645,605.072021,0.485830
-535.491943,584.106445,609.191895,0.486578
-533.203125,584.655762,607.360840,0.487320
-534.484863,586.212158,605.529785,0.488077
-538.421631,583.465576,601.959229,0.488819
-535.034180,585.754395,599.395752,0.489560
-537.780762,584.838867,604.156494,0.490330
-523.315430,587.677002,610.565186,0.491102
-533.569336,574.676514,598.480225,0.491839
-529.449463,580.627441,604.614258,0.492571
-531.738281,577.697754,594.451904,0.493301
-532.470703,583.740234,602.142334,0.494040
-533.203125,583.740234,607.543945,0.494782
-530.273438,586.486816,605.987549,0.495523
-530.273438,593.444824,603.790283,0.496264
-526.519775,590.240479,609.924316,0.497001
-527.526855,589.233398,605.712891,0.497731
-532.196045,584.564209,602.691650,0.498463
-528.717041,587.036133,600.769043,0.499193
-528.442383,587.677002,600.677490,0.499973
-523.132324,563.964844,610.748291,0.500809
-522.857666,580.261230,610.748291,0.501578
-530.639648,587.310791,604.064941,0.502329
-527.526855,589.782715,605.072021,0.503090
-527.160645,591.888428,613.494873,0.503854
-521.118164,581.359863,604.522705,0.504604
-524.963379,593.261719,604.980469,0.505345
-518.829346,597.290039,607.727051,0.506104
-522.399902,590.972900,600.677490,0.506846
-529.815674,589.324951,606.719971,0.507607
-522.766113,592.620850,606.903076,0.508348
-521.209717,587.493896,602.325439,0.509102
-538.238525,582.824707,603.149414,0.509842
-522.308350,588.958740,610.382080,0.510581
-522.949219,585.113525,612.945557,0.511320
-522.583008,588.409424,605.621338,0.512069
-523.315430,583.465576,604.156494,0.512808
-525.695801,586.853027,597.839355,0.513567
-519.470215,588.684082,606.719971,0.514325
-524.139404,581.176758,606.719971,0.515058
-519.012451,591.613770,603.332520,0.515801
-517.913818,589.599609,599.487305,0.516535
-523.040771,595.825195,602.600098,0.517287
-514.251709,587.585449,602.508545,0.518019
-514.709473,564.331055,608.184814,0.518749
-518.646240,582.733154,603.790283,0.519480
-520.751953,587.127686,613.128662,0.520215
-515.991211,578.430176,601.959229,0.520946
-516.906738,588.043213,613.037109,0.521691
-522.399902,587.310791,612.030029,0.522437
-521.575928,585.021973,609.466553,0.523185
-512.145996,586.761475,602.508545,0.523932
-511.138916,586.120605,610.015869,0.524663
-521.942139,591.064453,612.121582,0.525394
-519.104004,589.599609,611.022949,0.526131
-516.540527,577.789307,603.332520,0.526925
-521.392822,577.606201,593.902588,0.527692
-516.448975,586.395264,607.727051,0.528479
-515.716553,590.057373,603.332520,0.529251
-515.808105,584.014893,601.135254,0.529993
-515.625000,587.860107,598.663330,0.530734
-519.744873,584.381104,603.790283,0.531475
-517.547607,582.000732,608.001709,0.532232
-525.695801,587.585449,598.022461,0.532974
-525.787354,587.585449,605.804443,0.533715
-518.280029,592.803955,611.846924,0.534456
-516.906738,586.944580,603.515625,0.535202
-524.047852,578.430176,603.881836,0.535938
-522.216797,579.620361,599.304199,0.536670
-522.308350,580.810547,606.719971,0.537408
-520.294189,585.845947,610.839844,0.538181
-519.836426,593.353271,604.339600,0.538926
-517.822266,567.077637,601.684570,0.539667
-524.505615,587.402344,602.142334,0.540408
-517.822266,589.599609,610.015869,0.541161
-520.751953,586.395264,608.093262,0.541904
-526.885986,584.747314,599.761963,0.542645
-525.604248,582.824707,604.522705,0.543386
-527.435303,579.162598,607.269287,0.544138
-521.301270,584.930420,604.522705,0.544879
-517.547607,581.359863,601.776123,0.545620
-521.667480,578.521729,602.966309,0.546362
-525.238037,582.366943,601.776123,0.547103
-526.519775,587.951660,610.015869,0.547834
-526.885986,588.226318,608.184814,0.548565
-521.667480,592.529297,604.248047,0.549295
-531.738281,584.472656,603.973389,0.550050
-527.893066,584.747314,611.114502,0.550793
-525.329590,577.697754,604.614258,0.551534
-523.040771,584.472656,605.987549,0.552275
-528.076172,591.064453,609.191895,0.553028
-532.287598,580.627441,603.515625,0.553769
-526.336670,583.923340,601.318359,0.554510
-532.287598,579.528809,603.332520,0.555250
-528.900146,575.683594,595.642090,0.556010
-529.174805,580.352783,602.600098,0.556764
-535.949707,578.979492,598.114014,0.557526
-531.921387,590.057373,603.332520,0.558267
-533.935547,582.458496,610.931396,0.559045
-533.569336,586.029053,606.994629,0.559790
-532.745361,585.113525,604.156494,0.560531
-525.604248,585.205078,602.691650,0.561273
-524.414062,582.641602,603.790283,0.562028
-531.005859,581.176758,604.522705,0.562769
-528.442383,586.395264,608.367920,0.563536
-532.287598,579.528809,608.825684,0.564280
-528.808594,588.500977,600.585938,0.565033
-526.611328,584.655762,599.487305,0.565775
-533.660889,588.043213,601.043701,0.566516
-533.386230,581.176758,603.881836,0.567257
-534.118652,587.036133,598.663330,0.568019
-523.498535,593.994141,606.994629,0.568778
-530.456543,579.162598,602.874756,0.569529
-528.533936,578.155518,606.628418,0.570271
-522.583008,586.395264,603.881836,0.571025
-528.167725,586.669922,608.001709,0.571851
-526.519775,585.662842,605.712891,0.572582
-528.717041,587.860107,596.099854,0.573312
-524.322510,587.402344,598.754883,0.574073
-535.034180,592.987061,608.917236,0.574822
-534.851074,590.240479,603.881836,0.575495
-527.984619,582.916260,604.522705,0.576250
-530.731201,578.247070,600.585938,0.577003
-525.421143,582.916260,604.431152,0.577746
-528.991699,587.493896,601.501465,0.578487
-530.914307,593.627930,603.149414,0.579272
-531.188965,589.233398,596.649170,0.580026
-521.026611,597.290039,599.578857,0.580777
-525.695801,590.057373,610.107422,0.581530
-534.942627,589.233398,604.431152,0.582296
-526.794434,588.226318,605.621338,0.583032
-535.400391,583.648682,600.128174,0.583762
-530.456543,588.684082,605.163574,0.584493
-531.372070,585.754395,598.388672,0.585224
-529.541016,592.620850,602.874756,0.585956
-527.160645,591.156006,603.424072,0.586687
-532.745361,598.937988,610.656738,0.587418
-530.548096,586.853027,613.586426,0.588162
-532.287598,591.613770,609.924316,0.588893
-534.118652,591.156006,602.325439,0.589623
-533.203125,595.550537,607.360840,0.590353
-535.766602,595.458984,605.804443,0.591083
-533.660889,585.388184,609.100342,0.591815
-529.449463,590.423584,607.635498,0.592546
-525.146484,594.360352,607.818604,0.593293
-529.541016,587.585449,600.036621,0.594036
-528.533936,591.247559,608.093262,0.594792
-531.097412,589.874268,611.663818,0.595556
-534.942627,588.500977,606.170654,0.596295
-531.555176,584.747314,598.114014,0.597064
-528.900146,583.374023,601.959229,0.597807
-539.062500,587.677002,601.684570,0.598592
-538.604736,585.021973,604.339600,0.599364
-534.942627,583.648682,603.698730,0.600168
-529.449463,582.458496,607.910156,0.600955
-538.604736,591.156006,604.064941,0.601714
-537.322998,591.156006,601.867676,0.602469
-538.055420,584.930420,599.853516,0.603255
-535.400391,594.818115,600.585938,0.604005
-539.703369,589.965820,607.818604,0.604746
-542.999268,591.247559,607.086182,0.605507
-537.139893,589.782715,603.515625,0.606239
-534.851074,588.500977,626.770020,0.606969
-543.823242,587.127686,604.064941,0.607700
-549.865723,607.452393,608.093262,0.608436
-542.999268,590.881348,605.346680,0.609180
-541.717529,592.712402,609.832764,0.609930
-542.999268,588.775635,599.853516,0.610698
-541.717529,587.036133,609.100342,0.611447
-539.154053,591.064453,602.508545,0.612189
-533.843994,590.972900,605.987549,0.612930
-536.407471,578.704834,599.761963,0.613671
-532.012939,585.205078,610.931396,0.614433
-538.513184,586.944580,604.614258,0.615189
-538.879395,588.226318,601.593018,0.615924
-540.161133,583.923340,601.959229,0.616655
-536.682129,586.395264,600.769043,0.617419
-540.618896,591.522217,603.515625,0.618169
-538.879395,589.599609,604.156494,0.618916
-539.886475,566.070557,603.698730,0.619657
-543.457031,588.684082,604.431152,0.620406
-538.146973,590.240479,602.966309,0.621156
-542.999268,589.874268,598.937988,0.621928
-539.886475,581.909180,602.874756,0.622673
-542.724609,585.479736,605.529785,0.623463
-539.520264,587.127686,602.416992,0.624216
-538.055420,583.923340,602.325439,0.624964
-536.590576,588.684082,606.262207,0.625706
-540.802002,589.050293,598.937988,0.626474
-546.020508,587.951660,609.466553,0.627216
-542.083740,591.705322,609.100342,0.627956
-537.506104,588.775635,597.564697,0.628698
-533.386230,582.275391,598.022461,0.629444
-532.104492,585.662842,605.163574,0.630175
-535.400391,580.169678,602.325439,0.630906
-538.604736,592.803955,605.072021,0.631637
-535.858154,585.845947,600.860596,0.632378
-530.548096,583.465576,601.226807,0.633109
-533.111572,590.606689,602.874756,0.633839
-534.851074,598.114014,614.135742,0.634570
-537.872314,588.409424,602.416992,0.635327
-534.851074,591.613770,605.438232,0.636068
-533.752441,587.677002,602.783203,0.636809
-537.414551,593.078613,605.895996,0.637549
-533.843994,592.437744,610.015869,0.638298
-529.998779,585.479736,613.861084,0.639039
-531.097412,587.768555,603.424072,0.639800
-532.104492,585.296631,609.008789,0.640543
-539.520264,582.183838,604.980469,0.641293
-538.330078,590.972900,603.881836,0.642025
-533.752441,588.317871,604.797363,0.642828
-534.118652,583.374023,595.458984,0.643559
-533.752441,590.606689,603.881836,0.644388
-530.181885,595.275879,600.311279,0.645129
-531.005859,586.303711,600.494385,0.645875
-519.561768,593.261719,606.353760,0.646619
-529.449463,591.979980,608.276367,0.647362
-527.526855,598.205566,606.903076,0.648102
-528.717041,592.437744,608.551025,0.648842
-524.139404,589.599609,604.248047,0.649582
-532.745361,591.156006,608.093262,0.650323
-526.062012,590.515137,603.790283,0.651063
-529.632568,593.536377,603.881836,0.651804
-530.822754,598.388672,604.797363,0.652540
-533.660889,586.669922,608.642578,0.653271
-530.090332,589.874268,601.501465,0.654002
-526.885986,588.684082,606.903076,0.654732
-525.054932,582.183838,603.515625,0.655470
-523.590088,585.571289,602.874756,0.656212
-524.505615,592.529297,612.213135,0.657005
-526.336670,598.846436,591.064453,0.657751
-527.160645,587.127686,610.198975,0.658489
-521.575928,597.198486,608.551025,0.659227
-537.689209,583.740234,608.734131,0.659964
-531.463623,594.726562,604.339600,0.660709
-519.104004,595.184326,608.367920,0.661462
-531.280518,589.599609,627.044678,0.662193
-533.752441,590.698242,615.325928,0.662923
-526.977539,594.909668,607.360840,0.663663
-526.062012,591.156006,614.318848,0.664424
-522.674561,596.557617,606.811523,0.665179
-529.815674,601.409912,607.269287,0.665916
-528.259277,597.290039,607.452393,0.666647
-536.682129,592.346191,609.832764,0.667396
-528.076172,597.473145,614.318848,0.668128
-527.343750,590.606689,601.501465,0.668858
-527.801514,593.902588,610.473633,0.669588
-529.632568,594.635010,610.839844,0.670330
-529.632568,595.550537,615.692139,0.671060
-528.076172,594.543457,588.775635,0.671791
-529.266357,593.627930,606.811523,0.672521
-532.562256,598.205566,616.424561,0.673265
-531.738281,590.972900,617.065430,0.674035
-527.343750,589.416504,614.410400,0.674800
-528.167725,585.205078,606.628418,0.675564
-532.928467,592.346191,608.459473,0.676377
-535.949707,586.578369,602.050781,0.677119
-538.970947,587.219238,605.255127,0.677859
-534.576416,590.789795,603.332520,0.678601
-530.090332,599.029541,607.910156,0.679357
-537.780762,588.226318,606.262207,0.680102
-532.928467,601.501465,616.699219,0.680843
-529.907227,589.324951,616.516113,0.681584
-536.682129,597.290039,604.248047,0.682328
-533.660889,593.444824,600.494385,0.683059
-536.956787,595.184326,605.346680,0.683789
-536.956787,590.332031,599.853516,0.684520
-530.456543,590.881348,604.064941,0.685277
-536.132812,589.691162,607.452393,0.686019
-537.597656,590.423584,598.846436,0.686760
-537.414551,583.465576,600.860596,0.687501
-526.153564,582.366943,609.741211,0.688252
-538.146973,578.063965,607.452393,0.688993
-540.252686,583.099365,606.536865,0.689734
-533.935547,579.071045,602.874756,0.690475
-537.780762,581.817627,602.691650,0.691225
-534.851074,584.106445,606.170654,0.691966
-528.808594,582.458496,632.354736,0.692707
-532.012939,586.944580,610.565186,0.693448
-533.203125,580.169678,606.811523,0.694188
-543.457031,583.190918,603.607178,0.694919
-533.935547,570.098877,608.917236,0.695649
-537.597656,585.296631,602.050781,0.696410
-532.653809,580.535889,606.353760,0.697158
-536.132812,577.056885,605.163574,0.697904
-535.308838,578.155518,606.445312,0.698645
-537.139893,573.028564,606.170654,0.699387
-538.146973,584.014893,609.558105,0.700118
-533.660889,574.859619,602.233887,0.700848
-537.048340,576.232910,599.578857,0.701579
-529.815674,579.711914,604.980469,0.702309
-530.273438,571.197510,610.290527,0.703069
-534.759521,574.584961,609.100342,0.703807
-528.625488,582.641602,607.452393,0.704540
-526.336670,576.049805,604.522705,0.705271
-529.174805,578.155518,602.874756,0.706034
-527.893066,579.986572,608.825684,0.706777
-526.153564,579.254150,612.854004,0.707445
-531.372070,572.021484,602.966309,0.708187
-531.738281,572.937012,602.966309,0.708929
-529.632568,574.035645,598.846436,0.709669
-522.399902,576.324463,605.163574,0.710410
-521.484375,573.577881,598.754883,0.711151
-525.970459,568.450928,601.776123,0.711904
-521.118164,578.521729,604.431152,0.712665
-527.435303,579.437256,606.079102,0.713409
-523.406982,578.887939,608.551025,0.714235
-525.878906,578.796387,606.445312,0.714978
-511.688232,579.620361,611.114502,0.715720
-512.786865,573.394775,600.585938,0.716461
-524.871826,573.120117,602.508545,0.717202
-527.435303,573.760986,602.783203,0.717943
-518.188477,583.465576,599.487305,0.718683
-520.568848,580.444336,602.050781,0.719424
-509.765625,577.514648,599.945068,0.720175
-516.082764,576.141357,603.149414,0.720907
-518.096924,579.986572,603.790283,0.721637
-517.272949,583.374023,594.726562,0.722367
-521.026611,583.648682,597.564697,0.723105
-518.646240,577.972412,596.557617,0.723847
-512.237549,582.824707,597.930908,0.724588
-512.512207,580.627441,603.515625,0.725329
-512.603760,580.810547,599.121094,0.726089
-506.744385,586.212158,598.205566,0.726834
-509.124756,581.542969,600.036621,0.727575
-504.547119,608.276367,599.853516,0.728316
-515.167236,590.881348,608.093262,0.729057
-514.709473,588.684082,602.325439,0.729798
-516.174316,587.860107,603.698730,0.730542
-507.843018,582.366943,602.691650,0.731284
-506.286621,584.472656,603.240967,0.732041
-506.927490,592.346191,585.937500,0.732782
-507.202148,579.254150,600.402832,0.733522
-512.603760,584.655762,601.684570,0.734263
-499.969482,586.486816,607.269287,0.735027
-501.342773,580.169678,601.226807,0.735778
-504.272461,605.804443,608.001709,0.736532
-507.568359,586.029053,605.712891,0.737282
-505.828857,592.895508,613.128662,0.738049
-499.877930,593.994141,604.248047,0.738790
-506.927490,585.388184,602.508545,0.739534
-506.195068,587.677002,606.170654,0.740318
-503.814697,586.212158,604.248047,0.741104
-497.589111,586.578369,604.705811,0.741865
-501.159668,592.712402,609.283447,0.742610
-503.997803,582.275391,604.431152,0.743366
-500.244141,580.261230,605.621338,0.743977
-506.286621,582.458496,608.917236,0.744719
-504.180908,585.845947,608.734131,0.745460
-506.378174,582.366943,606.536865,0.746201
-506.378174,581.268311,604.797363,0.746953
-511.322021,589.508057,610.565186,0.747694
-506.469727,584.838867,615.234375,0.748435
-507.568359,588.500977,608.184814,0.749176
-504.364014,587.493896,604.339600,0.749918
-504.272461,585.388184,614.685059,0.750660
-501.617432,562.683105,608.734131,0.751413
-502.349854,580.718994,609.466553,0.752154
-509.033203,585.388184,602.874756,0.752931
-508.117676,588.134766,611.572266,0.753676
-510.131836,585.388184,607.452393,0.754417
-509.490967,590.057373,612.579346,0.755158
-502.441406,583.831787,612.304688,0.755913
-510.131836,580.169678,605.072021,0.756654
-500.793457,582.458496,611.206055,0.757395
-501.434326,583.374023,607.727051,0.758135
-509.307861,578.063965,617.156982,0.758892
-509.033203,587.127686,617.340088,0.759633
-508.026123,587.493896,611.846924,0.760374
-509.582520,593.261719,608.276367,0.761115
-518.829346,588.043213,614.959717,0.761857
-513.336182,583.923340,606.170654,0.762588
-513.519287,589.141846,609.741211,0.763318
-517.822266,586.212158,607.086182,0.764049
-522.308350,584.655762,610.748291,0.764804
-523.040771,577.606201,613.677979,0.765545
-523.315430,587.860107,608.367920,0.766286
-517.547607,589.508057,599.945068,0.767027
-521.759033,593.994141,606.536865,0.767768
-514.434814,591.156006,615.051270,0.768523
-514.709473,587.127686,611.389160,0.769266
-525.238037,587.951660,600.311279,0.770001
-529.724121,589.599609,606.628418,0.770791
-522.216797,597.656250,609.741211,0.771608
-520.843506,593.078613,615.783691,0.772397
-528.259277,595.916748,613.769531,0.773176
-524.597168,587.585449,606.262207,0.773934
-521.026611,586.395264,609.191895,0.774676
-529.357910,595.825195,613.952637,0.775438
-530.273438,595.092773,607.635498,0.776172
-528.991699,585.662842,606.079102,0.776903
-533.569336,598.114014,601.318359,0.777633
-532.653809,592.254639,631.530762,0.778379
-530.090332,597.290039,614.501953,0.779111
-532.104492,594.726562,609.924316,0.779841
-540.435791,593.444824,609.832764,0.780571
-538.604736,590.332031,602.874756,0.781321
-531.463623,591.064453,600.860596,0.782052
-540.161133,598.937988,609.649658,0.782783
-541.442871,595.550537,609.375000,0.783514
-540.527344,595.916748,608.917236,0.784255
-537.872314,600.769043,615.051270,0.785065
-543.182373,608.917236,612.030029,0.785796
-538.970947,595.642090,609.832764,0.786526
-543.640137,591.613770,610.198975,0.787287
-538.330078,587.585449,603.149414,0.788045
-540.985107,594.726562,606.353760,0.788788
-543.457031,590.332031,605.438232,0.789529
-545.013428,597.473145,611.297607,0.790282
-540.802002,591.339111,607.177734,0.791022
-516.723633,591.247559,607.177734,0.791763
-540.710449,591.613770,598.754883,0.792504
-546.386719,592.712402,606.994629,0.793255
-548.858643,595.367432,597.656250,0.793996
-543.914795,590.789795,605.712891,0.794737
-543.365479,592.803955,611.114502,0.795478
-543.365479,598.297119,611.663818,0.796219
-546.569824,597.198486,610.656738,0.796950
-542.358398,595.916748,612.854004,0.797681
-536.865234,594.268799,610.382080,0.798411
-544.006348,594.909668,603.515625,0.799166
-540.710449,587.219238,613.037109,0.799906
-541.900635,585.662842,614.959717,0.800645
-542.907715,588.867188,610.107422,0.801385
-536.773682,582.916260,601.959229,0.802134
-536.773682,586.395264,601.226807,0.802874
-541.442871,588.317871,606.262207,0.803614
-540.893555,584.838867,603.424072,0.804354
-542.175293,585.845947,603.424072,0.805101
-536.041260,586.395264,602.508545,0.805838
-542.266846,584.106445,597.564697,0.806579
-543.548584,588.226318,612.945557,0.807342
-561.492920,588.500977,606.262207,0.808123
-535.949707,582.641602,596.923828,0.808864
-540.344238,583.557129,605.438232,0.809594
-532.928467,586.486816,601.867676,0.810325
-548.858643,579.620361,598.846436,0.811075
-541.992188,587.768555,598.388672,0.811824
-542.907715,589.233398,600.219727,0.812556
-551.055908,581.085205,596.923828,0.813287
-538.513184,581.542969,596.649170,0.814055
-542.907715,606.903076,607.727051,0.814808
-542.633057,582.458496,599.487305,0.815553
-543.273926,586.395264,591.705322,0.816347
-561.035156,575.317383,603.790283,0.817093
-539.154053,580.902100,605.346680,0.817834
-534.118652,582.916260,603.881836,0.818575
-538.238525,580.169678,595.367432,0.819316
-541.168213,580.902100,600.952148,0.820058
-543.548584,582.000732,596.191406,0.820799
-544.830322,577.331543,600.128174,0.821541
-535.583496,577.606201,603.698730,0.822279
-539.337158,574.768066,599.212646,0.823010
-525.878906,583.282471,599.304199,0.823741
-533.111572,582.458496,598.846436,0.824471
-530.364990,581.542969,601.318359,0.825212
-535.858154,576.690674,601.593018,0.825955
-528.533936,582.458496,592.620850,0.826695
-537.322998,576.599121,596.923828,0.827436
-533.935547,580.352783,602.508545,0.828177
-531.463623,577.880859,606.536865,0.828917
-533.660889,580.352783,601.318359,0.829658
-533.752441,574.768066,600.128174,0.830399
-528.625488,583.190918,604.339600,0.831149
-532.836914,575.958252,603.424072,0.831891
-537.414551,581.085205,597.656250,0.832631
-533.843994,582.916260,599.121094,0.833372
-533.294678,582.550049,597.747803,0.834118
-537.322998,570.190430,597.381592,0.834850
-540.802002,580.169678,606.170654,0.835580
-537.231445,579.528809,598.571777,0.836322
-528.625488,574.768066,600.494385,0.837068
-540.802002,577.972412,596.282959,0.837814
-532.653809,582.183838,600.585938,0.838555
-535.034180,573.120117,604.339600,0.839294
-531.188965,579.528809,604.064941,0.840043
-531.463623,581.634521,595.825195,0.840784
-526.245117,579.162598,599.945068,0.841525
-527.801514,577.697754,593.902588,0.842267
-531.829834,581.176758,599.487305,0.843001
-531.097412,577.606201,601.959229,0.843732
-528.717041,583.007812,600.952148,0.844463
-532.653809,572.113037,596.191406,0.845194
-526.062012,576.873779,598.480225,0.845929
-534.667969,584.564209,599.029541,0.846661
-533.386230,580.993652,603.332520,0.847391
-532.287598,581.542969,600.860596,0.848122
-525.787354,579.895020,597.564697,0.848859
-526.885986,576.690674,600.769043,0.849601
-536.682129,581.268311,605.346680,0.850341
-537.048340,584.106445,604.705811,0.851028
-534.484863,577.789307,608.184814,0.851781
-528.076172,585.021973,606.628418,0.852522
-533.020020,581.726074,610.198975,0.853262
-529.998779,577.972412,601.318359,0.854003
-528.808594,588.317871,609.649658,0.854752
-531.921387,578.155518,600.036621,0.855584
-533.660889,585.296631,613.586426,0.856326
-530.548096,583.557129,616.241455,0.857066
-532.562256,580.261230,593.994141,0.857799
-530.731201,584.106445,607.086182,0.858530
-533.386230,580.261230,608.642578,0.859260
-529.174805,580.993652,613.403320,0.859991
-531.555176,583.282471,606.994629,0.860729
-530.456543,577.606201,604.888916,0.861470
-523.590088,578.063965,600.585938,0.862211
-525.512695,579.986572,607.910156,0.862952
-533.935547,573.577881,598.388672,0.863693
-535.308838,579.895020,604.888916,0.864433
-533.203125,580.352783,614.776611,0.865173
-528.808594,589.599609,608.642578,0.865914
-535.125732,585.113525,598.480225,0.866655
-529.998779,579.162598,597.015381,0.867396
-532.379150,578.063965,604.797363,0.868137
-534.393311,581.726074,608.093262,0.868877
-535.949707,576.416016,605.255127,0.869666
-531.280518,581.176758,606.170654,0.870412
-534.576416,585.113525,606.994629,0.871154
-535.675049,585.754395,605.621338,0.871895
-534.210205,577.514648,609.100342,0.872650
-530.181885,579.620361,603.424072,0.873392
-533.203125,592.071533,609.832764,0.874133
-532.287598,585.937500,605.804443,0.874874
-542.633057,583.648682,605.438232,0.875616
-533.660889,578.613281,607.910156,0.876348
-533.752441,582.092285,607.727051,0.877091
-528.350830,590.423584,609.649658,0.877830
-523.132324,583.007812,614.501953,0.878615
-522.949219,588.043213,607.727051,0.879359
-527.160645,589.599609,607.086182,0.880099
-533.935547,591.064453,616.790771,0.880839
-533.203125,589.050293,603.698730,0.881589
-530.456543,591.979980,611.022949,0.882343
-529.815674,590.698242,604.339600,0.883120
-536.041260,582.366943,608.001709,0.883880
-526.519775,594.451904,608.459473,0.884669
-518.280029,587.219238,606.262207,0.885414
-525.512695,590.789795,611.389160,0.886155
-523.315430,592.254639,609.558105,0.886911
-528.991699,589.508057,610.107422,0.887660
-526.245117,585.021973,601.409912,0.888401
-527.069092,588.226318,606.628418,0.889142
-529.174805,579.345703,608.276367,0.889889
-531.188965,578.979492,605.072021,0.890633
-524.963379,583.007812,602.325439,0.891374
-526.336670,585.388184,600.769043,0.892117
-529.815674,582.733154,606.536865,0.892860
-522.125244,587.036133,607.543945,0.893601
-533.660889,582.366943,597.198486,0.894342
-524.963379,586.944580,607.086182,0.895082
-528.076172,592.071533,605.529785,0.895821
-530.639648,581.359863,606.445312,0.896552
-527.709961,586.853027,605.621338,0.897283
-528.442383,581.909180,605.529785,0.898014
-520.202637,580.993652,609.832764,0.898752
-524.322510,577.423096,606.628418,0.899493
-520.202637,587.585449,606.353760,0.900234
-516.540527,582.000732,607.269287,0.900975
-525.238037,582.458496,604.248047,0.901715
-523.132324,581.909180,601.409912,0.902455
-529.724121,587.951660,605.712891,0.903211
-524.322510,583.099365,608.276367,0.903954
-521.667480,582.458496,606.811523,0.904695
-527.618408,584.930420,610.839844,0.905437
-525.329590,587.127686,598.937988,0.906178
-525.238037,588.226318,601.226807,0.906919
-519.927979,588.134766,605.072021,0.907675
-522.857666,582.550049,603.881836,0.908441
-537.689209,584.564209,600.402832,0.909194
-523.406982,578.887939,601.226807,0.909973
-526.428223,583.282471,602.416992,0.910729
-523.132324,578.247070,602.325439,0.911499
-521.392822,584.197998,609.649658,0.912257
-512.878418,586.120605,598.388672,0.913068
-516.448975,580.078125,609.558105,0.913835
-522.674561,585.205078,608.093262,0.914589
-520.935059,579.711914,606.903076,0.915415
-519.836426,580.169678,599.670410,0.916176
-525.329590,591.888428,609.832764,0.916920
-525.146484,588.043213,606.536865,0.917726
-522.125244,586.853027,610.290527,0.918544
-520.477295,580.535889,601.776123,0.919313
-529.449463,585.937500,600.128174,0.920072
-528.717041,583.099365,602.783203,0.920804
-529.724121,583.007812,602.783203,0.921535
-520.202637,582.733154,608.642578,0.922265
-526.153564,587.951660,607.177734,0.923051
-519.012451,581.726074,605.438232,0.923783
-525.878906,586.120605,604.248047,0.924513
-526.519775,581.268311,606.353760,0.925244
-519.927979,586.303711,606.811523,0.926025
-526.611328,580.993652,602.691650,0.926852
-526.885986,588.043213,613.952637,0.927584
-529.632568,579.437256,605.072021,0.928319
-531.372070,581.909180,601.501465,0.929050
-531.921387,586.761475,604.156494,0.929780
-526.062012,583.190918,597.473145,0.930510
-524.047852,562.591553,599.304199,0.931242
-537.780762,584.106445,598.846436,0.931973
-532.745361,581.451416,606.445312,0.932704
-536.590576,585.662842,608.734131,0.933435
-537.597656,588.775635,594.451904,0.934166
-533.569336,588.775635,599.487305,0.934897
-531.188965,581.176758,602.508545,0.935627
-535.675049,578.979492,599.304199,0.936357
-541.992188,579.620361,600.402832,0.937087
-533.386230,584.014893,609.283447,0.937853
-536.865234,583.740234,592.895508,0.938593
-542.816162,586.944580,596.832275,0.939333
-538.787842,590.606689,606.811523,0.940073
-540.252686,590.881348,601.043701,0.940824
-540.252686,594.360352,607.635498,0.941564
-540.161133,589.782715,606.903076,0.942304
-541.259766,587.951660,608.276367,0.943044
-540.802002,596.557617,605.346680,0.943794
-542.358398,599.853516,605.529785,0.944534
-544.647217,595.458984,601.135254,0.945312
-541.625977,596.191406,602.508545,0.946097
-541.534424,598.571777,604.339600,0.946845
-547.393799,591.522217,602.142334,0.947590
-549.499512,587.310791,607.635498,0.948332
-547.393799,589.965820,604.980469,0.949098
-541.992188,593.078613,630.981445,0.949868
-545.013428,597.015381,600.311279,0.950626
-546.295166,600.036621,604.248047,0.951379
-545.654297,597.106934,604.797363,0.952146
-549.591064,602.874756,603.607178,0.952893
-548.492432,595.001221,601.776123,0.953634
-554.077148,601.409912,600.036621,0.954396
-546.661377,599.853516,598.846436,0.955137
-543.548584,599.121094,603.515625,0.955878
-541.534424,597.839355,599.945068,0.956619
-546.020508,599.395752,604.705811,0.957360
-550.140381,602.691650,601.135254,0.958101
-545.196533,599.670410,599.121094,0.958842
-546.112061,601.135254,610.015869,0.959583
-553.527832,599.304199,610.015869,0.960323
-552.429199,599.945068,604.522705,0.961054
-546.478271,604.064941,605.346680,0.961785
-550.872803,597.106934,602.233887,0.962517
-544.281006,600.952148,601.867676,0.963254
-539.428711,602.508545,603.973389,0.964000
-549.316406,602.966309,613.494873,0.964741
-553.802490,601.043701,601.043701,0.965497
-540.435791,600.036621,605.529785,0.966252
-548.034668,598.754883,605.072021,0.966993
-544.738770,595.916748,601.226807,0.967734
-554.626465,602.508545,607.635498,0.968475
-549.316406,604.156494,615.325928,0.969225
-544.830322,607.452393,612.121582,0.969966
-545.288086,598.937988,610.473633,0.970707
-542.541504,602.691650,614.959717,0.971447
-539.154053,596.649170,608.642578,0.972186
-548.492432,599.304199,609.466553,0.972916
-537.506104,604.614258,606.903076,0.973647
-542.816162,605.529785,608.459473,0.974377
-541.442871,604.888916,608.184814,0.975114
-542.816162,604.064941,614.135742,0.975855
-539.978027,593.627930,607.177734,0.976596
-543.090820,601.318359,611.206055,0.977337
-535.858154,597.747803,605.438232,0.978077
-542.541504,600.128174,605.621338,0.978808
-538.421631,601.318359,598.388672,0.979538
-539.245605,603.149414,604.705811,0.980269
-538.787842,595.642090,606.079102,0.981001
-532.012939,606.536865,606.536865,0.981742
-539.245605,605.804443,612.854004,0.982483
-534.301758,597.564697,603.790283,0.983223
-531.646729,596.649170,608.734131,0.983965
-534.942627,593.902588,604.614258,0.984696
-536.499023,595.367432,610.107422,0.985430
-538.787842,595.916748,609.649658,0.986160
-538.238525,587.219238,607.910156,0.986891
-533.569336,589.782715,609.649658,0.987651
-532.012939,594.360352,605.346680,0.988398
-537.506104,586.120605,613.861084,0.989140
-542.724609,590.698242,608.093262,0.989881
-547.027588,584.472656,612.945557,0.990622
-540.344238,578.430176,608.642578,0.991363
-538.421631,579.986572,601.959229,0.992103
-537.780762,576.324463,603.149414,0.992847
-531.188965,571.105957,606.170654,0.993607
-532.470703,577.972412,593.719482,0.994350
-530.914307,573.669434,592.712402,0.995091
-530.548096,574.584961,606.079102,0.995832
-532.104492,578.979492,602.325439,0.996573
-532.287598,577.697754,597.656250,0.997314
-525.512695,571.838379,606.170654,0.998143
-528.076172,578.704834,600.494385,0.998903
-532.379150,572.204590,599.578857,0.999644
-533.569336,572.021484,588.043213,1.000385
-527.069092,570.556641,597.564697,1.001126
-527.435303,575.592041,600.769043,1.001860
-528.991699,562.500000,607.727051,1.002590
-521.850586,567.810059,604.339600,1.003321
-526.702881,569.549561,598.297119,1.004051
-523.132324,567.352295,599.945068,1.004790
-523.864746,568.176270,594.726562,1.005531
-519.378662,570.739746,604.248047,1.006272
-517.272949,569.641113,610.656738,1.007012
-514.343262,565.338135,598.480225,1.007753
-518.188477,570.739746,601.959229,1.008493
-520.294189,568.084717,607.910156,1.009234
-537.963867,575.317383,607.452393,1.009974
-513.610840,572.570801,597.747803,1.010715
-510.772705,580.444336,602.508545,1.011456
-516.906738,572.021484,603.149414,1.012197
-518.096924,567.443848,601.135254,1.012937
-515.075684,575.134277,606.262207,1.013685
-508.666992,584.197998,587.402344,1.014416
-503.906250,575.500488,603.332520,1.015146
-524.597168,567.718506,602.691650,1.015877
-506.286621,565.155029,603.515625,1.016614
-506.561279,566.070557,597.747803,1.017356
-508.483887,567.718506,600.677490,1.018096
-505.645752,567.352295,601.501465,1.018838
-506.286621,567.535400,602.325439,1.019592
-509.582520,564.605713,599.761963,1.020339
-500.793457,568.267822,598.663330,1.021108
-496.124268,568.450928,603.607178,1.021852
-500.793457,574.401855,604.614258,1.022592
-498.596191,567.077637,605.072021,1.023332
-496.582031,572.937012,603.240967,1.024101
-497.314453,571.929932,587.860107,1.024857
-503.997803,567.993164,600.128174,1.025636
-498.779297,567.169189,594.726562,1.026395
-492.187500,571.380615,606.536865,1.027136
-502.441406,572.479248,604.431152,1.027877
-501.617432,567.535400,605.621338,1.028636
-493.286133,566.711426,609.375000,1.029377
-500.701904,570.739746,606.445312,1.030118
-494.934082,576.599121,607.177734,1.030858
-491.363525,567.260742,603.057861,1.031616
-498.229980,568.634033,603.881836,1.032357
-491.729736,564.422607,599.945068,1.033098
-485.137939,568.359375,607.452393,1.033839
-488.616943,574.951172,611.114502,1.034580
-489.715576,569.091797,602.966309,1.035314
-489.715576,566.986084,603.790283,1.036045
-491.455078,571.289062,587.127686,1.036776
-491.180420,567.718506,600.585938,1.037534
-488.708496,577.239990,599.304199,1.038275
-493.377686,579.986572,600.860596,1.039016
-497.131348,572.570801,607.360840,1.039756
-489.715576,571.746826,610.107422,1.040508
-488.159180,575.317383,609.191895,1.041249
-471.130371,577.148438,605.072021,1.041989
-490.631104,577.697754,606.811523,1.042730
-491.088867,578.704834,610.565186,1.043480
-493.743896,574.493408,609.283447,1.044221
-492.462158,581.359863,606.628418,1.044962
-498.687744,575.592041,613.128662,1.045702
-491.363525,578.430176,609.466553,1.046443
-504.821777,573.577881,606.170654,1.047174
-498.687744,572.845459,607.360840,1.047905
-498.046875,569.000244,607.086182,1.048635
-504.364014,577.606201,607.818604,1.049389
-498.687744,572.937012,603.973389,1.050130
-502.807617,575.408936,609.283447,1.050871
-505.554199,575.408936,605.621338,1.051612
-505.920410,574.768066,610.107422,1.052353
-502.899170,578.430176,608.642578,1.053083
-499.786377,581.359863,610.015869,1.053813
-503.540039,575.134277,613.769531,1.054543
-500.335693,576.782227,616.424561,1.055306
-507.385254,571.746826,616.607666,1.056047
-509.674072,574.218750,613.677979,1.056788
-510.406494,574.584961,618.438721,1.057528
-511.779785,577.239990,614.959717,1.058279
-513.977051,572.753906,606.903076,1.059020
-518.737793,575.500488,617.065430,1.059761
-517.364502,578.796387,610.656738,1.060501
-538.421631,573.577881,615.692139,1.061252
-522.033691,568.725586,614.044189,1.061993
-524.230957,572.296143,622.650146,1.062734
-520.294189,563.140869,616.058350,1.063474
-527.252197,573.028564,609.466553,1.064229
-530.639648,560.852051,613.311768,1.065038
-529.449463,565.795898,628.417969,1.065787
-531.372070,567.352295,617.248535,1.066531
-534.393311,566.162109,620.269775,1.067289
-529.449463,565.612793,621.826172,1.068033
-537.780762,566.345215,628.143311,1.068874
-537.322998,559.020996,627.227783,1.069617
-539.062500,551.605225,617.614746,1.070375
-544.647217,558.471680,625.213623,1.071119
-544.921875,559.936523,616.973877,1.071862
-545.837402,554.992676,619.903564,1.072606
-547.210693,549.499512,615.692139,1.073360
-548.126221,545.013428,614.501953,1.074104
-549.591064,542.358398,612.213135,1.074848
-548.950195,534.393311,615.692139,1.075592
-548.034668,538.421631,611.114502,1.076341
-550.781250,541.076660,613.586426,1.077075
-550.048828,542.816162,615.783691,1.077808
-549.316406,536.315918,608.184814,1.078541
-551.239014,532.562256,612.030029,1.079319
-549.957275,542.816162,616.516113,1.080063
-548.126221,536.224365,615.509033,1.080806
-546.478271,534.576416,604.522705,1.081549
-554.718018,531.829834,605.255127,1.082303
-554.992676,541.717529,609.191895,1.083046
-559.295654,532.104492,602.966309,1.083789
-554.718018,534.667969,605.529785,1.084532
-552.246094,530.822754,596.466064,1.085336
-558.929443,532.562256,591.705322,1.086082
-554.168701,537.597656,602.142334,1.086825
-556.182861,561.035156,604.431152,1.087567
-555.908203,542.541504,610.931396,1.088324
-552.612305,537.139893,607.727051,1.089068
-547.943115,536.590576,611.297607,1.089811
-560.119629,541.717529,605.804443,1.090554
-555.816650,542.083740,615.142822,1.091315
-555.725098,549.865723,611.846924,1.092070
-557.739258,539.337158,609.008789,1.092850
-557.189941,546.936035,614.318848,1.093603
-558.013916,546.386719,586.120605,1.094373
-551.422119,544.738770,615.142822,1.095117
-553.619385,551.055908,613.403320,1.095860
-555.450439,547.119141,605.529785,1.096603
-561.126709,542.999268,611.389160,1.097357
-561.401367,548.767090,606.994629,1.098123
-558.746338,547.302246,604.888916,1.098906
-549.499512,537.506104,606.811523,1.099659
-555.541992,536.865234,614.410400,1.100469
-562.957764,533.752441,608.825684,1.101222
-561.859131,533.020020,610.198975,1.101969
-561.126709,536.499023,611.206055,1.102714
-561.584473,547.851562,617.523193,1.103447
-560.394287,537.048340,614.868164,1.104180
-558.929443,526.977539,611.572266,1.104914
-559.844971,532.745361,614.776611,1.105661
-560.577393,529.815674,611.663818,1.106408
-568.359375,523.132324,608.734131,1.107151
-566.162109,524.230957,606.445312,1.107894
-564.239502,529.266357,608.459473,1.108786
-569.549561,527.069092,613.861084,1.109534
-569.000244,526.153564,611.938477,1.110279
-569.000244,527.984619,616.241455,1.111022
-566.802979,523.315430,614.685059,1.111791
-570.098877,527.984619,620.819092,1.112551
-571.655273,523.956299,615.234375,1.113296
-569.458008,526.885986,626.129150,1.114039
-557.830811,528.076172,625.122070,1.114854
-562.500000,530.822754,630.249023,1.115600
-574.951172,531.188965,624.023438,1.116343
-572.113037,531.097412,621.826172,1.117086
-575.317383,530.731201,624.023438,1.117840
-575.042725,533.569336,632.263184,1.118583
-573.394775,533.203125,634.552002,1.119326
-569.732666,534.759521,632.446289,1.120069
-572.753906,532.196045,640.411377,1.120822
-574.218750,530.822754,638.305664,1.121564
-570.739746,534.484863,641.693115,1.122306
-577.056885,527.343750,634.094238,1.123049
-567.260742,529.724121,632.446289,1.123806
-569.091797,535.125732,634.826660,1.124550
-564.697266,523.498535,630.432129,1.125293
-561.950684,524.505615,636.749268,1.126036
-568.084717,523.590088,622.650146,1.126781
-556.549072,511.962891,634.460449,1.127515
-557.647705,537.780762,629.333496,1.128309
-559.295654,514.617920,626.129150,1.129044
-558.746338,509.307861,631.072998,1.129800
-556.457520,510.131836,627.960205,1.130543
-556.549072,520.477295,625.122070,1.131284
-555.999756,495.758057,621.826172,1.132026
-550.231934,505.187988,620.269775,1.132778
-547.760010,502.624512,619.903564,1.133520
-549.041748,499.694824,620.727539,1.134262
-544.738770,500.701904,625.305176,1.135004
-546.020508,500.793457,614.501953,1.135756
-539.520264,495.300293,618.804932,1.136498
-543.914795,501.342773,617.431641,1.137239
-548.767090,500.244141,614.776611,1.137981
-535.034180,499.603271,618.621826,1.138735
-537.506104,499.328613,622.192383,1.139478
-535.034180,495.300293,626.770020,1.140305
-528.625488,486.968994,624.298096,1.141048
-528.625488,474.060059,625.579834,1.141803
-529.724121,496.124268,627.685547,1.142545
-532.287598,485.412598,625.305176,1.143287
-527.618408,487.152100,625.488281,1.144028
-529.449463,493.652344,618.621826,1.144781
-522.857666,515.350342,610.015869,1.145523
-525.238037,489.715576,618.347168,1.146264
-524.047852,489.624023,622.192383,1.147006
-529.907227,493.011475,590.789795,1.147758
-528.991699,480.834961,610.015869,1.148500
-525.329590,485.687256,609.924316,1.149242
-514.801025,489.257812,610.565186,1.149984
-514.617920,485.229492,610.382080,1.150749
-516.448975,489.257812,625.122070,1.151491
-515.167236,506.469727,631.256104,1.152233
-513.885498,513.793945,634.735107,1.152974
-497.222900,522.857666,627.960205,1.153727
-482.757568,551.330566,623.931885,1.154469
-474.243164,554.901123,627.868652,1.155211
-457.855225,558.654785,626.586914,1.156029
-435.699463,544.097900,626.403809,1.156787
-451.080322,546.752930,614.227295,1.157530
-448.699951,534.118652,613.494873,1.158272
-480.194092,519.470215,607.818604,1.159014
-474.517822,515.533447,599.945068,1.159766
-486.511230,510.040283,606.811523,1.160509
-494.567871,500.152588,609.191895,1.161250
-500.885010,493.377686,608.642578,1.161994
-530.548096,497.497559,621.459961,1.162777
-523.132324,500.244141,651.947021,1.163541
-545.104980,501.068115,641.235352,1.164335
-529.907227,505.554199,659.637451,1.165083
-524.871826,507.934570,673.828125,1.165849
-505.462646,511.138916,675.933838,1.166593
-488.616943,511.688232,656.799316,1.167336
-485.504150,521.850586,646.636963,1.168078
-496.215820,536.682129,636.291504,1.168832
-503.906250,522.674561,618.896484,1.169575
-525.238037,527.893066,617.980957,1.170318
-501.434326,525.878906,600.036621,1.171061
-487.609863,534.667969,592.895508,1.171814
-485.504150,543.640137,595.916748,1.172558
-461.517334,566.528320,599.578857,1.173300
-462.341309,563.323975,601.409912,1.174044
-458.496094,550.048828,619.354248,1.174802
-465.820312,553.161621,638.671875,1.175546
-487.976074,560.760498,635.192871,1.176289
-506.927490,560.943604,619.628906,1.177032
-514.526367,566.162109,618.438721,1.177789
-513.519287,555.908203,602.600098,1.178533
-512.878418,554.443359,603.149414,1.179276
-533.660889,538.513184,590.148926,1.180019
-523.406982,545.471191,591.613770,1.180773
-523.040771,557.647705,600.128174,1.181516
-509.124756,561.309814,588.409424,1.182259
-498.962402,576.782227,604.888916,1.183002
-512.969971,580.444336,614.044189,1.183755
-530.090332,575.225830,623.840332,1.184499
-537.322998,566.345215,627.960205,1.185241
-542.449951,588.134766,627.227783,1.185984
-543.457031,600.952148,616.973877,1.186748
-539.428711,602.233887,618.713379,1.187491
-525.512695,605.072021,612.030029,1.188235
-525.604248,615.875244,603.790283,1.188978
-516.357422,617.980957,605.255127,1.189846
-512.145996,624.481201,606.079102,1.190605
-515.991211,633.544922,610.015869,1.191365
-520.935059,641.052246,613.128662,1.192123
-532.562256,646.087646,638.214111,1.192918
-541.076660,640.319824,647.644043,1.193664
-553.253174,639.129639,655.700684,1.194408
-556.365967,641.601562,659.088135,1.195151
-551.605225,644.805908,663.024902,1.195902
-554.809570,651.306152,655.700684,1.196645
-555.084229,653.869629,642.517090,1.197389
-554.077148,644.165039,638.763428,1.198132
-556.732178,643.432617,633.819580,1.198890
-562.408447,636.474609,627.502441,1.199633
-557.556152,637.847900,622.009277,1.200376
-561.035156,636.108398,620.361328,1.201119
-565.887451,636.108398,623.840332,1.201872
-573.577881,640.136719,624.114990,1.202615
-567.901611,640.777588,619.354248,1.203357
-590.057373,636.108398,649.749756,1.204245
-586.761475,624.938965,651.855469,1.204992
-547.393799,622.924805,641.784668,1.205736
-564.239502,626.129150,637.664795,1.206479
-561.584473,611.938477,630.249023,1.207232
-581.634521,605.163574,617.797852,1.207975
-577.331543,599.853516,613.403320,1.208718
-571.746826,577.697754,598.205566,1.209460
-587.768555,576.690674,597.930908,1.210204
-568.359375,575.683594,601.593018,1.210938
-563.415527,567.901611,599.395752,1.211755
-566.528320,561.492920,602.691650,1.212490
-559.753418,555.816650,614.593506,1.213230
-557.464600,553.619385,621.002197,1.213992
-564.880371,560.668945,622.833252,1.214734
-551.696777,566.986084,619.445801,1.215477
-553.619385,565.795898,622.467041,1.216251
-548.309326,562.591553,626.312256,1.216994
-552.795410,559.844971,625.854492,1.217736
-556.915283,552.886963,626.495361,1.218478
-551.422119,545.104980,622.009277,1.219229
-551.330566,546.569824,614.868164,1.219971
-552.612305,547.210693,614.044189,1.220714
-544.464111,541.076660,629.425049,1.221455
-536.590576,537.506104,629.058838,1.222284
-548.400879,529.174805,649.841309,1.223066
-543.640137,521.026611,643.341064,1.223875
-548.217773,516.082764,645.080566,1.224634
-540.344238,510.864258,642.883301,1.225432
-543.640137,507.843018,638.671875,1.226182
-552.612305,501.251221,639.862061,1.226925
-549.316406,485.046387,636.932373,1.227666
-536.590576,484.771729,626.861572,1.228425
-526.519775,489.349365,626.495361,1.229167
-512.054443,475.616455,612.213135,1.229908
-510.314941,475.341797,620.910645,1.230648
-510.131836,468.566895,619.079590,1.231403
-512.420654,477.813721,615.417480,1.232145
-509.033203,474.426270,617.523193,1.232886
-508.209229,478.729248,634.826660,1.233633
-499.877930,486.053467,638.946533,1.234412
-477.630615,501.342773,647.644043,1.235176
-487.609863,491.271973,647.552490,1.235927
-515.533447,501.983643,657.806396,1.236691
-505.737305,506.286621,663.848877,1.237435
-485.687256,512.420654,666.687012,1.238198
-469.116211,512.420654,670.623779,1.238970
-446.136475,517.730713,657.989502,1.239746
-413.635254,528.533936,654.418945,1.240539
-409.515381,514.251709,657.348633,1.241288
-443.847656,503.997803,644.531250,1.242030
-432.037354,507.934570,649.932861,1.242789
-406.768799,518.737793,644.805908,1.243530
-396.423340,493.652344,668.701172,1.244271
-387.634277,506.195068,671.905518,1.245011
-369.049072,519.104004,667.144775,1.245763
-378.479004,513.244629,676.300049,1.246505
-378.021240,510.955811,676.940918,1.247247
-380.035400,516.448975,677.581787,1.247988
-356.140137,520.568848,676.116943,1.248807
-328.308105,525.604248,678.497314,1.249570
-325.469971,530.914307,666.137695,1.250316
-317.138672,544.921875,661.376953,1.251059
-344.329834,550.872803,658.721924,1.251818
-348.449707,544.921875,646.636963,1.252561
-373.626709,556.549072,644.897461,1.253304
-376.739502,580.718994,650.573730,1.254047
-359.252930,590.515137,661.651611,1.254800
-357.421875,599.395752,685.272217,1.255543
-354.309082,626.495361,695.159912,1.256286
-347.991943,615.783691,699.554443,1.257029
-348.449707,641.601562,704.772949,1.257783
-346.435547,643.890381,704.223633,1.258526
-342.041016,650.299072,714.843750,1.259269
-348.266602,676.574707,713.195801,1.260011
-352.661133,659.454346,708.160400,1.260763
-395.965576,653.045654,698.638916,1.261506
-374.267578,649.383545,693.878174,1.262248
-381.958008,657.257080,688.751221,1.262991
-379.760742,652.587891,673.095703,1.263743
-368.865967,656.158447,665.130615,1.264486
-366.210938,648.834229,667.968750,1.265229
-362.823486,646.911621,673.461914,1.265972
-363.922119,634.368896,674.652100,1.266716
-371.154785,631.622314,673.461914,1.267449
-368.225098,641.418457,670.074463,1.268183
-396.148682,632.812500,667.877197,1.268916
-384.063721,629.241943,667.419434,1.269681
-391.937256,609.832764,671.630859,1.270425
-398.620605,603.607178,665.679932,1.271172
-396.697998,595.733643,665.679932,1.271961
-384.979248,582.458496,660.186768,1.272727
-382.965088,579.528809,649.658203,1.273471
-376.373291,570.190430,650.115967,1.274213
-378.295898,548.492432,658.630371,1.275006
-380.859375,532.745361,660.003662,1.275761
-389.923096,534.576416,652.587891,1.276504
-395.690918,534.576416,655.242920,1.277247
-401.367188,537.322998,686.096191,1.277990
-402.282715,537.597656,692.962646,1.278743
-404.663086,522.399902,728.851318,1.279486
-422.515869,543.365479,726.562500,1.280229
-420.410156,566.253662,720.336914,1.280972
-461.425781,539.337158,711.090088,1.281726
-474.700928,502.899170,681.335449,1.282469
-485.046387,482.574463,632.812500,1.283212
-458.129883,464.080811,608.184814,1.284043
-437.805176,431.945801,576.324463,1.284797
-416.381836,421.875000,546.661377,1.285541
-400.909424,443.756104,548.400879,1.286284
-440.734863,441.101074,604.156494,1.287028
-441.009521,434.692383,646.453857,1.287783
-498.413086,425.903320,638.854980,1.288527
-489.440918,442.016602,639.312744,1.289269
-497.039795,445.587158,636.383057,1.290012
-476.165771,452.728271,624.389648,1.290765
-463.897705,447.052002,587.402344,1.291508
-453.735352,451.080322,584.381104,1.292251
-436.157227,463.623047,557.098389,1.292994
-445.220947,463.623047,595.733643,1.293800
-455.474854,431.030273,640.319824,1.294544
-448.059082,581.359863,675.476074,1.295287
-355.957031,677.307129,698.272705,1.296030
-394.500732,659.912109,779.754639,1.296783
-380.401611,484.313965,806.854248,1.297526
-423.431396,483.947754,785.064697,1.298269
-304.595947,556.549072,751.007080,1.299006
-129.272461,606.994629,734.619141,1.299762
-235.656738,635.284424,717.864990,1.300506
-172.943115,635.650635,691.680908,1.301249
-462.799072,616.333008,679.595947,1.301993
-458.312988,550.048828,669.616699,1.302746
-498.687744,553.436279,662.841797,1.303489
-477.813721,573.211670,637.298584,1.304232
-397.705078,567.169189,630.340576,1.305009
-332.702637,564.239502,613.037109,1.305799
-290.679932,611.022949,499.328613,1.306596
-543.731689,554.901123,440.460205,1.307348
-201.049805,674.468994,386.352539,1.308091
-79.376221,629.974365,458.221436,1.308851
-518.646240,523.864746,545.196533,1.309594
-435.333252,574.401855,567.810059,1.310337
-257.446289,662.933350,586.669922,1.311131
-189.422607,638.122559,613.952637,1.311910
-175.689697,677.398682,609.558105,1.312662
-222.015381,681.518555,636.383057,1.313463
-260.925293,701.293945,640.869141,1.314214
-160.034180,697.448730,658.813477,1.314957
-126.892090,712.280273,661.468506,1.315699
-150.695801,767.852783,679.412842,1.316441
-169.281006,797.973633,673.828125,1.317193
-177.337646,779.296875,667.602539,1.317937
-343.872070,647.918701,682.067871,1.318680
-630.340576,528.350830,633.453369,1.319423
-1274.871826,579.528809,623.931885,1.320166
-1462.188721,580.535889,630.706787,1.320911
-1387.115479,624.755859,663.574219,1.321656
-660.186768,590.240479,686.187744,1.322398
277.130127,658.996582,526.702881,1.323172
-581.817627,819.671631,576.049805,1.323917
-725.189209,663.024902,620.819092,1.324661
-169.830322,685.729980,622.375488,1.325404
-179.718018,726.379395,657.714844,1.326148
-374.450684,714.294434,716.491699,1.326891
-162.322998,725.372314,728.027344,1.327635
-141.632080,734.161377,768.951416,1.328378
-249.023438,754.669189,824.890137,1.329129
-246.276855,847.229004,855.834961,1.329872
-189.239502,958.465576,931.915283,1.330615
-303.497314,1021.270752,964.324951,1.331358
-433.593750,1482.971191,1003.417969,1.332101
-584.930420,1046.630859,1053.680420,1.332844
-405.487061,79.742432,1021.087646,1.333587
-714.294434,638.305664,1010.284424,1.334330
-1057.250977,774.169922,1004.608154,1.335073
-346.893311,819.122314,925.689697,1.335816
-477.172852,1202.911377,820.404053,1.336559
-429.656982,783.599854,859.771729,1.337302
-293.151855,772.064209,850.341797,1.338042
-94.482422,776.458740,855.926514,1.338776
-45.410156,814.544678,850.433350,1.339509
-137.145996,911.590576,844.665527,1.340242
-173.675537,843.109131,842.559814,1.340988
-192.260742,888.061523,856.201172,1.341732
-80.017090,532.745361,836.700439,1.342474
138.519287,888.793945,612.762451,1.343216
275.665283,875.335693,537.963867,1.343971
56.854248,792.755127,569.458008,1.344772
-262.664795,754.760742,615.417480,1.345519
-229.064941,720.703125,574.768066,1.346263
23.529053,825.714111,571.746826,1.347007
325.469971,948.577881,602.600098,1.347750
399.169922,948.852539,599.395752,1.348493
-301.574707,558.013916,729.125977,1.349235
-930.450439,658.172607,822.601318,1.349993
-739.837646,514.526367,766.296387,1.350736
-691.131592,571.838379,739.837646,1.351574
-617.248535,674.377441,672.912598,1.352337
-497.863770,704.956055,718.780518,1.353162
-813.446045,590.240479,737.091064,1.353921
-903.259277,533.843994,741.943359,1.354697
-593.170166,584.655762,690.216064,1.355594
-675.933838,530.090332,685.546875,1.356381
-613.403320,587.677002,662.475586,1.357176
-157.836914,647.369385,629.516602,1.357922
-256.896973,573.394775,646.545410,1.358665
-411.987305,560.943604,621.734619,1.359424
-409.606934,569.000244,598.937988,1.360168
-400.634766,569.274902,606.994629,1.360920
-292.236328,552.795410,519.744873,1.361713
-377.288818,565.979004,514.892578,1.362460
-407.226562,539.886475,532.836914,1.363203
-316.314697,521.484375,555.633545,1.363946
-327.850342,496.948242,600.311279,1.364690
-351.470947,497.406006,561.401367,1.365433
-313.568115,519.927979,532.836914,1.366175
-269.165039,525.604248,483.215332,1.366918
-265.136719,499.969482,460.510254,1.367661
-320.526123,478.820801,446.502686,1.368404
-324.920654,465.454102,437.438965,1.369147
-292.327881,470.947266,435.424805,1.369890
-305.328369,457.580566,406.311035,1.370633
-316.040039,461.059570,396.881104,1.371375
-221.832275,486.419678,388.000488,1.372118
-205.169678,502.258301,337.554932,1.372861
-207.183838,492.553711,339.477539,1.373605
-178.436279,504.913330,336.181641,1.374368
-140.808105,501.159668,337.921143,1.375111
-158.111572,501.617432,357.971191,1.375855
-140.991211,498.321533,363.647461,1.376602
-72.235107,519.287109,366.760254,1.377362
-30.761719,524.597168,367.858887,1.378113
-54.931641,555.358887,368.591309,1.378885
-32.501221,548.400879,367.218018,1.379637
-12.359619,561.401367,340.209961,1.380381
-27.099609,569.183350,340.484619,1.381124
-51.727295,550.048828,359.802246,1.381868
-43.395996,533.477783,416.015625,1.382665
-36.346436,542.541504,420.867920,1.383460
-58.044434,544.281006,415.466309,1.384205
-69.946289,570.281982,415.740967,1.385006
-44.128418,577.880859,422.058105,1.385858
-56.030273,588.775635,447.601318,1.386610
-77.453613,598.388672,464.996338,1.387399
-64.910889,613.128662,476.989746,1.388147
-86.975098,682.891846,496.765137,1.388912
-113.891602,679.412842,502.899170,1.389655
29.296875,737.274170,508.026123,1.390397
98.968506,789.367676,542.358398,1.391182
25.817871,788.909912,604.705811,1.391928
-40.008545,818.939209,619.354248,1.392694
115.539551,854.553223,656.158447,1.393456
85.876465,861.328125,697.631836,1.394203
-40.283203,860.137939,702.667236,1.394947
-15.289307,874.603271,717.864990,1.395691
74.157715,884.674072,732.788086,1.396435
-23.162842,887.145996,737.274170,1.397178
-50.170898,895.385742,753.021240,1.397923
17.486572,901.794434,753.936768,1.398667
15.838623,897.216797,740.112305,1.399411
-51.635742,880.828857,730.316162,1.400231
-47.241211,850.799561,719.879150,1.400977
-34.790039,833.679199,710.266113,1.401721
-89.447021,810.974121,711.181641,1.402464
-127.258301,793.395996,719.696045,1.403207
-103.912354,798.156738,717.864990,1.403951
-98.968506,785.156250,708.892822,1.404695
-121.215820,782.226562,709.991455,1.405439
-136.138916,772.247314,706.970215,1.406183
-133.483887,765.747070,690.124512,1.406927
-119.110107,763.275146,673.645020,1.407670
-120.574951,757.415771,675.292969,1.408413
-135.498047,736.907959,651.123047,1.409167
-46.051025,758.148193,565.795898,1.409911
-325.195312,772.705078,217.620850,1.410654
-844.390869,717.407227,443.298340,1.411398
231.903076,652.496338,386.535645,1.412150
-167.999268,589.324951,358.978271,1.412884
-580.535889,560.028076,349.456787,1.413617
-72.418213,549.957275,283.996582,1.414351
-81.298828,556.915283,387.725830,1.415084
-448.608398,494.018555,327.850342,1.415840
-326.293945,519.470215,340.850830,1.416583
-277.038574,514.434814,397.613525,1.417326
-262.573242,521.575928,344.329834,1.418069
-219.543457,544.281006,402.648926,1.418824
-113.891602,538.238525,426.544189,1.419567
-54.290771,562.591553,418.670654,1.420311
-69.488525,572.387695,434.234619,1.421055
36.437988,551.971436,446.136475,1.421873
-1.831055,564.605713,445.770264,1.422617
-12.725830,559.387207,420.043945,1.423421
18.035889,554.443359,410.339355,1.424184
-65.551758,550.140381,378.295898,1.424929
-47.607422,550.323486,345.336914,1.425672
-115.356445,539.428711,342.224121,1.426415
-140.441895,561.401367,322.906494,1.427159
-141.723633,560.119629,323.364258,1.427980
-185.852051,574.310303,314.392090,1.428726
-173.675537,582.824707,315.765381,1.429469
-184.936523,587.768555,336.273193,1.430214
-174.316406,612.762451,351.379395,1.430957
-150.054932,634.368896,355.865479,1.431700
-128.997803,648.559570,366.851807,1.432444
-121.398926,661.285400,370.147705,1.433187
-112.609863,670.989990,379.028320,1.433930
-113.067627,685.455322,377.105713,1.434673
-96.588135,697.357178,375.640869,1.435417
-132.934570,715.209961,363.372803,1.436161
-139.160156,717.864990,369.964600,1.436904
-143.096924,750.183105,375.366211,1.437648
-162.322998,762.268066,378.112793,1.438392
-166.168213,778.198242,382.781982,1.439145
-197.479248,800.262451,402.740479,1.439889
-200.500488,802.734375,427.368164,1.440632
-207.733154,834.503174,442.199707,1.441375
-204.895020,834.960938,485.321045,1.442119
-222.839355,862.701416,571.472168,1.442873
-145.385742,928.985596,757.049561,1.443616
-79.101562,924.316406,748.535156,1.444359
-199.951172,931.274414,765.655518,1.445102
-146.850586,951.416016,801.635742,1.445865
-131.195068,972.290039,806.488037,1.446608
-215.606689,999.481201,803.833008,1.447352
-204.071045,1012.847900,793.395996,1.448095
-174.407959,1017.883301,798.797607,1.448853
-239.227295,1027.221680,779.937744,1.449606
-232.177734,1024.291992,747.894287,1.450408
-261.840820,999.023438,745.330811,1.451164
-291.229248,989.776611,705.230713,1.451907
-310.638428,981.719971,674.926758,1.452651
-326.568604,971.832275,662.658691,1.453395
-328.308105,959.472656,600.311279,1.454149
-335.723877,957.275391,554.351807,1.454893
-291.229248,973.846436,552.612305,1.455637
-267.059326,962.219238,552.062988,1.456380
-256.072998,958.374023,554.718018,1.457124
-210.937500,959.564209,571.472168,1.457867
-220.733643,962.493896,578.521729,1.458611
-200.042725,957.458496,598.663330,1.459354
-202.423096,947.021484,613.128662,1.460098
-216.339111,945.190430,614.593506,1.460841
-240.875244,939.056396,607.910156,1.461584
-250.579834,936.309814,597.656250,1.462327
-279.052734,930.908203,572.296143,1.463070
-289.489746,921.844482,546.112061,1.463824
-276.031494,909.027100,536.315918,1.464569
-295.166016,897.583008,522.674561,1.465315
-270.812988,894.744873,515.533447,1.466060
-254.425049,889.709473,507.476807,1.466818
-248.382568,887.237549,502.807617,1.467561
-208.740234,887.786865,501.251221,1.468305
-179.443359,869.842529,500.976562,1.469048
-177.978516,868.103027,503.265381,1.469807
-162.139893,855.651855,493.743896,1.470551
-172.760010,839.538574,487.701416,1.471294
-185.211182,840.911865,485.137939,1.472037
-177.886963,824.066162,490.173340,1.472801
-185.852051,827.178955,484.130859,1.473544
-191.345215,818.023682,483.306885,1.474288
-165.069580,812.713623,481.292725,1.475031
-182.830811,803.100586,480.285645,1.475785
-170.471191,800.720215,479.095459,1.476529
-151.336670,796.234131,465.728760,1.477272
-150.695801,791.107178,468.933105,1.478015
-150.054932,779.205322,464.538574,1.478769
-135.223389,765.472412,461.242676,1.479512
-133.483887,750.457764,456.939697,1.480256
-125.610352,749.084473,453.918457,1.480999
-129.821777,742.767334,458.129883,1.481752
-119.018555,740.478516,465.454102,1.482495
-114.715576,726.470947,458.770752,1.483238
-114.532471,725.738525,468.200684,1.483980
-103.729248,720.520020,464.172363,1.484733
-89.355469,724.731445,455.383301,1.485477
-98.785400,720.062256,450.256348,1.486220
-91.094971,727.844238,424.804688,1.486963
-98.968506,723.907471,432.495117,1.487716
-109.222412,725.006104,425.354004,1.488460
-107.391357,718.048096,418.212891,1.489203
-111.145020,719.055176,409.423828,1.489947
-119.842529,716.857910,411.712646,1.490699
-110.870361,716.491699,401.641846,1.491443
-114.990234,720.153809,391.113281,1.492186
-102.172852,726.287842,390.838623,1.492929
-100.708008,718.322754,378.662109,1.493682
-100.341797,727.386475,378.204346,1.494426
-84.777832,723.083496,370.971680,1.495169
-85.968018,729.400635,366.485596,1.495910
-75.622559,723.632812,353.302002,1.496667
-75.073242,729.492188,341.583252,1.497411
-80.566406,725.555420,331.970215,1.498155
-84.686279,724.914551,335.266113,1.498898
-82.305908,736.999512,321.350098,1.499744
-86.608887,745.880127,322.998047,1.500488
-87.707520,761.993408,321.807861,1.501232
-87.615967,793.212891,317.230225,1.501976
-92.102051,780.853271,337.738037,1.502729
-97.595215,784.149170,354.034424,1.503472
-93.292236,791.198730,387.451172,1.504216
-94.848633,808.593750,388.366699,1.504959
-99.609375,830.291748,427.642822,1.505712
-97.778320,836.059570,443.481445,1.506455
-104.003906,860.321045,480.102539,1.507198
-103.363037,870.117188,535.766602,1.507942
-126.159668,879.180908,566.619873,1.508695
-130.187988,909.576416,672.454834,1.509439
-86.242676,923.400879,694.244385,1.510183
-125.793457,934.478760,707.702637,1.510927
-106.750488,933.380127,681.976318,1.511680
-117.919922,942.077637,667.510986,1.512424
-129.272461,942.352295,638.854980,1.513167
-122.772217,932.830811,619.171143,1.513910
-141.723633,911.682129,591.430664,1.514663
-152.984619,900.787354,551.696777,1.515407
-137.695312,899.414062,513.793945,1.516312
-152.893066,882.385254,486.877441,1.517090
-141.815186,885.772705,467.285156,1.517839
-145.935059,894.378662,460.052490,1.518583
-137.237549,869.384766,474.060059,1.519418
-149.688721,894.287109,490.356445,1.520169
-158.111572,899.139404,520.568848,1.520914
-160.675049,915.435791,558.471680,1.521661
-166.809082,934.204102,566.162109,1.522448
-165.802002,947.479248,588.958740,1.523264
-166.534424,943.176270,593.261719,1.524023
-183.563232,949.035645,587.310791,1.524826
-178.619385,966.705322,574.218750,1.525579
-176.971436,948.760986,554.718018,1.526324
-178.710938,945.648193,526.153564,1.527134
-187.042236,942.901611,520.477295,1.527892
-176.879883,933.563232,518.737793,1.528697
-166.351318,936.767578,520.660400,1.529450
-174.316406,922.760010,525.604248,1.530194
-155.456543,923.400879,539.886475,1.530937
-158.935547,910.858154,533.386230,1.531693
-169.097900,907.379150,531.097412,1.532436
-164.337158,891.357422,547.210693,1.533179
-175.231934,882.568359,546.844482,1.533921
-165.344238,872.589111,544.830322,1.534675
-168.273926,845.489502,544.921875,1.535470
-174.133301,842.285156,540.344238,1.536219
-167.083740,828.918457,534.667969,1.536964
-162.689209,819.488525,526.794434,1.537722
-146.301270,815.185547,529.266357,1.538466
-158.569336,795.959473,522.216797,1.539209
-151.519775,782.867432,518.737793,1.539952
-147.949219,780.303955,513.610840,1.540706
-118.927002,764.923096,493.835449,1.541449
-131.561279,749.633789,488.800049,1.542193
-122.863770,742.034912,484.680176,1.542937
-110.137939,744.781494,464.904785,1.543817
-103.820801,730.224609,463.073730,1.544564
-97.045898,721.160889,460.235596,1.545308
-93.383789,706.512451,446.411133,1.546051
-97.686768,716.674805,443.023682,1.546803
-79.742432,712.554932,441.009521,1.547548
-79.376221,708.892822,421.966553,1.548292
-68.756104,710.266113,416.656494,1.549036
-62.530518,712.005615,420.043945,1.549791
-67.291260,701.660156,412.994385,1.550535
-72.235107,698.822021,407.775879,1.551278
-69.122314,698.455811,399.993896,1.552021
-63.537598,702.301025,405.212402,1.552775
-63.171387,713.562012,406.036377,1.553519
-54.290771,718.322754,379.302979,1.554262
-55.938721,727.111816,389.282227,1.555005
-51.361084,727.111816,388.916016,1.555750
-53.741455,728.027344,384.613037,1.556484
-59.509277,725.830078,378.295898,1.557216
-61.157227,726.287842,355.590820,1.557950
-63.171387,737.274170,371.063232,1.558705
-65.460205,727.661133,360.168457,1.559449
-56.488037,760.894775,361.267090,1.560192
-59.600830,761.627197,357.879639,1.560936
-61.431885,765.655518,359.527588,1.561690
-65.826416,760.986328,359.802246,1.562434
-67.840576,782.043457,369.964600,1.563177
-59.143066,788.543701,366.210938,1.563924
-48.889160,821.411133,389.373779,1.564725
-44.586182,836.334229,393.035889,1.565478
-48.248291,842.376709,394.409180,1.566222
-52.459717,865.081787,414.367676,1.566965
-51.635742,861.694336,423.248291,1.567726
-72.692871,851.348877,454.925537,1.568478
-85.601807,879.821777,526.428223,1.569221
-61.431885,893.737793,551.513672,1.569965
-92.651367,923.492432,576.782227,1.570717
-87.615967,940.429688,591.156006,1.571461
-59.875488,954.620361,595.825195,1.572289
-96.405029,947.113037,596.649170,1.573038
-83.312988,972.015381,572.113037,1.573821
-95.214844,971.740723,565.887451,1.574566
-115.722656,959.289551,536.773682,1.575310
-110.778809,947.296143,525.238037,1.576054
-122.314453,955.352783,512.512207,1.576807
-121.948242,957.092285,500.793457,1.577551
-113.250732,953.979492,493.377686,1.578295
-103.179932,959.014893,493.560791,1.579039
-100.250244,958.099365,499.511719,1.579792
-89.538574,967.895508,505.462646,1.580536
-85.418701,984.466553,521.301270,1.581279
-93.200684,993.438721,531.188965,1.582023
-86.975098,1004.974365,547.851562,1.582776
-91.461182,1006.622314,563.049316,1.583521
-102.264404,992.248535,571.105957,1.584264
-89.813232,986.938477,587.219238,1.585007
-97.778320,1000.854492,576.873779,1.585761
-87.249756,992.797852,570.831299,1.586508
-81.390381,1000.213623,563.781738,1.587298
-81.481934,1006.164551,562.042236,1.588036
-67.840576,1019.897461,561.950684,1.588803
-75.073242,1010.192871,566.070557,1.589547
-73.608398,1006.530762,574.768066,1.590290
-92.742920,988.128662,576.049805,1.591033
-73.333740,991.333008,580.169678,1.591786
-43.762207,1000.213623,589.874268,1.592532
-37.445068,999.755859,591.064453,1.593288
-26.824951,998.565674,592.163086,1.594048
-15.930176,997.741699,604.248047,1.594857
-46.325684,982.360840,613.128662,1.595601
-42.022705,977.691650,616.516113,1.596402
-61.065674,969.543457,627.777100,1.597161
-81.939697,933.471680,642.333984,1.597921
-72.235107,918.548584,628.875732,1.598682
-57.861328,904.907227,590.423584,1.599526
-27.099609,915.985107,567.077637,1.600342
12.359619,917.358398,552.978516,1.601104
16.937256,889.984131,539.337158,1.601921
22.064209,865.447998,532.653809,1.602690
21.148682,845.581055,526.336670,1.603483
26.824951,827.545166,519.653320,1.604293
37.170410,819.946289,515.625000,1.605044
41.198730,817.199707,533.660889,1.605787
62.347412,825.805664,522.308350,1.606557
71.960449,834.411621,530.731201,1.607300
71.228027,826.995850,534.942627,1.608042
78.094482,826.538086,560.211182,1.608784
79.742432,828.918457,578.430176,1.609540
77.911377,820.220947,587.677002,1.610284
67.565918,813.262939,580.902100,1.611026
73.059082,806.304932,574.218750,1.611768
91.461182,815.002441,561.126709,1.612521
92.468262,813.995361,542.449951,1.613263
109.039307,810.791016,541.992188,1.614005
103.363037,796.691895,531.372070,1.614747
99.609375,787.536621,531.005859,1.615499
90.545654,778.106689,522.583008,1.616241
88.439941,767.395020,510.223389,1.616984
96.313477,750.823975,513.061523,1.617725
97.137451,739.105225,502.990723,1.618477
98.510742,738.739014,501.159668,1.619219
115.814209,753.570557,490.722656,1.619961
117.462158,760.711670,488.433838,1.620703
134.490967,753.753662,485.778809,1.621452
134.033203,744.232178,494.293213,1.622201
124.969482,741.943359,486.419678,1.622946
128.631592,745.788574,484.222412,1.623690
128.997803,747.161865,485.778809,1.624456
133.300781,748.168945,478.088379,1.625201
129.638672,751.281738,476.165771,1.625945
131.011963,754.760742,446.685791,1.626688
124.237061,759.796143,464.538574,1.627432
124.145508,781.585693,468.017578,1.628165
110.595703,782.958984,467.468262,1.628897
71.777344,789.001465,468.292236,1.629629
86.151123,800.903320,462.615967,1.630383
70.678711,817.016602,446.319580,1.631127
64.453125,823.974609,453.186035,1.631870
63.812256,830.474854,460.144043,1.632613
33.508301,833.312988,460.693359,1.633366
41.839600,837.066650,462.066650,1.634110
51.818848,846.130371,467.285156,1.634853
44.494629,855.468750,474.243164,1.635600
45.043945,875.701904,475.158691,1.636406
43.487549,896.026611,492.004395,1.637170
39.001465,897.033691,497.589111,1.637914
37.811279,906.005859,508.209229,1.638657
28.564453,912.139893,501.434326,1.639409
20.965576,922.393799,507.019043,1.640152
14.465332,933.654785,506.378174,1.640895
-17.303467,932.556152,490.631104,1.641639
-14.465332,923.583984,482.940674,1.642392
-22.155762,944.000244,483.581543,1.643136
-14.831543,947.845459,483.123779,1.643879
-31.311035,960.021973,484.863281,1.644623
-33.233643,982.269287,498.321533,1.645376
-36.163330,981.628418,535.217285,1.646188
-41.931152,1002.593994,532.012939,1.646933
-52.185059,1026.123047,557.464600,1.647677
-54.107666,1026.397705,572.845459,1.648423
-62.164307,1040.863037,586.761475,1.649213
-66.925049,1054.779053,590.057373,1.649948
-66.650391,1055.786133,585.296631,1.650681
-71.868896,1066.772461,591.888428,1.651438
-83.129883,1064.483643,587.127686,1.652181
-87.158203,1076.751709,587.127686,1.652923
-84.777832,1078.399658,583.465576,1.653665
-78.552246,1073.364258,576.873779,1.654417
-82.855225,1084.167480,583.374023,1.655160
-84.960938,1077.484131,579.437256,1.655902
-82.580566,1087.554932,590.423584,1.656645
-82.763672,1085.998535,577.697754,1.657398
-91.827393,1083.801270,585.021973,1.658141
-93.017578,1090.209961,577.056885,1.658883
-87.066650,1093.872070,572.113037,1.659625
-88.623047,1087.738037,572.479248,1.660389
-99.426270,1088.378906,571.929932,1.661177
-95.672607,1090.301514,568.817139,1.661936
-95.214844,1091.674805,565.429688,1.662736
-96.588135,1090.576172,561.676025,1.663490
-97.686768,1085.449219,550.323486,1.664277
-82.305908,1089.935303,543.090820,1.665034
-80.383301,1090.118408,536.224365,1.665807
-81.207275,1096.343994,521.942139,1.666590
-76.354980,1093.231201,524.780273,1.667400
-62.896729,1091.125488,525.604248,1.668159
-65.734863,1097.167969,530.456543,1.668975
-70.770264,1090.209961,539.154053,1.669730
-71.319580,1088.928223,539.611816,1.670484
-66.284180,1096.893311,543.182373,1.671282
-61.798096,1086.914062,541.168213,1.672070
-65.551758,1094.879150,546.112061,1.672818
-59.417725,1081.420898,538.604736,1.673732
-57.861328,1078.765869,534.301758,1.674623
-47.058105,1066.864014,531.188965,1.675417
-41.198730,1056.701660,535.858154,1.676198
-38.543701,1049.926758,527.435303,1.676935
-25.268555,1050.201416,518.554688,1.677720
-26.000977,1044.342041,524.597168,1.678463
-23.254395,1039.855957,517.822266,1.679196
-13.824463,1038.391113,511.871338,1.679929
-10.528564,1026.214600,502.807617,1.680680
-5.767822,1015.960693,501.434326,1.681413
-5.767822,1011.749268,496.673584,1.682145
1.098633,1005.432129,487.701416,1.682880
0.915527,998.382568,479.278564,1.683631
-5.859375,968.994141,458.312988,1.684366
10.253906,982.727051,456.665039,1.685098
5.493164,971.466064,442.474365,1.685830
8.056641,960.296631,443.664551,1.686573
16.113281,953.521729,439.819336,1.687305
13.549805,945.373535,430.297852,1.688037
25.177002,944.824219,427.825928,1.688770
29.296875,933.654785,424.621582,1.689531
20.507812,929.718018,414.642334,1.690275
29.205322,919.006348,413.818359,1.691019
35.156250,918.823242,416.015625,1.691764
45.227051,925.323486,408.782959,1.692517
69.854736,929.901123,398.254395,1.693261
63.720703,923.675537,401.367188,1.694004
43.670654,889.068604,394.226074,1.694748
40.466309,875.335693,396.057129,1.695500
37.902832,870.117188,390.747070,1.696244
68.115234,862.335205,378.021240,1.696987
50.720215,861.053467,370.239258,1.697730
54.748535,848.602295,367.126465,1.698484
59.783936,843.475342,364.746094,1.699228
50.170898,835.144043,361.999512,1.699971
43.762207,817.565918,352.569580,1.700714
34.698486,811.340332,330.230713,1.701469
32.409668,803.833008,343.322754,1.702202
24.353027,787.902832,323.547363,1.702935
12.817383,787.261963,324.737549,1.703667
42.572021,781.494141,311.645508,1.704421
27.282715,783.599854,302.124023,1.705165
23.803711,769.683838,293.243408,1.705907
24.993896,755.767822,285.003662,1.706651
34.423828,758.605957,270.812988,1.707404
25.360107,736.999512,251.495361,1.708147
33.599854,741.577148,250.305176,1.708891
26.275635,741.302490,229.156494,1.709634
30.487061,740.478516,212.677002,1.710390
40.466309,733.428955,210.113525,1.711133
34.606934,744.415283,187.500000,1.711876
17.944336,753.387451,181.457520,1.712646
24.536133,754.943848,176.147461,1.713405
1.556396,740.295410,178.436279,1.714148
3.021240,743.041992,179.534912,1.714891
4.577637,737.915039,184.204102,1.715684
-2.655029,722.351074,181.640625,1.716438
-7.598877,718.322754,171.203613,1.717182
-5.218506,699.462891,160.491943,1.717925
-6.591797,696.716309,140.716553,1.718668
-3.662109,670.806885,132.110596,1.719421
4.760742,679.046631,123.962402,1.720248
-1.647949,666.687012,126.708984,1.720992
12.176514,662.567139,142.181396,1.721735
20.965576,664.306641,146.392822,1.722490
21.789551,675.750732,133.117676,1.723234
3.570557,704.864502,111.877441,1.723978
13.549805,728.668213,101.165771,1.724721
9.796143,733.612061,96.954346,1.725474
12.084961,711.822510,108.398438,1.726217
21.606445,706.787109,115.905762,1.726960
14.282227,740.478516,107.299805,1.727704
16.662598,765.747070,79.925537,1.728457
4.394531,755.493164,93.383789,1.729200
5.401611,727.294922,92.559814,1.729943
7.507324,724.090576,100.982666,1.730686
13.183594,724.273682,100.341797,1.731438
15.930176,749.176025,86.700439,1.732182
8.056641,774.902344,73.150635,1.732926
6.317139,754.943848,62.988281,1.733669
8.056641,751.922607,80.841064,1.734423
23.895264,764.739990,61.523438,1.735167
10.070801,816.650391,40.557861,1.735911
19.500732,791.564941,33.691406,1.736654
-40.191650,746.429443,71.411133,1.737415
-73.608398,747.253418,41.198730,1.738158
-110.504150,816.101074,4.669189,1.738901
-140.075684,868.011475,-36.346436,1.739658
-169.281006,901.062012,-38.177490,1.740433
-216.156006,878.723145,-18.676758,1.741242
-187.500000,946.472168,-56.671143,1.741993
-224.853516,970.275879,-72.692871,1.742737
-265.960693,1020.355225,-54.840088,1.743501
-251.403809,1090.942383,-64.819336,1.744245
-255.249023,1109.069824,-69.763184,1.744988
-242.797852,1097.808838,-54.565430,1.745732
-227.508545,1055.786133,-3.204346,1.746485
-151.611328,1067.687988,6.866455,1.747228
-172.302246,1126.281738,24.902344,1.747972
-213.775635,1126.464844,15.472412,1.748745
-147.766113,1103.851318,138.702393,1.749551
-96.313477,1068.695068,165.161133,1.750305
-82.214355,1050.476074,226.043701,1.751106
14.373779,1061.187744,305.236816,1.751857
20.141602,1066.223145,387.542725,1.752601
45.684814,1075.103760,391.113281,1.753345
60.333252,1076.019287,429.016113,1.754092
47.241211,1075.195312,432.495117,1.754836
34.332275,1062.744141,443.481445,1.755579
17.669678,992.797852,584.014893,1.756323
-136.047363,1073.913574,686.737061,1.757080
-95.031738,1045.074463,715.942383,1.757829
-16.571045,1053.405762,699.829102,1.758572
-186.492920,1045.440674,700.469971,1.759316
-68.847656,1056.610107,625.854492,1.760060
-105.651855,1086.273193,585.205078,1.760804
-177.154541,1059.814453,496.307373,1.761547
-71.502686,1062.561035,482.940674,1.762290
-141.906738,1054.779053,425.079346,1.763034
-114.440918,1041.412354,303.955078,1.763778
-129.913330,1010.559082,264.678955,1.764521
-119.750977,961.486816,137.603760,1.765264
-96.954346,950.958252,87.432861,1.766007
-105.377197,1086.456299,-33.691406,1.766751
-19.500732,1125.366211,-176.513672,1.767494
-188.598633,1085.906982,-97.686768,1.768238
-136.322021,990.142822,-59.600830,1.768981
28.930664,1016.876221,-90.545654,1.769745
-144.378662,1066.864014,-123.413086,1.770489
-93.017578,1089.385986,-86.883545,1.771233
-49.346924,1201.171875,-2.105713,1.771984
-64.178467,1188.446045,59.875488,1.772737
158.752441,1199.157715,27.282715,1.773480
124.969482,1209.594727,9.613037,1.774224
-31.127930,1207.946777,16.662598,1.774967
-120.941162,1194.488525,16.845703,1.775720
12.542725,1149.444580,8.605957,1.776453
156.005859,1179.656982,35.522461,1.777185
143.646240,1223.785400,-9.979248,1.777918
-177.062988,1373.199463,50.720215,1.778650
-821.960449,1265.258789,74.249268,1.779404
-502.716064,1279.632568,61.340332,1.780148
-326.385498,1278.350830,92.376709,1.780891
-250.762939,1293.090820,171.203613,1.781635
-238.220215,1280.639648,220.550537,1.782464
-239.227295,1280.273438,234.191895,1.783227
-53.192139,1269.012451,234.283447,1.783990
-39.733887,1232.849121,271.179199,1.784749
-102.630615,1260.314941,288.665771,1.785529
2.105713,1301.696777,311.828613,1.786284
-31.402588,1351.959229,375.549316,1.787032
-57.769775,1350.219727,412.994385,1.787821
-134.765625,1339.508057,452.270508,1.788585
-101.257324,1321.014404,502.716064,1.789346
10.711670,1322.937012,544.189453,1.790103
-145.202637,1307.556152,604.431152,1.790881
-119.567871,1310.852051,637.664795,1.791628
-19.775391,1300.598145,643.615723,1.792371
-46.875000,1278.167725,655.975342,1.793202
-61.706543,1280.639648,678.405762,1.793966
-35.797119,1264.251709,670.623779,1.794710
127.624512,1220.489502,678.405762,1.795455
228.149414,1159.332275,745.880127,1.796198
78.735352,1122.894287,851.623535,1.797006
-2.838135,1229.827881,842.376709,1.797751
-35.705566,1286.315918,815.551758,1.798494
-24.536133,1268.371582,721.801758,1.799237
-29.571533,1324.951172,640.594482,1.799990
-11.993408,1338.958740,610.473633,1.800734
45.135498,1361.480713,565.979004,1.801477
-15.655518,1372.467041,544.006348,1.802220
65.002441,1400.482178,523.223877,1.802974
79.284668,1390.136719,506.195068,1.803717
35.980225,1382.263184,499.145508,1.804461
79.010010,1382.904053,499.053955,1.805204
102.081299,1373.199463,495.666504,1.805957
107.391357,1321.929932,501.342773,1.806701
112.518311,1296.752930,517.456055,1.807495
120.117188,1290.710449,521.209717,1.808240
120.666504,1274.780273,507.202148,1.808996
136.322021,1266.357422,495.941162,1.809740
143.920898,1271.392822,489.074707,1.810483
172.119141,1281.829834,482.940674,1.811226
169.830322,1244.201660,487.976074,1.811980
155.273438,1227.355957,448.059082,1.812803
157.104492,1209.869385,450.531006,1.813552
169.464111,1181.213379,427.551270,1.814314
165.893555,1155.303955,414.184570,1.815098
175.781250,1138.183594,405.303955,1.815893
186.401367,1122.528076,378.570557,1.816641
190.521240,1117.950439,352.661133,1.817385
158.660889,1083.435059,336.639404,1.818150
183.563232,1055.053711,295.898438,1.818894
173.126221,1056.243896,282.257080,1.819638
159.393311,1042.510986,248.657227,1.820381
153.625488,1019.073486,218.811035,1.821135
150.146484,1011.566162,192.901611,1.821879
123.138428,1003.875732,147.766113,1.822622
139.709473,1002.502441,126.434326,1.823365
133.483887,986.480713,95.855713,1.824118
134.033203,961.853027,64.727783,1.824862
129.455566,972.656250,28.564453,1.825672
109.313965,951.965332,11.535645,1.826432
104.553223,931.549072,-17.395020,1.827224
92.102051,911.041260,-55.389404,1.827974
88.165283,914.978027,-113.342285,1.828717
79.559326,902.984619,-103.729248,1.829484
77.362061,885.864258,-128.631592,1.830232
73.883057,879.730225,-145.111084,1.830977
59.234619,864.898682,-175.140381,1.831720
59.600830,859.130859,-191.253662,1.832464
45.501709,854.461670,-198.669434,1.833208
41.473389,846.130371,-213.409424,1.833951
48.339844,855.010986,-226.318359,1.834694
41.381836,850.891113,-266.967773,1.835438
28.015137,837.341309,-289.764404,1.836181
21.057129,848.785400,-293.151855,1.836925
17.761230,846.588135,-288.665771,1.837668
25.726318,848.052979,-299.743652,1.838416
31.860352,846.313477,-295.257568,1.839150
31.860352,846.496582,-305.694580,1.839883
15.747070,857.574463,-304.229736,1.840617
23.345947,866.088867,-291.778564,1.841372
16.021729,864.257812,-264.587402,1.842117
17.120361,877.807617,-262.847900,1.842861
20.965576,896.850586,-256.530762,1.843604
18.585205,900.970459,-260.650635,1.844348
27.191162,911.956787,-259.918213,1.845091
23.895264,921.844482,-277.313232,1.845835
16.845703,927.429199,-253.967285,1.846579
10.162354,932.556152,-237.670898,1.847322
22.613525,933.837891,-218.170166,1.848065
23.620605,951.690674,-195.556641,1.848809
31.677246,945.007324,-165.161133,1.849552
23.437500,955.902100,-149.322510,1.850306
40.191650,999.664307,-129.364014,1.851050
34.790039,999.572754,-108.856201,1.851793
51.269531,980.804443,-89.172363,1.852536
35.247803,977.874756,-58.410645,1.853288
55.572510,997.650146,-51.910400,1.854021
77.545166,1020.080566,-5.310059,1.854754
57.952881,1031.616211,7.781982,1.855487
87.066650,1078.125000,24.444580,1.856221
83.496094,1089.202881,87.524414,1.856966
21.148682,1125.457764,119.110107,1.857710
19.409180,1133.789062,186.309814,1.858453
-37.078857,1144.500732,215.423584,1.859197
-117.187500,1136.077881,247.924805,1.859950
-132.843018,1146.697998,263.488770,1.860694
-206.909180,971.923828,380.950928,1.861437
-619.445801,1038.574219,980.712891,1.862181
897.583008,1071.716309,525.878906,1.862935
-96.038818,1100.555420,155.639648,1.863679
-638.214111,1153.198242,858.764648,1.864422
-209.747314,1313.049316,975.769043,1.865166
-193.084717,1447.174072,1035.461426,1.866004
-306.610107,1472.442627,935.119629,1.866749
171.295166,1521.423340,846.405029,1.867492
190.429688,1450.378418,766.937256,1.868235
202.239990,1408.905029,712.646484,1.868989
308.624268,1381.988525,619.903564,1.869733
187.591553,1355.529785,572.387695,1.870477
21.697998,1257.659912,545.196533,1.871220
30.120850,1237.792969,414.459229,1.871974
35.797119,1198.333740,352.752686,1.872718
68.023682,1142.303467,241.058350,1.873461
64.178467,1086.547852,131.652832,1.874247
49.804688,1071.807861,69.763184,1.874992
68.298340,1014.221191,-14.282227,1.875736
48.065186,988.952637,-104.187012,1.876479
55.206299,934.661865,-117.095947,1.877231
28.106689,916.809082,-167.816162,1.877975
33.416748,914.886475,-182.098389,1.878719
-2.014160,885.864258,-184.936523,1.879539
9.429932,875.244141,-196.289062,1.880285
-35.430908,868.835449,-213.409424,1.881084
-53.283691,840.545654,-232.543945,1.881829
-65.460205,809.143066,-280.242920,1.882572
-87.615967,811.523438,-305.877686,1.883317
-130.554199,782.684326,-346.893311,1.884060
-151.153564,770.324707,-389.556885,1.884804
-150.787354,733.703613,-383.148193,1.885543
-88.348389,761.901855,-390.472412,1.886283
126.983643,756.683350,-392.944336,1.887042
228.790283,737.274170,-390.655518,1.887793
208.465576,700.927734,-463.439941,1.888590
124.237061,663.299561,-504.638672,1.889365
-7.965088,671.630859,-551.147461,1.890181
-3.662109,670.623779,-581.176758,1.890926
22.338867,679.138184,-626.953125,1.891670
346.710205,652.862549,-629.791260,1.892519
287.109375,636.383057,-590.972900,1.893288
-108.856201,614.318848,-581.542969,1.894041
-308.349609,611.206055,-540.618896,1.894857
-269.989014,601.684570,-582.916260,1.895606
-106.475830,582.275391,-615.600586,1.896349
-12.359619,565.246582,-681.976318,1.897091
-23.162842,556.732178,-746.063232,1.897834
-345.886230,622.558594,-718.688965,1.898577
-539.978027,626.037598,-599.945068,1.899320
-221.282959,649.383545,-566.070557,1.900064
565.795898,743.682861,-549.224854,1.900816
677.398682,767.303467,-583.923340,1.901639
245.361328,757.324219,-596.191406,1.902385
-122.772217,709.075928,-644.622803,1.903140
-105.743408,741.394043,-636.291504,1.903887
76.629639,748.443604,-617.340088,1.904631
39.916992,763.000488,-640.686035,1.905375
-158.752441,757.324219,-630.981445,1.906119
-437.713623,771.148682,-574.768066,1.906863
-866.363525,915.527344,-275.024414,1.907607
-258.544922,924.407959,-14.739990,1.908350
456.939697,999.572754,141.357422,1.909094
310.455322,1083.068848,91.918945,1.909838
49.987793,1123.260498,34.240723,1.910581
9.338379,1028.137207,-74.340820,1.911325
344.879150,1007.537842,-85.418701,1.912068
394.226074,1003.509521,-171.478271,1.912812
268.341064,1013.488770,-258.270264,1.913556
-68.298340,1139.831543,-187.133789,1.914299
250.396729,964.874268,192.810059,1.915042
626.129150,915.985107,209.289551,1.915794
-370.971680,1096.893311,139.709473,1.916538
-357.788086,1117.950439,-33.508301,1.917281
707.153320,1128.021240,-123.596191,1.918024
981.903076,1168.304443,-267.974854,1.918768
438.995361,1143.859863,-337.738037,1.919511
-125.976562,1049.377441,-435.699463,1.920254
-18.310547,1026.031494,-626.953125,1.920997
326.385498,979.339600,-764.831543,1.921740
-0.915527,859.771729,-574.951172,1.922484
-673.278809,831.207275,-311.645508,1.923218
165.435791,940.612793,-156.372070,1.923952
424.346924,1054.962158,-177.154541,1.924685
491.638184,1076.019287,-242.889404,1.925447
426.177979,1008.911133,-365.753174,1.926189
168.914795,1013.488770,-423.522949,1.926931
-56.121826,995.178223,-615.600586,1.927673
78.918457,1008.270264,-693.603516,1.928426
1616.363525,1024.200439,-501.434326,1.929168
1871.612549,772.430420,-505.096436,1.929910
-226.318359,643.798828,-443.939209,1.930652
-1751.129150,806.671143,-224.121094,1.931429
-1861.999512,961.669922,-367.492676,1.932195
-958.557129,1190.185547,455.017090,1.932938
2987.365723,2999.908447,2999.908447,1.933680
2999.908447,2999.908447,2999.908447,1.934432
-706.787109,2999.908447,2713.623047,1.935175
-1083.160400,1682.464600,-1485.717773,1.935917
-129.913330,563.507080,-1667.358398,1.936789
-619.903564,165.893555,-1932.312012,1.937533
-392.669678,693.054199,-935.852051,1.938275
383.056641,1076.934814,-201.690674,1.939017
581.726074,1585.144043,777.740479,1.939867
587.951660,1653.442383,723.632812,1.940612
500.061035,1442.962646,-225.585938,1.941355
226.776123,953.155518,-516.082764,1.942097
100.067139,862.792969,-379.028320,1.942840
10.345459,923.217773,-182.739258,1.943582
-253.601074,857.025146,-313.110352,1.944324
-813.446045,870.117188,-616.058350,1.945066
-1808.349609,876.251221,-568.908691,1.945815
-1970.031738,971.923828,-149.688721,1.946557
-1532.775879,1083.343506,264.038086,1.947352
-255.889893,1229.278564,166.351318,1.948095
135.406494,1087.921143,-217.163086,1.948838
425.903320,1012.115479,-313.842773,1.949580
305.603027,950.225830,-415.740967,1.950322
85.876465,938.964844,-493.469238,1.951064
-191.253662,935.302734,-473.052979,1.951806
-163.330078,940.612793,-352.478027,1.952547
-66.375732,973.480225,-286.560059,1.953289
73.242188,1009.002686,-179.443359,1.954031
100.799561,1006.805420,-323.455811,1.954774
52.185059,942.169189,-392.120361,1.955516
52.551270,911.773682,-445.678711,1.956259
-20.965576,951.232910,-354.766846,1.957001
36.621094,1060.272217,-163.787842,1.957743
67.474365,1101.654053,-36.071777,1.958486
175.506592,1132.873535,-26.367188,1.959230
196.929932,1111.541748,-96.313477,1.959984
194.458008,1113.189697,-133.483887,1.960750
224.395752,1113.189697,-75.622559,1.961503
290.954590,1117.858887,-54.016113,1.962246
270.446777,1126.098633,-70.312500,1.962988
175.872803,1122.070312,-90.545654,1.963731
116.088867,1116.943359,-33.599854,1.964473
44.860840,1125.274658,-28.656006,1.965215
12.359619,1120.788574,-79.376221,1.965956
1.281738,1088.562012,-192.626953,1.966754
-22.155762,1087.921143,-267.791748,1.967499
-15.747070,1057.250977,-361.907959,1.968241
21.972656,1043.975830,-359.710693,1.968983
114.074707,1044.616699,-326.477051,1.969726
143.920898,1049.011230,-317.962646,1.970468
153.717041,1029.968262,-341.491699,1.971210
100.616455,965.148926,-399.902344,1.971953
43.945312,940.155029,-424.255371,1.972695
-27.008057,912.231445,-432.403564,1.973437
-45.318604,941.436768,-387.084961,1.974182
-24.353027,956.451416,-364.013672,1.974925
56.579590,975.311279,-331.604004,1.975667
82.214355,982.452393,-331.420898,1.976409
105.194092,961.486816,-365.478516,1.977151
111.419678,950.958252,-385.711670,1.977893
102.264404,921.478271,-372.161865,1.978661
101.989746,929.534912,-363.739014,1.979438
74.249268,935.211182,-349.365234,1.980187
21.514893,939.971924,-335.723877,1.980980
-2.838135,940.979004,-363.189697,1.981751
-15.655518,920.471191,-393.585205,1.982489
3.845215,904.998779,-413.452148,1.983221
46.691895,919.464111,-413.177490,1.983953
71.868896,940.612793,-392.395020,1.984710
88.348389,944.366455,-421.234131,1.985452
109.680176,918.640137,-409.698486,1.986194
121.307373,900.238037,-407.684326,1.986935
112.701416,912.597656,-400.268555,1.987687
73.425293,933.105469,-403.839111,1.988429
50.079346,946.197510,-404.846191,1.989171
13.641357,961.029053,-399.261475,1.989913
10.070801,976.501465,-378.479004,1.990664
24.261475,974.121094,-375.915527,1.991406
65.185547,958.190918,-369.598389,1.992148
93.292236,957.092285,-381.500244,1.992890
120.941162,958.099365,-394.683838,1.993640
125.976562,989.318848,-383.697510,1.994443
88.806152,1013.763428,-377.838135,1.995231
63.720703,1007.720947,-383.514404,1.995977
48.614502,1013.397217,-364.013672,1.996737
48.522949,1035.095215,-350.921631,1.997481
14.831543,1049.926758,-349.548340,1.998225
-2.380371,1054.687500,-357.147217,1.998968
-1.098633,1048.187256,-387.817383,1.999722
42.022705,1030.975342,-379.028320,2.000465
66.009521,1044.433594,-353.759766,2.001209
131.011963,1050.567627,-346.069336,2.001952
108.398438,1084.899902,-349.456787,2.002708
58.135986,1078.308105,-346.069336,2.003452
-4.302979,1051.300049,-331.695557,2.004195
-1.647949,1049.743652,-346.710205,2.004938
-10.803223,1076.293945,-352.752686,2.005691
-43.945312,1099.456787,-344.512939,2.006434
-42.022705,1100.646973,-325.378418,2.007177
-13.275146,1091.583252,-338.745117,2.007920
44.677734,1051.391602,-378.662109,2.008746
74.981689,1046.905518,-381.774902,2.009480
79.833984,1081.329346,-363.830566,2.010213
38.360596,1092.498779,-332.702637,2.010947
-10.345459,1092.498779,-335.815430,2.011701
-8.514404,1089.660645,-370.330811,2.012445
-6.958008,1083.160400,-374.084473,2.013188
-12.359619,1124.908447,-349.182129,2.013930
-35.614014,1130.584717,-349.822998,2.014684
-24.627686,1113.647461,-354.766846,2.015428
1.831055,1087.188721,-362.915039,2.016171
-1.739502,1076.568604,-381.866455,2.016914
46.142578,1071.258545,-383.697510,2.017765
21.057129,1090.576172,-385.803223,2.018538
-7.049561,1092.407227,-357.421875,2.019288
-35.797119,1089.294434,-366.577148,2.020031
-61.614990,1062.561035,-412.170410,2.020799
-57.312012,1048.461914,-401.184082,2.021542
-61.431885,1058.532715,-389.923096,2.022286
-50.811768,1065.490723,-395.874023,2.023029
-59.417725,1066.131592,-399.627686,2.023783
-56.030273,1051.391602,-385.162354,2.024526
-44.494629,1029.876709,-430.938721,2.025270
-35.980225,998.474121,-473.602295,2.026013
-31.677246,1022.369385,-417.297363,2.026766
-39.550781,1036.010742,-399.810791,2.027510
-68.939209,1017.059326,-393.310547,2.028254
-80.200195,995.178223,-399.536133,2.028997
-55.023193,947.845459,-431.213379,2.029751
-51.910400,939.697266,-456.848145,2.030509
-53.192139,954.345703,-432.952881,2.031261
-37.170410,1001.770020,-370.147705,2.032058
-56.396484,993.713379,-378.112793,2.032808
-64.727783,945.556641,-413.726807,2.033552
-14.282227,924.316406,-426.452637,2.034296
8.422852,934.936523,-413.818359,2.035039
5.035400,968.078613,-370.330811,2.035802
-65.551758,991.973877,-388.092041,2.036546
-113.983154,954.437256,-397.247314,2.037289
-91.644287,939.147949,-402.557373,2.038140
-17.578125,945.007324,-419.952393,2.038902
-18.585205,952.514648,-409.698486,2.039677
-15.655518,950.042725,-405.487061,2.040428
0.183105,943.634033,-435.241699,2.041197
11.535645,914.337158,-445.129395,2.041942
40.557861,928.619385,-421.234131,2.042686
19.409180,954.345703,-419.128418,2.043429
-22.613525,963.226318,-411.987305,2.044182
-33.416748,957.000732,-422.882080,2.044926
-6.225586,963.134766,-411.621094,2.045671
-27.374268,965.240479,-429.931641,2.046416
-59.600830,959.930420,-432.128906,2.047174
-10.345459,933.929443,-426.177979,2.047918
35.064697,886.505127,-458.953857,2.048661
46.508789,881.835938,-462.158203,2.049405
43.029785,893.005371,-430.206299,2.050161
44.860840,913.055420,-424.713135,2.050905
10.803223,939.514160,-424.987793,2.051648
-10.528564,982.177734,-422.790527,2.052391
-39.093018,968.170166,-441.101074,2.053142
-43.304443,933.013916,-449.066162,2.053886
21.240234,925.781250,-441.101074,2.054630
106.567383,914.428711,-449.890137,2.055373
96.588135,901.794434,-462.615967,2.056117
51.269531,910.217285,-456.573486,2.056861
57.403564,924.041748,-451.354980,2.057604
56.854248,937.042236,-424.804688,2.058347
58.959961,957.183838,-428.009033,2.059091
77.453613,1000.305176,-438.354492,2.059834
32.592773,991.882324,-439.361572,2.060578
15.472412,968.353271,-453.735352,2.061321
79.742432,964.508057,-449.066162,2.062075
153.350830,938.964844,-462.890625,2.062819
142.730713,929.718018,-444.488525,2.063562
100.708008,946.380615,-418.212891,2.064305
92.285156,964.416504,-420.959473,2.065042
82.122803,969.543457,-425.537109,2.065775
99.060059,972.106934,-413.909912,2.066508
99.060059,986.022949,-407.501221,2.067240
99.700928,987.670898,-419.036865,2.068049
102.172852,994.812012,-407.135010,2.068796
111.968994,967.803955,-423.156738,2.069540
114.074707,970.458984,-423.797607,2.070283
106.658936,972.473145,-430.847168,2.071027
131.835938,975.402832,-426.177979,2.071770
130.187988,979.064941,-441.375732,2.072513
135.772705,982.177734,-438.079834,2.073256
136.322021,972.656250,-440.643311,2.074000
135.772705,959.747314,-449.798584,2.074744
121.490479,962.768555,-430.664062,2.075544
134.948730,971.557617,-401.641846,2.076367
132.293701,954.071045,-424.896240,2.077131
135.681152,956.726074,-424.346924,2.077875
132.110596,954.345703,-428.192139,2.078618
117.095947,952.697754,-419.036865,2.079362
122.406006,954.803467,-424.530029,2.080207
139.434814,952.880859,-424.530029,2.080951
142.547607,949.035645,-432.037354,2.081694
137.969971,943.176270,-431.030273,2.082430
141.906738,941.528320,-425.354004,2.083189
130.828857,931.549072,-431.304932,2.083932
138.336182,934.387207,-437.805176,2.084676
138.977051,926.055908,-439.453125,2.085419
134.582520,922.851562,-436.889648,2.086172
128.173828,921.386719,-448.150635,2.086916
133.758545,918.731689,-452.453613,2.087660
138.977051,918.548584,-440.368652,2.088403
129.089355,905.273438,-463.439941,2.089156
134.857178,907.379150,-470.672607,2.089900
128.906250,895.019531,-469.482422,2.090643
128.631592,899.780273,-478.271484,2.091387
142.364502,893.096924,-486.602783,2.092141
118.377686,905.181885,-488.983154,2.092884
110.137939,904.083252,-489.898682,2.093627
112.152100,912.872314,-484.222412,2.094371
101.806641,914.062500,-480.560303,2.095114
95.855713,920.745850,-481.567383,2.095857
94.573975,903.808594,-481.018066,2.096601
80.291748,917.724609,-476.165771,2.097344
67.932129,928.985596,-471.588135,2.098097
76.354980,930.908203,-461.334229,2.098841
60.241699,938.415527,-446.594238,2.099584
