ACC_X,ACC_Y,ACC_Z,Time
-96.496582,913.787842,381.500244,1.202676
-102.081299,911.132812,378.662109,1.203426
-99.060059,910.217285,371.429443,1.204168
-104.003906,914.245605,374.359131,1.204912
-106.109619,920.471191,379.394531,1.205659
-105.651855,909.759521,351.928711,1.206445
-103.729248,912.506104,375.274658,1.207203
-103.820801,911.773682,382.965088,1.20796
-99.700928,914.245605,380.67627,1.208714
-92.285156,919.0979,377.197266,1.209505
-91.461182,912.04834,380.401611,1.210267
-99.609375,909.667969,382.69043,1.211015
-101.348877,911.04126,384.429932,1.211757
-103.271484,912.506104,377.746582,1.212528
-105.194092,913.787842,370.330811,1.213275
-107.299805,910.03418,379.302979,1.214016
-104.736328,903.991699,378.112793,1.214758
-105.010986,915.344238,378.387451,1.215508
-100.708008,913.879395,379.119873,1.216249
-100.708008,920.288086,377.471924,1.21699
-103.363037,918.914795,385.070801,1.217732
-97.503662,924.133301,377.929688,1.218482
-101.898193,925.231934,381.134033,1.219224
-98.968506,924.591064,387.359619,1.219966
-98.236084,935.48584,388.549805,1.220707
-107.025146,929.534912,397.521973,1.221457
-105.377197,929.168701,386.901855,1.222199
-108.306885,929.351807,388.092041,1.22294
-114.898682,931.182861,385.986328,1.223681
-112.884521,923.492432,383.789062,1.224432
-111.694336,922.119141,380.310059,1.225257
-111.785889,917.816162,374.633789,1.225999
-106.109619,914.520264,393.493652,1.22674
-105.834961,913.05542,367.675781,1.227491
-106.018066,918.457031,369.598389,1.228232
-108.398438,914.794922,372.711182,1.228973
-105.194092,907.745361,364.837646,1.229714
-106.933594,912.506104,368.225098,1.230464
-109.313965,914.978027,364.837646,1.231205
-99.79248,909.484863,356.231689,1.231947
-106.292725,906.005859,361.26709,1.232688
-107.849121,912.597656,360.992432,1.233439
-109.405518,916.259766,367.034912,1.23418
-119.750977,911.315918,364.929199,1.234921
-117.645264,912.689209,369.9646,1.235662
-118.652344,913.696289,393.218994,1.236413
-116.271973,918.548584,376.556396,1.237155
-116.363525,912.872314,381.317139,1.237896
-120.117188,910.583496,386.901855,1.238637
-114.532471,919.006348,380.126953,1.239388
-104.553223,910.766602,375.640869,1.24013
-107.574463,911.224365,377.288818,1.240871
-107.299805,918.914795,374.816895,1.241611
-104.827881,915.435791,370.239258,1.242362
-106.47583,910.675049,375.915527,1.243104
-106.567383,915.161133,373.443604,1.243845
-106.933594,912.689209,374.725342,1.244586
-105.651855,909.210205,371.612549,1.245344
-108.947754,908.935547,372.436523,1.246097
-105.651855,924.77417,378.662109,1.246862
-105.377197,919.189453,377.105713,1.247613
-102.539062,919.281006,381.134033,1.24838
-93.933105,919.647217,388.549805,1.249128
-98.236084,923.950195,382.232666,1.24987
-88.531494,930.81665,381.500244,1.250611
-89.538574,934.387207,378.295898,1.251361
-95.947266,936.950684,382.507324,1.252103
-97.503662,926.239014,388.275146,1.252844
-73.974609,931.915283,379.943848,1.253586
-98.693848,937.133789,383.422852,1.254339
-106.201172,934.47876,392.852783,1.255081
-96.588135,934.570312,394.226074,1.255822
-107.48291,938.598633,392.944336,1.256563
-99.060059,931.640625,396.331787,1.257314
-106.567383,940.246582,395.965576,1.258056
-94.024658,941.711426,403.656006,1.258797
-98.144531,942.169189,407.226562,1.259538
-93.383789,941.711426,408.782959,1.260289
-98.144531,941.253662,392.944336,1.26103
-103.271484,931.091309,395.233154,1.261771
-101.257324,926.78833,394.958496,1.262513
-101.44043,930.358887,384.70459,1.263265
-96.954346,929.626465,376.922607,1.264007
-103.271484,920.379639,371.246338,1.264748
-101.44043,898.040771,363.189697,1.265489
-110.229492,912.04834,365.203857,1.26624
-109.49707,907.37915,365.29541,1.266981
-114.074707,905.731201,364.837646,1.267722
-108.48999,906.646729,370.880127,1.268463
-106.658936,906.280518,368.591309,1.269213
-101.074219,905.639648,363.28125,1.269955
-105.743408,911.956787,365.020752,1.270696
-104.187012,904.998779,363.555908,1.271438
-109.680176,909.942627,367.950439,1.27219
-106.384277,914.154053,377.746582,1.272932
-112.884521,910.03418,376.922607,1.273673
-107.757568,907.37915,368.865967,1.274414
-98.510742,906.829834,373.901367,1.275165
-109.130859,904.083252,372.344971,1.275907
-106.384277,901.885986,371.612549,1.276648
-109.313965,903.991699,370.239258,1.277389
-115.722656,905.731201,368.133545,1.278139
-109.313965,903.717041,370.697021,1.278881
-104.553223,911.132812,374.450684,1.279622
-96.679688,908.294678,370.056152,1.280365
-101.074219,908.294678,366.943359,1.281119
-101.531982,903.900146,373.352051,1.281861
-106.842041,902.801514,373.901367,1.282603
-110.687256,904.632568,369.598389,1.283344
-107.666016,903.625488,374.176025,1.284093
-109.130859,906.463623,373.99292,1.284833
-105.560303,911.407471,365.203857,1.285573
-110.687256,904.449463,370.239258,1.286313
-113.250732,905.731201,397.705078,1.287062
-115.264893,904.266357,363.647461,1.287802
-110.870361,910.491943,368.591309,1.288542
-118.011475,911.956787,369.9646,1.289281
-112.792969,908.569336,375.0,1.29003
-111.14502,921.844482,378.02124,1.29077
-106.750488,915.710449,378.753662,1.29151
-107.391357,916.351318,379.852295,1.292249
-108.581543,918.914795,377.01416,1.292998
-109.680176,925.140381,389.648438,1.293738
-109.680176,920.288086,382.507324,1.294477
-108.215332,923.309326,389.282227,1.295217
-105.010986,914.703369,376.739502,1.295966
-109.863281,913.05542,383.972168,1.296787
-106.292725,924.133301,385.803223,1.297527
-110.870361,919.830322,386.993408,1.298266
-109.039307,919.006348,391.296387,1.299016
-104.827881,923.126221,383.514404,1.299755
-109.588623,915.710449,377.563477,1.300495
-103.820801,921.203613,376.281738,1.301234
-105.926514,917.175293,380.584717,1.301983
-98.327637,920.654297,380.859375,1.302723
-93.017578,921.295166,383.056641,1.303462
-100.43335,921.386719,378.845215,1.304202
-97.229004,916.717529,368.865967,1.304951
-97.961426,912.231445,373.443604,1.30569
-99.700928,914.0625,382.507324,1.30643
-95.76416,915.06958,377.655029,1.307169
-100.708008,912.04834,378.295898,1.307918
-96.496582,915.06958,373.535156,1.308657
-92.468262,916.07666,373.626709,1.309397
-94.940186,916.351318,370.147705,1.310136
-96.679688,924.77417,371.612549,1.310885
-93.109131,917.266846,377.838135,1.311625
-91.278076,915.802002,354.58374,1.312364
-90.454102,916.07666,374.542236,1.313104
-87.799072,925.140381,382.965088,1.313853
-87.341309,927.886963,375.732422,1.314593
-83.862305,918.182373,377.655029,1.315333
-85.601807,921.936035,376.831055,1.316073
-83.312988,922.668457,387.72583,1.316823
-75.805664,918.914795,381.68335,1.317562
-82.03125,922.393799,382.965088,1.318309
-81.02417,921.386719,388.366699,1.319053
-83.679199,917.08374,381.591797,1.319822
-74.523926,916.351318,389.923096,1.32057
-74.707031,920.379639,381.866455,1.32131
-83.770752,913.421631,375.0,1.322049
-76.263428,913.879395,386.71875,1.322809
-79.01001,915.161133,384.887695,1.323549
-75.622559,913.970947,376.739502,1.324289
-66.558838,912.231445,378.387451,1.325029
-73.699951,896.66748,382.232666,1.32578
-74.066162,914.337158,375.915527,1.32652
-71.136475,917.816162,377.655029,1.327259
-72.143555,909.484863,372.802734,1.327999
-73.425293,904.907227,368.31665,1.328748
-77.636719,902.252197,376.190186,1.329488
-79.284668,906.463623,369.873047,1.330228
-78.735352,910.125732,366.943359,1.330967
-76.904297,909.118652,368.133545,1.331716
-85.601807,911.04126,370.788574,1.332456
-79.193115,903.259277,364.929199,1.333195
-82.855225,900.878906,371.429443,1.333936
-86.05957,907.196045,378.570557,1.334687
-93.566895,909.576416,373.901367,1.335426
-85.235596,905.456543,384.429932,1.336166
-88.07373,912.872314,373.535156,1.336905
-92.010498,905.181885,377.929688,1.337654
-89.630127,904.541016,378.479004,1.338394
-95.947266,907.745361,375.274658,1.339134
-96.405029,911.407471,372.344971,1.339874
-97.137451,905.548096,370.697021,1.340623
-96.496582,905.914307,374.176025,1.341363
-101.44043,906.646729,377.105713,1.342102
-111.419678,907.836914,375.0,1.342841
-104.095459,907.287598,371.337891,1.343589
-102.172852,898.31543,369.873047,1.344329
-109.039307,896.942139,368.95752,1.345069
-108.581543,902.709961,369.232178,1.345808
-103.820801,910.583496,372.436523,1.346557
-100.158691,909.484863,364.471436,1.347297
-106.201172,904.449463,378.662109,1.348037
-106.658936,912.689209,375.640869,1.348777
-115.447998,910.858154,373.260498,1.349527
-106.384277,908.935547,367.126465,1.350267
-103.912354,906.37207,363.372803,1.351007
-105.010986,903.442383,364.929199,1.351746
-103.088379,905.36499,368.133545,1.352495
-107.48291,915.06958,377.929688,1.353235
-104.827881,906.555176,376.190186,1.353974
-101.348877,907.470703,382.049561,1.354714
-106.384277,907.836914,381.134033,1.355464
-106.384277,904.815674,391.387939,1.356205
-103.088379,912.597656,385.345459,1.356948
-102.355957,913.604736,390.197754,1.357706
-94.75708,892.456055,379.577637,1.358479
-96.313477,913.970947,386.352539,1.359221
-95.397949,919.464111,381.04248,1.359961
-99.060059,912.689209,380.0354,1.3607
-98.327637,909.484863,381.408691,1.361449
-97.412109,917.999268,380.401611,1.362189
-98.327637,915.252686,381.591797,1.362929
-95.397949,910.858154,379.486084,1.363669
-92.468262,913.513184,381.866455,1.364418
-90.179443,914.154053,372.161865,1.365158
-90.911865,908.02002,385.437012,1.365898
-84.503174,907.928467,383.331299,1.366638
-82.214355,915.527344,382.415771,1.367387
-81.573486,923.400879,380.218506,1.368126
-81.02417,916.625977,379.669189,1.368962
-82.763672,921.020508,383.972168,1.369702
-84.960938,916.259766,379.577637,1.370453
-86.975098,927.337646,388.549805,1.371193
-85.876465,921.295166,390.472412,1.371932
-83.404541,925.689697,391.204834,1.372671
-84.320068,922.027588,396.057129,1.37342
-81.115723,922.576904,396.057129,1.37416
-96.862793,921.661377,383.331299,1.3749
-80.657959,923.950195,385.528564,1.37564
-88.623047,919.555664,389.648438,1.376388
-91.094971,920.196533,383.972168,1.377128
-87.06665,920.288086,381.774902,1.377867
-90.179443,916.351318,388.916016,1.378607
-85.876465,913.604736,387.451172,1.379355
-89.630127,910.766602,376.098633,1.380095
-92.651367,903.625488,375.549316,1.380835
-115.814209,903.625488,375.457764,1.381575
-92.651367,902.984619,376.098633,1.382324
-95.123291,897.125244,374.267578,1.383064
-89.72168,901.611328,370.422363,1.383804
-95.306396,898.132324,366.485596,1.384543
-96.954346,899.871826,371.795654,1.385292
-91.461182,899.963379,352.478027,1.386032
-91.094971,893.737793,374.542236,1.386771
-95.76416,894.836426,368.408203,1.387511
-93.841553,897.125244,371.246338,1.38826
-90.362549,893.371582,376.373291,1.389
-97.961426,895.568848,366.485596,1.389742
-95.306396,887.695312,363.922119,1.390487
-95.947266,896.392822,369.598389,1.391261
-94.207764,893.096924,370.788574,1.392008
-97.320557,881.835938,373.077393,1.392747
-94.390869,892.456055,374.725342,1.393487
-92.834473,897.399902,376.281738,1.394249
-109.863281,895.568848,371.337891,1.394989
-106.933594,899.32251,373.535156,1.395729
-99.243164,903.076172,377.563477,1.396468
-99.42627,899.139404,370.605469,1.397214
-102.813721,908.935547,379.302979,1.397954
-106.658936,905.090332,376.831055,1.398693
-107.025146,900.238037,370.880127,1.399433
-102.905273,904.266357,378.295898,1.400182
-107.757568,898.864746,376.556396,1.400922
-111.419678,894.470215,373.443604,1.401661
-115.905762,899.505615,376.922607,1.402401
-112.335205,896.942139,366.30249,1.403154
-114.715576,905.273438,376.373291,1.403894
-135.406494,886.505127,371.612549,1.404633
-132.568359,862.609863,382.965088,1.405372
-123.779297,887.237549,374.267578,1.406123
-131.195068,933.380127,354.217529,1.406863
-71.31958,943.359375,368.041992,1.407603
-102.813721,927.062988,380.950928,1.408342
-96.77124,915.985107,392.486572,1.409091
-110.50415,906.646729,389.282227,1.409831
-124.237061,904.907227,390.74707,1.41057
-126.525879,900.054932,401.550293,1.41131
-113.342285,914.428711,373.901367,1.412059
-109.313965,929.626465,357.23877,1.412799
-123.22998,925.598145,356.414795,1.413538
-137.878418,919.921875,366.210938,1.414278
-150.054932,914.886475,361.541748,1.415027
-128.997803,911.499023,367.034912,1.415767
-131.744385,913.879395,372.070312,1.416506
-135.498047,921.295166,376.00708,1.417246
-109.313965,925.506592,388.183594,1.417995
-98.693848,927.79541,389.007568,1.418735
-111.236572,929.351807,389.648438,1.419475
-102.539062,929.80957,406.585693,1.420215
-91.461182,944.000244,401.733398,1.420964
-109.771729,922.576904,392.852783,1.421704
-105.651855,920.379639,386.535645,1.422444
-118.103027,919.830322,384.063721,1.423183
-133.300781,911.773682,376.922607,1.423933
-115.631104,919.281006,354.217529,1.424673
-133.117676,911.682129,372.528076,1.425412
-137.695312,910.03418,375.549316,1.426151
-111.785889,905.639648,376.831055,1.426901
-121.490479,908.203125,375.183105,1.42764
-114.440918,908.935547,371.429443,1.42838
-103.271484,909.118652,366.760254,1.429119
-109.863281,914.886475,369.9646,1.429868
-94.299316,913.787842,361.999512,1.430608
-101.074219,908.569336,366.577148,1.431347
-106.842041,906.188965,367.675781,1.432086
-91.73584,900.604248,362.457275,1.43284
-97.229004,871.856689,353.668213,1.433585
-110.50415,874.786377,365.386963,1.43435
-97.77832,884.399414,366.943359,1.435099
-94.665527,891.357422,335.540771,1.435875
-102.081299,885.864258,362.731934,1.436632
-104.003906,867.004395,356.964111,1.437377
-103.271484,859.771729,357.696533,1.438121
-134.033203,872.314453,364.28833,1.438738
-91.094971,880.096436,366.30249,1.439481
-88.7146,886.138916,366.943359,1.440309
-102.722168,881.561279,366.485596,1.441052
-79.01001,874.603271,357.879639,1.441803
-114.990234,859.680176,365.844727,1.442545
-109.313965,851.989746,360.717773,1.443287
-111.236572,824.249268,360.26001,1.444028
-125.427246,846.405029,361.541748,1.44478
-108.764648,859.039307,357.696533,1.445522
-107.48291,845.581055,328.491211,1.446263
-109.954834,849.243164,348.083496,1.447004
-102.44751,852.813721,340.667725,1.447609
-102.081299,858.764648,339.477539,1.448351
-91.461182,861.968994,347.442627,1.449092
-73.242188,862.060547,342.224121,1.449833
-69.763184,869.476318,349.639893,1.450585
-64.63623,874.969482,347.53418,1.451326
-64.086914,864.624023,348.724365,1.452067
-71.502686,865.722656,343.048096,1.452809
-58.502197,860.229492,341.125488,1.45356
-63.262939,847.595215,336.364746,1.454301
-59.783936,824.157715,327.575684,1.455043
-59.60083,834.686279,318.695068,1.455784
-59.967041,830.657959,324.188232,1.456534
-63.446045,832.855225,323.638916,1.457276
-58.410645,828.277588,327.667236,1.458017
-58.135986,833.129883,323.638916,1.458758
-52.276611,831.848145,322.540283,1.45951
-52.642822,837.432861,323.913574,1.460252
-51.269531,845.489502,310.089111,1.460994
-56.304932,845.76416,315.124512,1.461736
-30.578613,837.524414,320.526123,1.462507
-45.684814,836.791992,317.047119,1.463259
-55.206299,844.848633,315.307617,1.464006
-57.403564,844.848633,322.357178,1.464748
-50.445557,840.545654,317.41333,1.465513
-69.763184,845.214844,305.419922,1.466255
-64.819336,847.412109,306.70166,1.466997
-62.072754,838.165283,308.166504,1.467738
-62.988281,855.285645,313.934326,1.468486
-61.157227,848.419189,305.786133,1.469228
-75.439453,860.046387,309.997559,1.469969
-72.692871,854.553223,317.41333,1.47071
-77.362061,856.750488,317.230225,1.471461
-62.072754,869.934082,313.751221,1.472203
-74.34082,872.497559,345.062256,1.472945
-71.31958,882.659912,346.801758,1.473686
-61.798096,893.188477,366.577148,1.474436
-70.770264,898.040771,374.084473,1.475178
-62.713623,903.991699,401.916504,1.47592
-53.833008,914.611816,402.374268,1.476662
-67.199707,935.028076,394.500732,1.477415
-47.698975,945.007324,412.261963,1.478158
-45.959473,940.52124,409.515381,1.478899
-67.840576,943.267822,406.768799,1.479641
-62.438965,947.296143,410.15625,1.480395
-79.925537,946.105957,412.811279,1.481137
-78.00293,943.725586,406.036377,1.481879
-90.820312,937.957764,413.269043,1.48262
-76.080322,945.373535,419.311523,1.483371
-77.270508,946.563721,421.417236,1.484112
-80.841064,956.085205,424.713135,1.484854
-76.904297,946.929932,415.740967,1.485595
-81.573486,949.951172,419.677734,1.486346
-83.312988,955.810547,418.85376,1.487088
-80.108643,956.176758,424.621582,1.487829
-89.630127,954.071045,421.966553,1.48857
-75.622559,950.592041,416.290283,1.489321
-68.939209,940.704346,427.642822,1.490063
-92.926025,959.289551,433.776855,1.490804
-67.199707,964.691162,441.558838,1.491546
-76.904297,967.987061,430.114746,1.492297
-74.157715,965.881348,436.431885,1.493039
-77.911377,951.23291,422.698975,1.493781
-97.320557,959.014893,418.212891,1.494522
-97.686768,959.93042,403.564453,1.495273
-94.573975,954.437256,403.381348,1.496015
-124.603271,941.619873,401.550293,1.496756
-115.722656,941.986084,382.507324,1.497497
-122.131348,943.725586,394.317627,1.498249
-129.180908,932.647705,377.929688,1.49899
-113.708496,920.654297,379.943848,1.499732
-119.293213,919.006348,380.767822,1.500473
-128.540039,919.189453,374.542236,1.501224
-106.292725,921.112061,357.879639,1.501966
-130.92041,907.287598,357.330322,1.502707
-142.822266,895.385742,355.59082,1.503449
-106.109619,890.716553,349.54834,1.5042
-140.350342,880.279541,349.273682,1.504942
-119.750977,879.180908,335.449219,1.505683
-113.433838,867.004395,330.688477,1.506425
-114.257812,869.659424,326.751709,1.507175
-107.574463,864.349365,313.659668,1.507917
-113.525391,863.616943,310.089111,1.508659
-115.722656,850.891113,298.370361,1.509402
-110.778809,841.094971,294.708252,1.510156
-120.117188,830.108643,300.018311,1.5109
-113.15918,832.855225,297.912598,1.511642
-126.159668,815.002441,296.173096,1.512472
-110.961914,815.368652,296.630859,1.513229
-124.237061,818.206787,291.687012,1.513972
-123.687744,814.178467,295.623779,1.514713
-140.350342,809.326172,291.229248,1.515463
-121.124268,819.213867,299.560547,1.516206
-109.222412,811.798096,290.95459,1.516947
-106.292725,805.755615,291.320801,1.517688
-101.989746,812.805176,288.116455,1.518438
-81.390381,805.297852,289.764404,1.51918
-71.868896,800.90332,292.694092,1.519921
-69.122314,805.114746,291.595459,1.520663
-66.925049,798.614502,298.00415,1.521412
-49.530029,791.656494,305.328369,1.522155
-41.8396,791.19873,301.208496,1.522896
-36.437988,791.290283,299.468994,1.523637
-31.402588,779.47998,307.70874,1.524386
-44.311523,716.217041,313.110352,1.525128
-54.199219,723.358154,328.582764,1.52587
5.126953,737.182617,293.426514,1.526612
-31.402588,739.013672,313.018799,1.527361
-14.190674,722.442627,310.180664,1.528103
-13.549805,692.687988,302.856445,1.528845
-34.057617,692.779541,315.307617,1.529586
-1.190186,700.561523,305.053711,1.530335
-38.635254,712.280273,293.701172,1.531076
68.29834,733.24585,292.144775,1.531818
-52.642822,702.941895,317.230225,1.532559
-0.640869,725.921631,306.610107,1.533304
35.064697,756.866455,289.123535,1.534053
0.915527,784.423828,282.897949,1.534807
43.579102,798.156738,243.896484,1.535554
-2.197266,806.121826,246.643066,1.536296
13.549805,814.819336,209.93042,1.537037
-26.641846,806.945801,191.711426,1.537778
-2.01416,815.093994,184.295654,1.538519
-29.11377,797.332764,189.239502,1.53926
-11.627197,773.620605,201.23291,1.540002
-8.789062,727.386475,244.903564,1.540743
-2.655029,718.780518,245.269775,1.541484
-4.760742,709.899902,248.291016,1.542226
-13.549805,711.456299,250.396729,1.542967
21.514893,694.152832,264.221191,1.543709
10.894775,725.189209,269.073486,1.544451
41.8396,746.704102,258.361816,1.545192
10.162354,740.844727,264.587402,1.545935
39.18457,759.429932,249.664307,1.546676
36.437988,747.802734,234.924316,1.547417
41.290283,806.57959,226.959229,1.548171
13.275146,793.212891,213.409424,1.548916
10.620117,765.563965,215.515137,1.549659
35.15625,744.32373,193.54248,1.5504
-39.733887,717.681885,198.760986,1.551142
18.859863,737.548828,216.064453,1.551883
0.640869,749.542236,200.317383,1.552624
-19.683838,776.45874,204.162598,1.553366
-4.577637,794.769287,231.719971,1.554115
-29.11377,798.706055,271.820068,1.554857
-66.558838,802.734375,277.313232,1.555599
-50.811768,837.432861,300.842285,1.55634
-44.677734,832.580566,317.138672,1.557092
-35.064697,853.729248,339.935303,1.557835
-18.585205,862.976074,353.57666,1.558576
-36.712646,881.469727,361.358643,1.559317
-35.430908,885.406494,376.464844,1.56006
-19.958496,892.272949,381.500244,1.560801
-44.586182,890.167236,379.02832,1.561542
-44.311523,885.223389,384.887695,1.562284
-35.614014,888.244629,386.71875,1.563029
-67.382812,891.174316,371.520996,1.563776
-57.495117,895.843506,322.265625,1.564518
-72.235107,909.576416,309.265137,1.565259
-84.228516,893.188477,302.307129,1.566009
-85.968018,903.533936,286.193848,1.566751
-91.369629,933.288574,280.426025,1.567493
-95.581055,941.986084,293.792725,1.568234
-74.615479,960.296631,299.285889,1.568984
-71.31958,971.099854,325.012207,1.569727
-73.425293,975.769043,331.787109,1.570468
-47.607422,986.938477,336.82251,1.571209
-47.698975,995.544434,342.498779,1.571959
-51.544189,1011.199951,328.582764,1.572701
-25.817871,1003.051758,315.307617,1.573443
-21.240234,1007.904053,284.088135,1.574184
6.04248,1035.27832,302.398682,1.574935
5.767822,1056.884766,291.046143,1.575678
-30.670166,1052.032471,282.989502,1.576419
-44.494629,1067.230225,267.51709,1.577161
-35.15625,1076.934814,269.622803,1.57791
-23.620605,1085.357666,268.52417,1.578653
-55.114746,954.528809,312.561035,1.579394
-63.903809,979.431152,348.907471,1.580135
-80.841064,1065.948486,298.553467,1.580885
-310.089111,1021.087646,326.385498,1.581628
-286.651611,1020.629883,332.061768,1.582369
-182.830811,1073.730469,315.39917,1.58311
-341.674805,1077.575684,350.189209,1.58386
-244.720459,1048.095703,319.793701,1.584683
-259.094238,1091.217041,330.413818,1.585428
-356.689453,1104.949951,330.871582,1.58617
-295.349121,1088.653564,330.963135,1.586911
-251.403809,1070.617676,315.948486,1.587679
-358.520508,1051.483154,305.511475,1.588426
-352.844238,1036.010742,274.658203,1.589171
-325.653076,1041.229248,267.883301,1.589915
-341.491699,1057.250977,268.890381,1.590659
-341.583252,1081.695557,280.975342,1.591402
-359.619141,1067.779541,294.708252,1.592145
-336.82251,1030.059814,284.820557,1.592889
-338.928223,1038.482666,258.178711,1.593631
-325.012207,1029.052734,269.53125,1.594373
-351.470947,1027.313232,258.270264,1.595115
-366.027832,1030.700684,262.390137,1.595857
-469.848633,975.585938,247.283936,1.596598
-620.727539,994.812012,227.508545,1.59734
-481.47583,988.677979,217.803955,1.598081
-281.616211,1011.932373,178.436279,1.598823
-319.519043,1003.875732,146.30127,1.599565
-448.699951,953.613281,131.378174,1.600306
-383.514404,944.549561,102.813721,1.601048
-330.596924,940.063477,93.658447,1.60179
-341.949463,917.08374,68.572998,1.602533
-372.070312,913.970947,37.353516,1.603274
-378.845215,912.04834,18.951416,1.604016
-367.858887,920.562744,5.767822,1.604771
-351.928711,928.436279,-10.345459,1.605518
-374.725342,948.669434,-20.41626,1.606265
-394.134521,982.727051,-31.036377,1.607017
-386.627197,1006.80542,-39.916992,1.607787
-389.282227,987.670898,-44.952393,1.608531
-395.050049,945.098877,-32.501221,1.609272
-405.487061,954.528809,-24.902344,1.610014
-384.246826,926.971436,-4.394531,1.610756
-392.39502,917.633057,1.739502,1.611497
-368.682861,897.583008,24.810791,1.612238
-349.639893,905.639648,35.980225,1.61298
-312.286377,911.682129,50.994873,1.613721
-254.241943,900.970459,67.016602,1.614462
-242.706299,911.956787,84.320068,1.615203
-251.037598,890.350342,96.679688,1.615945
-264.953613,884.399414,135.040283,1.616686
-247.650146,899.047852,157.196045,1.617427
58.227539,755.859375,183.746338,1.618168
73.150635,787.261963,375.0,1.61891
-438.995361,655.883789,405.670166,1.619651
-87.432861,806.488037,375.274658,1.620392
-52.185059,806.030273,319.335938,1.621134
-377.563477,762.268066,270.812988,1.621877
-261.657715,864.532471,214.416504,1.622618
-168.365479,857.025146,182.647705,1.62336
-300.933838,858.673096,158.38623,1.624102
-234.283447,892.181396,119.842529,1.624844
-236.846924,895.202637,132.751465,1.625586
-248.199463,896.850586,112.976074,1.626328
-244.812012,895.385742,89.904785,1.627069
-176.422119,846.77124,57.495117,1.627811
-85.327148,871.032715,44.403076,1.628562
-102.996826,879.730225,11.352539,1.629304
36.346436,877.349854,-53.009033,1.630046
129.180908,892.822266,-96.679688,1.630787
-132.019043,852.905273,-94.116211,1.631529
-225.402832,988.586426,-137.512207,1.632271
88.439941,1058.71582,-142.364502,1.633012
-1.281738,1005.432129,-147.033691,1.633753
-203.430176,959.93042,-132.93457,1.634508
-63.995361,958.92334,-126.983643,1.63525
5.767822,981.170654,-118.743896,1.635991
-103.45459,971.374512,-125.701904,1.636732
-162.597656,981.903076,-122.772217,1.637482
-66.467285,998.840332,-112.701416,1.638223
-86.151123,978.424072,-99.151611,1.638964
-192.993164,1001.678467,-42.388916,1.639706
295.440674,1086.914062,-33.874512,1.640457
114.349365,1154.47998,-21.514893,1.6412
-32.13501,1034.820557,19.317627,1.641941
143.188477,1046.264648,46.234131,1.642683
137.695312,977.874756,96.130371,1.643426
185.943604,970.458984,167.907715,1.644168
175.689697,970.550537,180.541992,1.644909
213.226318,1006.164551,185.852051,1.64565
263.031006,1028.778076,189.239502,1.646401
156.829834,833.587646,339.752197,1.647143
-839.72168,362.915039,1301.055908,1.647884
-132.293701,866.363525,964.96582,1.648626
1316.711426,1405.700684,547.393799,1.649375
1198.791504,1371.734619,551.513672,1.650117
-249.389648,1307.647705,694.244385,1.650859
-50.994873,1418.151855,470.031738,1.6516
365.203857,1458.80127,431.396484,1.65235
-177.429199,1400.939941,520.935059,1.653092
-31.768799,1425.201416,404.11377,1.653834
-109.863281,1435.089111,398.895264,1.654575
-159.851074,1398.193359,341.674805,1.655325
-283.721924,1393.981934,298.00415,1.656148
-298.919678,1372.192383,262.573242,1.656888
-196.929932,1424.6521,289.489746,1.657628
1004.241943,1380.432129,388.73291,1.658368
266.418457,1315.52124,589.782715,1.659109
194.732666,1318.725586,465.72876,1.65985
366.943359,1365.05127,374.084473,1.66059
-161.04126,1352.874756,286.010742,1.661333
63.446045,1350.769043,351.013184,1.662077
-33.233643,1312.774658,372.98584,1.662821
-189.147949,1302.612305,379.394531,1.663563
-193.908691,1308.380127,371.337891,1.664326
-278.137207,1268.280029,342.590332,1.66507
-298.278809,1243.652344,289.306641,1.665812
-306.427002,1203.552246,242.523193,1.666552
-410.522461,1174.713135,169.372559,1.667292
-426.361084,1157.318115,129.547119,1.668033
-420.684814,1146.240234,69.580078,1.668773
-437.988281,1118.041992,4.760742,1.669513
-450.164795,1110.076904,-22.521973,1.670266
-485.687256,1075.561523,-73.242188,1.671006
-502.89917,1073.822021,-139.434814,1.671746
-536.590576,1031.066895,-157.104492,1.672486
-547.76001,992.156982,-220.733643,1.673234
-556.091309,985.565186,-245.819092,1.673975
-567.169189,966.064453,-286.560059,1.674715
-567.626953,973.388672,-323.913574,1.675455
-622.467041,923.675537,-324.554443,1.676206
-638.305664,866.455078,-343.780518,1.676946
-573.944092,900.695801,-363.28125,1.677691
-325.378418,907.37915,-360.26001,1.678436
-240.692139,863.067627,-399.078369,1.679187
-321.807861,862.1521,-427.459717,1.679933
-442.565918,859.954834,-420.86792,1.680673
-425.537109,851.715088,-455.291748,1.681413
-568.725586,991.149902,-418.579102,1.682153
-929.443359,961.303711,-99.79248,1.682893
-901.702881,987.854004,19.958496,1.683633
173.583984,1123.809814,74.707031,1.684373
613.769531,1104.858398,63.903809,1.685127
407.13501,1115.020752,40.008545,1.685868
-471.221924,1002.960205,-7.507324,1.686608
-670.715332,979.156494,-34.332275,1.687347
-382.507324,970.184326,-81.665039,1.688093
-107.849121,1140.380859,-132.93457,1.688834
156.646729,1181.57959,-104.553223,1.689574
-70.495605,1152.46582,-85.784912,1.690314
-164.520264,1126.922607,-135.223389,1.691063
-86.975098,1115.478516,-173.76709,1.691804
-54.290771,956.359863,322.357178,1.692544
-400.085449,893.280029,473.7854,1.693285
-1018.52417,1077.667236,501.342773,1.694026
-1124.633789,1127.01416,552.520752,1.694766
-612.487793,1138.549805,673.370361,1.695506
560.302734,1954.193115,2590.576172,1.696246
2999.908447,2249.725342,2703.460693,1.696986
2999.908447,2121.002197,1266.723633,1.697727
2999.908447,1880.584717,170.196533,1.698466
1011.749268,1148.895264,-143.920898,1.699206
-978.149414,647.827148,-887.969971,1.699947
-1478.118896,613.40332,-881.744385,1.700687
-785.064697,459.594727,-484.771729,1.701427
-923.492432,416.290283,-609.100342,1.702167
-1237.976074,512.054443,-626.403809,1.702917
-908.569336,780.578613,110.412598,1.703658
-581.90918,1034.545898,1078.491211,1.704398
159.393311,1300.78125,1203.460693,1.705139
622.375488,1144.592285,785.064697,1.705888
758.69751,1054.595947,392.486572,1.706628
832.672119,787.261963,-426.727295,1.707369
709.075928,673.736572,-746.795654,1.708109
489.440918,680.053711,-632.263184,1.708858
417.205811,775.45166,-74.890137,1.709598
339.477539,833.953857,222.473145,1.710338
-463.531494,921.295166,496.032715,1.711078
-1003.967285,868.652344,417.938232,1.711818
-1731.811523,824.890137,249.664307,1.712558
-1836.364746,781.219482,-108.48999,1.713298
-1693.817139,824.432373,-153.717041,1.714038
-1102.294922,795.86792,-142.547607,1.714778
-964.874268,948.303223,23.712158,1.715519
-317.321777,1026.855469,163.421631,1.716259
276.855469,1076.751709,231.262207,1.716998
415.374756,1052.124023,46.051025,1.717739
368.682861,938.415527,-151.885986,1.718479
188.415527,863.708496,-315.216064,1.719219
-214.233398,860.870361,-255.79834,1.71996
-527.526855,917.175293,-59.783936,1.720723
-620.361328,942.993164,29.022217,1.721466
-604.3396,955.078125,5.767822,1.722206
-430.755615,951.324463,-105.010986,1.722945
-348.724365,953.338623,-161.499023,1.723687
-366.394043,948.394775,-234.008789,1.724427
-487.060547,943.359375,-186.126709,1.725167
-630.157471,967.803955,-152.984619,1.725984
-550.78125,1001.953125,-138.702393,1.726725
-499.420166,1025.299072,-128.540039,1.727466
-384.70459,1018.341064,-121.582031,1.728206
-444.122314,978.607178,-154.266357,1.728946
-538.787842,990.325928,-139.434814,1.729686
-868.377686,1026.306152,-135.040283,1.730426
-1056.427002,1141.387939,-70.678711,1.731166
868.560791,1085.174561,17.76123,1.731906
1295.196533,753.662109,-407.684326,1.73266
1053.222656,699.920654,-840.911865,1.733401
986.938477,804.56543,-683.349609,1.734141
1031.341553,908.477783,-349.273682,1.734881
768.768311,878.631592,-279.785156,1.735629
757.049561,879.364014,-33.325195,1.73637
901.885986,903.625488,175.048828,1.737112
924.499512,1012.664795,98.693848,1.737855
755.67627,1117.034912,-124.145508,1.738598
701.934814,1121.97876,-330.688477,1.739341
328.491211,1028.594971,-392.028809,1.740082
-110.412598,994.812012,-269.622803,1.740823
-924.77417,990.325928,-161.865234,1.741567
-1047.912598,1030.334473,-10.620117,1.742308
-1085.723877,1069.152832,23.712158,1.743048
-1010.192871,1072.08252,69.030762,1.743788
-991.516113,1030.609131,89.263916,1.744548
-674.6521,1026.306152,75.98877,1.745289
-67.657471,1090.667725,147.674561,1.746029
240.692139,1059.082031,-27.557373,1.746768
556.732178,1055.786133,106.567383,1.747509
600.952148,1046.722412,102.722168,1.74825
376.373291,1014.678955,-420.776367,1.748991
-246.917725,845.306396,-685.821533,1.749738
-388.458252,897.583008,-199.21875,1.750487
502.532959,1033.26416,418.304443,1.751237
1479.766846,986.022949,326.843262,1.751977
1518.493652,955.535889,-398.345947,1.752717
1400.482178,837.432861,-474.975586,1.753458
1225.799561,817.382812,-372.161865,1.754198
378.936768,881.92749,-324.005127,1.754938
-620.910645,988.861084,-81.481934,1.755678
-906.280518,1034.729004,142.822266,1.756418
-1234.039307,1098.724365,125.061035,1.757159
-1123.99292,1125.274658,235.107422,1.757899
-897.033691,1152.008057,292.236328,1.758639
-544.464111,1073.455811,5.401611,1.759394
-427.276611,1001.861572,-179.351807,1.760135
-142.364502,986.663818,-154.907227,1.760875
-159.301758,980.438232,-189.697266,1.761615
-285.27832,982.543945,-209.93042,1.762363
-645.996094,1043.792725,-155.273438,1.763104
-760.070801,1204.925537,10.986328,1.763844
180.81665,1179.931641,215.515137,1.764584
1467.498779,720.336914,-88.07373,1.765334
1196.960449,590.515137,-990.234375,1.766074
667.96875,580.9021,-1049.560547,1.766814
830.566406,839.813232,-425.90332,1.767555
711.456299,956.359863,22.979736,1.768305
-52.368164,1093.139648,85.235596,1.769045
-376.556396,1050.292969,16.662598,1.769785
-612.213135,1014.221191,-39.093018,1.770526
-631.347656,977.966309,-126.708984,1.771275
-672.180176,947.570801,-212.402344,1.772016
-615.783691,971.099854,-205.169678,1.772756
-558.746338,1043.151855,-157.836914,1.773496
-432.037354,1089.019775,-140.808105,1.774237
-349.639893,1131.408691,-104.644775,1.774976
-302.947998,1149.169922,-23.4375,1.775716
-173.309326,1132.141113,-27.46582,1.776456
-174.499512,1110.076904,-96.313477,1.777196
-313.201904,1094.055176,-149.230957,1.777936
-221.191406,1181.671143,-111.877441,1.778676
-15.289307,1174.89624,-94.207764,1.779416
41.381836,1108.886719,-188.415527,1.780157
-173.126221,1086.364746,-335.266113,1.780897
-162.597656,1153.564453,-249.023438,1.781637
-60.241699,1235.961914,-89.355469,1.782377
-65.002441,1229.553223,-130.828857,1.783128
-95.947266,1216.369629,-145.751953,1.783869
-77.728271,1230.194092,-117.828369,1.784608
-110.046387,1231.201172,-157.287598,1.785348
-263.671875,1239.715576,-152.893066,1.786095
-390.472412,1267.364502,-126.434326,1.786835
-627.410889,1295.10498,-78.186035,1.787576
-683.441162,1317.626953,-3.845215,1.788316
-507.385254,1313.415527,13.641357,1.789055
527.160645,1097.808838,-91.918945,1.789795
896.484375,919.921875,-606.079102,1.790535
879.547119,932.647705,-648.193359,1.791275
702.941895,1096.5271,-243.07251,1.792015
-248.016357,1214.904785,259.735107,1.792755
-1320.648193,1252.807617,317.962646,1.793495
-2051.696777,1283.843994,250.12207,1.794235
-1595.672607,1308.563232,191.436768,1.795057
-293.792725,1352.416992,129.089355,1.795798
980.34668,1273.223877,-7.415771,1.796538
996.459961,1203.460693,-84.320068,1.797278
46.325684,1154.571533,49.255371,1.798018
-251.495361,1234.039307,194.549561,1.798758
-388.000488,1264.984131,181.091309,1.799498
-318.969727,1255.462646,135.314941,1.800238
-207.275391,1230.743408,49.987793,1.800978
-147.674561,1201.812744,38.543701,1.801718
-199.676514,1183.959961,49.987793,1.802458
-255.523682,1179.290771,44.494629,1.803198
-127.807617,1169.311523,-40.740967,1.803949
-37.994385,1159.698486,-113.525391,1.804687
-2.838135,1126.373291,-133.850098,1.805429
-24.078369,1100.646973,-177.703857,1.806171
-64.086914,1089.019775,-197.845459,1.806913
-34.515381,1078.491211,-233.36792,1.807654
21.972656,1064.941406,-300.476074,1.808396
78.186035,1051.116943,-321.899414,1.809137
39.367676,1025.299072,-352.844238,1.80989
20.141602,1027.954102,-392.669678,1.810632
-66.192627,1024.658203,-386.260986,1.811373
-92.376709,1028.045654,-381.866455,1.812115
-113.983154,1019.348145,-392.578125,1.812861
-51.635742,1024.56665,-420.776367,1.813613
-14.556885,1028.961182,-441.650391,1.814355
48.706055,1065.673828,-435.516357,1.815097
3.02124,1082.794189,-413.360596,1.815838
-69.122314,1080.688477,-410.522461,1.81658
-196.746826,1063.751221,-411.987305,1.817322
-212.127686,1093.048096,-393.035889,1.818064
-188.598633,1099.090576,-379.394531,1.818808
-125.152588,1117.218018,-367.218018,1.819556
-97.137451,1139.831543,-342.407227,1.820325
-119.20166,1184.875488,-327.392578,1.821073
-222.65625,1185.882568,-309.265137,1.821818
-229.156494,1183.776855,-321.899414,1.82256
-184.020996,1216.552734,-319.061279,1.823302
-182.647705,1231.47583,-267.883301,1.824043
-214.324951,1252.532959,-259.460449,1.824803
-259.277344,1249.603271,-264.49585,1.825547
-287.29248,1228.363037,-273.468018,1.826288
-291.412354,1216.73584,-296.630859,1.82703
-276.763916,1247.2229,-281.158447,1.827772
-262.207031,1267.364502,-253.051758,1.828513
-234.283447,1277.526855,-264.862061,1.829254
-200.775146,1288.787842,-290.863037,1.829996
-159.484863,1312.225342,-287.658691,1.830737
-239.4104,1304.901123,-278.22876,1.831479
-297.088623,1284.393311,-290.95459,1.832221
-345.977783,1250.335693,-310.089111,1.832964
-340.393066,1222.229004,-339.385986,1.833707
-285.369873,1238.342285,-334.16748,1.834449
-222.564697,1249.603271,-322.631836,1.835191
-177.337646,1265.533447,-317.596436,1.835932
-170.74585,1274.871826,-303.131104,1.836685
-186.584473,1257.019043,-330.322266,1.837427
-300.567627,1234.49707,-351.470947,1.838169
-378.936768,1187.530518,-377.655029,1.83891
-393.768311,1159.515381,-385.620117,1.839663
-262.207031,1159.332275,-403.4729,1.840404
-107.666016,1218.75,-356.506348,1.841146
-121.673584,1244.293213,-328.308105,1.841887
-269.256592,1209.503174,-309.539795,1.842629
-351.013184,1102.020264,-403.839111,1.843371
-353.393555,1092.132568,-443.389893,1.844113
-203.613281,1109.25293,-419.403076,1.844854
-146.392822,1146.057129,-320.709229,1.845605
-178.253174,1161.16333,-294.525146,1.846347
-252.7771,1108.886719,-360.717773,1.847089
-315.948486,1088.928223,-398.071289,1.847831
-235.565186,1103.210449,-392.669678,1.848581
-187.957764,1124.908447,-299.285889,1.849323
-130.554199,1162.261963,-283.447266,1.850065
-126.068115,1177.734375,-276.855469,1.850807
-177.703857,1173.706055,-274.56665,1.851558
-252.227783,1151.184082,-266.693115,1.8523
-270.172119,1114.837646,-259.552002,1.853042
-178.344727,1133.056641,-256.256104,1.853784
-101.623535,1176.9104,-196.563721,1.854527
-139.343262,1188.262939,-161.04126,1.855268
-241.699219,1167.205811,-165.344238,1.856009
-232.269287,1158.416748,-241.149902,1.856751
-114.990234,1164.642334,-242.980957,1.857501
-81.665039,1191.650391,-188.781738,1.858243
-127.258301,1192.749023,-152.801514,1.858985
-255.523682,1134.796143,-188.049316,1.859726
-284.27124,1077.026367,-268.066406,1.860477
-242.889404,1054.504395,-289.855957,1.861219
-152.34375,1052.856445,-268.707275,1.86196
-118.652344,1091.766357,-248.382568,1.862702
-102.813721,1071.807861,-269.348145,1.863528
-90.545654,1054.321289,-344.87915,1.864272
-96.679688,1067.047119,-331.604004,1.865014
-230.621338,1081.604004,-294.067383,1.865755
-308.441162,1048.919678,-298.095703,1.866498
-289.031982,1025.482178,-385.620117,1.867239
-177.062988,990.692139,-385.71167,1.867981
-123.413086,1001.77002,-371.612549,1.868722
-35.064697,1026.489258,-352.111816,1.869464
-109.863281,1085.449219,-300.842285,1.870205
-189.605713,1088.378906,-288.482666,1.870946
-288.848877,1056.518555,-322.723389,1.871687
-273.193359,1028.686523,-359.25293,1.872429
-176.239014,1027.587891,-343.048096,1.87317
-106.018066,1072.998047,-249.206543,1.873912
-107.757568,1100.280762,-254.699707,1.874654
115.722656,1044.158936,-350.55542,1.875395
91.461182,1112.182617,-417.84668,1.876136
-141.357422,1163.360596,-288.757324,1.876878
-458.679199,1155.487061,-139.068604,1.877619
-359.527588,1040.313721,-331.14624,1.878369
-80.291748,1008.361816,-395.141602,1.879111
-31.494141,984.466553,-364.28833,1.879852
-25.360107,1011.932373,-316.40625,1.880594
-38.085938,1195.678711,-255.157471,1.881348
-99.334717,1221.405029,-183.837891,1.88209
-201.965332,1177.825928,-216.522217,1.882832
-246.368408,1046.356201,-355.59082,1.883573
-212.036133,1006.988525,-416.8396,1.884316
-45.410156,1071.44165,-357.788086,1.885058
16.479492,1179.840088,-189.331055,1.8858
-41.19873,1198.33374,-152.252197,1.886542
-153.808594,1140.380859,-250.305176,1.887292
-133.392334,1059.356689,-394.500732,1.888038
-22.43042,1083.80127,-377.655029,1.888786
-35.247803,1143.310547,-240.875244,1.889572
-54.931641,1152.191162,-212.310791,1.89032
-83.221436,1126.373291,-256.530762,1.891062
-12.359619,1072.265625,-342.315674,1.891804
38.452148,1085.266113,-322.723389,1.892545
32.775879,1148.529053,-227.416992,1.893287
-34.881592,1102.203369,-197.20459,1.894028
-93.75,1085.540771,-244.171143,1.89477
-62.896729,1035.827637,-322.998047,1.895511
-38.269043,1046.722412,-268.432617,1.896253
21.057129,1075.744629,-229.522705,1.896996
29.754639,1093.414307,-198.577881,1.897738
27.832031,1076.934814,-222.015381,1.898479
2.929688,1046.813965,-288.024902,1.899238
-6.408691,1041.778564,-283.905029,1.89998
-4.669189,1037.475586,-276.306152,1.900722
-7.781982,1062.835693,-255.249023,1.901463
2.380371,1060.272217,-241.241455,1.902204
-1.281738,1049.194336,-239.685059,1.902944
6.408691,1032.897949,-251.586914,1.903685
9.429932,1046.264648,-248.657227,1.904426
11.352539,1045.806885,-245.819092,1.905168
22.338867,1050.933838,-246.185303,1.90591
-2.197266,1036.834717,-242.523193,1.906652
-5.67627,1027.038574,-236.206055,1.907393
-16.571045,1028.686523,-238.128662,1.908144
0.457764,1038.299561,-239.593506,1.908887
15.563965,1031.341553,-236.38916,1.909629
37.994385,1033.813477,-231.35376,1.91037
63.079834,1043.609619,-239.501953,1.91112
61.889648,1049.6521,-214.050293,1.911862
30.212402,1015.686035,-220.184326,1.912604
29.205322,947.937012,-221.64917,1.913345
56.396484,950.866699,-236.755371,1.914096
117.004395,1013.671875,-268.341064,1.914838
46.142578,1028.320312,-144.378662,1.915579
-150.695801,1047.454834,-120.483398,1.916321
-177.612305,983.276367,-185.852051,1.917071
-76.721191,955.718994,-237.670898,1.917813
-32.318115,926.513672,-240.234375,1.918555
-47.058105,967.987061,-176.422119,1.919297
-92.926025,978.973389,-157.287598,1.920039
-47.88208,1028.778076,-224.304199,1.92078
-77.911377,1009.643555,-236.480713,1.921522
-179.443359,988.128662,-232.543945,1.922263
-210.479736,955.535889,-237.39624,1.923014
-125.152588,920.562744,-257.263184,1.923756
-30.395508,919.830322,-245.635986,1.924497
-39.550781,916.625977,-221.557617,1.925238
-106.658936,942.626953,-231.628418,1.92599
-127.075195,939.788818,-250.579834,1.926732
-115.814209,966.247559,-266.967773,1.927474
-93.658447,1009.002686,-261.932373,1.928215
-109.680176,1015.045166,-221.374512,1.928965
-123.87085,991.149902,-230.34668,1.929707
-81.115723,959.289551,-266.784668,1.930449
-92.651367,958.099365,-277.587891,1.93119
-112.243652,990.600586,-234.924316,1.93194
-121.398926,1032.531738,-206.268311,1.932681
-120.574951,1034.820557,-228.790283,1.933504
-120.117188,999.389648,-254.882812,1.934246
-133.300781,982.543945,-241.973877,1.934988
-158.38623,965.057373,-241.05835,1.93573
-141.906738,968.536377,-230.438232,1.936471
-143.280029,959.655762,-236.297607,1.937213
-152.984619,958.557129,-250.579834,1.937954
-172.027588,944.18335,-255.523682,1.938696
-185.760498,940.338135,-255.79834,1.939437
-160.675049,933.746338,-247.650146,1.940178
-154.998779,933.47168,-256.530762,1.94092
-164.978027,948.028564,-249.755859,1.941661
-189.971924,944.366455,-256.988525,1.942403
-199.401855,943.54248,-265.777588,1.943144
-163.421631,949.676514,-268.249512,1.943886
-154.815674,975.128174,-253.143311,1.944627
-166.992188,964.324951,-243.255615,1.945369
-180.999756,961.212158,-243.988037,1.94611
-173.858643,972.290039,-248.474121,1.946861
-187.133789,984.832764,-240.142822,1.947603
-203.704834,968.536377,-225.952148,1.948345
-190.979004,974.67041,-223.571777,1.949086
-167.724609,979.064941,-228.69873,1.949829
-161.407471,975.402832,-225.860596,1.950571
-182.189941,978.790283,-227.325439,1.951313
-195.556641,982.727051,-222.564697,1.952054
-189.880371,983.642578,-224.761963,1.952805
-178.436279,974.761963,-235.015869,1.953547
-193.359375,976.226807,-223.480225,1.954289
-219.818115,961.761475,-213.592529,1.95503
-203.063965,935.394287,-224.304199,1.95578
-192.077637,941.162109,-253.143311,1.956525
-178.527832,948.303223,-229.797363,1.957271
-195.281982,955.535889,-226.043701,1.958023
-213.317871,953.704834,-228.057861,1.958771
-207.91626,942.352295,-246.551514,1.959512
-201.324463,919.464111,-233.917236,1.960254
-183.288574,924.957275,-234.191895,1.960996
-177.246094,930.450439,-227.69165,1.961737
-167.907715,936.035156,-237.213135,1.962479
-152.252197,945.19043,-232.727051,1.96322
-164.611816,947.296143,-222.473145,1.963962
-169.830322,936.676025,-230.987549,1.964704
-164.520264,929.168701,-222.381592,1.965447
-152.069092,926.422119,-219.268799,1.966191
-148.681641,926.971436,-213.226318,1.966934
-140.075684,930.084229,-211.120605,1.967675
-144.561768,928.436279,-210.113525,1.968417
-135.955811,934.570312,-204.986572,1.969159
-142.822266,927.154541,-196.380615,1.969901
-160.217285,919.73877,-179.260254,1.970644
-157.37915,905.456543,-187.133789,1.971386
-134.58252,903.900146,-186.950684,1.972128
-111.419678,906.188965,-185.852051,1.972869
-117.004395,933.746338,-173.583984,1.973611
-139.251709,917.816162,-176.605225,1.974353
-139.984131,912.780762,-178.894043,1.975095
-125.610352,903.533936,-179.077148,1.975836
-117.095947,884.857178,-178.436279,1.976578
-112.976074,881.92749,-163.330078,1.977319
-103.45459,877.532959,-157.928467,1.97806
-88.897705,867.095947,-163.238525,1.978802
-89.263916,871.582031,-160.400391,1.979563
-104.187012,872.680664,-153.533936,1.980307
-103.729248,848.510742,-162.689209,1.981048
-97.045898,841.552734,-164.428711,1.98179
-81.848145,838.989258,-159.851074,1.982531
-70.129395,831.665039,-148.406982,1.983272
-63.812256,829.833984,-146.118164,1.984014
-79.467773,813.171387,-148.681641,1.984755
-74.432373,808.685303,-156.555176,1.985497
-67.474365,804.199219,-158.477783,1.986238
-66.192627,792.572021,-148.406982,1.986979
-56.57959,796.691895,-144.744873,1.987721
-52.825928,796.508789,-145.202637,1.98847
-47.790527,787.994385,-144.104004,1.989212
-53.741455,777.374268,-151.062012,1.989953
-49.713135,777.374268,-149.963379,1.990705
-44.677734,774.078369,-150.604248,1.991452
-43.212891,771.972656,-159.118652,1.992193
-38.085938,780.029297,-152.893066,1.992935
-34.881592,778.747559,-152.709961,1.993676
-42.663574,781.494141,-155.822754,1.994418
-40.83252,781.12793,-155.914307,1.995159
-38.543701,782.043457,-150.695801,1.995901
-35.614014,783.325195,-158.843994,1.996642
-37.17041,785.797119,-151.33667,1.997397
-48.156738,782.318115,-152.252197,1.998139
-37.994385,782.958984,-147.399902,1.998881
-35.430908,783.599854,-142.547607,1.999622
-34.790039,775.634766,-145.294189,2.000364
-36.621094,777.46582,-123.687744,2.001105
-32.775879,784.515381,-149.139404,2.001846
-30.303955,776.45874,-140.716553,2.002588
-25.360107,785.15625,-141.357422,2.003412
-22.613525,784.240723,-139.526367,2.004154
-23.4375,789.093018,-142.456055,2.004896
-25.177002,777.008057,-138.427734,2.005637
-14.465332,777.740479,-141.723633,2.00639
-13.092041,777.282715,-137.237549,2.007131
-9.70459,782.409668,-144.561768,2.007873
-2.105713,781.860352,-146.392822,2.008613
-2.563477,781.12793,-149.414062,2.009364
5.584717,785.430908,-145.935059,2.010105
2.929688,783.874512,-150.512695,2.010846
13.458252,768.585205,-151.245117,2.011587
9.796143,777.648926,-151.519775,2.012337
16.113281,779.11377,-144.744873,2.013079
16.204834,790.008545,-145.111084,2.013821
18.951416,790.466309,-140.533447,2.014562
20.233154,786.712646,-140.625,2.015313
14.556885,787.811279,-142.089844,2.016055
19.226074,786.437988,-145.202637,2.016797
12.908936,791.290283,-140.167236,2.017539
14.190674,790.19165,-142.822266,2.01829
22.979736,797.607422,-141.998291,2.019032
15.106201,795.227051,-144.195557,2.019773
19.134521,804.748535,-139.61792,2.020514
17.303467,790.649414,-145.751953,2.021266
13.275146,795.043945,-133.666992,2.022007
22.521973,796.966553,-130.004883,2.022749
19.958496,806.57959,-132.93457,2.02349
18.310547,801.177979,-141.540527,2.02424
22.247314,819.030762,-140.258789,2.024982
16.937256,813.720703,-139.068604,2.025723
25.085449,816.741943,-144.012451,2.026468
19.775391,817.29126,-146.942139,2.027234
45.776367,823.33374,-147.216797,2.027987
16.75415,827.362061,-152.984619,2.028732
18.676758,831.665039,-148.773193,2.029472
16.662598,835.05249,-149.047852,2.030236
12.359619,838.806152,-148.956299,2.030977
5.310059,842.193604,-151.611328,2.031718
5.584717,844.024658,-160.400391,2.032457
2.838135,854.553223,-158.935547,2.033205
5.950928,854.644775,-156.005859,2.033945
3.295898,863.15918,-155.731201,2.034685
-1.739502,858.032227,-154.632568,2.035424
3.936768,853.912354,-162.231445,2.036175
-5.584717,851.715088,-164.337158,2.036915
-2.838135,862.884521,-151.885986,2.037655
-5.950928,865.264893,-156.005859,2.038394
-7.507324,866.455078,-158.02002,2.039144
-4.211426,848.968506,-158.569336,2.039883
-9.155273,865.905762,-160.675049,2.040624
-6.408691,871.765137,-158.38623,2.041366
-14.190674,874.053955,-148.864746,2.042136
-23.620605,876.342773,-161.956787,2.04289
-42.84668,890.899658,-148.773193,2.043634
-20.41626,880.004883,-153.533936,2.044374
-20.782471,873.779297,-156.921387,2.045134
-24.078369,881.011963,-153.808594,2.045881
-27.008057,876.525879,-157.012939,2.046623
-24.261475,883.026123,-156.555176,2.047366
-30.212402,876.708984,-166.534424,2.048132
-30.944824,869.842529,-161.132812,2.048874
-28.656006,868.286133,-161.590576,2.049625
-34.332275,871.398926,-187.225342,2.050365
-36.529541,878.356934,-165.344238,2.051116
-34.698486,878.814697,-170.654297,2.051859
-32.318115,876.525879,-168.914795,2.052599
-34.790039,873.962402,-170.10498,2.05334
-27.832031,878.540039,-172.485352,2.054098
-37.994385,876.342773,-174.957275,2.054839
-34.240723,867.553711,-165.527344,2.055579
-37.902832,870.849609,-170.562744,2.056319
-32.501221,860.50415,-168.365479,2.057073
-31.677246,885.223389,-162.872314,2.057814
-34.332275,869.018555,-169.464111,2.058554
-33.508301,866.912842,-160.766602,2.059293
-29.846191,862.518311,-183.47168,2.060042
-35.339355,865.997314,-158.294678,2.060783
-34.057617,866.271973,-159.942627,2.061522
-35.15625,861.51123,-163.879395,2.062262
-35.522461,868.927002,-159.759521,2.063011
-33.050537,864.715576,-164.520264,2.063752
-31.951904,865.356445,-161.682129,2.064492
-30.578613,871.21582,-170.471191,2.065232
-32.684326,864.624023,-161.04126,2.065981
-31.677246,867.919922,-168.914795,2.066722
-24.536133,870.391846,-163.696289,2.067462
-31.036377,867.919922,-163.330078,2.068202
-26.916504,864.440918,-163.330078,2.06895
-27.099609,873.138428,-159.576416,2.069691
-23.345947,863.983154,-169.372559,2.07043
-18.4021,874.328613,-160.308838,2.07117
-22.338867,868.652344,-161.315918,2.071922
-18.127441,870.20874,-163.970947,2.072662
-15.197754,871.856689,-166.717529,2.073402
-13.641357,869.384766,-167.633057,2.074141
-15.289307,867.004395,-161.315918,2.074979
-19.40918,878.265381,-184.47876,2.07572
-11.077881,873.504639,-165.527344,2.07646
-10.437012,869.110107,-175.506592,2.0772
-7.324219,866.363525,-179.260254,2.077947
-3.479004,868.286133,-173.126221,2.07869
-2.655029,867.279053,-181.091309,2.079429
-1.831055,861.328125,-180.999756,2.080169
3.112793,863.342285,-188.140869,2.080918
-1.739502,859.588623,-184.387207,2.081658
1.464844,867.553711,-180.725098,2.082397
0.732422,860.687256,-187.225342,2.083137
0.915527,860.046387,-192.443848,2.083888
3.662109,866.363525,-186.401367,2.084628
-3.479004,869.934082,-184.020996,2.085367
2.655029,877.075195,-180.175781,2.086107
4.394531,883.575439,-179.260254,2.086797
-10.894775,888.244629,-177.79541,2.087537
-7.69043,887.695312,-169.372559,2.088277
-1.647949,890.625,-185.852051,2.089017
-5.401611,897.216797,-168.09082,2.089766
-6.591797,904.724121,-160.858154,2.090505
-9.155273,915.06958,-153.625488,2.091245
-10.803223,913.421631,-157.470703,2.091984
2.197266,920.74585,-154.998779,2.092733
-7.507324,918.823242,-158.935547,2.093473
-9.429932,922.668457,-157.470703,2.094212
-2.380371,921.112061,-159.484863,2.094952
-14.923096,924.316406,-159.576416,2.0957
-13.000488,920.837402,-162.689209,2.096444
0.640869,921.478271,-165.252686,2.097189
-6.04248,922.210693,-166.900635,2.097941
-3.662109,922.027588,-174.224854,2.098707
-10.803223,915.344238,-174.957275,2.099448
-2.380371,919.555664,-177.886963,2.100188
-7.873535,913.970947,-175.689697,2.100928
-7.781982,915.435791,-167.999268,2.101678
-12.542725,912.322998,-167.08374,2.102418
-9.887695,910.125732,-178.344727,2.103157
-2.563477,913.970947,-172.668457,2.103897
-11.71875,913.787842,-168.548584,2.104649
-2.471924,924.499512,-161.590576,2.105389
-3.112793,921.936035,-157.745361,2.106128
-1.281738,922.485352,-166.992188,2.106868
-6.04248,923.217773,-157.104492,2.107617
-1.556396,931.915283,-154.632568,2.108357
-2.563477,934.661865,-154.815674,2.109096
-0.732422,934.020996,-153.167725,2.109836
-2.563477,940.612793,-144.927979,2.110586
1.464844,930.908203,-150.421143,2.111326
4.394531,933.837891,-149.688721,2.112067
8.422852,938.049316,-150.054932,2.112807
9.521484,934.753418,-149.780273,2.113558
9.613037,940.246582,-155.090332,2.114298
5.0354,937.5,-146.942139,2.115038
6.866455,937.133789,-148.406982,2.115777
19.226074,938.140869,-149.597168,2.116526
17.76123,940.246582,-157.012939,2.117266
11.993408,935.943604,-158.569336,2.118008
19.042969,934.753418,-158.569336,2.118752
25.268555,939.331055,-158.752441,2.119517
21.881104,940.887451,-149.963379,2.120259
28.4729,939.880371,-145.202637,2.120999
20.507812,927.246094,-145.477295,2.12174
24.993896,935.211182,-144.836426,2.122493
45.776367,923.217773,-141.174316,2.123233
22.521973,932.098389,-147.674561,2.123973
39.367676,929.626465,-145.477295,2.124713
36.712646,934.753418,-144.470215,2.125464
31.494141,934.387207,-143.920898,2.126204
36.712646,929.534912,-140.625,2.126944
35.064697,927.520752,-141.723633,2.127684
38.085938,927.429199,-144.104004,2.128433
38.452148,926.605225,-138.885498,2.129173
41.381836,921.386719,-146.942139,2.129913
36.346436,909.942627,-150.604248,2.130653
38.452148,911.04126,-160.217285,2.13141
45.501709,913.787842,-153.076172,2.132151
69.396973,908.203125,-153.900146,2.132891
46.142578,900.054932,-159.851074,2.13363
46.508789,900.054932,-159.484863,2.134382
46.691895,895.294189,-170.74585,2.135122
46.417236,889.068604,-170.562744,2.135862
45.318604,880.554199,-167.816162,2.136601
43.487549,877.166748,-167.449951,2.137351
42.755127,886.505127,-172.393799,2.13809
51.177979,889.61792,-168.640137,2.13883
41.8396,889.068604,-173.309326,2.139569
42.388916,889.801025,-171.75293,2.140318
46.508789,894.744873,-168.09082,2.141058
40.19165,893.096924,-161.682129,2.141797
45.593262,891.448975,-166.625977,2.142537
41.290283,896.759033,-164.245605,2.143286
39.18457,891.998291,-164.520264,2.144026
34.606934,911.956787,-157.928467,2.144765
29.47998,892.913818,-157.653809,2.145505
27.557373,899.047852,-158.477783,2.146254
30.853271,909.667969,-151.245117,2.146994
16.113281,905.731201,-155.36499,2.147824
22.613525,907.287598,-153.808594,2.148564
27.008057,909.301758,-146.759033,2.149314
18.4021,905.273438,-156.280518,2.150054
17.578125,915.06958,-154.083252,2.150794
16.75415,920.837402,-158.294678,2.151533
22.155762,913.696289,-156.921387,2.152282
22.247314,926.696777,-160.308838,2.153022
21.240234,926.879883,-165.893555,2.153761
19.226074,922.485352,-167.266846,2.154501
17.852783,931.091309,-169.73877,2.15525
19.500732,931.365967,-171.844482,2.15599
17.39502,935.852051,-173.675537,2.156729
14.73999,937.866211,-175.048828,2.157469
18.493652,934.47876,-174.407959,2.158217
12.817383,945.007324,-172.943115,2.158957
13.275146,942.718506,-169.189453,2.159697
12.451172,941.162109,-176.605225,2.160437
18.218994,942.443848,-167.816162,2.161185
19.042969,954.437256,-165.435791,2.161925
17.39502,956.359863,-156.463623,2.162664
16.021729,954.437256,-159.942627,2.163404
10.71167,960.113525,-163.146973,2.164153
15.106201,958.648682,-162.597656,2.164893
23.895264,962.219238,-163.787842,2.165633
11.535645,956.451416,-168.273926,2.166372
17.211914,956.817627,-169.647217,2.167121
12.359619,963.134766,-163.421631,2.167876
10.986328,959.93042,-164.703369,2.168624
12.451172,958.831787,-169.464111,2.169419
19.40918,960.479736,-172.302246,2.170191
20.965576,954.25415,-174.316406,2.170932
21.514893,959.381104,-173.400879,2.171671
17.852783,959.381104,-173.126221,2.172411
19.226074,960.571289,-160.949707,2.173157
14.73999,962.219238,-173.675537,2.173897
14.923096,966.61377,-184.936523,2.174636
15.655518,957.641602,-168.731689,2.175376
18.859863,954.620361,-160.858154,2.176123
17.39502,957.824707,-162.139893,2.17686
11.444092,957.458496,-153.625488,2.177613
10.437012,958.099365,-157.37915,2.178355
12.908936,949.584961,-162.04834,2.179106
11.627197,954.345703,-153.900146,2.179846
11.077881,952.972412,-151.794434,2.180586
4.577637,955.169678,-154.815674,2.181325
5.859375,954.711914,-155.273438,2.182074
21.789551,959.197998,-151.062012,2.182814
11.169434,959.106445,-151.977539,2.183554
5.67627,965.9729,-162.231445,2.184293
15.106201,955.718994,-164.520264,2.185048
15.838623,965.423584,-152.801514,2.18579
8.880615,961.761475,-159.210205,2.18653
7.141113,958.465576,-157.012939,2.18727
2.838135,939.971924,-168.09082,2.188019
7.69043,958.099365,-160.949707,2.188759
8.69751,957.641602,-155.090332,2.189498
3.570557,958.099365,-163.513184,2.190237
6.958008,948.120117,-157.745361,2.190985
8.148193,946.380615,-164.0625,2.191725
7.507324,947.021484,-160.675049,2.192465
-2.929688,951.782227,-168.182373,2.193204
-5.493164,948.394775,-164.154053,2.193957
-9.429932,946.289062,-167.907715,2.194703
-7.781982,947.937012,-162.597656,2.195446
-3.204346,954.25415,-157.37915,2.196187
-8.148193,943.54248,-155.181885,2.196945
-13.183594,941.802979,-149.963379,2.197688
-5.584717,951.599121,-152.893066,2.198429
-12.634277,950.500488,-153.717041,2.199169
-9.429932,951.690674,-149.597168,2.199923
-12.908936,954.620361,-148.406982,2.200664
-15.380859,944.091797,-151.794434,2.201403
-18.493652,950.592041,-155.548096,2.202143
-17.669678,952.331543,-161.865234,2.202892
-16.75415,947.845459,-150.787354,2.203633
-15.930176,949.676514,-156.37207,2.204373
-15.838623,950.958252,-155.456543,2.205112
-20.507812,947.845459,-160.675049,2.205862
-19.500732,955.9021,-158.02002,2.206602
-22.338867,944.641113,-151.885986,2.207342
-20.050049,942.626953,-150.146484,2.208082
-17.852783,953.24707,-154.907227,2.208831
-21.331787,948.303223,-158.203125,2.209571
-10.986328,945.007324,-154.35791,2.210311
-14.465332,948.669434,-155.273438,2.211051
-16.845703,949.21875,-155.639648,2.211804
-23.254395,939.697266,-156.463623,2.212545
-18.493652,938.415527,-157.745361,2.213285
-27.008057,937.042236,-163.05542,2.214025
-15.106201,934.387207,-154.266357,2.214686
-20.141602,932.281494,-156.005859,2.215426
-16.662598,934.020996,-159.667969,2.216166
-14.923096,937.042236,-157.37915,2.216906
-15.655518,934.844971,-159.301758,2.217655
-13.916016,924.865723,-156.829834,2.218395
-22.613525,926.055908,-155.456543,2.219135
-22.247314,928.80249,-153.808594,2.219965
-19.592285,925.140381,-160.949707,2.220716
-26.000977,928.161621,-153.991699,2.221457
-20.050049,931.182861,-151.885986,2.222196
-19.40918,926.879883,-146.850586,2.222937
-21.42334,929.80957,-158.294678,2.223686
-1.00708,934.020996,-152.252197,2.224427
-20.965576,938.049316,-156.280518,2.225167
-23.529053,940.155029,-148.406982,2.225907
-24.261475,932.098389,-153.717041,2.226656
-17.028809,930.175781,-161.865234,2.227397
-16.387939,937.316895,-146.66748,2.228137
-0.823975,938.415527,-150.787354,2.228877
-6.68335,947.479248,-140.716553,2.229627
-11.901855,946.289062,-142.63916,2.230368
-11.810303,946.19751,-142.730713,2.231108
-18.676758,940.429688,-142.730713,2.231848
-17.578125,940.704346,-155.273438,2.232597
-10.986328,938.140869,-150.695801,2.233338
-18.035889,945.556641,-148.132324,2.234077
-12.908936,946.929932,-145.568848,2.234817
-18.493652,948.577881,-145.202637,2.235567
-16.571045,945.739746,-146.30127,2.236307
-12.72583,948.577881,-152.709961,2.237047
-8.239746,954.162598,-146.484375,2.237787
-9.613037,948.394775,-148.040771,2.238536
-0.823975,945.19043,-151.519775,2.239275
-4.486084,950.408936,-153.808594,2.240015
-1.00708,947.296143,-154.174805,2.240757
0.732422,949.401855,-146.209717,2.241522
-0.183105,951.141357,-143.920898,2.242283
1.373291,954.071045,-140.716553,2.243028
23.345947,967.071533,-141.174316,2.243768
5.859375,957.550049,-145.111084,2.24453
5.218506,954.711914,-143.920898,2.245271
7.598877,938.415527,-143.188477,2.24601
10.437012,963.409424,-138.61084,2.24675
7.415771,950.408936,-147.674561,2.247516
8.331299,960.388184,-146.484375,2.248261
13.824463,959.197998,-150.238037,2.249002
13.549805,966.430664,-140.167236,2.249744
12.908936,963.226318,-137.145996,2.250498
19.226074,962.95166,-152.252197,2.25124
17.944336,964.96582,-145.751953,2.251981
18.127441,970.64209,-145.294189,2.252723
20.141602,972.198486,-138.885498,2.253474
19.866943,966.156006,-144.378662,2.254216
28.839111,973.205566,-146.118164,2.254958
23.620605,969.726562,-145.843506,2.255699
17.028809,973.480225,-145.294189,2.256451
27.191162,978.33252,-140.350342,2.257194
23.895264,977.874756,-134.857178,2.257936
26.916504,976.226807,-133.94165,2.258678
33.14209,976.959229,-141.265869,2.259429
29.022217,982.818604,-140.258789,2.260171
24.169922,973.571777,-143.188477,2.260913
29.846191,975.036621,-139.61792,2.261655
29.296875,973.571777,-117.553711,2.262406
29.663086,973.388672,-131.378174,2.263149
30.853271,979.3396,-142.913818,2.26389
33.691406,975.036621,-140.808105,2.264632
31.677246,973.297119,-143.005371,2.265383
28.839111,975.585938,-144.012451,2.266125
26.733398,967.62085,-145.477295,2.266866
34.240723,964.599609,-141.082764,2.267607
35.339355,967.346191,-143.554688,2.268359
32.226562,975.67749,-140.716553,2.2691
34.790039,977.783203,-138.336182,2.269843
30.303955,978.973389,-140.075684,2.270588
25.177002,965.881348,-132.843018,2.271357
21.972656,963.775635,-143.463135,2.272101
31.036377,960.571289,-144.104004,2.272842
27.008057,959.838867,-138.153076,2.273584
30.578613,961.669922,-136.322021,2.274336
29.205322,960.021973,-142.547607,2.275078
28.4729,937.866211,-144.104004,2.275819
19.775391,959.289551,-145.385742,2.27656
18.4021,955.444336,-152.252197,2.277312
24.536133,952.880859,-150.970459,2.278054
23.162842,955.9021,-147.125244,2.278796
11.352539,954.345703,-148.31543,2.279538
20.324707,948.577881,-150.512695,2.280289
16.845703,947.021484,-158.203125,2.281031
19.226074,946.014404,-146.759033,2.281772
12.084961,947.20459,-154.174805,2.282513
5.67627,951.324463,-144.927979,2.283265
1.831055,954.803467,-144.744873,2.284006
-0.640869,948.486328,-151.153564,2.284747
4.211426,956.176758,-145.6604,2.285489
6.408691,947.113037,-153.625488,2.286238
-6.591797,937.683105,-139.251709,2.286979
-2.929688,944.732666,-148.864746,2.28772
-8.056641,937.683105,-143.096924,2.288461
-5.950928,936.401367,-148.498535,2.289216
-13.73291,940.246582,-141.357422,2.289957
-15.106201,934.570312,-136.962891,2.290699
-14.556885,939.147949,-145.568848,2.29144
-17.669678,937.133789,-146.026611,2.292278
-21.514893,940.704346,-151.977539,2.29302
-26.092529,941.52832,-151.153564,2.293762
-23.345947,939.056396,-160.766602,2.294503
-23.4375,942.901611,-162.597656,2.295244
-25.45166,936.218262,-160.03418,2.295986
-26.916504,943.084717,-160.583496,2.296728
-26.824951,942.810059,-163.970947,2.29747
-24.536133,940.246582,-163.513184,2.298212
-25.268555,942.352295,-161.773682,2.298953
-26.275635,936.035156,-162.04834,2.299694
-31.585693,945.373535,-154.907227,2.300445
-35.522461,944.000244,-147.30835,2.301187
-31.12793,950.317383,-153.167725,2.301929
-30.944824,957.000732,-143.920898,2.30267
-31.860352,952.606201,-154.449463,2.30342
-36.804199,955.9021,-150.421143,2.304162
-39.367676,955.352783,-152.252197,2.304904
-39.093018,961.303711,-146.30127,2.305645
-39.001465,957.366943,-146.392822,2.306394
-34.423828,977.783203,-142.913818,2.307136
-33.050537,959.838867,-145.202637,2.307878
-33.233643,965.423584,-142.730713,2.308619
-35.797119,970.550537,-143.371582,2.309368
-38.635254,967.803955,-146.209717,2.310111
-32.867432,966.796875,-148.956299,2.310852
-28.747559,962.677002,-148.956299,2.311594
-35.614014,966.97998,-150.421143,2.312344
-32.775879,967.62085,-148.590088,2.313095
-32.226562,963.043213,-145.6604,2.31384
-27.46582,965.240479,-154.632568,2.314593
-33.14209,951.965332,-163.330078,2.31534
-26.916504,955.26123,-153.808594,2.316082
-21.606445,982.086182,-147.857666,2.316824
-27.557373,973.937988,-149.597168,2.317565
-25.45166,971.099854,-153.533936,2.318307
-27.008057,965.240479,-153.717041,2.319049
-22.796631,972.65625,-145.385742,2.31979
-26.092529,965.515137,-154.632568,2.320531
-23.803711,968.811035,-153.442383,2.321273
-27.191162,967.254639,-143.920898,2.322015
-21.881104,973.388672,-147.125244,2.322756
-18.127441,962.127686,-147.583008,2.323498
-18.4021,964.874268,-147.125244,2.324239
-19.40918,965.515137,-151.245117,2.324981
-20.599365,965.057373,-150.695801,2.325723
-19.134521,961.94458,-145.751953,2.326464
-19.683838,961.212158,-141.723633,2.327206
-23.162842,962.493896,-133.575439,2.327948
-15.563965,971.099854,-135.131836,2.32869
-16.75415,965.881348,-144.378662,2.329433
-16.296387,957.91626,-147.033691,2.33019
-15.838623,963.775635,-146.850586,2.330934
-10.070801,951.141357,-151.062012,2.331675
-14.73999,959.747314,-153.442383,2.332417
-8.148193,951.324463,-151.519775,2.333158
-9.338379,954.437256,-153.808594,2.3339
-8.972168,952.331543,-155.548096,2.334641
-1.556396,958.648682,-150.512695,2.335382
-0.457764,955.169678,-159.0271,2.33613
1.464844,946.472168,-159.118652,2.336878
-0.915527,936.859131,-158.752441,2.337618
-1.739502,948.944092,-181.365967,2.33836
-4.302979,952.880859,-165.802002,2.339109
-8.331299,951.416016,-163.146973,2.339851
-6.958008,949.493408,-159.851074,2.340592
-8.972168,946.746826,-151.885986,2.341333
-11.169434,945.648193,-155.456543,2.342082
1.281738,947.20459,-156.921387,2.342824
-2.655029,950.22583,-154.998779,2.343565
-8.148193,954.345703,-158.935547,2.344306
-11.260986,953.521729,-146.30127,2.345056
-11.077881,958.740234,-151.611328,2.345798
-5.0354,953.155518,-150.421143,2.346544
-7.049561,953.155518,-149.139404,2.347288
-9.796143,949.310303,-155.181885,2.348032
-4.577637,960.9375,-152.893066,2.348777
-10.162354,952.972412,-152.435303,2.34952
-14.465332,955.627441,-150.878906,2.350261
-11.169434,956.359863,-156.829834,2.351004
-0.183105,961.029053,-156.646729,2.351746
-6.408691,962.585449,-153.442383,2.352487
-6.225586,958.007812,-160.03418,2.353228
-7.232666,965.9729,-152.526855,2.353971
-2.563477,962.127686,-163.696289,2.354714
5.584717,964.691162,-163.330078,2.355455
-9.246826,965.057373,-168.823242,2.356196
21.148682,974.853516,-165.710449,2.356949
-1.281738,972.290039,-162.872314,2.357694
5.67627,972.290039,-164.886475,2.358435
7.324219,979.064941,-169.464111,2.359176
13.549805,976.318359,-161.407471,2.359925
19.317627,979.3396,-163.787842,2.360667
21.240234,988.769531,-162.414551,2.361409
10.528564,999.206543,-161.04126,2.362151
15.563965,993.988037,-158.752441,2.362897
11.71875,998.657227,-159.942627,2.363722
25.909424,1000.12207,-159.851074,2.364465
32.867432,1008.453369,-146.850586,2.365206
35.15625,1015.960693,-143.554688,2.365949
34.332275,1024.658203,-148.590088,2.36669
38.818359,1020.355225,-147.949219,2.367432
34.057617,1022.186279,-148.223877,2.368173
38.909912,1015.869141,-148.040771,2.368914
35.15625,1015.869141,-146.209717,2.369655
44.311523,1023.834229,-138.336182,2.370397
45.86792,1028.411865,-140.533447,2.371138
45.959473,1022.186279,-147.949219,2.37188
47.424316,1024.291992,-142.089844,2.372622
51.177979,1026.031494,-140.808105,2.373363
45.501709,1012.115479,-146.118164,2.374105
45.227051,1018.432617,-143.371582,2.374847
43.487549,1018.52417,-146.118164,2.375588
48.797607,1013.397217,-146.484375,2.37633
50.720215,1014.49585,-150.054932,2.377071
53.55835,1021.911621,-145.202637,2.377826
50.994873,1014.587402,-146.209717,2.378568
46.783447,1012.939453,-149.963379,2.37931
43.762207,1012.390137,-152.160645,2.380052
47.973633,1012.573242,-151.519775,2.380794
56.030273,1011.749268,-159.576416,2.381535
51.452637,1005.065918,-156.555176,2.382277
49.621582,1006.713867,-154.724121,2.383018
47.149658,999.11499,-156.463623,2.383768
50.628662,1007.537842,-159.759521,2.38451
51.635742,1006.988525,-165.802002,2.385254
47.607422,1005.065918,-150.604248,2.386
46.875,996.185303,-152.709961,2.386754
40.83252,992.156982,-158.203125,2.387501
46.600342,994.628906,-160.858154,2.388242
46.875,997.650146,-154.449463,2.388984
41.8396,997.741699,-162.231445,2.389726
37.628174,1001.77002,-154.083252,2.390467
39.642334,993.530273,-160.491943,2.391208
38.17749,993.07251,-160.308838,2.391949
35.064697,989.227295,-156.646729,2.392691
28.198242,992.156982,-149.963379,2.393433
21.240234,980.895996,-144.012451,2.394175
27.557373,983.001709,-148.31543,2.394916
25.909424,979.064941,-148.498535,2.395658
30.12085,978.424072,-151.885986,2.396399
28.015137,973.846436,-146.575928,2.39714
18.676758,968.078613,-148.498535,2.397882
19.775391,977.233887,-146.30127,2.398636
22.155762,970.825195,-147.949219,2.399377
20.507812,966.888428,-158.38623,2.400117
20.050049,960.205078,-154.632568,2.400858
11.627197,960.662842,-161.04126,2.401599
11.444092,964.141846,-158.203125,2.402339
15.106201,965.423584,-157.836914,2.403079
12.176514,960.113525,-158.935547,2.403818
8.148193,958.374023,-155.639648,2.404558
9.155273,965.240479,-158.203125,2.405298
7.873535,963.317871,-150.970459,2.406046
4.577637,970.367432,-149.230957,2.406785
-1.647949,968.078613,-151.062012,2.407525
-3.112793,962.036133,-154.998779,2.408265
-11.169434,956.817627,-153.076172,2.409005
-11.169434,983.734131,-160.675049,2.409745
-16.387939,970.092773,-151.611328,2.410486
-11.077881,992.706299,-155.914307,2.411226
9.429932,1045.532227,-227.050781,2.411966
18.218994,1022.094727,-217.437744,2.412706
-104.644775,988.037109,-157.104492,2.413445
-362.27417,870.574951,-59.875488,2.414185
130.371094,865.081787,-227.233887,2.414925
295.623779,856.292725,-228.33252,2.415665
70.129395,964.233398,-120.849609,2.416406
-124.969482,1037.841797,-47.88208,2.417146
-135.498047,999.298096,-135.498047,2.417886
3.295898,951.599121,-295.257568,2.418626
56.671143,945.922852,-152.984619,2.419365
-77.636719,957.641602,-89.630127,2.420118
-38.360596,989.4104,-135.131836,2.420858
32.592773,984.924316,-172.668457,2.421599
32.13501,986.572266,-140.350342,2.422341
-15.472412,987.304688,-122.131348,2.423094
-99.243164,971.374512,-147.583008,2.423858
-54.382324,969.177246,-176.422119,2.42462
-46.142578,982.543945,-119.384766,2.425368
-22.705078,974.853516,-110.137939,2.42611
-0.823975,960.754395,-137.054443,2.426851
-27.557373,948.760986,-178.161621,2.427592
-63.62915,940.338135,-173.583984,2.428332
-49.346924,937.5,-191.436768,2.429072
-5.950928,949.584961,-179.992676,2.429812
2.563477,964.050293,-165.344238,2.430552
-6.958008,968.261719,-192.626953,2.431313
-19.40918,944.458008,-201.141357,2.432055
-5.859375,932.006836,-211.94458,2.432794
2.105713,936.126709,-207.641602,2.433534
-0.549316,967.346191,-177.337646,2.434274
-3.845215,973.571777,-165.710449,2.435013
3.479004,974.853516,-164.978027,2.435846
-5.950928,981.719971,-159.0271,2.436586
-12.634277,993.164062,-160.308838,2.437326
-24.261475,991.333008,-152.984619,2.438066
-14.831543,999.847412,-146.392822,2.438807
-15.655518,998.291016,-143.280029,2.439547
-12.451172,993.804932,-134.674072,2.440286
-15.655518,987.030029,-143.64624,2.441026
-15.74707,995.635986,-147.583008,2.441766
-12.084961,996.459961,-160.858154,2.442506
-11.352539,996.185303,-154.174805,2.443247
5.310059,994.903564,-162.506104,2.443987
13.092041,992.431641,-164.886475,2.444727
14.465332,1001.953125,-160.675049,2.445467
18.127441,998.382568,-175.140381,2.446217
16.387939,1000.488281,-183.105469,2.446957
19.866943,997.741699,-177.429199,2.447697
21.697998,994.537354,-166.534424,2.448436
29.571533,1003.143311,-161.499023,2.449177
23.803711,999.664307,-159.576416,2.449918
25.360107,992.06543,-164.0625,2.450658
16.113281,989.959717,-163.146973,2.451397
15.74707,991.149902,-160.675049,2.452138
15.289307,992.889404,-148.590088,2.452878
21.148682,1003.234863,-141.815186,2.453618
19.042969,1005.340576,-151.062012,2.454358
32.684326,1004.150391,-152.709961,2.455098
2.01416,994.262695,-149.139404,2.455838
13.73291,992.706299,-151.062012,2.45658
22.979736,991.333008,-159.0271,2.457326
21.606445,993.988037,-152.435303,2.458074
24.261475,992.340088,-147.399902,2.458821
31.036377,990.692139,-156.646729,2.459562
27.008057,984.100342,-165.985107,2.460302
31.311035,982.543945,-164.154053,2.461042
28.564453,982.452393,-160.125732,2.461783
22.521973,982.177734,-155.822754,2.462523
27.557373,987.945557,-158.294678,2.463263
32.958984,987.304688,-157.562256,2.464003
29.11377,995.544434,-159.759521,2.464743
28.747559,992.340088,-154.815674,2.465483
30.487061,989.501953,-154.449463,2.466223
30.12085,985.565186,-155.456543,2.466979
28.656006,986.114502,-148.956299,2.46772
21.881104,983.093262,-156.005859,2.46846
22.888184,989.685059,-150.512695,2.4692
22.43042,988.220215,-150.695801,2.469949
24.719238,988.40332,-152.34375,2.470689
25.726318,991.333008,-148.773193,2.471429
15.197754,993.438721,-148.590088,2.472169
17.669678,1002.13623,-147.674561,2.472922
24.44458,996.09375,-154.632568,2.473663
12.817383,994.995117,-149.780273,2.474403
18.859863,988.586426,-152.984619,2.475143
21.057129,990.600586,-157.37915,2.475892
19.775391,990.600586,-151.794434,2.476633
23.4375,991.973877,-154.449463,2.477373
17.852783,992.06543,-154.449463,2.478113
17.669678,988.586426,-156.738281,2.478853
15.563965,987.579346,-147.033691,2.479594
22.521973,995.269775,-148.864746,2.480334
8.789062,984.832764,-150.146484,2.481074
10.986328,983.184814,-149.047852,2.481814
10.162354,992.248535,-145.568848,2.482555
6.591797,983.36792,-150.146484,2.483294
8.422852,977.416992,-150.604248,2.484034
6.68335,988.311768,-142.364502,2.484774
15.563965,982.818604,-139.343262,2.485513
11.535645,979.3396,-147.125244,2.486253
12.268066,976.409912,-145.568848,2.486993
9.887695,979.431152,-144.012451,2.487741
12.176514,977.69165,-153.35083,2.488481
6.408691,968.994141,-148.223877,2.489221
15.930176,970.275879,-152.252197,2.489961
12.268066,970.458984,-145.019531,2.490701
7.141113,963.409424,-152.618408,2.491452
12.176514,958.374023,-155.548096,2.492192
7.69043,958.648682,-148.864746,2.492932
5.126953,962.493896,-144.744873,2.493672
3.570557,955.718994,-158.294678,2.494423
4.852295,957.91626,-155.639648,2.495162
5.493164,953.338623,-154.083252,2.495902
7.415771,954.89502,-147.491455,2.496641
14.282227,960.571289,-145.6604,2.497391
7.232666,948.394775,-150.238037,2.498132
10.71167,937.591553,-160.400391,2.498873
10.894775,949.21875,-147.216797,2.499614
6.68335,952.056885,-147.949219,2.500369
14.099121,962.219238,-142.63916,2.501108
10.345459,954.345703,-153.076172,2.501849
13.183594,951.324463,-143.829346,2.502589
6.408691,953.430176,-146.759033,2.503338
8.514404,956.542969,-152.801514,2.504078
10.070801,951.873779,-151.611328,2.504818
9.613037,956.085205,-150.695801,2.505558
11.901855,960.662842,-143.920898,2.506152
2.838135,953.24707,-138.885498,2.506892
8.972168,951.324463,-153.35083,2.507717
2.563477,954.162598,-155.273438,2.508457
3.936768,950.408936,-162.780762,2.50907
5.584717,949.768066,-153.717041,2.50981
4.211426,953.24707,-150.512695,2.510549
3.204346,947.662354,-146.66748,2.511289
14.099121,953.063965,-150.421143,2.512038
7.598877,960.479736,-142.089844,2.512778
5.310059,954.89502,-155.273438,2.513517
10.71167,953.887939,-154.449463,2.514257
12.72583,980.438232,-148.132324,2.515006
15.289307,965.148926,-149.871826,2.515746
14.923096,966.888428,-152.34375,2.516487
11.077881,957.183838,-161.773682,2.517227
22.888184,967.163086,-151.062012,2.517976
17.852783,971.099854,-148.406982,2.518716
18.676758,975.585938,-148.040771,2.519456
12.451172,975.952148,-149.505615,2.520197
9.155273,979.064941,-142.63916,2.520946
18.4021,981.536865,-143.737793,2.521685
19.226074,980.712891,-137.420654,2.522435
13.275146,977.600098,-141.815186,2.523181
8.789062,971.740723,-145.019531,2.523937
4.852295,973.937988,-153.076172,2.524678
15.014648,970.092773,-147.583008,2.525418
8.880615,974.761963,-141.174316,2.526157
8.789062,971.557617,-150.238037,2.526907
11.169434,980.163574,-139.160156,2.527647
1.281738,977.416992,-148.681641,2.528388
6.958008,977.874756,-154.998779,2.529136
13.000488,978.33252,-146.209717,2.529913
18.218994,977.783203,-147.216797,2.530664
13.641357,977.050781,-159.576416,2.531404
12.908936,975.128174,-154.724121,2.532144
6.591797,964.141846,-156.37207,2.532906
9.338379,968.078613,-153.900146,2.533645
7.965088,975.67749,-152.526855,2.534385
4.02832,971.740723,-145.935059,2.53513
7.232666,971.923828,-151.519775,2.535872
9.155273,972.015381,-152.709961,2.536611
7.781982,965.332031,-157.928467,2.537351
6.408691,975.402832,-149.047852,2.538091
11.810303,972.65625,-138.519287,2.53884
11.260986,974.761963,-143.554688,2.53958
13.092041,975.494385,-145.935059,2.54032
9.063721,973.754883,-148.040771,2.54106
6.225586,975.67749,-149.32251,2.541808
8.148193,970.64209,-155.090332,2.542548
9.613037,970.184326,-151.245117,2.543288
6.408691,971.466064,-150.32959,2.544027
5.859375,1000.762939,-149.139404,2.544782
-0.732422,981.903076,-151.885986,2.545523
-2.105713,977.69165,-150.787354,2.546264
-5.584717,981.079102,-148.956299,2.547003
0.732422,976.135254,-151.794434,2.547751
-1.373291,976.867676,-153.35083,2.548489
4.02832,975.952148,-156.005859,2.549243
3.204346,974.945068,-154.266357,2.549986
6.317139,977.600098,-149.963379,2.550728
-4.302979,977.050781,-147.033691,2.551468
-1.281738,976.226807,-150.512695,2.552209
-8.422852,985.107422,-148.31543,2.552951
-6.500244,974.029541,-151.885986,2.553692
-0.640869,970.092773,-150.238037,2.554433
3.662109,977.874756,-146.850586,2.555175
10.803223,971.282959,-153.259277,2.555917
5.767822,967.437744,-155.181885,2.556659
4.669189,972.747803,-146.484375,2.5574
6.408691,967.987061,-147.583008,2.558141
8.69751,973.022461,-149.688721,2.558892
4.302979,969.63501,-141.174316,2.559634
-3.204346,972.015381,-143.554688,2.560375
1.739502,972.290039,-145.935059,2.561116
4.211426,976.867676,-150.146484,2.561865
-0.732422,974.304199,-141.906738,2.562607
1.373291,979.522705,-146.942139,2.563349
2.105713,969.543457,-139.343262,2.564089
-9.338379,970.916748,-142.913818,2.56484
6.958008,970.825195,-146.118164,2.565582
6.866455,978.607178,-163.696289,2.566323
-5.493164,985.565186,-144.287109,2.567064
-6.500244,978.149414,-146.118164,2.567808
-1.739502,982.727051,-147.216797,2.568556
-2.838135,967.071533,-145.019531,2.569297
5.310059,981.536865,-144.561768,2.570038
0.823975,971.191406,-152.893066,2.570782
22.43042,973.754883,-156.921387,2.571531
-3.753662,964.416504,-157.37915,2.572272
-2.380371,967.529297,-147.125244,2.573014
0.366211,963.409424,-153.35083,2.573764
-0.732422,970.733643,-146.759033,2.574508
0.091553,962.310791,-149.230957,2.575251
8.880615,966.61377,-149.139404,2.575996
-1.464844,958.190918,-155.548096,2.576739
0.915527,967.529297,-144.012451,2.57748
-2.01416,963.317871,-145.202637,2.578222
0.732422,956.085205,-154.998779,2.578963
-3.02124,956.90918,-152.34375,2.57972
4.394531,962.310791,-156.280518,2.580463
4.211426,961.669922,-147.583008,2.581292
3.295898,962.127686,-155.731201,2.582034
3.112793,960.845947,-158.02002,2.582787
4.02832,963.043213,-150.146484,2.583528
6.500244,968.902588,-148.498535,2.584269
15.106201,974.212646,-151.794434,2.58501
5.0354,967.62085,-155.456543,2.585761
2.380371,972.65625,-141.448975,2.586503
1.373291,975.036621,-151.794434,2.587244
2.563477,972.381592,-150.421143,2.587985
-1.00708,979.705811,-156.555176,2.588736
0.732422,978.424072,-150.970459,2.589478
2.471924,975.860596,-148.864746,2.590219
-4.302979,984.008789,-142.181396,2.590959
-6.225586,983.825684,-150.054932,2.591709
-4.302979,976.68457,-142.089844,2.592451
-2.105713,978.057861,-153.167725,2.593191
6.591797,982.36084,-153.167725,2.593932
0.091553,979.705811,-154.266357,2.594682
5.126953,980.072021,-144.836426,2.595424
2.563477,978.973389,-153.167725,2.596165
12.451172,980.712891,-145.6604,2.596905
7.965088,976.226807,-145.202637,2.597655
12.084961,980.804443,-148.31543,2.598396
2.655029,973.571777,-149.047852,2.599138
14.923096,980.987549,-145.202637,2.599879
12.084961,969.63501,-148.223877,2.600628
9.979248,973.480225,-146.30127,2.601377
20.874023,975.219727,-143.829346,2.602131
15.197754,975.128174,-146.759033,2.602879
16.021729,974.304199,-146.850586,2.603621
16.204834,966.430664,-145.111084,2.604363
13.458252,971.740723,-142.364502,2.605104
3.936768,974.304199,-137.695312,2.605846
15.014648,973.480225,-137.969971,2.606587
18.768311,975.219727,-143.371582,2.607329
12.908936,970.184326,-147.216797,2.60807
14.73999,978.057861,-140.716553,2.608812
11.077881,973.205566,-150.512695,2.609553
9.338379,968.536377,-149.871826,2.610295
12.268066,967.437744,-139.251709,2.611036
8.605957,964.874268,-145.202637,2.611777
15.197754,966.247559,-146.026611,2.612519
10.986328,962.677002,-150.238037,2.613261
15.74707,969.543457,-146.209717,2.614002
17.669678,971.557617,-144.836426,2.614743
17.303467,965.789795,-140.350342,2.615497
10.345459,963.592529,-146.66748,2.61624
16.021729,958.374023,-149.047852,2.616982
17.852783,964.874268,-139.526367,2.617723
6.408691,959.838867,-142.913818,2.618466
13.183594,960.113525,-140.625,2.619208
16.479492,966.339111,-143.096924,2.61995
13.458252,968.994141,-149.780273,2.620692
13.641357,969.63501,-153.167725,2.621434
10.528564,964.96582,-139.068604,2.622175
22.705078,963.500977,-144.744873,2.622917
14.648438,958.374023,-149.139404,2.623658
16.204834,981.811523,-147.491455,2.624413
14.648438,962.585449,-147.30835,2.625155
10.345459,951.599121,-150.512695,2.625897
8.972168,959.747314,-140.991211,2.626638
10.986328,962.768555,-140.716553,2.627381
11.810303,961.853027,-144.012451,2.628122
11.444092,964.782715,-139.709473,2.628863
17.76123,967.803955,-142.181396,2.629604
12.908936,972.930908,-140.533447,2.630355
15.197754,965.881348,-140.441895,2.631097
14.465332,964.324951,-140.350342,2.631841
15.289307,967.254639,-162.231445,2.632582
18.4021,962.493896,-136.413574,2.633332
13.000488,966.61377,-138.61084,2.634074
14.373779,971.191406,-141.448975,2.634815
18.859863,964.599609,-139.709473,2.635557
14.190674,964.416504,-145.294189,2.636308
17.486572,973.571777,-138.793945,2.63705
19.042969,969.177246,-142.181396,2.637791
16.387939,981.35376,-139.343262,2.638558
19.40918,972.381592,-138.153076,2.639303
16.937256,975.860596,-141.357422,2.640044
19.500732,975.585938,-146.484375,2.640786
20.324707,973.754883,-141.815186,2.641528
22.064209,977.600098,-138.153076,2.64227
15.380859,973.571777,-137.512207,2.643012
9.796143,981.628418,-139.343262,2.643753
9.338379,979.522705,-139.801025,2.644495
18.768311,981.079102,-140.808105,2.645236
15.014648,975.311279,-143.829346,2.645977
16.387939,982.269287,-145.111084,2.646718
9.155273,979.064941,-139.160156,2.64746
15.472412,977.325439,-140.258789,2.648213
14.556885,967.163086,-146.759033,2.648956
9.155273,970.550537,-147.674561,2.649697
12.359619,966.156006,-143.371582,2.650439
16.662598,975.952148,-147.766113,2.651182
20.324707,973.205566,-150.421143,2.651927
21.881104,977.783203,-143.829346,2.652681
20.965576,978.515625,-146.026611,2.653425
24.261475,981.994629,-142.364502,2.654257
26.916504,984.008789,-138.61084,2.655003
19.40918,974.67041,-145.019531,2.655745
19.592285,979.797363,-131.103516,2.656487
26.275635,989.959717,-140.808105,2.657229
20.324707,989.685059,-135.406494,2.65797
24.902344,993.713379,-136.413574,2.658712
25.726318,985.198975,-147.949219,2.659453
19.775391,993.804932,-129.547119,2.660196
20.874023,984.375,-132.476807,2.660937
21.148682,989.501953,-132.568359,2.661678
18.310547,993.07251,-135.314941,2.66242
18.951416,987.030029,-139.160156,2.663176
19.317627,1000.030518,-140.716553,2.663919
20.782471,995.727539,-144.012451,2.66466
18.676758,991.790771,-143.280029,2.665401
21.606445,984.924316,-143.920898,2.666144
21.42334,994.537354,-152.069092,2.666885
22.705078,987.945557,-141.265869,2.667626
17.211914,984.558105,-142.272949,2.668368
17.211914,987.39624,-146.850586,2.669119
15.472412,990.05127,-149.871826,2.669861
20.41626,993.896484,-141.357422,2.670602
21.697998,991.699219,-147.125244,2.671344
24.993896,991.516113,-148.498535,2.672094
26.824951,991.516113,-146.392822,2.672836
26.000977,985.290527,-148.956299,2.673577
20.324707,988.128662,-144.104004,2.674324
13.824463,992.340088,-137.145996,2.67507
17.120361,996.826172,-145.751953,2.675823
17.120361,986.022949,-144.195557,2.676572
45.593262,980.712891,-139.434814,2.677313
24.536133,986.938477,-144.836426,2.678055
22.888184,993.804932,-139.434814,2.678796
18.676758,971.923828,-142.913818,2.679537
18.4021,985.931396,-139.892578,2.680279
16.75415,985.748291,-136.962891,2.681021
16.75415,987.121582,-163.330078,2.681762
20.324707,996.002197,-147.857666,2.682504
21.42334,993.713379,-137.145996,2.683245
25.817871,989.044189,-139.801025,2.683986
24.902344,991.607666,-143.463135,2.684728
23.529053,984.008789,-142.547607,2.685469
23.529053,987.304688,-143.096924,2.686211
31.402588,979.797363,-139.892578,2.686969
