ACC_X,ACC_Y,ACC_Z,Time
-178.436279,839.172363,372.070312,1.065636
-184.020996,839.813232,377.655029,1.066381
-192.718506,852.081299,382.232666,1.067125
-189.239502,856.658936,401.184082,1.06787
-194.366455,858.306885,408.14209,1.068614
-202.056885,862.1521,427.093506,1.069442
-185.943604,877.166748,440.460205,1.070396
-189.056396,886.047363,466.278076,1.071142
-190.795898,888.793945,451.35498,1.071886
-189.422607,868.011475,453.918457,1.07263
-183.746338,889.801025,459.320068,1.073466
-186.584473,890.716553,445.770264,1.074211
-189.971924,893.463135,446.960449,1.074955
-198.944092,893.188477,447.32666,1.075699
-202.972412,889.434814,442.016602,1.076443
-195.556641,895.935059,436.889648,1.077187
-197.296143,880.371094,434.051514,1.077949
-190.704346,877.166748,430.755615,1.078694
-184.753418,879.730225,428.009033,1.079438
-179.168701,885.406494,426.452637,1.080182
-164.520264,887.329102,422.698975,1.080928
-161.590576,886.779785,428.009033,1.081672
-163.238525,882.110596,432.58667,1.082416
-155.639648,886.688232,433.044434,1.083159
-155.273438,883.666992,420.959473,1.083903
-161.407471,885.314941,427.001953,1.084647
-150.604248,884.216309,427.368164,1.085391
-151.428223,889.068604,425.90332,1.086134
-167.907715,880.371094,428.466797,1.086878
-146.392822,882.476807,429.840088,1.087622
-161.132812,894.561768,438.171387,1.088365
-160.308838,895.935059,442.657471,1.089109
-157.836914,868.652344,447.052002,1.089853
-164.245605,884.216309,442.565918,1.090607
-160.675049,880.462646,441.28418,1.091352
-152.252197,872.955322,441.192627,1.092086
-158.752441,893.920898,440.2771,1.09282
-159.210205,865.905762,435.424805,1.093586
-166.259766,833.862305,435.150146,1.09433
-175.415039,887.878418,414.276123,1.095074
-159.759521,908.752441,413.360596,1.095829
-127.166748,881.92749,426.361084,1.096598
-161.315918,865.539551,429.382324,1.097403
-142.730713,863.891602,424.530029,1.098152
-158.569336,868.743896,421.783447,1.098897
-148.590088,850.982666,417.663574,1.099642
-147.125244,848.968506,404.754639,1.100386
-154.35791,864.074707,416.107178,1.101131
-159.484863,845.214844,411.621094,1.101891
-160.766602,860.412598,412.261963,1.102635
-180.175781,852.813721,403.198242,1.103379
-172.943115,846.954346,401.641846,1.104122
-173.583984,849.060059,408.599854,1.104867
-168.457031,863.433838,410.430908,1.105611
-171.020508,864.257812,410.247803,1.106355
-152.435303,869.659424,418.029785,1.107099
-158.111572,870.941162,413.543701,1.107843
-157.287598,878.082275,426.818848,1.108587
-146.942139,889.709473,438.354492,1.109331
-164.337158,891.357422,442.565918,1.110076
-156.921387,879.364014,466.369629,1.110828
-160.400391,877.532959,470.76416,1.111573
-193.17627,877.166748,460.327148,1.112317
-183.380127,884.765625,459.777832,1.113061
-194.641113,888.427734,442.199707,1.113805
-194.458008,895.385742,439.819336,1.114559
-198.944092,888.519287,427.368164,1.115303
-210.388184,880.554199,428.924561,1.116047
-210.845947,864.898682,413.452148,1.11679
-205.444336,852.539062,406.311035,1.117544
-204.345703,851.989746,391.937256,1.118288
-201.690674,848.419189,391.021729,1.119031
-190.887451,849.151611,381.958008,1.119776
-166.534424,860.778809,383.056641,1.120538
-183.47168,855.46875,375.915527,1.121282
-184.844971,858.032227,382.598877,1.122026
-184.844971,850.891113,393.310547,1.12277
-199.035645,846.862793,394.683838,1.123523
-197.113037,852.172852,394.775391,1.124268
-201.049805,854.095459,395.141602,1.125012
-206.451416,865.356445,396.514893,1.125756
-210.9375,868.652344,400.268555,1.126509
-204.528809,874.694824,404.754639,1.127253
-210.113525,877.89917,411.621094,1.127997
-218.170166,876.525879,410.797119,1.12874
-202.606201,889.801025,421.783447,1.129494
-208.282471,873.596191,425.811768,1.130238
-200.134277,898.040771,438.720703,1.130982
-194.000244,904.449463,429.656982,1.131791
-194.824219,904.724121,430.206299,1.132545
-190.246582,905.731201,432.678223,1.133289
-187.133789,908.02002,441.925049,1.134032
-193.267822,911.132812,422.973633,1.134775
-196.746826,910.491943,444.671631,1.135528
-201.873779,906.555176,442.382812,1.136272
-201.23291,901.428223,426.818848,1.137016
-197.113037,908.752441,435.791016,1.137759
-201.599121,904.449463,431.213379,1.138513
-201.873779,914.978027,433.868408,1.139257
-198.303223,911.956787,432.403564,1.140001
-203.613281,906.280518,433.044434,1.140745
-199.035645,905.181885,426.452637,1.141499
-194.641113,899.780273,429.199219,1.142243
-196.380615,890.991211,427.642822,1.142987
-200.134277,891.540527,417.022705,1.143731
-188.598633,896.484375,425.628662,1.144568
-193.54248,901.245117,420.501709,1.145313
-196.472168,890.350342,410.888672,1.146197
-189.880371,895.843506,419.494629,1.146943
-191.070557,886.871338,442.474365,1.147687
-187.591553,904.632568,430.480957,1.148431
-190.429688,905.090332,440.002441,1.14924
-189.697266,903.808594,434.051514,1.149988
-175.872803,907.745361,445.587158,1.150736
-176.330566,908.752441,442.474365,1.151481
-166.259766,907.287598,449.707031,1.152225
-170.013428,913.787842,445.3125,1.152984
-170.379639,907.928467,444.946289,1.153729
-167.358398,908.38623,450.073242,1.154473
-169.0979,906.829834,441.192627,1.155217
-166.07666,906.555176,439.544678,1.155961
-160.308838,901.062012,427.093506,1.156704
-157.196045,898.406982,427.001953,1.157448
-153.167725,898.040771,440.2771,1.158192
-150.054932,885.772705,427.825928,1.158936
-149.32251,887.969971,424.072266,1.159681
-151.794434,892.822266,429.473877,1.160425
-150.695801,891.357422,420.86792,1.161169
-154.907227,892.547607,426.635742,1.161919
-153.991699,895.202637,421.875,1.162664
-151.33667,888.336182,416.564941,1.163407
-148.864746,891.540527,424.713135,1.164151
-152.160645,897.30835,439.727783,1.164896
-155.914307,890.899658,432.128906,1.165639
-157.745361,889.984131,429.382324,1.166388
-155.456543,886.871338,429.016113,1.167135
-151.794434,883.209229,440.460205,1.167914
-151.153564,884.58252,431.488037,1.168703
-145.294189,886.230469,438.079834,1.169454
-147.583008,883.483887,441.558838,1.170197
-156.463623,882.659912,436.61499,1.170962
-152.709961,884.674072,423.339844,1.171704
-152.709961,890.441895,428.924561,1.172446
-158.294678,880.279541,424.804688,1.173188
-151.794434,882.568359,425.079346,1.173941
-156.738281,877.349854,422.973633,1.174683
-157.196045,873.413086,420.959473,1.175425
-164.428711,871.765137,423.980713,1.176167
-185.119629,871.490479,421.783447,1.176919
-170.562744,872.2229,419.494629,1.177662
-168.182373,872.86377,422.424316,1.178404
-168.914795,877.990723,417.663574,1.179146
-171.203613,873.504639,421.783447,1.179889
-171.75293,868.743896,419.952393,1.180632
-177.246094,872.680664,425.720215,1.181383
-173.309326,865.17334,422.790527,1.182127
-174.041748,874.145508,428.741455,1.18287
-170.928955,874.328613,422.241211,1.183613
-167.816162,878.265381,417.205811,1.184355
-171.661377,876.159668,419.769287,1.185097
-168.731689,889.526367,431.57959,1.18584
-169.189453,877.258301,435.424805,1.186582
-166.168213,891.357422,441.741943,1.187324
-169.830322,892.822266,440.002441,1.188066
-168.273926,900.604248,437.530518,1.188809
-172.668457,896.942139,436.706543,1.189551
-172.851562,895.294189,449.798584,1.190294
-173.858643,894.470215,450.805664,1.191036
-170.654297,902.709961,454.376221,1.191788
-176.330566,909.667969,457.763672,1.192531
-176.055908,902.893066,456.939697,1.193273
-180.81665,906.555176,457.580566,1.194016
-182.647705,909.851074,449.707031,1.194767
-180.81665,906.280518,454.742432,1.195502
-173.217773,920.654297,459.411621,1.196235
-178.894043,907.104492,447.143555,1.19697
-170.74585,910.308838,426.361084,1.197707
-177.337646,903.717041,439.086914,1.198449
-175.048828,899.139404,436.61499,1.199191
-179.80957,902.984619,440.002441,1.199933
-183.746338,890.716553,439.27002,1.200676
-179.901123,893.920898,437.438965,1.201418
-178.253174,890.716553,428.55835,1.202226
-176.239014,893.005371,421.966553,1.202969
-177.154541,902.252197,440.643311,1.203712
-170.379639,898.040771,429.931641,1.204453
-171.295166,904.449463,431.396484,1.205195
-168.731689,901.611328,435.058594,1.205937
-164.245605,900.146484,432.495117,1.206679
-159.301758,904.815674,438.079834,1.207422
-153.991699,902.34375,440.551758,1.208164
-155.914307,894.836426,449.157715,1.208906
-157.470703,894.195557,443.389893,1.209649
-155.456543,896.759033,441.558838,1.210392
-151.062012,896.392822,428.283691,1.211134
-154.815674,892.456055,444.030762,1.211876
-152.984619,897.674561,448.699951,1.212618
-154.35791,896.30127,442.932129,1.213371
-157.012939,895.111084,438.446045,1.214114
-152.526855,896.66748,439.63623,1.214856
-162.963867,896.575928,432.220459,1.215598
-159.0271,896.66748,433.776855,1.216438
-156.646729,889.61792,433.319092,1.217182
-152.160645,891.448975,432.769775,1.217924
-152.252197,889.251709,432.952881,1.218677
-156.921387,888.519287,432.678223,1.21942
-151.702881,875.244141,430.297852,1.220162
-156.738281,877.349854,443.572998,1.220904
-152.709961,880.279541,424.346924,1.221647
-150.604248,883.758545,428.466797,1.222435
-149.688721,876.800537,428.009033,1.22347
-153.808594,883.300781,430.206299,1.224239
-151.428223,881.195068,425.354004,1.225049
-151.611328,881.652832,423.614502,1.225813
-160.766602,880.737305,421.783447,1.22658
-150.146484,873.504639,424.438477,1.227368
-149.597168,877.532959,425.628662,1.228135
-160.400391,881.652832,427.368164,1.228907
-164.0625,881.195068,417.84668,1.229665
-158.843994,877.89917,418.395996,1.23042
-161.956787,873.138428,415.740967,1.231165
-163.970947,876.251221,420.410156,1.231907
-161.956787,880.92041,424.987793,1.23265
-160.766602,879.638672,421.783447,1.233393
-154.632568,883.758545,417.938232,1.234137
-165.527344,880.187988,418.670654,1.234879
-157.562256,872.680664,418.945312,1.235622
-165.161133,869.384766,414.001465,1.236369
-160.766602,871.856689,414.367676,1.23712
-159.576416,881.378174,412.078857,1.237866
-162.597656,888.061523,420.318604,1.23863
-162.963867,886.047363,421.142578,1.239401
-160.675049,884.674072,415.649414,1.240192
-162.780762,885.864258,418.121338,1.240942
-175.872803,880.92041,428.283691,1.241684
-168.640137,880.371094,419.311523,1.242427
-167.907715,880.645752,429.016113,1.24317
-175.598145,881.103516,424.621582,1.243912
-174.407959,886.59668,420.410156,1.244655
-174.407959,879.91333,420.501709,1.245397
-170.562744,885.5896,422.241211,1.246139
-171.569824,881.92749,422.424316,1.246882
-171.569824,893.64624,424.530029,1.247624
-165.161133,886.688232,423.156738,1.248366
-166.992188,894.287109,418.029785,1.249108
-171.478271,893.005371,422.424316,1.249851
-157.562256,899.871826,423.797607,1.250593
-162.139893,892.364502,430.847168,1.25135
-163.970947,891.906738,436.248779,1.252093
-158.294678,899.780273,440.185547,1.252835
-160.675049,902.160645,433.776855,1.253579
-165.06958,894.287109,428.283691,1.254333
-156.738281,898.040771,430.57251,1.255075
-166.900635,894.836426,422.058105,1.255818
-171.386719,899.597168,422.790527,1.256561
-162.04834,892.547607,431.030273,1.257303
-169.464111,897.216797,435.241699,1.258046
-167.266846,896.209717,428.833008,1.258788
-167.999268,899.047852,425.811768,1.259531
-163.05542,898.956299,435.699463,1.260273
-160.949707,890.808105,430.664062,1.261025
-164.154053,892.089844,432.312012,1.261767
-163.05542,890.075684,426.727295,1.262509
-166.259766,893.554688,428.55835,1.263252
-164.520264,889.160156,422.973633,1.264012
-168.914795,883.026123,426.086426,1.264755
-174.407959,885.406494,429.656982,1.265497
-177.612305,887.237549,421.417236,1.26624
-178.894043,886.047363,419.219971,1.266991
-171.112061,886.962891,433.044434,1.267734
-171.112061,877.624512,422.515869,1.268476
-163.330078,876.342773,419.403076,1.269218
-172.302246,876.89209,415.649414,1.269971
-167.08374,872.497559,409.606934,1.270714
-172.851562,863.067627,405.761719,1.271456
-167.08374,865.081787,409.240723,1.272199
-166.625977,866.821289,410.064697,1.27295
-163.146973,856.750488,412.994385,1.273692
-169.921875,857.208252,409.973145,1.274435
-175.598145,860.687256,403.4729,1.275177
-169.0979,852.630615,396.697998,1.275928
-165.618896,841.73584,395.141602,1.276671
-169.555664,855.285645,401.184082,1.277412
-171.295166,850.341797,403.930664,1.278192
-168.823242,856.109619,412.353516,1.278945
-165.344238,847.869873,408.508301,1.279687
-168.365479,854.003906,411.987305,1.28043
-162.689209,856.018066,403.656006,1.281172
-157.653809,865.814209,409.790039,1.281923
-161.956787,867.1875,416.931152,1.282666
-162.231445,863.250732,417.663574,1.283408
-161.407471,860.870361,421.875,1.28415
-166.351318,864.16626,423.614502,1.284901
-169.555664,865.356445,413.452148,1.285644
-165.252686,867.828369,416.19873,1.286386
-162.963867,863.433838,417.663574,1.287129
-167.999268,859.039307,417.297363,1.287963
-156.921387,861.236572,418.487549,1.288706
-161.407471,863.433838,416.015625,1.289447
-162.04834,861.968994,416.107178,1.29019
-161.590576,862.976074,415.740967,1.290941
-162.963867,853.363037,414.093018,1.291684
-159.210205,854.370117,402.923584,1.292426
-182.922363,846.496582,408.325195,1.293168
-164.978027,849.884033,409.057617,1.29392
-159.118652,844.665527,401.916504,1.294657
-155.548096,849.517822,404.11377,1.295392
-164.154053,850.158691,402.557373,1.296126
-160.03418,846.954346,400.45166,1.296887
-160.308838,851.531982,410.614014,1.29763
-162.231445,842.010498,401.184082,1.298372
-183.563232,844.207764,407.409668,1.299171
-159.0271,848.419189,406.219482,1.299951
-169.0979,847.869873,410.797119,1.300804
-164.0625,847.595215,412.719727,1.301548
-160.675049,856.567383,415.466309,1.302294
-170.10498,850.799561,417.480469,1.303038
-168.823242,857.48291,422.607422,1.303781
-164.794922,858.673096,425.628662,1.304524
-173.034668,865.814209,422.607422,1.305266
-162.963867,864.257812,416.748047,1.306007
-167.449951,865.997314,422.515869,1.306747
-158.569336,867.370605,431.945801,1.307487
-154.907227,866.912842,428.375244,1.308257
-165.710449,871.765137,428.466797,1.309004
-168.548584,864.715576,428.55835,1.30975
-167.449951,869.659424,416.656494,1.310502
-163.604736,862.701416,426.635742,1.311337
-172.302246,872.955322,428.466797,1.312091
-171.295166,868.19458,417.663574,1.312835
-165.161133,868.835449,419.403076,1.313579
-170.196533,863.525391,420.227051,1.314333
-169.372559,855.46875,404.11377,1.315077
-175.415039,856.201172,408.966064,1.315821
-174.133301,853.912354,409.515381,1.316564
-167.266846,860.870361,405.670166,1.317318
-161.315918,860.870361,410.247803,1.318061
-168.457031,851.715088,404.388428,1.318805
-162.780762,846.954346,404.571533,1.319549
-166.534424,851.257324,409.698486,1.320293
-169.647217,846.679688,409.240723,1.321037
-167.358398,851.806641,402.832031,1.321781
-166.717529,846.221924,404.937744,1.322524
-172.210693,849.700928,399.169922,1.323269
-180.541992,842.102051,414.18457,1.324013
-171.020508,847.503662,409.240723,1.324758
-167.358398,851.44043,412.628174,1.325503
-169.0979,843.75,410.705566,1.32626
-169.464111,852.081299,417.663574,1.327004
-170.379639,840.454102,409.515381,1.327749
-165.985107,849.42627,416.931152,1.328492
-166.717529,845.76416,408.508301,1.329237
-144.470215,848.236084,409.14917,1.329981
-169.0979,851.806641,409.057617,1.330725
-168.365479,850.524902,414.18457,1.331468
-160.583496,853.820801,418.487549,1.332221
-159.0271,859.771729,418.487549,1.332965
-154.35791,863.616943,421.966553,1.333708
-151.153564,874.053955,421.875,1.334452
-163.330078,868.927002,421.600342,1.335206
-164.337158,853.546143,430.755615,1.33595
-164.611816,873.22998,431.488037,1.336694
-165.710449,867.279053,428.649902,1.337438
-166.442871,868.743896,434.051514,1.338183
-165.618896,862.335205,432.037354,1.338927
-165.344238,849.975586,421.508789,1.339671
-166.07666,867.645264,428.55835,1.340416
-175.231934,851.806641,424.163818,1.34116
-165.618896,853.729248,421.508789,1.341904
-171.020508,839.172363,411.529541,1.342648
-162.689209,826.812744,402.374268,1.343392
-159.942627,842.102051,406.402588,1.344136
-159.301758,834.503174,405.944824,1.34488
-158.935547,827.545166,396.789551,1.345623
-154.998779,834.320068,405.303955,1.346431
-155.273438,831.756592,405.303955,1.347176
-157.104492,833.587646,377.471924,1.34792
-152.435303,827.362061,399.078369,1.348664
-157.470703,827.178955,414.001465,1.349408
-168.640137,823.242188,410.888672,1.350161
-172.668457,831.939697,414.642334,1.350906
-170.837402,834.04541,412.628174,1.35165
-174.407959,833.862305,412.994385,1.352394
-172.210693,828.186035,420.776367,1.353138
-172.119141,827.636719,428.466797,1.353883
-172.943115,831.573486,416.564941,1.354627
-165.893555,825.439453,440.917969,1.355371
-174.041748,826.171875,422.241211,1.356115
-171.386719,831.848145,417.755127,1.356859
-167.08374,834.594727,412.811279,1.357603
-163.05542,820.495605,405.303955,1.358347
-164.611816,822.418213,404.296875,1.359177
-158.111572,829.925537,401.45874,1.359922
-162.231445,826.99585,402.648926,1.360665
-155.36499,823.699951,412.17041,1.36141
-161.407471,792.755127,404.846191,1.362154
-158.02002,773.986816,403.656006,1.362899
-147.033691,797.058105,404.022217,1.363642
-140.533447,869.750977,400.909424,1.364387
-91.827393,877.89917,401.641846,1.365136
-116.821289,879.821777,418.212891,1.365881
-116.088867,859.771729,428.924561,1.366625
-125.976562,833.679199,439.819336,1.367369
-129.730225,838.165283,429.840088,1.368113
-131.011963,838.7146,425.079346,1.368877
-126.068115,847.320557,416.381836,1.369621
-128.448486,853.271484,403.564453,1.370365
-112.701416,846.954346,402.374268,1.371109
-144.287109,825.98877,396.606445,1.371864
-145.019531,814.453125,376.647949,1.372607
-134.674072,804.016113,396.240234,1.373351
-127.075195,795.410156,395.782471,1.374095
-114.074707,807.952881,392.852783,1.374848
-106.201172,811.157227,392.211914,1.375627
-96.679688,810.516357,391.021729,1.376594
-86.883545,803.924561,392.120361,1.377447
-77.178955,797.698975,397.064209,1.378195
-80.383301,793.395996,391.75415,1.37894
-71.411133,793.85376,390.380859,1.379685
-83.221436,765.380859,397.979736,1.380448
-57.037354,766.204834,365.844727,1.381194
-88.165283,775.909424,376.647949,1.381952
-85.784912,786.987305,373.718262,1.382722
-70.495605,780.761719,357.147217,1.383499
-93.017578,783.599854,363.189697,1.384244
-81.481934,780.029297,358.24585,1.384988
-99.42627,777.282715,361.450195,1.385733
-92.468262,772.705078,359.527588,1.386487
-95.855713,774.993896,362.457275,1.387231
-84.777832,770.874023,356.414795,1.387971
-89.447021,743.225098,360.351562,1.388705
-72.967529,761.810303,353.027344,1.389463
-94.390869,779.388428,343.048096,1.390206
-118.286133,756.317139,363.739014,1.39095
-64.361572,740.936279,367.858887,1.391694
-108.032227,742.034912,354.492188,1.392447
-91.186523,751.190186,360.992432,1.393191
-86.334229,738.372803,346.435547,1.393935
-101.623535,753.204346,337.097168,1.394679
-78.643799,763.000488,320.526123,1.395432
-80.657959,761.260986,327.301025,1.396177
-70.404053,748.443604,318.695068,1.396922
-101.623535,758.422852,313.38501,1.397666
-82.305908,769.40918,303.314209,1.39842
-85.601807,770.507812,295.98999,1.399164
-83.587646,799.255371,279.327393,1.399908
-84.777832,806.213379,284.912109,1.400652
-82.763672,797.698975,292.877197,1.401405
-95.581055,816.650391,294.799805,1.402149
-95.306396,823.516846,304.138184,1.402893
-111.785889,805.480957,324.829102,1.403636
-97.961426,794.494629,351.837158,1.404399
-87.615967,834.136963,405.853271,1.405142
-99.243164,892.364502,463.623047,1.405886
-57.495117,907.928467,443.023682,1.40663
-77.362061,938.50708,440.460205,1.407384
-83.770752,942.077637,435.241699,1.408127
-129.821777,960.662842,424.438477,1.408872
-126.068115,960.296631,433.59375,1.409615
-171.020508,951.599121,431.762695,1.410369
-201.690674,941.802979,412.994385,1.411113
-232.818604,932.006836,405.395508,1.411857
-255.79834,926.422119,407.958984,1.4126
-269.165039,922.302246,409.057617,1.413354
-272.369385,931.549072,418.945312,1.414098
-278.411865,935.394287,417.755127,1.414842
-269.439697,944.732666,422.88208,1.415586
-252.685547,955.718994,439.910889,1.416339
-224.212646,970.64209,448.883057,1.417082
-218.170166,941.619873,452.728271,1.417891
-209.564209,965.240479,446.685791,1.418635
-185.302734,972.015381,450.531006,1.419389
-188.232422,963.226318,434.967041,1.420133
-187.774658,962.585449,415.100098,1.420877
-192.443848,970.916748,404.205322,1.421621
-192.993164,970.733643,395.41626,1.422374
-207.092285,968.170166,383.056641,1.423118
-210.845947,964.324951,379.394531,1.423862
-231.719971,957.550049,395.41626,1.424606
-230.072021,952.972412,411.437988,1.425359
-239.868164,947.753906,414.093018,1.426103
-229.888916,911.132812,430.938721,1.426846
-217.163086,906.555176,442.199707,1.42759
-202.972412,892.089844,419.494629,1.428343
-204.711914,892.089844,421.691895,1.429087
-187.866211,877.89917,404.47998,1.429831
-194.458008,887.512207,375.823975,1.430575
-180.358887,881.469727,338.104248,1.431417
-189.788818,872.039795,317.138672,1.432162
-211.669922,850.250244,293.060303,1.432905
-197.20459,848.236084,293.518066,1.433649
-181.640625,834.503174,288.391113,1.434402
-182.006836,819.122314,285.095215,1.435147
-157.196045,813.62915,276.763916,1.43589
-141.723633,814.453125,274.841309,1.436634
-128.082275,809.875488,277.038574,1.437387
-130.828857,803.375244,282.714844,1.438132
-129.638672,785.614014,287.475586,1.438876
-127.807617,779.937744,278.503418,1.439619
-107.849121,788.452148,279.602051,1.440381
-110.137939,786.529541,268.249512,1.441126
-116.821289,779.296875,270.53833,1.44187
-105.743408,735.26001,265.960693,1.442614
-118.927002,859.680176,285.186768,1.443367
-59.326172,1022.094727,199.676514,1.444112
-28.289795,1022.186279,336.090088,1.444856
-117.828369,934.570312,445.495605,1.445599
-121.490479,852.813721,491.638184,1.446353
-88.623047,876.434326,471.679688,1.447097
-99.42627,912.689209,507.385254,1.447841
-131.835938,927.062988,511.871338,1.448584
-130.371094,958.190918,537.231445,1.449338
-190.979004,955.993652,573.21167,1.450082
-186.950684,964.416504,561.126709,1.450826
-158.569336,964.96582,550.506592,1.451569
-207.275391,927.062988,610.473633,1.45239
-234.008789,928.894043,561.584473,1.453148
-196.380615,934.844971,507.202148,1.453911
-317.687988,908.477783,497.497559,1.454794
-324.188232,872.680664,469.024658,1.455547
-355.682373,871.765137,441.101074,1.456293
-325.836182,857.849121,429.748535,1.457037
-319.152832,854.187012,422.698975,1.45779
-319.702148,849.243164,414.733887,1.458524
-284.729004,863.891602,407.775879,1.459258
-270.53833,843.841553,405.212402,1.459992
-239.868164,854.644775,412.811279,1.460726
-237.121582,832.763672,429.107666,1.461505
-219.268799,838.623047,404.846191,1.462248
-189.331055,850.158691,401.824951,1.462992
-153.533936,836.883545,368.31665,1.463735
-150.970459,831.02417,335.723877,1.464477
-107.391357,794.86084,281.341553,1.46522
-96.679688,786.712646,256.80542,1.465962
-82.305908,764.556885,250.854492,1.466705
-55.755615,763.549805,234.375,1.467458
-34.973145,761.352539,234.924316,1.4682
-17.120361,761.71875,233.551025,1.468944
-16.204834,759.063721,228.69873,1.469686
-15.838623,752.929688,243.530273,1.47044
-8.331299,739.562988,235.656738,1.471182
-15.380859,736.816406,232.818604,1.471925
-31.036377,719.87915,231.628418,1.472667
-30.303955,718.963623,193.634033,1.473418
-54.931641,719.238281,184.570312,1.474161
-92.926025,696.166992,180.358887,1.474903
-86.05957,689.666748,158.111572,1.475646
-120.941162,697.723389,125.152588,1.476409
-131.92749,689.39209,103.912354,1.477151
-141.63208,701.293945,95.76416,1.477894
-182.556152,720.336914,107.757568,1.478636
-174.682617,751.831055,95.031738,1.479388
-141.63208,773.712158,112.335205,1.480131
-134.490967,781.311035,99.42627,1.480873
-131.103516,806.57959,87.615967,1.481616
-139.61792,808.135986,51.269531,1.482368
-152.526855,810.333252,44.311523,1.48311
-169.281006,793.487549,16.845703,1.483852
-194.18335,774.719238,-11.71875,1.484594
-239.318848,782.867432,-16.479492,1.485346
-244.354248,782.684326,-64.178467,1.486088
-250.488281,769.866943,-72.143555,1.486831
-214.141846,780.578613,-85.601807,1.487616
-240.966797,793.85376,-103.729248,1.488369
-255.340576,784.698486,-136.59668,1.489111
-287.109375,791.381836,-134.124756,1.489853
-301.849365,1015.960693,-119.934082,1.490594
-281.158447,1129.760742,-112.243652,1.491348
-65.2771,1174.713135,-62.805176,1.492082
-123.779297,1097.53418,-23.4375,1.492816
-340.209961,932.922363,80.291748,1.493551
-322.998047,925.323486,164.0625,1.494307
-282.714844,952.423096,207.91626,1.49505
-276.672363,956.176758,281.158447,1.495792
-295.623779,977.233887,321.44165,1.496534
-308.532715,971.832275,386.260986,1.497285
-293.701172,998.291016,427.642822,1.498027
-267.791748,1043.792725,446.777344,1.498769
-251.586914,1003.78418,496.948242,1.499512
-273.193359,1017.51709,515.625,1.500264
-285.186768,976.776123,513.702393,1.501007
-292.144775,940.429688,496.398926,1.501749
-303.131104,933.929443,486.14502,1.502491
-326.568604,919.372559,463.348389,1.50333
-334.716797,897.216797,453.643799,1.504072
-316.223145,873.596191,422.332764,1.504814
-301.208496,845.672607,357.788086,1.505556
-323.547363,820.3125,340.484619,1.506308
30.395508,574.310303,367.950439,1.50705
-26.275635,771.881104,545.654297,1.507793
-339.84375,597.930908,555.908203,1.508535
267.333984,657.440186,441.375732,1.509295
28.656006,700.286865,394.40918,1.510038
-328.399658,587.585449,318.969727,1.510781
105.285645,654.418945,186.401367,1.511523
16.75415,653.411865,124.969482,1.512275
-339.84375,593.811035,9.70459,1.513017
-29.388428,649.749756,-36.895752,1.513759
-40.283203,628.692627,-116.18042,1.514501
-239.4104,619.262695,-183.746338,1.515253
-182.006836,631.988525,-213.317871,1.515995
-30.761719,666.96167,-295.257568,1.516738
-121.856689,681.70166,-330.047607,1.517479
-217.987061,734.161377,-424.530029,1.518232
-48.065186,741.577148,-496.307373,1.518974
-163.421631,795.318604,-540.252686,1.519717
-259.185791,858.947754,-623.291016,1.520459
-168.365479,902.801514,-650.756836,1.52121
-293.884277,921.75293,-682.159424,1.521953
-514.892578,859.954834,-670.98999,1.522696
-572.20459,782.226562,-684.7229,1.523438
165.893555,668.151855,-718.688965,1.524188
299.01123,223.297119,-810.791016,1.524948
-826.904297,531.555176,-810.974121,1.525726
-347.625732,649.658203,-851.898193,1.526526
466.827393,761.077881,-850.891113,1.527301
-345.977783,397.064209,-688.934326,1.528046
-2215.118408,655.700684,551.239014,1.528804
-448.699951,833.862305,348.632812,1.529637
2090.789795,1170.684814,-9.70459,1.530385
1457.794189,1212.249756,93.383789,1.531148
415.374756,1130.950928,376.281738,1.531928
441.558838,1173.156738,231.35376,1.532677
2.563477,1206.665039,124.328613,1.533423
-136.688232,1259.857178,-30.670166,1.534168
-132.659912,1425.384521,-259.460449,1.534913
54.748535,1243.103027,-314.941406,1.535658
151.519775,1366.05835,-472.77832,1.536401
144.927979,1403.961182,-549.041748,1.537145
-343.963623,1424.194336,-310.546875,1.537889
-425.079346,1375.213623,-120.391846,1.538652
125.88501,1315.704346,-158.02002,1.539396
364.654541,1372.10083,-251.037598,1.54014
319.152832,1384.643555,-292.96875,1.540884
8.148193,1298.858643,-381.866455,1.541628
-41.931152,1297.76001,-509.216309,1.542373
110.137939,1554.473877,-342.956543,1.543116
229.888916,1267.181396,335.632324,1.54386
-944.091797,1192.29126,357.788086,1.544604
-841.918945,1250.518799,251.586914,1.545348
-499.694824,1326.507568,242.706299,1.546092
232.269287,1312.591553,229.431152,1.546837
263.122559,1363.952637,138.153076,1.547593
-223.571777,1357.635498,74.523926,1.548339
-433.502197,1323.852539,-116.363525,1.549083
361.816406,1619.018555,358.795166,1.549826
-66.741943,1313.323975,657.623291,1.55057
-1641.265869,1207.397461,733.428955,1.551321
-1128.204346,1249.694824,607.727051,1.552065
569.366455,1359.924316,330.963135,1.552809
916.168213,1389.678955,155.456543,1.553553
-176.696777,1314.971924,86.151123,1.554317
-1070.709229,1233.306885,-28.289795,1.555061
-900.32959,1266.906738,-99.151611,1.555805
239.959717,1369.262695,-207.641602,1.556549
508.300781,1398.193359,-257.8125,1.557302
-13.092041,1376.037598,-283.721924,1.558046
-437.62207,1389.312744,-366.394043,1.55879
-406.677246,1381.256104,-398.345947,1.559534
-1374.572754,1337.677002,-124.328613,1.560288
-1494.506836,1236.053467,393.493652,1.561031
265.136719,1309.753418,405.761719,1.561775
704.406738,1420.349121,509.857178,1.562518
558.837891,1709.014893,2867.431641,1.563271
733.24585,2727.630615,2999.908447,1.564015
450.439453,2824.127197,2999.908447,1.564759
-408.599854,2522.735596,1243.835449,1.56557
-395.690918,1678.894043,302.856445,1.566327
-99.79248,1100.921631,-1027.862549,1.567071
173.858643,972.930908,-1274.32251,1.567815
-563.781738,838.623047,-1312.5,1.568559
-996.826172,862.243652,-871.032715,1.569313
-511.138916,1124.084473,-359.985352,1.570057
730.316162,1402.404785,1159.515381,1.570801
2144.439697,1488.555908,1679.80957,1.571545
836.425781,1762.756348,1453.033447,1.572299
-316.589355,1780.792236,627.044678,1.573043
-786.529541,1488.739014,310.72998,1.573872
-853.912354,1008.81958,-488.067627,1.574616
-891.815186,839.080811,-1024.932861,1.575372
-835.601807,677.490234,-1077.209473,1.576116
-715.026855,763.183594,-820.220947,1.57686
-283.905029,898.681641,-546.569824,1.577603
351.287842,1213.623047,122.2229,1.578348
637.298584,1372.009277,555.541992,1.579082
584.197998,1512.451172,548.583984,1.579816
216.61377,1390.228271,333.892822,1.58055
-1094.604492,1303.80249,218.536377,1.581316
-1685.028076,1150.817871,-83.679199,1.58206
-1649.963379,1084.350586,-359.344482,1.582805
-1356.719971,990.325928,-418.579102,1.583549
-1218.017578,997.833252,-358.703613,1.584303
-790.83252,1026.947021,-272.369385,1.585047
93.841553,1179.473877,-129.730225,1.585791
338.562012,1167.84668,-33.325195,1.586536
231.903076,1050.933838,-83.862305,1.587295
230.804443,991.241455,-315.582275,1.588039
268.981934,973.846436,-401.275635,1.588783
340.301514,956.726074,-475.158691,1.589527
343.048096,959.014893,-506.103516,1.590281
314.39209,976.593018,-498.504639,1.591026
344.970703,973.754883,-470.581055,1.59177
343.231201,985.290527,-453.460693,1.592514
271.362305,1007.080078,-414.733887,1.593267
101.44043,1008.81958,-390.197754,1.594011
-252.410889,1026.306152,-353.759766,1.594756
-392.944336,1053.955078,-264.678955,1.595498
-394.683838,1080.13916,-233.093262,1.596255
-339.660645,1120.880127,-185.394287,1.597002
-303.771973,1138.366699,-196.563721,1.597818
-327.484131,1171.142578,-249.11499,1.598572
-292.877197,1187.896729,-229.980469,1.599316
-131.92749,1195.495605,-154.174805,1.60006
105.010986,1108.062744,-1.922607,1.600805
458.587646,1086.730957,39.367676,1.601549
296.081543,1146.881104,-16.296387,1.602293
90.637207,1166.381836,-38.17749,1.603037
-209.014893,1175.994873,-25.543213,1.603781
-246.185303,1256.652832,-64.361572,1.604525
-320.343018,1295.928955,-72.418213,1.605269
-302.856445,1346.64917,-26.824951,1.606177
-175.964355,1377.227783,60.974121,1.606929
-113.616943,1391.784668,61.248779,1.607702
-54.748535,1415.039062,55.114746,1.608453
-32.13501,1424.102783,52.734375,1.609234
-57.952881,1413.391113,38.543701,1.609981
-128.265381,1405.151367,32.043457,1.610745
-198.21167,1365.41748,-16.75415,1.611492
-237.304688,1351.135254,-69.396973,1.612236
-251.861572,1312.683105,-86.05957,1.61298
-250.396729,1294.647217,-66.009521,1.613737
-215.698242,1295.471191,-54.290771,1.614481
-175.231934,1286.407471,-49.346924,1.615225
-159.0271,1273.773193,-89.904785,1.615968
-118.011475,1253.631592,-92.376709,1.616722
-112.243652,1257.019043,-132.385254,1.617467
-117.553711,1259.490967,-138.885498,1.618211
-125.335693,1251.617432,-163.787842,1.618955
-145.477295,1237.1521,-172.302246,1.619708
-163.604736,1210.876465,-164.245605,1.620452
-150.695801,1168.762207,-150.512695,1.621198
-131.92749,1169.677734,-155.822754,1.621942
-100.524902,1151.184082,-177.978516,1.622696
-84.228516,1142.120361,-208.831787,1.62344
-86.700439,1137.176514,-232.452393,1.624184
-91.094971,1121.97876,-255.79834,1.624928
-104.553223,1115.936279,-272.918701,1.625682
-115.356445,1109.527588,-273.010254,1.626426
-126.159668,1111.999512,-275.57373,1.62717
-151.33667,1109.985352,-275.756836,1.627913
-150.054932,1114.746094,-267.150879,1.628658
-165.527344,1105.682373,-271.728516,1.629401
-158.38623,1086.181641,-294.98291,1.630145
-151.885986,1068.695068,-296.447754,1.630941
-135.406494,1064.117432,-298.736572,1.631699
-131.652832,1060.821533,-305.053711,1.632443
-131.103516,1037.567139,-313.38501,1.633186
-126.342773,1039.672852,-308.074951,1.63393
-155.090332,1034.637451,-351.379395,1.634675
-154.998779,1036.743164,-353.302002,1.63542
-156.37207,1041.595459,-346.984863,1.636164
-147.857666,1031.616211,-356.231689,1.636907
-139.892578,1036.743164,-352.386475,1.63766
-101.531982,1041.137695,-354.58374,1.638404
-98.144531,1046.630859,-350.463867,1.639148
-126.800537,1045.623779,-355.407715,1.639892
-103.271484,1023.651123,-363.647461,1.640635
-83.312988,1021.453857,-397.338867,1.641379
-114.624023,1024.658203,-418.487549,1.642123
-117.553711,1038.757324,-386.535645,1.642867
-83.953857,1082.977295,-345.062256,1.643697
-78.186035,1100.830078,-360.809326,1.644441
-106.750488,1108.612061,-363.647461,1.645185
-100.250244,1123.535156,-351.928711,1.645929
-67.474365,1119.873047,-381.958008,1.646673
-32.592773,1075.836182,-394.317627,1.647418
-46.783447,1080.047607,-381.958008,1.648162
-81.939697,1087.554932,-344.421387,1.648905
-105.102539,1093.322754,-279.144287,1.64965
-113.433838,1093.231201,-291.595459,1.650394
-136.322021,1074.829102,-312.927246,1.651138
-176.330566,1068.42041,-324.279785,1.651881
-173.400879,1075.10376,-307.891846,1.652638
-176.055908,1068.878174,-302.124023,1.653382
-166.534424,1059.356689,-351.5625,1.654126
-135.314941,1065.856934,-371.246338,1.65487
-120.941162,1072.08252,-371.612549,1.655614
-145.843506,1085.174561,-354.675293,1.656357
-170.013428,1082.519531,-306.335449,1.657101
-180.358887,1085.174561,-284.912109,1.657845
-192.352295,1065.39917,-296.081543,1.658593
-165.252686,1053.222656,-344.421387,1.659344
-163.421631,1051.116943,-368.133545,1.660089
-177.246094,1085.357666,-369.049072,1.660832
-182.739258,1133.972168,-296.447754,1.661589
-197.845459,1132.049561,-292.877197,1.662334
-208.282471,1106.323242,-345.153809,1.663078
-189.880371,1100.097656,-369.9646,1.663822
-181.640625,1102.386475,-375.732422,1.664566
-175.872803,1110.443115,-337.371826,1.66531
-167.541504,1136.535645,-315.673828,1.666054
-198.028564,1154.205322,-257.904053,1.666798
-214.508057,1153.656006,-249.11499,1.667546
-200.22583,1125.183105,-262.756348,1.668296
-181.915283,1079.956055,-313.018799,1.669085
-167.999268,1063.38501,-322.357178,1.669836
-134.307861,1081.787109,-287.841797,1.670579
-130.187988,1089.569092,-264.862061,1.671322
-131.286621,1092.590332,-263.85498,1.672065
-131.561279,1082.885742,-268.066406,1.672807
-144.836426,1078.948975,-274.108887,1.67355
-159.759521,1068.969727,-267.059326,1.674293
-157.653809,1067.047119,-251.586914,1.675035
-143.920898,1067.596436,-250.12207,1.675779
-103.912354,1047.546387,-283.721924,1.676522
-84.686279,1037.017822,-318.328857,1.677265
-62.896729,1001.77002,-333.709717,1.678008
-36.987305,986.572266,-326.843262,1.67875
-2.655029,981.170654,-315.765381,1.679494
30.12085,987.121582,-286.834717,1.680237
48.706055,999.023438,-257.446289,1.68098
31.494141,994.812012,-290.496826,1.681723
-19.866943,960.021973,-345.245361,1.68255
-57.220459,942.077637,-394.958496,1.68331
-23.254395,951.23291,-340.026855,1.684166
9.70459,962.493896,-310.546875,1.684912
49.438477,972.930908,-292.785645,1.685676
48.88916,940.429688,-389.556885,1.68642
60.424805,939.697266,-386.077881,1.687163
83.496094,922.393799,-408.050537,1.687905
72.875977,910.125732,-403.289795,1.688658
96.130371,907.196045,-374.450684,1.689401
71.136475,899.505615,-443.847656,1.690143
13.824463,885.223389,-492.736816,1.690886
49.438477,850.799561,-519.195557,1.691639
98.236084,842.74292,-488.525391,1.692374
124.420166,851.806641,-454.559326,1.693108
60.791016,852.44751,-512.695312,1.693842
-17.303467,855.194092,-510.040283,1.694605
-54.748535,831.665039,-543.548584,1.695348
-46.508789,839.996338,-475.43335,1.69609
103.271484,805.57251,-422.241211,1.696833
278.045654,787.353516,-315.307617,1.697586
428.741455,843.658447,-256.530762,1.698329
364.746094,958.92334,-126.983643,1.699071
243.713379,979.156494,-161.499023,1.699814
31.951904,995.178223,-186.401367,1.700566
4.943848,1006.80542,-229.156494,1.701336
15.380859,1028.686523,-240.875244,1.702078
-57.312012,1058.624268,-257.171631,1.702821
-109.222412,1063.476562,-321.166992,1.703573
-134.124756,1072.814941,-315.673828,1.704315
-12.176514,1083.435059,-218.62793,1.705057
-14.282227,1078.308105,-299.560547,1.705799
-40.100098,1058.624268,-353.942871,1.706551
-63.720703,1040.95459,-383.789062,1.707294
13.275146,1053.497314,-308.624268,1.708036
15.014648,1083.068848,-300.201416,1.708778
-33.782959,1079.13208,-419.769287,1.709521
-71.044922,1038.024902,-497.314453,1.710263
-65.734863,1017.883301,-457.122803,1.711005
-5.310059,1011.291504,-470.397949,1.711747
-75.714111,1030.059814,-490.356445,1.71249
-137.420654,1031.524658,-589.050293,1.713323
-88.531494,1008.911133,-575.592041,1.714067
-105.743408,1017.608643,-537.231445,1.714809
-229.248047,1025.848389,-640.228271,1.715553
-281.066895,1063.201904,-612.579346,1.716295
-260.101318,1045.715332,-740.203857,1.717038
-338.104248,961.761475,-745.880127,1.71778
-352.020264,948.486328,-742.401123,1.718524
-526.794434,962.402344,-824.981689,1.719266
-24.078369,903.167725,-698.455811,1.720009
516.540527,900.878906,-109.771729,1.720751
1113.006592,1093.505859,76.263428,1.721501
894.470215,1317.901611,76.812744,1.722244
65.917969,1351.959229,5.584717,1.722987
-690.673828,1233.581543,-136.413574,1.723729
-912.963867,1181.762695,-499.786377,1.724472
-1088.928223,1059.356689,-672.912598,1.725215
-1095.336914,981.262207,-847.595215,1.725957
-949.951172,934.387207,-960.754395,1.7267
-628.601074,837.341309,-1136.71875,1.727443
-357.696533,798.614502,-1138.641357,1.728186
-114.532471,730.316162,-1146.42334,1.728928
-184.020996,684.906006,-1288.146973,1.729671
-404.388428,677.947998,-1408.172607,1.730414
-527.435303,607.086182,-1687.866211,1.731156
-567.810059,604.064941,-1832.244873,1.731899
-1003.234863,593.261719,-1960.784912,1.732641
-1233.947754,191.802979,-1576.446533,1.733384
-1378.509521,100.616455,-1548.156738,1.734127
-1651.611328,226.68457,-1672.943115,1.73487
-1894.40918,319.885254,-1711.212158,1.735613
-982.543945,-227.416992,-1352.874756,1.736356
-376.739502,541.259766,753.204346,1.737099
2485.290527,898.590088,1814.483643,1.737854
2230.499268,1187.805176,1249.694824,1.738631
648.742676,1209.320068,-559.020996,1.739433
-461.517334,713.104248,-1603.546143,1.740176
-2335.235596,452.636719,-2128.78418,1.740919
-2522.918701,27.008057,-2636.993408,1.741662
-300.567627,-62.438965,-2373.046875,1.742414
2999.908447,231.079102,-1696.655273,1.743157
2931.243896,-99.243164,-1761.016846,1.7439
-785.064697,-194.000244,-1560.241699,1.744642
-1474.365234,-129.91333,-1508.514404,1.745386
-1380.889893,-96.588135,-1611.602783,1.746128
-18.676758,101.074219,-1721.374512,1.746871
663.94043,542.816162,-1638.977051,1.747614
895.019531,767.120361,-1623.138428,1.748357
664.031982,839.355469,-1689.147949,1.7491
527.984619,715.209961,-1662.139893,1.749843
-1100.830078,763.549805,-1132.598877,1.750587
-1946.044922,627.227783,-632.080078,1.75133
-1630.462646,611.755371,-574.401855,1.752072
-119.750977,619.720459,-570.373535,1.752815
518.829346,616.241455,-665.863037,1.753557
1328.613281,816.833496,-818.939209,1.7543
1267.822266,1038.94043,-634.460449,1.755042
1823.730469,1523.803711,-769.500732,1.755785
-101.898193,1271.026611,-205.535889,1.756527
-1137.817383,1116.119385,159.759521,1.757268
-1544.952393,1094.696045,164.154053,1.758012
-613.494873,966.97998,-543.914795,1.758931
1185.516357,878.448486,-563.049316,1.759764
1470.245361,1661.499023,-358.978271,1.760524
1588.806152,1530.303955,135.314941,1.761269
-594.360352,1427.856445,92.651367,1.762012
-239.501953,1230.46875,85.144043,1.762754
58.319092,1218.933105,-542.175293,1.76351
-14.465332,1187.255859,-754.943848,1.764253
219.451904,1520.324707,-543.731689,1.764995
322.08252,1638.519287,-143.280029,1.765738
-51.361084,1435.089111,237.121582,1.766491
-289.764404,1413.208008,-41.290283,1.767234
-11.901855,1443.969727,-179.443359,1.767977
203.338623,1436.828613,-354.400635,1.76872
456.115723,1576.904297,-217.346191,1.769472
-20.599365,1685.943604,340.393066,1.770214
-96.862793,1701.416016,372.161865,1.770957
-120.300293,1757.629395,259.735107,1.771699
-31.219482,1932.220459,316.497803,1.772451
-326.751709,1964.813232,520.202637,1.773194
-385.620117,1967.102051,813.812256,1.773936
-163.513184,1967.010498,822.418213,1.774706
-275.024414,1939.27002,726.837158,1.77546
-238.861084,1927.185059,554.901123,1.776203
-270.355225,1882.232666,570.648193,1.776945
-304.595947,1813.751221,577.23999,1.777688
-285.827637,1768.157959,470.76416,1.77844
-244.354248,1734.100342,428.741455,1.779183
-235.748291,1719.177246,402.648926,1.779925
-225.402832,1700.592041,409.515381,1.780667
-197.753906,1669.006348,424.713135,1.78142
-179.992676,1648.040771,386.260986,1.782307
-180.633545,1627.807617,351.837158,1.783051
-159.851074,1570.495605,316.955566,1.783795
-143.005371,1498.809814,217.529297,1.784552
-93.109131,1346.099854,65.551758,1.785336
17.944336,1252.89917,-40.649414,1.786083
109.49707,1040.863037,-378.936768,1.786826
148.590088,931.549072,-656.341553,1.787587
234.924316,756.04248,-750.0,1.78833
252.7771,632.8125,-860.595703,1.789073
274.658203,611.846924,-868.011475,1.789816
293.518066,637.8479,-799.530029,1.790568
263.946533,664.764404,-625.12207,1.791311
214.050293,761.71875,-523.040771,1.792047
181.549072,847.595215,-382.141113,1.792781
104.187012,882.293701,-351.379395,1.793537
48.980713,850.982666,-405.303955,1.79428
10.253906,810.333252,-546.295166,1.795023
-76.99585,708.984375,-617.431641,1.795766
-106.384277,648.468018,-668.151855,1.796518
-170.654297,643.432617,-656.341553,1.797261
-176.971436,657.714844,-588.409424,1.798003
-167.266846,676.300049,-509.216309,1.798746
-117.919922,723.999023,-483.947754,1.799498
-84.228516,721.801758,-459.686279,1.800241
-44.494629,703.674316,-477.539062,1.800984
-32.775879,661.743164,-519.561768,1.801727
-40.374756,631.530762,-578.979492,1.802479
-53.100586,590.423584,-587.585449,1.803222
-61.523438,598.480225,-585.479736,1.803965
-86.975098,600.036621,-582.092285,1.804707
-93.017578,619.812012,-560.302734,1.805459
-92.010498,621.917725,-524.963379,1.806202
-101.44043,643.890381,-516.906738,1.806953
-104.003906,668.518066,-494.20166,1.807702
-145.202637,641.601562,-505.462646,1.80854
-150.604248,637.390137,-541.168213,1.809291
-173.034668,605.072021,-552.978516,1.810034
-181.091309,582.092285,-577.606201,1.81079
-172.668457,566.986084,-583.282471,1.811532
-150.787354,568.084717,-578.887939,1.812272
-141.906738,589.96582,-545.837402,1.813028
-129.730225,607.177734,-522.033691,1.813784
-129.089355,626.403809,-497.86377,1.814529
-139.61792,624.664307,-492.919922,1.815274
-175.048828,605.072021,-517.822266,1.816018
-188.873291,564.697266,-570.098877,1.816762
-229.064941,547.393799,-587.127686,1.817506
-247.192383,547.668457,-590.148926,1.818278
-251.953125,585.113525,-558.929443,1.819023
-243.07251,602.874756,-544.464111,1.819782
-222.564697,619.537354,-507.202148,1.820527
-222.564697,622.10083,-499.694824,1.821271
-203.613281,635.009766,-527.34375,1.822015
-203.24707,610.839844,-549.224854,1.82276
-223.937988,611.938477,-550.689697,1.823505
-226.135254,614.227295,-550.323486,1.824249
-238.586426,616.05835,-570.098877,1.824994
-226.501465,618.988037,-568.634033,1.825738
-229.431152,610.198975,-572.937012,1.826483
-225.769043,612.030029,-581.817627,1.827226
-196.563721,628.967285,-571.929932,1.82797
-182.006836,635.650635,-538.238525,1.828714
-142.364502,666.320801,-523.498535,1.829469
-144.104004,675.018311,-498.779297,1.830213
-160.675049,679.046631,-508.300781,1.830957
-178.344727,660.827637,-531.646729,1.831701
-203.155518,647.186279,-560.211182,1.832455
-188.50708,630.249023,-559.47876,1.8332
-197.662354,632.720947,-549.499512,1.833944
-183.654785,635.284424,-540.893555,1.83471
-164.611816,687.011719,-492.279053,1.835649
-133.850098,702.484131,-476.623535,1.836412
-110.595703,710.266113,-458.587646,1.837157
-122.772217,684.356689,-493.560791,1.837947
-125.976562,685.272217,-513.702393,1.838691
-170.013428,639.862061,-549.133301,1.839436
-170.10498,645.996094,-558.929443,1.84018
-175.78125,648.651123,-548.583984,1.840934
-188.690186,669.616699,-502.624512,1.841678
-174.499512,676.208496,-498.962402,1.842422
-165.802002,700.653076,-493.560791,1.843166
-156.921387,701.660156,-497.86377,1.84392
-121.490479,699.462891,-501.617432,1.844665
-80.383301,692.687988,-518.280029,1.845409
-67.932129,694.061279,-519.744873,1.846153
-71.960449,687.835693,-508.850098,1.846907
-67.657471,694.519043,-505.828857,1.847652
-82.305908,698.181152,-501.983643,1.848396
-74.798584,701.385498,-484.039307,1.84914
-90.179443,703.033447,-480.743408,1.849895
-99.42627,697.723389,-483.306885,1.850639
-108.215332,700.653076,-468.475342,1.851382
-99.243164,703.033447,-469.848633,1.852126
-88.531494,685.546875,-487.243652,1.852965
-73.242188,662.567139,-510.131836,1.85371
-59.326172,664.94751,-509.58252,1.854454
-30.487061,673.736572,-502.075195,1.855199
-41.381836,675.750732,-488.525391,1.855953
-52.91748,672.637939,-462.615967,1.856697
-44.403076,695.343018,-461.425781,1.857441
-46.417236,684.997559,-465.179443,1.858186
-23.620605,693.511963,-479.003906,1.858939
-40.557861,692.047119,-477.44751,1.859683
-30.761719,678.68042,-480.285645,1.860428
-21.42334,679.138184,-480.010986,1.861172
-15.74707,674.102783,-479.919434,1.861934
-5.218506,685.180664,-486.053467,1.862679
-15.289307,680.877686,-479.736328,1.863422
-17.944336,684.997559,-486.14502,1.864166
-20.690918,698.0896,-471.954346,1.864921
-29.937744,689.39209,-468.383789,1.865665
-22.43042,698.455811,-462.70752,1.866408
-19.958496,701.934814,-464.538574,1.867152
-17.76123,712.188721,-450.897217,1.867897
-11.993408,720.977783,-460.144043,1.868641
-4.119873,722.53418,-462.06665,1.869385
-6.958008,721.893311,-468.475342,1.870129
-18.676758,709.16748,-485.961914,1.870873
-31.677246,715.576172,-487.701416,1.871617
-44.494629,713.745117,-477.539062,1.872362
-67.016602,714.294434,-470.397949,1.873106
-74.34082,734.802246,-451.446533,1.873857
-78.369141,739.379883,-440.368652,1.874602
-67.565918,750.457764,-436.706543,1.875347
-65.826416,740.661621,-453.826904,1.876103
-58.868408,736.450195,-466.094971,1.876884
-60.699463,731.323242,-487.1521,1.877691
-64.910889,733.154297,-487.884521,1.878442
-66.741943,735.26001,-472.412109,1.879187
-97.686768,739.471436,-460.968018,1.879952
-102.813721,752.655029,-459.594727,1.880696
-119.293213,763.73291,-451.99585,1.881441
-121.032715,758.789062,-453.460693,1.882185
-120.574951,758.69751,-467.376709,1.882939
-108.306885,760.620117,-476.715088,1.883683
-101.623535,760.070801,-479.095459,1.884427
-97.229004,766.662598,-489.807129,1.885172
-100.708008,759.155273,-470.214844,1.885925
-107.299805,763.366699,-479.187012,1.88667
-124.511719,754.211426,-489.349365,1.887414
-135.5896,751.556396,-479.827881,1.888158
-136.047363,740.661621,-490.631104,1.888911
-136.413574,752.838135,-477.722168,1.889656
-143.737793,754.577637,-473.052979,1.890401
-137.786865,757.873535,-469.024658,1.891146
-138.793945,748.809814,-476.531982,1.891901
-131.103516,750.823975,-502.624512,1.892646
-123.22998,736.816406,-497.2229,1.893387
-128.540039,738.555908,-514.251709,1.894121
-136.230469,739.105225,-503.814697,1.894866
-145.568848,729.949951,-495.574951,1.895612
-151.885986,737.365723,-481.201172,1.896356
-165.252686,741.943359,-479.644775,1.8971
-166.534424,743.95752,-474.79248,1.897851
-161.956787,736.907959,-482.48291,1.898593
-147.30835,732.60498,-494.384766,1.899337
-135.5896,724.365234,-498.596191,1.90048
-129.180908,727.203369,-484.405518,1.90173
-128.540039,739.471436,-488.525391,1.902948
-139.526367,732.330322,-482.48291,1.904183
-156.097412,718.87207,-487.1521,1.905402
-168.731689,734.436035,-486.328125,1.906621
-160.583496,723.724365,-474.42627,1.907855
-140.533447,722.53418,-484.49707,1.909074
-114.074707,723.815918,-514.434814,1.910369
-122.955322,715.85083,-488.067627,1.911597
-148.498535,721.160889,-493.743896,1.912979
-155.273438,723.724365,-473.510742,1.914198
-154.907227,731.414795,-489.257812,1.915415
-130.371094,724.822998,-470.581055,1.916649
-116.363525,734.436035,-470.397949,1.917867
-117.828369,737.548828,-468.566895,1.9191
-137.512207,751.098633,-477.539062,1.920318
-154.724121,752.01416,-479.187012,1.921536
-159.0271,757.965088,-475.708008,1.922769
-157.836914,777.191162,-457.214355,1.923987
-142.089844,774.44458,-467.376709,1.92522
-137.420654,776.45874,-476.989746,1.926437
-150.146484,772.613525,-479.827881,1.927656
-164.794922,769.592285,-472.137451,1.928889
-184.47876,774.44458,-463.806152,1.930107
-176.147461,778.106689,-474.700928,1.931341
-164.520264,779.754639,-472.595215,1.932559
-149.32251,783.874512,-467.926025,1.933777
-144.287109,796.234131,-476.989746,1.935021
-146.575928,796.783447,-476.348877,1.93624
-169.830322,799.621582,-481.292725,1.937474
-178.80249,812.805176,-471.221924,1.938804
-164.978027,822.235107,-458.312988,1.940022
-138.61084,835.693359,-466.461182,1.941258
-138.153076,828.918457,-471.130371,1.942476
-134.857178,826.35498,-491.271973,1.943709
-138.427734,815.826416,-481.292725,1.944927
-145.111084,824.157715,-449.707031,1.946145
-146.392822,810.516357,-452.087402,1.94743
-147.30835,795.501709,-463.165283,1.948671
-143.096924,810.791016,-466.003418,1.949941
-129.089355,812.530518,-467.834473,1.951158
-133.758545,808.776855,-459.04541,1.952394
-131.469727,813.812256,-441.925049,1.953607
-130.371094,800.90332,-435.882568,1.954837
-118.103027,787.17041,-445.953369,1.956049
-120.574951,781.036377,-448.425293,1.957262
-112.976074,760.437012,-461.151123,1.958475
-110.687256,744.32373,-476.715088,1.959672
-101.165771,726.928711,-487.884521,1.960875
-113.067627,706.054688,-506.92749,1.962089
-120.574951,704.681396,-513.61084,1.963302
-123.779297,703.399658,-515.258789,1.964527
-128.448486,683.441162,-504.730225,1.965739
-127.716064,704.864502,-498.779297,1.966952
-127.624512,717.681885,-493.286133,1.968163
-141.265869,723.358154,-480.651855,1.969375
-152.34375,744.689941,-470.214844,1.970588
-153.625488,768.035889,-470.397949,1.971785
-147.30835,804.931641,-480.743408,1.972994
-168.548584,735.26001,-490.356445,1.974199
-133.209229,923.858643,-586.212158,1.97545
-195.098877,856.567383,-337.921143,1.976326
-184.844971,827.270508,-255.432129,1.977068
-200.775146,778.839111,-344.055176,1.977809
-231.719971,716.766357,-465.454102,1.978549
-178.894043,680.145264,-628.234863,1.97929
-139.251709,709.80835,-668.426514,1.980031
-74.707031,754.852295,-595.001221,1.980771
-72.143555,811.248779,-460.601807,1.981538
-127.166748,815.826416,-409.14917,1.98228
-156.097412,826.446533,-390.655518,1.983021
-201.23291,834.594727,-452.819824,1.983762
-236.38916,823.883057,-478.363037,1.984503
-248.10791,817.565918,-522.857666,1.985243
-236.022949,817.29126,-521.759033,1.985984
-205.993652,830.657959,-503.173828,1.986738
-169.189453,842.193604,-466.369629,1.987518
-165.985107,864.715576,-462.890625,1.988282
-129.547119,861.877441,-464.080811,1.989039
-101.074219,857.391357,-481.842041,1.989808
-93.292236,837.341309,-494.842529,1.990545
-127.716064,830.749512,-512.969971,1.991276
-141.448975,834.960938,-499.053955,1.992007
-179.351807,850.43335,-505.371094,1.992738
-188.232422,868.835449,-474.42627,1.993488
-204.803467,873.413086,-457.214355,1.99422
-185.943604,893.829346,-431.213379,1.994951
-166.900635,901.245117,-436.889648,1.995682
-134.216309,889.801025,-440.551758,1.996429
-115.814209,855.194092,-481.842041,1.997161
-105.194092,850.341797,-498.504639,1.997892
-84.04541,839.904785,-510.314941,1.998623
-86.425781,836.334229,-513.153076,1.999383
-91.73584,847.137451,-494.750977,2.000124
-96.313477,860.137939,-462.615967,2.000865
-117.279053,869.934082,-441.101074,2.001606
-125.518799,876.068115,-445.404053,2.002356
-129.821777,872.589111,-456.756592,2.003097
-121.490479,872.131348,-463.897705,2.003838
-113.616943,853.637695,-477.905273,2.004578
-105.926514,855.010986,-475.982666,2.005329
-97.503662,837.249756,-474.243164,2.006069
-96.679688,834.04541,-473.419189,2.00681
-87.341309,843.017578,-479.095459,2.007551
-87.158203,849.884033,-476.257324,2.008292
-78.552246,852.539062,-463.806152,2.009023
-68.206787,863.708496,-456.573486,2.009754
-69.213867,873.779297,-448.242188,2.010485
-69.030762,875.061035,-453.735352,2.011265
-70.129395,873.779297,-448.974609,2.012007
-64.910889,873.321533,-475.708008,2.012746
-62.805176,873.22998,-478.729248,2.013486
-57.495117,870.117188,-477.996826,2.014237
-59.509277,864.16626,-451.904297,2.014976
-70.037842,871.765137,-464.904785,2.015715
-63.720703,862.976074,-466.186523,2.016455
-70.404053,862.609863,-465.545654,2.017204
-66.558838,856.384277,-477.905273,2.017943
-70.770264,854.736328,-480.926514,2.018683
-71.228027,848.968506,-480.560303,2.019422
-50.994873,842.285156,-478.637695,2.020172
-74.707031,849.884033,-469.024658,2.020911
-75.98877,842.376709,-479.46167,2.02165
-73.791504,841.186523,-471.862793,2.022389
-80.841064,851.074219,-475.158691,2.023233
-82.214355,844.207764,-472.503662,2.023974
-82.672119,845.489502,-475.250244,2.024713
-80.657959,840.545654,-480.285645,2.025466
-75.622559,844.390869,-477.081299,2.026205
-73.791504,843.841553,-474.79248,2.026945
-67.199707,854.644775,-472.869873,2.027684
-69.763184,854.46167,-474.334717,2.028432
-69.213867,852.813721,-475.43335,2.029169
-75.073242,867.279053,-468.75,2.029906
-77.270508,864.074707,-462.524414,2.03068
-94.207764,863.616943,-464.996338,2.031465
-87.615967,861.419678,-470.672607,2.032231
-95.581055,858.673096,-477.722168,2.032972
-99.243164,853.088379,-480.46875,2.033735
-89.080811,847.137451,-479.095459,2.034475
-99.884033,842.376709,-474.609375,2.035216
-93.475342,845.947266,-469.116211,2.035957
-108.947754,834.686279,-479.46167,2.036698
-114.898682,827.362061,-489.440918,2.037439
-125.793457,823.150635,-483.856201,2.038179
-135.498047,828.369141,-492.645264,2.038919
-144.65332,817.29126,-493.560791,2.039669
-156.097412,815.826416,-504.180908,2.0404
-150.238037,821.685791,-500.88501,2.041131
-156.463623,821.777344,-502.441406,2.041862
-169.281006,818.206787,-498.504639,2.042609
-160.675049,827.178955,-501.617432,2.043349
-165.06958,820.953369,-505.004883,2.044089
-165.618896,829.650879,-498.962402,2.044828
-166.809082,828.552246,-500.88501,2.045567
-173.217773,829.193115,-503.90625,2.046307
-169.464111,835.235596,-502.716064,2.047048
-188.049316,841.094971,-501.525879,2.047787
-196.014404,844.207764,-489.807129,2.048526
-200.042725,836.425781,-503.173828,2.049273
-191.986084,857.757568,-499.87793,2.05001
-186.950684,856.658936,-497.589111,2.050746
-186.767578,858.673096,-503.082275,2.051499
-193.634033,862.792969,-495.574951,2.05223
-184.295654,847.686768,-510.681152,2.052961
-192.443848,863.067627,-502.532959,2.053692
-183.654785,873.779297,-508.850098,2.054423
-183.197021,878.814697,-498.321533,2.055183
-187.133789,876.525879,-502.441406,2.055923
-182.281494,882.019043,-502.716064,2.056662
-185.119629,885.314941,-502.075195,2.057403
-189.605713,884.674072,-512.054443,2.05814
-191.52832,891.540527,-509.033203,2.058877
-189.056396,888.153076,-499.145508,2.059635
-175.78125,894.287109,-503.723145,2.060377
-173.309326,898.956299,-512.512207,2.061116
-179.168701,906.280518,-510.406494,2.061856
-183.013916,900.787354,-501.251221,2.062596
-179.626465,894.287109,-498.321533,2.06343
-176.147461,903.991699,-495.300293,2.064196
-163.238525,907.562256,-494.018555,2.064946
-161.04126,900.146484,-492.279053,2.06571
-165.893555,897.491455,-497.039795,2.066501
-158.660889,904.907227,-492.1875,2.067258
-156.738281,900.32959,-488.342285,2.068003
-154.174805,896.392822,-490.814209,2.068769
-144.378662,897.399902,-491.455078,2.069513
-140.258789,901.153564,-486.51123,2.070253
-136.413574,901.611328,-479.370117,2.070994
-143.188477,871.673584,-480.651855,2.071735
-139.801025,888.977051,-475.799561,2.072466
-138.153076,890.167236,-484.222412,2.073197
-137.512207,891.082764,-485.687256,2.073928
-129.455566,884.307861,-485.870361,2.074659
-122.86377,890.716553,-485.961914,2.075426
-115.722656,891.998291,-487.243652,2.076173
-112.518311,889.801025,-480.560303,2.076914
-114.440918,888.61084,-475.250244,2.077664
-118.560791,883.575439,-476.623535,2.078405
-115.447998,884.857178,-474.060059,2.079146
-104.827881,887.878418,-473.7854,2.079886
-97.229004,889.61792,-475.799561,2.080627
-99.609375,875.152588,-470.76416,2.081378
-101.257324,890.533447,-464.538574,2.082118
-91.461182,892.63916,-462.70752,2.082859
-89.538574,888.244629,-467.926025,2.0836
-84.228516,897.033691,-463.989258,2.084341
-86.883545,899.139404,-466.278076,2.085073
-91.003418,901.794434,-456.756592,2.085804
-100.891113,898.223877,-463.165283,2.086534
-120.025635,894.836426,-444.488525,2.087294
-131.195068,894.744873,-439.453125,2.088034
-158.111572,892.364502,-426.361084,2.088773
-144.104004,888.427734,-421.325684,2.089513
-143.920898,901.702881,-395.41626,2.090109
-144.927979,903.808594,-389.465332,2.090849
-129.089355,907.928467,-371.154785,2.091588
-142.364502,899.871826,-377.197266,2.092327
-162.231445,876.159668,-392.852783,2.093171
-140.533447,870.574951,-393.951416,2.093912
-138.519287,856.292725,-412.811279,2.094652
-130.096436,842.376709,-438.354492,2.095404
-123.321533,830.01709,-444.763184,2.096144
-117.462158,805.938721,-478.271484,2.096884
-123.138428,800.994873,-514.984131,2.097624
-131.011963,774.627686,-514.892578,2.098373
-131.92749,756.134033,-543.182373,2.099114
-138.702393,741.943359,-547.576904,2.099853
-135.406494,731.689453,-570.922852,2.100593
-138.244629,723.449707,-582.183838,2.101344
-137.695312,732.513428,-573.21167,2.102084
-132.110596,733.428955,-573.486328,2.102823
-130.096436,737.640381,-568.817139,2.103563
-138.61084,751.00708,-549.041748,2.104304
-141.174316,756.04248,-533.38623,2.105044
-152.435303,760.345459,-527.709961,2.105784
-146.30127,774.536133,-514.709473,2.106524
-145.202637,773.071289,-510.864258,2.107263
-153.35083,783.874512,-504.272461,2.108003
-154.632568,784.606934,-497.955322,2.108743
-159.942627,791.8396,-495.666504,2.109483
-164.154053,801.9104,-487.243652,2.110223
-164.245605,801.727295,-480.651855,2.110962
-167.449951,807.495117,-479.003906,2.111701
-170.471191,820.953369,-475.891113,2.112441
-169.555664,821.960449,-475.799561,2.11319
-175.506592,829.650879,-465.545654,2.113927
-178.527832,828.460693,-465.087891,2.114699
-177.612305,839.172363,-466.552734,2.115449
-168.640137,850.708008,-466.918945,2.116226
-162.04834,851.44043,-463.439941,2.116976
-159.301758,860.137939,-467.651367,2.117716
-160.491943,856.201172,-477.264404,2.118456
-152.984619,858.306885,-478.546143,2.11921
-162.139893,864.440918,-468.109131,2.11995
-160.400391,868.927002,-470.947266,2.120691
-166.07666,876.251221,-467.102051,2.121432
-185.760498,877.258301,-459.228516,2.122183
-165.344238,884.216309,-482.757568,2.122924
-165.527344,882.751465,-462.890625,2.123664
-160.308838,905.181885,-458.03833,2.124405
-151.885986,898.956299,-462.615967,2.125146
-147.033691,898.864746,-458.587646,2.125877
-135.131836,902.526855,-455.383301,2.126608
-130.279541,901.519775,-460.327148,2.127339
-124.786377,903.900146,-464.72168,2.128096
-126.251221,904.998779,-471.77124,2.128834
-128.356934,911.315918,-467.559814,2.129594
-140.808105,917.541504,-472.595215,2.130351
-138.61084,906.188965,-472.595215,2.131092
-140.991211,903.533936,-470.031738,2.131833
-146.850586,903.533936,-466.003418,2.132573
-141.082764,896.484375,-446.502686,2.133322
-134.674072,901.428223,-456.298828,2.134063
-135.131836,885.498047,-459.503174,2.134804
-137.329102,885.314941,-462.615967,2.135545
-142.272949,883.392334,-468.566895,2.136293
-138.244629,887.695312,-461.05957,2.137025
-136.322021,878.356934,-466.644287,2.13782
-138.153076,874.053955,-473.602295,2.138568
-135.864258,876.708984,-462.982178,2.139313
-138.153076,873.22998,-463.989258,2.140058
-137.695312,869.293213,-455.657959,2.140877
-126.617432,877.624512,-449.981689,2.141626
-126.159668,872.589111,-451.538086,2.142385
-131.835938,864.624023,-451.080322,2.143122
-130.828857,859.405518,-453.00293,2.14386
-127.349854,867.279053,-463.7146,2.144596
-126.342773,867.370605,-456.390381,2.145358
-132.110596,863.15918,-452.636719,2.146103
-130.737305,855.560303,-457.580566,2.146848
-125.610352,860.687256,-455.383301,2.147591
-132.659912,850.891113,-452.545166,2.148333
-136.871338,843.475342,-465.179443,2.149067
-142.63916,849.975586,-457.305908,2.149856
-146.392822,842.285156,-459.320068,2.15059
-152.160645,839.080811,-462.890625,2.151351
-158.294678,844.116211,-468.109131,2.152097
-155.456543,842.834473,-467.651367,2.152841
-159.393311,842.285156,-459.777832,2.153585
-154.083252,846.405029,-459.411621,2.15433
-156.921387,854.003906,-450.98877,2.155074
-143.64624,855.102539,-447.967529,2.155819
-143.829346,856.292725,-459.228516,2.156563
-139.251709,857.849121,-457.122803,2.157308
-140.716553,863.708496,-464.172363,2.158052
-135.5896,888.977051,-465.454102,2.158797
-141.174316,880.828857,-460.327148,2.159542
-145.6604,884.674072,-459.04541,2.160299
-154.815674,886.230469,-465.270996,2.161043
-150.878906,896.118164,-465.179443,2.161787
-153.076172,887.512207,-463.348389,2.162619
-154.449463,893.280029,-464.72168,2.163364
-157.287598,897.491455,-470.306396,2.164109
-158.203125,898.956299,-467.651367,2.164853
-158.752441,893.920898,-472.686768,2.165597
-149.047852,887.329102,-479.278564,2.166342
-146.392822,890.533447,-480.834961,2.167086
-153.259277,880.187988,-482.299805,2.16783
-150.970459,880.004883,-478.45459,2.168574
-151.33667,889.801025,-480.560303,2.169319
-222.198486,885.5896,-472.686768,2.170063
-179.992676,866.729736,-448.150635,2.170807
-200.134277,877.075195,-475.799561,2.171551
-190.795898,895.568848,-470.76416,2.172306
-145.202637,881.92749,-485.137939,2.173051
-171.112061,879.089355,-493.927002,2.173795
-152.34375,871.21582,-502.166748,2.17454
-164.978027,858.673096,-493.286133,2.175284
-176.422119,847.412109,-469.75708,2.176028
-157.196045,847.503662,-462.341309,2.176772
-162.231445,868.835449,-462.982178,2.177516
-156.005859,869.567871,-474.42627,2.17826
-138.519287,863.800049,-468.933105,2.179005
-149.230957,864.349365,-488.342285,2.179749
-135.406494,858.764648,-488.067627,2.180493
-159.942627,866.18042,-480.651855,2.18124
-133.300781,868.377686,-473.693848,2.18199
-117.919922,883.209229,-468.017578,2.182735
-126.434326,909.118652,-472.869873,2.183479
-122.039795,887.512207,-465.270996,2.184223
-161.132812,889.526367,-468.658447,2.184978
-147.857666,883.300781,-461.791992,2.185746
-162.780762,885.040283,-458.679199,2.186521
-159.576416,885.5896,-454.01001,2.187217
-149.32251,893.005371,-457.214355,2.187963
-149.871826,883.483887,-460.05249,2.188706
-142.730713,887.329102,-463.897705,2.18945
-139.984131,876.251221,-463.806152,2.190204
-142.822266,874.87793,-466.369629,2.190948
-136.230469,873.962402,-463.256836,2.191692
-140.350342,868.19458,-462.06665,2.192436
-130.828857,876.525879,-455.108643,2.19319
-128.631592,878.265381,-458.129883,2.193934
-121.398926,870.758057,-455.474854,2.194678
-122.039795,875.976562,-455.932617,2.195422
-139.068604,870.391846,-450.805664,2.196176
-128.448486,870.941162,-443.939209,2.196921
-126.800537,871.856689,-451.080322,2.197665
-135.040283,869.110107,-444.763184,2.19841
-131.469727,871.948242,-454.193115,2.199164
-135.498047,872.131348,-442.749023,2.19991
-131.469727,867.919922,-441.558838,2.200655
-132.568359,871.673584,-434.417725,2.201399
-128.265381,864.440918,-449.157715,2.202154
-120.666504,867.828369,-443.389893,2.202899
-133.392334,866.363525,-447.32666,2.203643
-133.575439,861.328125,-434.60083,2.204387
-136.138916,861.602783,-436.157227,2.205141
-145.019531,866.18042,-443.023682,2.205885
-138.519287,859.130859,-443.756104,2.206628
-140.258789,866.729736,-438.537598,2.207372
-130.554199,871.765137,-438.354492,2.208135
-132.93457,869.293213,-436.523438,2.20888
-128.631592,859.954834,-441.925049,2.209624
-123.87085,867.004395,-439.178467,2.210368
-126.708984,877.716064,-437.805176,2.211122
-130.096436,864.532471,-444.580078,2.211866
-123.962402,862.1521,-434.417725,2.21261
-124.511719,864.074707,-435.516357,2.213355
-124.145508,868.743896,-434.967041,2.214126
-125.701904,849.151611,-428.192139,2.214929
-121.032715,853.912354,-427.734375,2.215666
-122.86377,858.398438,-426.544189,2.216401
-128.631592,859.405518,-426.818848,2.217167
-124.694824,861.236572,-436.248779,2.217902
-123.87085,853.363037,-433.868408,2.218686
-119.934082,854.46167,-425.811768,2.219421
-128.90625,853.179932,-432.128906,2.22017
-125.610352,850.067139,-427.642822,2.220904
-122.314453,858.581543,-420.776367,2.221637
-118.927002,864.440918,-419.036865,2.222372
-125.152588,860.321045,-424.713135,2.22315
-115.447998,856.018066,-422.149658,2.223893
-111.785889,854.736328,-428.100586,2.224636
-113.983154,857.574463,-434.783936,2.225379
-117.645264,859.405518,-430.114746,2.226132
-116.271973,863.250732,-430.206299,2.226874
-117.095947,863.433838,-423.522949,2.227617
-110.961914,867.919922,-425.262451,2.22836
-106.658936,872.406006,-418.395996,2.229111
-111.877441,870.849609,-417.388916,2.229855
-114.440918,870.117188,-427.093506,2.230597
-110.046387,884.124756,-428.649902,2.23134
-104.827881,878.631592,-423.88916,2.232184
-114.074707,872.86377,-424.987793,2.232927
-114.715576,872.497559,-420.86792,2.233671
-111.877441,875.061035,-429.107666,2.234414
-113.342285,871.582031,-421.600342,2.235167
-112.609863,875.152588,-419.494629,2.23591
-111.694336,871.582031,-427.734375,2.236652
-107.208252,876.342773,-424.621582,2.237395
-111.785889,876.434326,-425.445557,2.238148
-102.44751,874.145508,-423.522949,2.238891
-100.341797,870.300293,-430.755615,2.239633
-105.194092,870.849609,-431.396484,2.240376
-106.201172,871.490479,-427.001953,2.24108
-97.961426,870.20874,-423.797607,2.241823
-96.77124,867.919922,-415.466309,2.242566
-102.905273,869.750977,-414.459229,2.243308
-95.76416,869.842529,-414.459229,2.244061
-91.461182,873.504639,-416.748047,2.244804
-97.686768,876.708984,-414.642334,2.245547
-89.080811,874.969482,-417.297363,2.24629
-70.495605,874.969482,-416.107178,2.247043
-88.165283,884.399414,-418.121338,2.247786
-97.503662,885.681152,-418.579102,2.248529
-98.052979,888.977051,-422.332764,2.249272
-91.278076,877.624512,-426.635742,2.250024
-88.531494,877.349854,-422.973633,2.250767
-95.123291,875.88501,-401.916504,2.25151
-94.024658,868.743896,-425.720215,2.252253
-93.841553,867.279053,-425.354004,2.253007
-89.630127,872.86377,-424.072266,2.25375
-81.848145,873.046875,-430.206299,2.254493
-79.833984,867.462158,-425.445557,2.255236
-84.411621,851.257324,-430.206299,2.256014
-92.376709,863.616943,-430.206299,2.2568
-90.270996,873.22998,-428.649902,2.257552
-91.094971,864.532471,-426.086426,2.258317
-95.947266,857.116699,-427.459717,2.25906
-97.961426,865.905762,-435.424805,2.259802
-87.341309,861.419678,-434.234619,2.260544
-89.72168,863.800049,-427.093506,2.261288
-87.70752,865.905762,-429.107666,2.262031
-96.679688,863.616943,-428.924561,2.262773
-105.285645,863.891602,-437.438965,2.263516
-97.961426,872.680664,-437.805176,2.264271
-106.658936,873.321533,-429.748535,2.265014
-106.658936,877.807617,-433.044434,2.265757
-110.595703,876.251221,-433.685303,2.266499
-111.694336,874.694824,-433.868408,2.26724
-104.46167,880.737305,-433.868408,2.267981
-106.018066,876.525879,-438.995361,2.268731
-110.137939,872.497559,-435.60791,2.269477
-111.694336,868.011475,-435.882568,2.270233
-139.709473,882.019043,-436.798096,2.270977
-125.152588,875.976562,-443.115234,2.271725
-115.814209,872.2229,-436.61499,2.272469
-121.948242,869.384766,-433.410645,2.273214
-120.574951,871.490479,-444.122314,2.273958
-118.743896,866.821289,-447.052002,2.274703
-122.497559,875.88501,-442.474365,2.275447
-121.490479,870.849609,-443.023682,2.276192
-114.532471,875.701904,-443.572998,2.276936
-126.983643,874.694824,-443.29834,2.27768
-121.765137,881.195068,-439.27002,2.278423
-126.89209,881.378174,-440.460205,2.279178
-125.701904,870.300293,-440.643311,2.279922
-125.518799,868.103027,-443.481445,2.280666
-126.251221,880.096436,-440.551758,2.28141
-131.011963,872.955322,-440.2771,2.282155
-127.258301,871.307373,-445.404053,2.282898
-131.652832,865.356445,-448.974609,2.283643
-137.237549,862.426758,-449.249268,2.284387
-133.94165,869.20166,-448.791504,2.28513
-130.828857,877.075195,-439.727783,2.285863
-137.60376,873.046875,-436.248779,2.286598
-137.786865,868.286133,-437.62207,2.287332
-136.138916,873.687744,-443.481445,2.288077
-128.814697,867.919922,-440.826416,2.288822
-139.251709,875.976562,-448.059082,2.289566
-137.329102,885.955811,-443.206787,2.290409
-132.843018,883.026123,-446.044922,2.291431
-137.969971,895.111084,-443.29834,2.292233
-129.455566,896.118164,-430.480957,2.29298
-131.744385,894.927979,-442.29126,2.293726
-126.617432,895.294189,-445.953369,2.294472
-131.195068,902.435303,-445.3125,2.295217
-131.652832,901.33667,-450.531006,2.295961
-135.314941,900.512695,-439.63623,2.296706
-136.413574,893.737793,-438.079834,2.29745
-135.772705,897.766113,-444.671631,2.298194
-132.843018,900.054932,-437.072754,2.298938
-123.22998,908.02002,-438.354492,2.299682
-126.159668,894.836426,-437.62207,2.300441
-134.124756,898.31543,-446.044922,2.301185
-134.033203,893.463135,-446.502686,2.30193
-139.526367,885.131836,-441.741943,2.302767
-139.892578,877.807617,-443.481445,2.303512
-133.758545,884.674072,-448.516846,2.304256
-133.483887,882.293701,-438.812256,2.305
-140.716553,875.152588,-441.741943,2.305744
-134.216309,886.871338,-437.62207,2.306489
-138.977051,887.512207,-434.234619,2.307233
-135.223389,878.814697,-438.995361,2.307977
-134.124756,889.251709,-436.340332,2.308722
-136.688232,884.58252,-436.431885,2.309477
-134.857178,888.153076,-438.537598,2.31022
-137.878418,878.631592,-435.516357,2.310964
-138.061523,888.885498,-439.63623,2.311709
-136.322021,888.336182,-438.354492,2.312462
-136.59668,894.378662,-440.368652,2.313206
-136.962891,894.287109,-432.769775,2.31395
-131.92749,896.392822,-440.734863,2.314695
-135.131836,889.160156,-429.931641,2.315468
-134.033203,892.089844,-427.185059,2.316212
-134.216309,889.709473,-434.692383,2.316956
-129.821777,891.265869,-435.333252,2.3177
-125.701904,909.393311,-440.185547,2.318454
-124.969482,891.357422,-434.967041,2.319198
-129.089355,896.759033,-436.523438,2.319942
-132.385254,890.441895,-440.2771,2.320686
-130.92041,895.751953,-428.009033,2.32144
-133.850098,882.843018,-429.382324,2.322184
-139.801025,885.955811,-429.199219,2.322928
-132.843018,886.322021,-438.446045,2.323673
-135.498047,885.498047,-423.431396,2.324426
-134.58252,886.871338,-434.234619,2.325193
-135.864258,889.434814,-436.523438,2.325983
-147.30835,884.857178,-431.213379,2.326761
-145.568848,885.772705,-435.882568,2.327505
-151.611328,892.181396,-432.678223,2.328249
-151.611328,882.659912,-433.410645,2.328993
-152.618408,884.765625,-428.375244,2.329746
-156.097412,891.448975,-433.502197,2.33049
-156.463623,896.118164,-429.199219,2.331234
-150.146484,890.167236,-428.55835,2.331978
-151.885986,891.448975,-426.177979,2.332732
-149.139404,896.118164,-423.248291,2.333476
-148.132324,882.843018,-427.093506,2.33422
-146.026611,883.758545,-425.537109,2.334964
-146.575928,895.568848,-425.628662,2.335718
-145.111084,893.188477,-432.678223,2.336462
-143.829346,907.196045,-427.734375,2.337206
-145.751953,893.64624,-428.924561,2.33795
-138.702393,889.709473,-427.368164,2.338694
-137.237549,900.054932,-421.691895,2.339429
-133.483887,897.033691,-415.283203,2.340164
-135.955811,895.935059,-418.945312,2.340899
-139.801025,896.118164,-426.544189,2.341628
-131.835938,902.252197,-425.079346,2.342374
-139.251709,893.096924,-421.142578,2.343118
-136.779785,888.336182,-422.149658,2.343862
-135.314941,897.399902,-411.712646,2.344618
-138.61084,894.65332,-423.88916,2.345362
-135.314941,902.893066,-420.684814,2.346105
-137.60376,896.66748,-416.473389,2.346849
-135.498047,901.33667,-409.515381,2.347607
-139.526367,883.483887,-417.205811,2.348351
-139.160156,889.709473,-417.388916,2.349095
-137.60376,894.012451,-414.550781,2.349839
-127.258301,891.723633,-412.078857,2.350593
-128.448486,891.906738,-413.360596,2.351337
-126.708984,890.167236,-409.973145,2.352081
-125.518799,888.793945,-410.339355,2.352825
-129.821777,876.434326,-414.18457,2.353569
-130.371094,886.962891,-411.987305,2.354303
-128.356934,883.575439,-410.980225,2.355037
-124.237061,887.60376,-409.240723,2.355771
-129.180908,880.279541,-412.261963,2.356516
-112.426758,884.124756,-416.381836,2.35726
-123.962402,884.490967,-426.361084,2.358004
-129.455566,880.279541,-419.494629,2.358748
-146.66748,872.314453,-401.641846,2.359499
-141.723633,879.91333,-409.423828,2.360303
-132.110596,876.708984,-412.628174,2.361048
-130.096436,881.103516,-416.473389,2.361792
-113.983154,884.94873,-415.374756,2.362546
-114.624023,890.533447,-419.036865,2.36329
-118.286133,882.019043,-417.84668,2.364034
-121.948242,883.209229,-413.360596,2.364778
-137.054443,885.498047,-414.642334,2.365532
-136.871338,886.688232,-422.515869,2.36631
-145.568848,893.188477,-413.085938,2.36712
-144.561768,894.287109,-410.339355,2.367867
-151.885986,885.406494,-414.916992,2.368628
-151.33667,876.983643,-409.515381,2.369406
-136.688232,879.821777,-402.282715,2.370166
-139.343262,888.244629,-411.621094,2.370912
-128.173828,884.674072,-421.508789,2.371674
-124.145508,874.603271,-417.84668,2.372513
-116.821289,875.518799,-423.248291,2.373258
-123.046875,882.568359,-424.530029,2.374003
-138.153076,874.328613,-424.438477,2.37476
-139.984131,876.708984,-408.050537,2.375504
-145.568848,883.117676,-404.846191,2.376248
-134.765625,878.814697,-400.268555,2.376992
-138.702393,875.427246,-403.106689,2.377746
-147.674561,874.969482,-408.325195,2.378491
-140.258789,876.068115,-414.550781,2.379235
-141.448975,871.673584,-416.564941,2.379979
-142.181396,872.680664,-410.430908,2.380733
-136.871338,877.624512,-416.381836,2.381477
-139.434814,870.117188,-423.88916,2.382221
-138.519287,879.180908,-407.592773,2.382965
-141.540527,877.716064,-407.501221,2.383719
-138.336182,877.349854,-405.029297,2.384463
-141.082764,878.723145,-407.043457,2.385207
-142.63916,871.856689,-408.874512,2.385951
-135.955811,869.934082,-416.656494,2.386695
-134.490967,869.567871,-418.85376,2.38743
-134.94873,873.22998,-401.550293,2.388164
-132.843018,870.666504,-414.001465,2.388898
-130.737305,870.574951,-409.973145,2.389655
-134.765625,881.744385,-398.254395,2.390399
-129.364014,882.659912,-398.071289,2.391143
-130.554199,873.87085,-396.972656,2.391887
-133.850098,874.053955,-402.557373,2.392652
-127.532959,867.919922,-400.726318,2.393396
-122.2229,871.582031,-400.360107,2.394141
-121.765137,868.011475,-406.219482,2.394884
-127.624512,867.553711,-407.226562,2.395638
-120.483398,863.342285,-401.824951,2.396412
-121.490479,878.540039,-392.303467,2.397232
-122.86377,874.694824,-395.507812,2.398006
-124.603271,870.117188,-398.162842,2.39875
-113.983154,866.638184,-388.458252,2.399493
-125.610352,869.476318,-389.007568,2.400237
-123.413086,869.018555,-408.416748,2.400991
-122.2229,851.806641,-400.909424,2.401735
-123.138428,863.525391,-399.261475,2.402479
-128.90625,866.546631,-392.39502,2.403223
-126.434326,869.384766,-396.331787,2.403977
-126.342773,868.011475,-393.951416,2.404722
-127.990723,861.14502,-388.458252,2.405466
-120.574951,862.976074,-391.571045,2.406211
-118.286133,862.884521,-398.071289,2.406964
-117.1875,861.053467,-376.098633,2.407709
-125.152588,858.581543,-403.015137,2.408453
-128.265381,863.15918,-396.148682,2.409202
-119.659424,858.764648,-387.817383,2.409959
-129.180908,852.996826,-388.916016,2.410703
-134.033203,855.46875,-388.183594,2.411447
-127.89917,856.750488,-392.578125,2.412191
-130.462646,858.947754,-390.106201,2.412945
-131.469727,858.673096,-388.73291,2.413689
-135.131836,852.264404,-389.282227,2.414433
-131.469727,850.616455,-395.965576,2.415177
-125.427246,847.686768,-395.874023,2.41593
-127.807617,855.743408,-390.838623,2.416674
-123.138428,856.018066,-386.993408,2.417416
-122.314453,858.764648,-381.317139,2.418151
-121.856689,864.898682,-379.119873,2.418896
-124.603271,854.736328,-386.444092,2.41964
-124.694824,854.736328,-383.422852,2.420384
-124.328613,859.222412,-391.479492,2.421128
-127.441406,858.215332,-394.500732,2.421872
-130.187988,860.687256,-388.000488,2.422616
-127.441406,864.990234,-383.972168,2.42336
-126.89209,859.588623,-394.683838,2.424104
-129.91333,857.940674,-391.845703,2.424851
-137.145996,870.849609,-384.521484,2.425584
-138.336182,869.20166,-393.218994,2.426318
-132.568359,869.750977,-397.247314,2.427052
-132.659912,860.595703,-389.190674,2.427793
-132.843018,868.286133,-390.472412,2.428537
-136.322021,866.729736,-387.908936,2.429281
-136.230469,871.856689,-391.387939,2.430029
-129.730225,874.237061,-387.72583,2.430824
-131.011963,875.518799,-385.894775,2.431568
-131.286621,876.983643,-390.930176,2.432312
-126.525879,881.561279,-380.401611,2.433057
-126.983643,881.744385,-395.233154,2.433802
-131.103516,881.103516,-397.338867,2.434546
-134.857178,888.61084,-390.197754,2.435291
-128.997803,888.702393,-393.768311,2.436035
-128.173828,879.821777,-396.881104,2.436785
-131.835938,882.751465,-395.599365,2.437529
-130.371094,884.857178,-387.72583,2.438273
-126.434326,882.019043,-397.705078,2.439017
-130.462646,885.5896,-380.67627,2.439763
-129.455566,884.58252,-390.289307,2.440507
-138.519287,877.166748,-390.014648,2.44125
-129.730225,879.455566,-390.838623,2.442079
-130.554199,875.244141,-388.641357,2.442979
-125.793457,877.166748,-391.204834,2.443904
-126.89209,874.603271,-383.148193,2.444674
-117.004395,866.088867,-385.528564,2.445477
-119.842529,864.074707,-384.979248,2.446225
-115.264893,869.293213,-391.571045,2.44697
-107.48291,872.039795,-388.092041,2.447771
-118.286133,867.828369,-387.451172,2.448516
-118.927002,859.222412,-379.02832,2.44926
-115.814209,863.983154,-383.972168,2.450004
-117.004395,862.243652,-381.591797,2.450749
-115.539551,863.342285,-374.816895,2.451493
-118.560791,861.51123,-375.091553,2.452238
-118.743896,851.806641,-371.520996,2.452981
-114.074707,849.243164,-384.246826,2.453725
-107.48291,854.919434,-388.366699,2.454484
-99.700928,854.370117,-380.859375,2.455228
-103.546143,855.743408,-383.331299,2.455972
-109.405518,857.391357,-389.831543,2.456716
-103.912354,865.722656,-387.359619,2.457461
-103.271484,859.954834,-383.972168,2.458205
-108.856201,857.48291,-385.986328,2.458949
-96.954346,861.328125,-376.190186,2.459692
-96.954346,859.954834,-382.781982,2.460437
-103.637695,868.469238,-380.126953,2.461181
-96.221924,866.729736,-391.021729,2.461925
-92.376709,861.236572,-391.113281,2.462669
-102.44751,859.313965,-386.993408,2.463423
-102.905273,857.666016,-387.634277,2.464167
-100.616455,852.264404,-387.176514,2.464911
-99.884033,849.700928,-392.486572,2.465691
-103.088379,859.313965,-383.605957,2.466523
-107.48291,854.370117,-387.634277,2.467276
-110.137939,857.025146,-395.324707,2.46802
-105.926514,852.44751,-390.014648,2.468764
-102.355957,860.595703,-389.282227,2.469529
-109.039307,857.208252,-387.176514,2.470273
-100.982666,863.708496,-388.275146,2.471017
-105.651855,864.257812,-380.218506,2.47176
-101.074219,855.560303,-388.824463,2.472514
-100.158691,861.14502,-385.437012,2.473258
-110.137939,862.792969,-390.838623,2.474002
-107.940674,855.926514,-384.521484,2.474746
-104.187012,865.17334,-391.204834,2.475499
-99.975586,870.849609,-385.437012,2.476243
-98.419189,859.313965,-386.077881,2.476987
-102.264404,868.286133,-383.69751,2.477731
-97.137451,866.18042,-383.056641,2.478486
-103.912354,859.771729,-386.810303,2.479232
-107.849121,871.032715,-389.923096,2.479976
-107.391357,878.356934,-391.662598,2.480719
-109.588623,870.391846,-383.148193,2.481474
-115.814209,868.19458,-384.246826,2.482219
-109.771729,879.364014,-388.183594,2.482963
-117.370605,874.237061,-393.859863,2.483707
-121.856689,873.962402,-396.514893,2.484468
-122.039795,873.779297,-394.775391,2.485212
-121.948242,867.462158,-393.127441,2.485956
-124.237061,876.159668,-386.901855,2.4867
-128.082275,862.426758,-394.592285,2.487453
-130.279541,861.419678,-388.641357,2.488197
-126.617432,861.236572,-399.169922,2.488941
-118.835449,861.419678,-403.015137,2.489686
-118.835449,865.17334,-396.972656,2.490448
-113.891602,860.321045,-388.183594,2.491193
-114.532471,870.300293,-396.972656,2.491937
-117.1875,875.244141,-396.697998,2.49268
-113.525391,868.19458,-401.916504,2.493434
-110.046387,874.87793,-392.211914,2.494178
-114.349365,875.793457,-387.72583,2.494922
-116.912842,873.779297,-390.380859,2.495665
-121.21582,872.497559,-390.014648,2.49641
-120.300293,884.033203,-389.099121,2.497143
-118.103027,890.441895,-392.669678,2.497877
-117.736816,881.835938,-391.571045,2.498676
-113.067627,883.392334,-395.233154,2.499432
-118.103027,882.568359,-392.303467,2.500175
-118.743896,884.857178,-387.817383,2.500917
-113.708496,881.92749,-389.373779,2.501659
-107.116699,885.5896,-388.183594,2.502411
-114.257812,878.90625,-386.352539,2.503154
-111.14502,888.885498,-386.169434,2.503897
-118.19458,876.708984,-383.331299,2.50464
-124.420166,873.687744,-383.605957,2.505393
-116.546631,879.730225,-391.662598,2.506136
-121.21582,871.948242,-389.556885,2.506879
-113.891602,870.483398,-392.39502,2.507622
-120.025635,875.335693,-394.042969,2.508374
-126.525879,873.138428,-386.352539,2.509116
-116.18042,872.314453,-387.084961,2.509859
-111.328125,876.800537,-378.112793,2.510602
-109.680176,879.364014,-397.888184,2.511354
-105.651855,871.673584,-384.796143,2.512174
-109.222412,867.828369,-385.070801,2.512909
-102.813721,871.673584,-383.422852,2.513643
-103.363037,869.842529,-383.422852,2.51441
-101.623535,867.279053,-381.866455,2.515153
-107.48291,864.990234,-386.627197,2.515896
-101.715088,866.638184,-389.923096,2.516638
-107.574463,862.701416,-389.190674,2.517391
-113.250732,860.961914,-388.73291,2.518149
-110.961914,871.124268,-385.620117,2.519191
-112.243652,872.772217,-379.943848,2.519963
-113.616943,870.20874,-387.634277,2.520723
-114.16626,868.19458,-387.542725,2.52149
-103.912354,878.997803,-382.232666,2.522254
-112.976074,869.934082,-385.620117,2.523055
-109.039307,884.033203,-387.72583,2.523824
-106.750488,868.835449,-385.528564,2.524585
-103.729248,861.419678,-386.627197,2.525333
-106.109619,868.286133,-379.852295,2.526115
-103.45459,861.694336,-379.852295,2.526859
-102.813721,859.954834,-389.556885,2.527601
-100.067139,864.990234,-379.02832,2.528344
-102.44751,860.137939,-389.923096,2.529094
-104.736328,861.785889,-383.331299,2.529836
-102.630615,857.391357,-385.437012,2.530579
-104.827881,859.771729,-382.415771,2.531322
-103.546143,862.243652,-382.873535,2.532074
-107.849121,853.363037,-384.338379,2.532817
-105.010986,854.46167,-377.471924,2.53356
-101.165771,857.025146,-386.71875,2.534303
-101.623535,858.581543,-381.958008,2.535093
-97.137451,869.567871,-385.070801,2.53588
-96.862793,880.645752,-381.68335,2.536632
-86.425781,873.504639,-372.161865,2.537399
-92.193604,878.631592,-388.183594,2.538142
-89.172363,880.371094,-384.613037,2.538884
-99.060059,881.378174,-378.02124,2.539626
-94.482422,881.103516,-379.852295,2.540369
-97.77832,879.730225,-387.176514,2.541111
-90.911865,883.483887,-391.75415,2.541854
-98.327637,882.476807,-385.620117,2.542596
-99.151611,883.575439,-391.479492,2.543339
-96.496582,882.385254,-392.578125,2.544082
-98.968506,883.94165,-394.042969,2.544825
-99.609375,882.843018,-399.078369,2.545568
-97.869873,885.955811,-396.42334,2.546321
-98.876953,887.329102,-396.606445,2.547064
-98.236084,885.681152,-389.099121,2.547807
-105.194092,886.779785,-395.782471,2.54855
-106.018066,885.681152,-398.162842,2.549305
-102.905273,881.469727,-395.324707,2.550048
-102.172852,887.60376,-400.177002,2.550791
-97.412109,887.878418,-400.45166,2.551534
-99.609375,879.91333,-408.325195,2.552277
-99.700928,870.941162,-403.839111,2.55302
-101.165771,874.237061,-409.515381,2.553763
-101.257324,881.378174,-409.973145,2.554506
-101.898193,885.406494,-406.494141,2.555248
-111.51123,878.90625,-407.775879,2.555988
-111.785889,884.033203,-400.177002,2.556731
-109.771729,879.638672,-399.719238,2.557481
-111.968994,883.850098,-402.008057,2.558237
-110.046387,906.097412,-403.839111,2.558981
-111.053467,889.892578,-399.078369,2.559725
-111.328125,885.406494,-390.197754,2.560469
-113.342285,885.5896,-421.600342,2.561214
-103.912354,882.751465,-407.409668,2.561958
-104.003906,889.801025,-401.824951,2.562702
-102.44751,888.153076,-403.4729,2.563445
-102.539062,887.237549,-405.578613,2.564188
-109.771729,882.659912,-409.332275,2.564922
-103.271484,891.63208,-395.233154,2.565656
-108.764648,892.364502,-396.240234,2.566389
-109.588623,890.625,-399.902344,2.567123
-115.997314,890.075684,-413.085938,2.567881
-112.1521,895.935059,-407.867432,2.568625
-112.701416,880.92041,-411.529541,2.569369
-113.983154,891.906738,-416.381836,2.57018
-112.518311,891.723633,-414.18457,2.570924
-112.884521,877.624512,-411.16333,2.571668
-116.088867,879.547119,-408.325195,2.572412
-111.968994,879.089355,-415.740967,2.573156
-108.032227,893.737793,-416.290283,2.573901
-98.876953,887.786865,-420.86792,2.574645
-104.187012,884.857178,-420.593262,2.575389
-108.673096,868.19458,-412.17041,2.576133
-108.947754,891.448975,-409.240723,2.576877
-94.116211,890.899658,-416.19873,2.577621
-108.306885,887.878418,-409.606934,2.578364
-114.16626,892.272949,-418.762207,2.579108
-112.060547,889.251709,-422.149658,2.579862
-114.16626,891.448975,-419.494629,2.580605
-109.130859,890.075684,-411.437988,2.581349
-107.849121,885.864258,-420.318604,2.582092
-106.658936,886.138916,-414.916992,2.582936
-107.666016,884.124756,-417.84668,2.58368
-108.215332,881.195068,-424.255371,2.584424
-117.279053,882.659912,-418.670654,2.585168
-118.652344,910.03418,-419.311523,2.585912
-121.673584,890.075684,-425.720215,2.586656
-122.772217,890.716553,-427.642822,2.587402
-125.061035,892.089844,-423.797607,2.588146
-127.89917,893.737793,-421.875,2.588902
-121.673584,894.927979,-427.001953,2.589646
-116.912842,896.392822,-416.564941,2.59039
-119.110107,886.871338,-418.85376,2.591134
