ACC_X,ACC_Y,ACC_Z,Time
-105.926514,873.413086,449.066162,1.38899
-102.44751,876.617432,450.531006,1.389734
-101.715088,870.025635,450.073242,1.390475
-103.45459,875.701904,445.3125,1.391215
-104.370117,868.103027,449.249268,1.391956
-103.820801,864.349365,452.636719,1.392697
-100.616455,845.581055,460.693359,1.393438
-100.891113,865.17334,450.622559,1.394178
-99.609375,881.011963,454.284668,1.394919
-96.77124,871.856689,458.953857,1.395661
-106.567383,878.540039,451.721191,1.396402
-109.039307,869.842529,458.129883,1.397142
-119.934082,875.152588,461.883545,1.397883
-122.039795,871.124268,448.516846,1.398628
-124.053955,866.638184,461.242676,1.399368
-116.821289,882.568359,467.559814,1.400109
-117.919922,876.983643,467.102051,1.40085
-110.870361,876.800537,466.369629,1.401613
-117.279053,878.90625,461.151123,1.402356
-117.1875,876.983643,457.946777,1.403096
-115.814209,886.047363,465.270996,1.403837
-107.666016,882.019043,459.594727,1.404578
-113.250732,885.498047,455.749512,1.405319
-110.321045,879.638672,459.228516,1.406059
-115.997314,885.223389,458.312988,1.4068
-112.976074,877.532959,458.03833,1.40755
-113.525391,879.180908,459.228516,1.408291
-112.243652,880.92041,464.538574,1.409032
-112.976074,882.843018,464.72168,1.409772
-95.397949,884.399414,464.447021,1.410523
-124.603271,878.448486,462.432861,1.411263
-113.342285,878.356934,464.447021,1.412004
-111.602783,878.448486,463.07373,1.412745
-111.785889,883.209229,467.102051,1.413485
-94.665527,881.011963,455.841064,1.414225
-114.349365,873.22998,456.939697,1.414965
-119.018555,887.145996,453.369141,1.415705
-110.229492,887.329102,458.221436,1.416445
-113.067627,880.187988,463.7146,1.417185
-116.455078,891.723633,460.601807,1.417925
-122.314453,888.61084,454.193115,1.418665
-118.560791,888.427734,460.601807,1.419406
-115.539551,899.32251,471.862793,1.420147
-119.750977,897.399902,465.545654,1.420888
-118.560791,898.590088,468.017578,1.421628
-112.1521,903.442383,471.679688,1.422378
-119.384766,895.568848,472.137451,1.423118
-122.955322,896.759033,471.038818,1.423858
-124.87793,892.272949,469.207764,1.424598
-117.645264,891.906738,471.038818,1.425339
-121.124268,912.231445,466.552734,1.426079
-118.011475,899.597168,467.834473,1.426819
-94.390869,894.470215,463.7146,1.427559
-112.243652,901.153564,464.996338,1.4283
-111.968994,894.927979,463.439941,1.42904
-115.447998,899.230957,467.651367,1.429781
-120.025635,888.702393,458.496094,1.43052
-118.743896,891.815186,458.679199,1.431261
-113.616943,890.258789,463.256836,1.432002
-114.898682,883.94165,461.242676,1.432742
-118.377686,896.118164,458.862305,1.433482
-126.251221,892.272949,455.749512,1.434232
-117.004395,883.758545,459.503174,1.435103
-140.441895,891.998291,450.256348,1.435844
-119.476318,884.857178,448.791504,1.436584
-118.560791,877.349854,441.467285,1.437325
-112.426758,882.110596,443.756104,1.438065
-120.117188,881.835938,441.009521,1.438805
-111.602783,881.561279,439.453125,1.439546
-112.792969,884.765625,425.262451,1.440286
-111.877441,881.561279,449.157715,1.441026
-108.673096,879.455566,444.580078,1.441766
-113.342285,883.666992,451.721191,1.442506
-111.51123,884.857178,449.798584,1.443258
-116.729736,883.209229,450.805664,1.443999
-116.088867,887.786865,454.833984,1.44474
-113.250732,892.913818,461.517334,1.44548
-113.15918,895.843506,470.489502,1.44623
-126.525879,885.131836,460.876465,1.446971
-123.22998,889.892578,459.136963,1.44771
-114.990234,886.505127,472.503662,1.44845
-97.595215,893.64624,469.482422,1.449191
-115.997314,888.885498,462.70752,1.449932
-120.300293,883.575439,452.270508,1.450673
-120.574951,889.892578,456.481934,1.451413
-114.440918,889.526367,459.136963,1.452154
-111.694336,887.695312,461.791992,1.452894
-111.328125,883.026123,460.510254,1.453635
-113.433838,880.737305,451.812744,1.454375
-117.919922,889.984131,446.136475,1.455116
-113.983154,886.59668,449.981689,1.455857
-119.659424,882.385254,447.418213,1.456597
-120.117188,878.265381,450.3479,1.45734
-124.145508,883.026123,450.805664,1.458087
-97.412109,886.322021,454.833984,1.458836
-120.20874,885.131836,453.00293,1.459582
-121.582031,890.258789,462.158203,1.460322
-131.011963,880.096436,447.784424,1.461063
-122.955322,871.856689,447.784424,1.461807
-119.842529,880.096436,453.369141,1.462552
-126.525879,883.117676,432.128906,1.463296
-119.750977,884.124756,448.059082,1.464038
-127.441406,878.814697,451.35498,1.464779
-116.638184,883.575439,456.939697,1.46552
-126.159668,885.040283,451.263428,1.46626
-128.814697,886.322021,457.672119,1.467
-128.082275,887.786865,453.094482,1.467741
-126.342773,874.145508,454.650879,1.468481
-126.89209,870.666504,460.235596,1.469222
-138.061523,890.808105,460.784912,1.469977
-132.110596,909.942627,452.636719,1.470719
-133.209229,886.688232,455.01709,1.47146
-135.955811,881.561279,448.608398,1.472203
-136.413574,879.272461,426.727295,1.472944
-128.356934,883.209229,451.446533,1.473685
-132.293701,875.701904,449.523926,1.474426
-132.843018,881.469727,451.99585,1.475166
-127.075195,883.94165,455.932617,1.475917
-129.455566,877.441406,448.059082,1.476658
-128.356934,879.547119,446.411133,1.477399
-130.279541,881.011963,456.207275,1.47814
-140.350342,878.814697,453.460693,1.478884
-140.899658,882.568359,461.791992,1.479615
-137.329102,880.737305,466.918945,1.480346
-141.174316,874.603271,466.827393,1.481076
-145.111084,883.392334,464.813232,1.481828
-144.561768,889.251709,466.186523,1.482568
-146.66748,889.892578,469.75708,1.483308
-148.773193,878.723145,466.552734,1.484047
-145.477295,873.321533,463.623047,1.484787
-136.779785,875.976562,467.834473,1.485527
-143.371582,879.364014,464.447021,1.486266
-132.019043,882.843018,459.777832,1.487005
-137.60376,872.131348,449.066162,1.487747
-137.145996,873.687744,450.531006,1.488488
-139.068604,876.525879,446.777344,1.489229
-136.047363,865.264893,452.178955,1.489969
-137.237549,875.793457,445.861816,1.490719
-132.93457,867.370605,442.749023,1.491459
-132.385254,871.398926,446.594238,1.4922
-134.490967,872.131348,444.30542,1.49294
-126.708984,873.687744,453.00293,1.49369
-136.962891,866.088867,439.727783,1.494431
-132.385254,871.856689,451.721191,1.495172
-132.843018,874.145508,446.31958,1.495912
-126.342773,867.004395,450.897217,1.496654
-127.166748,863.708496,446.136475,1.497395
-130.645752,868.560791,442.657471,1.498136
-122.86377,861.236572,442.657471,1.498876
-121.21582,865.356445,434.875488,1.499617
-123.87085,862.884521,441.741943,1.500358
-97.137451,862.1521,440.368652,1.501099
-120.849609,863.983154,442.29126,1.501839
-125.701904,859.222412,440.368652,1.50258
-114.715576,857.391357,436.523438,1.503321
-121.582031,863.891602,438.995361,1.504062
-119.567871,861.968994,435.516357,1.504803
-115.264893,857.574463,439.819336,1.505626
-122.314453,872.680664,441.558838,1.506368
-127.441406,861.51123,441.833496,1.507109
-127.075195,864.807129,440.093994,1.507849
-130.92041,857.666016,437.713623,1.50859
-128.997803,889.160156,446.685791,1.509331
-132.385254,870.483398,441.925049,1.510072
-123.138428,864.715576,439.544678,1.510813
-119.750977,867.553711,442.565918,1.511553
-116.363525,868.652344,438.903809,1.512294
-108.856201,866.638184,437.438965,1.513034
-115.17334,863.983154,431.945801,1.513775
-116.821289,862.060547,435.974121,1.514517
-114.16626,870.20874,443.847656,1.515257
-121.307373,864.624023,442.840576,1.515998
-122.497559,864.349365,439.727783,1.516738
-115.722656,859.954834,439.819336,1.517489
-115.631104,871.948242,443.206787,1.518229
-117.370605,866.912842,447.509766,1.51897
-119.659424,870.758057,445.770264,1.519711
-138.793945,866.821289,447.601318,1.520452
-118.377686,862.518311,444.671631,1.521192
-116.455078,859.130859,445.220947,1.521933
-111.14502,845.947266,447.052002,1.522673
-105.102539,870.300293,445.678711,1.523414
-111.51123,875.335693,447.692871,1.524155
-114.349365,870.758057,447.32666,1.524895
-111.785889,875.610352,443.206787,1.525635
-109.130859,875.88501,445.770264,1.526376
-116.912842,875.244141,442.199707,1.527116
-115.722656,874.145508,444.122314,1.527857
-114.807129,876.251221,454.376221,1.528608
-120.574951,872.314453,453.277588,1.529356
-139.251709,878.723145,450.3479,1.530105
-122.955322,880.096436,453.00293,1.530846
-119.384766,878.356934,457.214355,1.531587
-124.053955,877.990723,455.932617,1.532328
-119.293213,888.336182,465.179443,1.533069
-124.603271,886.688232,467.74292,1.53381
-125.152588,887.969971,490.539551,1.534551
-126.068115,890.350342,472.686768,1.535292
-124.969482,891.723633,476.074219,1.536032
-121.673584,890.075684,471.679688,1.536773
-124.511719,889.160156,473.968506,1.537515
-123.779297,889.709473,476.531982,1.538256
-124.87793,894.378662,475.799561,1.539
-124.237061,893.188477,470.214844,1.539756
-139.068604,888.061523,476.715088,1.540499
-130.371094,887.60376,462.06665,1.54124
-132.751465,882.751465,459.960938,1.541982
-123.504639,877.990723,467.285156,1.542724
-129.821777,878.997803,460.968018,1.543464
-126.251221,879.91333,453.918457,1.544205
-134.94873,882.659912,454.376221,1.544945
-131.103516,880.371094,459.136963,1.545686
-131.103516,878.173828,458.03833,1.546426
-124.145508,879.638672,457.305908,1.547167
-133.850098,872.406006,458.679199,1.547907
-126.159668,879.364014,458.312988,1.548647
-134.307861,870.391846,454.467773,1.549388
-129.730225,870.666504,458.221436,1.550145
-130.462646,865.356445,449.890137,1.550887
-131.561279,873.504639,448.33374,1.551628
-129.547119,873.87085,454.559326,1.552369
-128.90625,864.257812,447.509766,1.553111
-126.342773,862.884521,447.052002,1.553851
-133.666992,868.835449,447.784424,1.554592
-127.441406,872.2229,453.094482,1.555332
-123.22998,865.905762,446.960449,1.556083
-122.406006,863.891602,449.066162,1.556823
-124.420166,862.243652,443.023682,1.557564
-116.088867,863.433838,441.925049,1.558304
-121.856689,863.891602,447.509766,1.559046
-119.659424,850.891113,442.474365,1.559787
-121.307373,841.552734,438.720703,1.560528
-128.997803,850.982666,434.692383,1.561268
-117.828369,855.377197,441.28418,1.56201
-118.103027,866.088867,436.157227,1.56275
-124.511719,859.49707,440.2771,1.563491
-123.504639,859.771729,444.122314,1.564231
-117.919922,855.926514,437.530518,1.564972
-120.849609,855.377197,431.57959,1.565713
-114.257812,850.982666,432.952881,1.566454
-114.074707,848.052979,441.558838,1.567194
-116.638184,846.954346,436.706543,1.567935
-122.039795,850.616455,436.065674,1.568676
-118.377686,849.42627,438.262939,1.569417
-115.814209,861.419678,446.044922,1.570157
-117.004395,854.46167,448.150635,1.570907
-120.025635,863.525391,457.855225,1.571648
-119.750977,858.123779,451.080322,1.572388
-126.068115,849.517822,451.538086,1.573129
-117.279053,862.243652,448.791504,1.573878
-112.243652,845.031738,459.503174,1.574619
-113.616943,856.933594,453.552246,1.575359
-119.842529,860.595703,452.819824,1.576188
-112.060547,867.1875,456.02417,1.576929
-108.764648,864.440918,446.411133,1.577668
-102.996826,875.061035,451.721191,1.578407
-112.518311,863.15918,452.178955,1.579146
-117.370605,864.16626,452.911377,1.579885
-112.701416,869.934082,449.615479,1.580624
-116.455078,865.447998,446.960449,1.581363
-114.898682,869.293213,454.284668,1.582102
-112.976074,876.068115,457.305908,1.582842
-118.011475,860.50415,450.714111,1.583581
-108.764648,870.391846,447.967529,1.58432
-107.940674,874.603271,453.826904,1.58506
-107.574463,872.314453,449.615479,1.585799
-104.736328,871.21582,445.953369,1.586538
-111.328125,865.722656,447.418213,1.587277
-109.863281,858.764648,451.538086,1.588016
-107.48291,862.243652,457.580566,1.588755
-109.222412,866.546631,451.263428,1.589494
-111.877441,865.539551,448.699951,1.590233
-101.257324,858.856201,452.728271,1.590972
-104.553223,862.335205,446.228027,1.591711
-108.123779,869.476318,451.263428,1.592451
-106.567383,859.680176,442.29126,1.593189
-103.088379,859.49707,448.33374,1.593928
-107.391357,870.391846,454.833984,1.594667
-109.130859,861.877441,457.946777,1.595407
-104.919434,865.539551,452.087402,1.596146
-99.517822,868.377686,458.953857,1.596885
-107.574463,865.631104,450.714111,1.597625
-102.996826,870.117188,452.728271,1.598366
-102.630615,863.800049,450.897217,1.599114
-104.278564,868.103027,445.3125,1.599859
-102.264404,863.250732,452.178955,1.600605
-102.813721,858.947754,452.362061,1.601344
-104.278564,857.940674,443.847656,1.602083
-101.165771,861.877441,443.572998,1.602822
-96.221924,856.933594,449.249268,1.603583
-92.010498,858.947754,451.080322,1.604325
-97.961426,853.820801,445.3125,1.605064
-94.573975,861.14502,427.825928,1.605803
-92.651367,856.018066,442.016602,1.606542
-96.038818,855.010986,444.946289,1.607282
-95.123291,858.856201,440.002441,1.608022
-93.75,849.42627,444.396973,1.608761
-98.419189,844.482422,439.086914,1.6095
-93.292236,850.891113,442.016602,1.610252
-97.229004,846.77124,435.150146,1.610992
-87.341309,845.123291,439.544678,1.611731
-94.024658,846.130371,434.692383,1.61247
-96.405029,848.968506,444.763184,1.613222
-92.468262,857.48291,440.643311,1.613966
-94.207764,848.144531,441.101074,1.614718
-94.299316,848.7854,459.686279,1.615474
-104.187012,848.052979,429.473877,1.616232
-102.264404,852.264404,437.072754,1.616978
-110.137939,858.48999,442.199707,1.617727
-113.250732,849.334717,435.424805,1.618469
-110.229492,844.299316,438.354492,1.61921
-113.342285,852.44751,431.213379,1.61996
-112.426758,860.595703,434.417725,1.620702
-104.003906,860.870361,429.107666,1.621469
-111.785889,858.856201,440.551758,1.62221
-110.687256,858.398438,434.875488,1.622949
-108.123779,855.102539,432.403564,1.623688
-120.300293,858.48999,444.122314,1.624427
-118.286133,851.898193,436.248779,1.625166
-116.546631,863.250732,437.255859,1.625905
-129.180908,858.306885,444.763184,1.626644
-131.469727,858.48999,421.875,1.627392
-128.90625,866.088867,438.171387,1.628131
-129.272461,863.250732,444.396973,1.62887
-126.800537,860.321045,439.178467,1.629609
-124.145508,864.990234,441.925049,1.630348
-120.117188,864.074707,441.741943,1.631087
-127.441406,858.581543,434.875488,1.631827
-121.490479,867.279053,430.114746,1.632566
-131.92749,869.20166,428.283691,1.633305
-128.723145,864.440918,436.981201,1.634044
-128.90625,882.293701,438.354492,1.634783
-131.286621,874.145508,438.720703,1.635522
-130.371094,869.293213,437.072754,1.63626
-129.180908,871.21582,442.840576,1.636999
-134.490967,874.511719,442.840576,1.637738
-141.174316,872.955322,435.699463,1.638477
-140.075684,882.293701,442.932129,1.639225
-138.885498,889.984131,448.33374,1.639965
-129.272461,883.300781,450.714111,1.640704
-135.498047,886.138916,446.411133,1.641443
-132.659912,888.336182,448.699951,1.642182
-135.498047,883.392334,450.805664,1.642921
-128.173828,890.625,453.460693,1.64366
-131.561279,890.350342,460.693359,1.644399
-132.019043,892.63916,463.256836,1.645138
-122.955322,899.414062,465.179443,1.645877
-127.624512,899.230957,471.588135,1.646617
-122.955322,897.674561,468.566895,1.64744
-123.138428,897.30835,475.799561,1.64818
-122.497559,890.899658,470.489502,1.648919
-120.20874,894.378662,474.517822,1.649658
-120.483398,901.245117,475.067139,1.650397
-121.582031,891.082764,470.123291,1.651136
-122.680664,888.336182,466.186523,1.651874
-121.307373,888.885498,463.256836,1.652613
-120.117188,886.413574,457.946777,1.653352
-117.828369,886.230469,454.650879,1.654101
-118.560791,887.054443,456.848145,1.65484
-117.004395,879.91333,458.953857,1.655579
-118.011475,876.434326,455.200195,1.656318
-110.321045,883.94165,450.439453,1.657057
-109.588623,879.180908,453.277588,1.657796
-105.102539,883.026123,453.186035,1.658536
-103.637695,889.526367,453.918457,1.659274
-112.518311,882.476807,446.777344,1.660013
-113.800049,869.110107,444.946289,1.660752
-108.764648,877.166748,449.707031,1.661491
-110.595703,866.729736,448.608398,1.66223
-113.891602,865.905762,445.3125,1.662977
-107.574463,866.729736,441.28418,1.663717
-110.229492,864.532471,442.840576,1.664456
-119.659424,864.898682,427.825928,1.665195
-108.673096,853.271484,429.473877,1.665934
-107.48291,851.989746,428.55835,1.666683
-110.137939,844.848633,425.354004,1.667422
-112.792969,851.715088,423.522949,1.668161
-109.771729,839.172363,424.530029,1.668901
-109.405518,842.193604,422.424316,1.669665
-99.334717,837.799072,431.854248,1.670413
-103.820801,834.411621,425.720215,1.671158
-106.292725,830.01709,422.332764,1.671897
-111.877441,829.467773,417.022705,1.672636
-105.010986,830.108643,418.212891,1.673374
-110.961914,818.481445,413.360596,1.674113
-107.025146,823.791504,416.656494,1.674852
-102.722168,822.418213,410.064697,1.675611
-99.060059,830.474854,416.656494,1.67635
-102.355957,821.868896,409.790039,1.677089
-98.052979,822.601318,398.254395,1.677837
-94.665527,818.29834,408.416748,1.678577
-98.876953,814.544678,379.760742,1.679317
-94.573975,813.354492,399.44458,1.680056
-96.954346,796.966553,399.536133,1.680796
-94.573975,817.382812,395.599365,1.681543
-93.475342,814.27002,394.866943,1.682283
-96.496582,816.28418,392.486572,1.683022
-95.672607,816.009521,389.373779,1.683761
-99.609375,812.072754,384.063721,1.684514
-92.651367,812.62207,389.465332,1.685255
-94.207764,812.255859,387.72583,1.685994
-88.348389,820.678711,393.4021,1.686733
-92.010498,819.030762,386.352539,1.68748
-86.608887,815.460205,386.535645,1.688219
-84.777832,824.157715,385.437012,1.688958
-90.454102,822.052002,392.578125,1.689696
-87.432861,842.834473,395.324707,1.690451
-89.72168,806.671143,390.838623,1.691195
-84.777832,816.009521,386.260986,1.691935
-78.918457,816.741943,393.4021,1.692675
-86.242676,824.066162,397.43042,1.693434
-84.228516,828.643799,391.479492,1.694174
-81.939697,832.03125,393.218994,1.694913
-86.05957,829.376221,395.050049,1.695652
-85.235596,835.418701,405.303955,1.6964
-81.390381,833.770752,412.811279,1.69714
-85.510254,837.06665,403.930664,1.697878
-91.552734,835.876465,411.346436,1.698617
-88.165283,841.644287,413.085938,1.699365
-95.031738,840.911865,422.607422,1.700105
-114.257812,845.581055,423.614502,1.700844
-107.666016,850.250244,422.607422,1.701583
-109.130859,853.271484,421.142578,1.702331
-107.849121,853.271484,423.522949,1.70307
-110.778809,865.997314,422.790527,1.703808
-110.046387,862.701416,421.417236,1.704547
-112.426758,862.792969,423.065186,1.705296
-105.926514,856.658936,422.790527,1.706035
-103.637695,860.046387,423.431396,1.706774
-104.46167,864.624023,428.192139,1.707513
-105.010986,865.17334,433.410645,1.708261
-99.060059,868.560791,432.861328,1.709001
-100.067139,868.011475,437.255859,1.70974
-96.405029,872.131348,437.988281,1.710479
-104.736328,872.589111,444.854736,1.711228
-104.644775,881.103516,445.220947,1.711967
-104.827881,876.708984,444.946289,1.712706
-113.616943,871.673584,434.509277,1.713445
-116.912842,874.694824,444.488525,1.714193
-119.842529,873.87085,434.509277,1.714933
-122.314453,864.074707,431.121826,1.715672
-123.22998,865.722656,429.016113,1.716411
-101.257324,871.490479,429.840088,1.717159
-117.095947,873.687744,421.051025,1.717899
-120.025635,864.624023,417.84668,1.718719
-117.553711,862.976074,418.304443,1.719459
-117.1875,870.849609,419.952393,1.720209
-119.750977,855.285645,416.381836,1.720947
-116.455078,864.898682,413.818359,1.721686
-124.87793,861.236572,415.649414,1.722425
-124.969482,862.884521,424.255371,1.723173
-125.976562,862.1521,427.185059,1.723913
-133.575439,853.45459,422.973633,1.724652
-141.448975,852.44751,431.762695,1.725391
-130.187988,857.391357,435.333252,1.726137
-137.695312,850.799561,431.945801,1.726893
-137.237549,856.018066,427.825928,1.727635
-128.997803,853.820801,428.924561,1.728374
-132.019043,860.778809,414.459229,1.729115
-125.793457,854.553223,421.142578,1.729856
-126.89209,851.074219,402.832031,1.730596
-127.349854,854.46167,408.416748,1.731335
-129.547119,848.7854,398.162842,1.732074
-126.434326,847.045898,395.233154,1.732813
-122.772217,852.813721,398.529053,1.733552
-123.046875,853.820801,399.44458,1.734292
-126.800537,856.933594,391.662598,1.735031
-125.061035,857.208252,384.70459,1.73577
-135.498047,866.271973,394.775391,1.736509
-135.772705,868.652344,396.42334,1.737247
-139.801025,871.21582,387.084961,1.737984
-134.490967,860.321045,400.085449,1.738721
-137.512207,867.828369,405.12085,1.739457
-137.786865,863.15918,406.036377,1.740226
-145.477295,877.89917,407.684326,1.740976
-144.470215,883.575439,401.916504,1.741722
-150.32959,889.892578,415.557861,1.742468
-152.252197,890.441895,409.240723,1.743209
-159.759521,895.111084,417.022705,1.74395
-146.66748,896.209717,423.706055,1.74469
-146.392822,910.858154,433.776855,1.745431
-149.414062,911.590576,445.495605,1.746172
-146.759033,908.935547,449.523926,1.746912
-142.364502,911.132812,459.594727,1.747653
-144.378662,918.365479,474.975586,1.748393
-133.300781,922.027588,479.278564,1.749148
-124.053955,925.231934,486.602783,1.74989
-127.716064,933.013916,497.039795,1.750631
-128.723145,928.985596,495.758057,1.751371
-126.708984,934.936523,497.2229,1.752112
-124.328613,925.506592,479.827881,1.752851
-128.448486,920.928955,483.764648,1.75359
-127.532959,911.224365,475.341797,1.754329
-130.645752,903.533936,458.862305,1.755068
-132.751465,905.36499,442.016602,1.755808
-131.195068,909.393311,432.678223,1.756547
-138.336182,892.089844,424.346924,1.757286
-137.420654,895.935059,413.269043,1.758025
-126.800537,890.350342,416.381836,1.758764
-131.195068,888.885498,415.83252,1.759503
-125.152588,889.343262,408.599854,1.760242
-125.427246,883.392334,405.944824,1.760983
-123.687744,874.694824,411.071777,1.761722
-126.342773,872.131348,409.332275,1.76246
-122.314453,866.729736,413.360596,1.763199
-122.497559,853.912354,394.592285,1.763938
-124.053955,853.088379,397.521973,1.764689
-115.539551,846.588135,387.634277,1.765429
-105.285645,858.306885,380.67627,1.766168
-106.109619,837.432861,381.866455,1.76691
-111.328125,830.841064,371.612549,1.767664
-97.045898,827.636719,368.95752,1.768405
-91.73584,816.558838,371.063232,1.769144
-90.545654,817.016602,365.386963,1.769883
-85.876465,803.283691,368.774414,1.770636
-79.101562,794.128418,355.773926,1.771377
-79.559326,794.128418,334.442139,1.772122
-67.199707,780.578613,348.724365,1.772875
-78.094482,770.233154,340.759277,1.773633
-74.890137,772.613525,342.132568,1.774389
-62.713623,761.993408,326.751709,1.775146
-56.945801,759.979248,310.821533,1.775902
-58.776855,747.253418,300.750732,1.776659
-58.502197,748.352051,291.503906,1.777404
-49.621582,751.556396,284.27124,1.778143
-55.847168,736.816406,284.179688,1.778882
-24.993896,735.351562,274.932861,1.779622
-42.022705,734.25293,274.749756,1.78036
-45.227051,730.316162,260.101318,1.781099
-51.086426,739.379883,248.657227,1.781838
-47.515869,727.203369,245.727539,1.782577
-25.268555,723.449707,247.375488,1.783315
-44.311523,719.970703,246.09375,1.784055
-50.354004,723.449707,231.170654,1.784815
-41.381836,722.991943,226.959229,1.785555
-47.241211,727.935791,230.438232,1.786293
-56.762695,725.738525,231.903076,1.787033
-55.57251,728.759766,232.269287,1.787781
-48.431396,719.87915,225.128174,1.788521
-41.564941,714.660645,226.226807,1.78926
-52.734375,723.724365,227.416992,1.790085
-45.043945,717.956543,222.290039,1.790824
-41.290283,722.076416,222.381592,1.791565
-50.720215,712.188721,216.064453,1.792304
-46.691895,718.139648,214.96582,1.793043
-45.501709,712.738037,224.578857,1.793781
-57.495117,703.216553,216.705322,1.79452
-24.353027,711.364746,208.282471,1.795259
-45.501709,708.80127,212.310791,1.795998
-31.677246,721.343994,220.916748,1.796749
-45.135498,718.963623,199.035645,1.797489
-41.015625,722.53418,190.612793,1.798227
-43.121338,718.87207,205.718994,1.798966
-40.466309,720.336914,187.316895,1.799706
-57.403564,723.724365,184.47876,1.800445
-42.388916,725.830078,195.19043,1.801184
-36.895752,720.245361,198.028564,1.801922
-41.931152,707.885742,195.831299,1.802661
-45.776367,716.033936,193.359375,1.8034
-35.705566,708.984375,195.465088,1.804139
-34.332275,704.956055,192.352295,1.804877
-47.149658,713.287354,201.416016,1.805618
-46.691895,702.026367,197.113037,1.806356
-53.100586,712.921143,192.443848,1.807095
-55.023193,720.794678,185.48584,1.807834
-42.480469,725.646973,185.668945,1.808572
-43.487549,727.661133,194.549561,1.809311
-58.227539,718.963623,182.006836,1.81005
-53.192139,708.1604,184.661865,1.810788
-39.276123,707.977295,192.260742,1.81153
-69.30542,714.752197,192.993164,1.812277
-37.536621,710.998535,184.570312,1.813023
-37.994385,722.259521,177.79541,1.813768
-38.543701,717.773438,174.499512,1.814507
-59.509277,712.646484,175.598145,1.815246
-47.607422,743.133545,168.365479,1.815985
-54.748535,743.682861,170.013428,1.816724
-63.262939,772.155762,179.260254,1.817463
-80.108643,788.543701,165.161133,1.818202
-88.897705,792.84668,166.442871,1.818941
-116.455078,796.508789,163.970947,1.819679
-135.040283,813.262939,148.31543,1.820435
-127.89917,848.419189,135.040283,1.821178
-115.356445,852.630615,139.892578,1.821917
-143.737793,868.377686,163.330078,1.822655
-158.294678,936.126709,161.956787,1.823403
-143.280029,966.705322,106.750488,1.824143
-117.1875,961.761475,107.757568,1.824881
-209.014893,953.24707,105.651855,1.82562
-203.430176,974.304199,25.909424,1.826359
-182.006836,979.614258,44.586182,1.827115
-206.085205,968.261719,24.627686,1.827855
-256.713867,990.142822,4.852295,1.828594
-213.592529,1019.622803,-19.134521,1.829341
-212.402344,1039.215088,-21.148682,1.830081
-269.622803,1045.532227,-23.162842,1.83082
-268.798828,1065.307617,-14.831543,1.831559
-220.184326,1068.145752,-14.73999,1.832297
-226.959229,1091.033936,23.895264,1.83289
-240.41748,1084.259033,33.874512,1.833629
-285.095215,1109.25293,85.601807,1.834369
-268.615723,1104.125977,132.751465,1.835108
-181.091309,1141.479492,167.907715,1.835856
-266.967773,1107.971191,213.226318,1.836596
-273.193359,1150.817871,236.206055,1.837335
-173.126221,1145.599365,271.911621,1.838074
-212.219238,1152.832031,352.203369,1.838823
-273.376465,1179.290771,380.126953,1.839562
-169.555664,1187.164307,430.297852,1.8403
-202.514648,1020.446777,502.349854,1.841039
-197.387695,1370.269775,531.37207,1.841789
-151.428223,1393.341064,564.880371,1.842531
-77.819824,1322.845459,572.20459,1.843273
-330.230713,1217.651367,622.558594,1.844015
-289.489746,1137.72583,669.433594,1.844778
-260.467529,1126.190186,706.14624,1.845519
-253.509521,1155.853271,742.584229,1.846258
-245.544434,1167.84668,729.034424,1.846997
-197.570801,1178.192139,749.816895,1.847746
-181.365967,1118.682861,758.514404,1.848486
-166.900635,1076.385498,739.746094,1.849224
-146.209717,1041.229248,713.378906,1.849964
-174.591064,1050.109863,689.300537,1.850712
-201.324463,1053.039551,674.01123,1.851452
-208.374023,1056.610107,650.756836,1.852191
-205.993652,1067.41333,648.376465,1.85293
-212.860107,1077.301025,589.691162,1.853679
-211.669922,1059.997559,540.985107,1.854418
-204.25415,1048.370361,525.238037,1.855156
-251.220703,1027.770996,459.320068,1.855895
-246.551514,1023.010254,422.424316,1.856643
-218.719482,1033.538818,364.562988,1.857382
-220.550537,1018.615723,303.588867,1.858121
-225.952148,1023.376465,285.552979,1.85886
-226.867676,1038.024902,235.198975,1.859609
-221.740723,1038.574219,194.641113,1.860348
-229.797363,1025.848389,169.647217,1.861169
-218.994141,1012.023926,116.546631,1.861908
-212.585449,1004.882812,58.319092,1.862658
-192.169189,983.642578,48.614502,1.863397
-191.52832,982.177734,-0.640869,1.864136
-205.352783,971.008301,-15.472412,1.864876
-202.697754,978.424072,-53.009033,1.865624
-220.367432,980.712891,-41.19873,1.866363
-212.036133,977.233887,-45.318604,1.867102
-220.275879,987.39624,-71.31958,1.867841
-207.183838,998.840332,-68.29834,1.86859
-259.82666,989.593506,-74.249268,1.869329
-264.221191,986.846924,-70.495605,1.870068
-272.827148,1000.488281,-77.362061,1.870807
-299.377441,1002.502441,-68.389893,1.871555
-328.857422,1095.52002,-58.685303,1.872295
-278.961182,984.100342,-41.748047,1.873033
-261.199951,984.832764,-66.375732,1.873772
-277.679443,952.331543,-75.897217,1.874521
-280.517578,991.516113,-74.249268,1.87526
-239.868164,1006.530762,-66.009521,1.875998
-281.524658,1009.185791,-55.755615,1.876737
-297.912598,1070.068359,-23.620605,1.877485
-192.352295,1114.929199,-16.021729,1.878225
-238.769531,1164.001465,-21.331787,1.878964
-197.021484,1170.776367,21.514893,1.879703
-195.373535,1169.036865,45.135498,1.88045
-196.014404,-32.501221,905.548096,1.881189
-1782.989502,749.633789,1278.717041,1.881928
239.318848,1141.021729,614.227295,1.882668
748.901367,1369.354248,441.28418,1.883437
110.961914,1353.69873,466.552734,1.884185
-690.490723,1289.703369,517.181396,1.884932
-553.80249,1337.127686,137.054443,1.885672
-338.378906,1491.210938,61.157227,1.886435
412.536621,1353.33252,594.543457,1.887176
1013.671875,1315.52124,629.333496,1.887915
380.767822,1324.768066,749.725342,1.888654
719.421387,1362.030029,499.603271,1.889402
773.895264,1393.707275,489.624023,1.890142
-63.995361,1307.189941,429.382324,1.89088
225.219727,1336.761475,278.320312,1.891619
10.528564,1330.535889,222.839355,1.892373
47.607422,1300.415039,265.045166,1.893112
75.3479,1314.147949,317.230225,1.893851
-113.250732,1359.558105,416.656494,1.89459
-220.550537,1373.931885,536.590576,1.895336
-61.065674,1377.868652,559.112549,1.896075
91.552734,1384.368896,521.66748,1.896814
-169.189453,1370.178223,498.962402,1.897553
-425.079346,1343.536377,437.530518,1.898303
-379.119873,1319.000244,385.437012,1.899043
-252.410889,1281.463623,364.746094,1.899783
-413.085938,1241.088867,299.468994,1.900522
-493.377686,1228.179932,274.841309,1.901269
-479.919434,1170.959473,189.239502,1.902045
-491.088867,1163.543701,138.244629,1.902797
-544.464111,1145.233154,123.687744,1.903559
-576.049805,1131.68335,88.897705,1.904299
-573.760986,1120.697021,40.557861,1.905038
-501.983643,1094.055176,11.444092,1.905784
-529.632568,1077.11792,-24.627686,1.906494
-812.988281,1089.660645,114.990234,1.907235
-1481.506348,1089.935303,188.323975,1.907975
-1303.619385,1076.843262,224.67041,1.908715
1015.594482,1180.297852,206.268311,1.909471
-412.17041,1130.310059,173.034668,1.910211
-1257.93457,1098.175049,150.695801,1.910951
-357.23877,1096.984863,123.962402,1.911691
352.661133,1155.944824,34.606934,1.912441
-233.093262,1125.915527,-23.529053,1.913182
-768.676758,1079.498291,-36.804199,1.913922
-349.731445,1104.492188,-103.912354,1.914662
262.207031,1117.950439,-145.751953,1.915411
-385.803223,1052.215576,-224.487305,1.916151
-529.815674,1033.172607,-326.843262,1.916891
-88.165283,1029.602051,-365.753174,1.917632
108.398438,1025.299072,-371.704102,1.918408
-65.917969,993.438721,-247.558594,1.919168
423.339844,1054.412842,-89.538574,1.919923
575.866699,1062.561035,195.922852,1.920678
-52.55127,1062.194824,211.120605,1.921461
82.305908,1135.162354,143.829346,1.92222
218.261719,1130.67627,37.078857,1.922974
-109.130859,1123.99292,53.924561,1.923717
-1015.319824,1143.585205,226.959229,1.924488
-1407.531738,1056.152344,270.996094,1.925235
-809.875488,1085.449219,79.742432,1.925989
-295.623779,1148.4375,-37.811279,1.926748
-487.976074,1067.230225,-59.692383,1.927536
66.833496,1047.729492,38.17749,1.928295
1710.845947,1257.93457,152.526855,1.929053
474.517822,1133.789062,103.912354,1.929809
-1110.26001,1011.474609,103.363037,1.930583
352.935791,1120.422363,-6.134033,1.931426
594.543457,1107.696533,-56.57959,1.932166
-332.244873,1065.490723,-59.60083,1.932906
-163.879395,1080.505371,-89.172363,1.933659
248.748779,1095.245361,-127.624512,1.9344
97.503662,1101.745605,-128.082275,1.935139
-221.374512,1035.736084,-165.344238,1.93588
-49.621582,1045.898438,-200.408936,1.936629
204.437256,1044.250488,-264.770508,1.937369
13.824463,1019.989014,-345.245361,1.938109
-223.571777,968.994141,-401.45874,1.938849
-109.680176,907.37915,-593.902588,1.939598
-20.874023,843.292236,-743.041992,1.940338
-290.863037,688.842773,-1116.027832,1.941078
-223.205566,643.798828,-1429.412842,1.941817
1604.553223,661.743164,-1077.850342,1.942566
910.217285,397.247314,-376.098633,1.943306
328.674316,513.061523,-283.905029,1.944046
-1919.586182,801.544189,53.833008,1.944786
-2884.002686,791.931152,118.652344,1.945535
-2420.928955,753.662109,-93.109131,1.946275
48.248291,684.631348,-499.145508,1.947015
2302.91748,846.862793,-593.261719,1.947755
2999.908447,1165.283203,-699.645996,1.948505
664.581299,724.639893,-599.029541,1.949246
-2601.379395,696.624756,-646.911621,1.949986
234.283447,733.886719,-821.685791,1.950726
2999.908447,1072.357178,-608.917236,1.951476
2317.474365,564.697266,-534.576416,1.952216
-1492.492676,426.086426,-397.979736,1.952956
-2898.193359,659.545898,-134.490967,1.953703
-3000.0,888.061523,-134.765625,1.95447
-3000.0,445.770264,-214.782715,1.955217
-217.62085,5.767822,74.523926,1.955964
1449.462891,1018.066406,-391.387939,1.956712
2999.908447,1474.639893,-283.26416,1.957465
2999.908447,1395.172119,-446.228027,1.958205
843.658447,1103.302002,-1126.922607,1.958944
591.888428,896.118164,-689.117432,1.959693
-2184.7229,-220.825195,-18.035889,1.960434
-2585.083008,1568.939209,2929.138184,1.961174
491.363525,2720.947266,2999.908447,1.961914
2676.727295,2999.908447,2999.908447,1.962662
975.219727,2999.908447,646.270752,1.963403
266.326904,1444.152832,-379.486084,1.964142
-737.091064,310.546875,-1630.737305,1.964882
-1709.197998,218.261719,-1960.05249,1.965621
-1572.875977,355.316162,-1750.396729,1.966372
-896.759033,220.092773,-922.302246,1.967112
1491.577148,895.751953,-407.501221,1.967851
1994.018555,1077.758789,684.814453,1.968592
987.121582,959.014893,457.397461,1.969345
458.862305,943.359375,231.994629,1.970085
97.961426,773.162842,-68.847656,1.970825
-755.584717,649.749756,-308.807373,1.971564
-1204.101562,582.458496,-668.426514,1.972313
-1086.456299,619.628906,-478.271484,1.973053
-1032.25708,600.128174,-633.81958,1.973793
-527.435303,934.295654,-123.046875,1.974533
2158.538818,1308.47168,904.998779,1.975281
771.42334,1405.700684,1599.243164,1.976021
61.065674,1247.589111,-56.213379,1.976761
171.112061,960.296631,-526.794434,1.977501
-157.836914,850.524902,-671.173096,1.97825
-472.961426,904.266357,-105.194092,1.97899
-667.144775,1016.784668,-47.790527,1.979729
-431.57959,1030.883789,-244.903564,1.980469
184.936523,1016.326904,-148.498535,1.981219
207.91626,1082.244873,513.885498,1.981959
264.770508,1146.148682,395.874023,1.982699
474.243164,1083.618164,-60.699463,1.983439
357.879639,836.334229,-994.07959,1.984191
29.388428,808.227539,-935.394287,1.984931
445.3125,944.915771,-133.117676,1.985671
665.039062,1031.524658,162.322998,1.98641
618.164062,1138.824463,120.574951,1.987157
220.275879,1065.673828,-153.900146,1.987897
57.037354,989.959717,-320.800781,1.988637
22.979736,976.409912,-206.359863,1.989376
93.200684,1113.189697,-20.507812,1.990142
47.88208,1117.492676,-59.967041,1.990884
-182.922363,1099.456787,-132.568359,1.991623
-316.040039,1066.131592,-233.642578,1.992376
-318.054199,1084.16748,-243.804932,1.993116
30.303955,1143.493652,-101.348877,1.993863
204.25415,1152.282715,-153.533936,1.994606
498.687744,1160.888672,-234.741211,1.99535
629.608154,1170.227051,-314.941406,1.996091
794.952393,1155.212402,-311.920166,1.996832
820.220947,1094.512939,-252.502441,1.997572
675.933838,1061.279297,-216.247559,1.998313
-52.093506,1053.314209,-162.597656,1.999062
-597.65625,1027.22168,-74.981689,1.999811
-638.48877,1106.781006,-65.826416,2.000649
-460.327148,1148.162842,-75.164795,2.00139
-290.588379,1176.818848,-174.499512,2.00213
-247.192383,1152.923584,-282.25708,2.00287
-146.209717,1092.407227,-336.639404,2.003609
-106.201172,1064.208984,-352.020264,2.004349
9.246826,1050.933838,-332.061768,2.005089
165.710449,1037.841797,-314.025879,2.005828
194.091797,1024.841309,-346.343994,2.006567
233.917236,989.4104,-374.633789,2.007325
242.431641,989.044189,-401.367188,2.008065
274.56665,993.530273,-377.655029,2.008804
513.244629,964.782715,-329.956055,2.009543
642.51709,953.887939,-316.131592,2.010293
799.072266,922.943115,-331.604004,2.011032
859.313965,896.484375,-379.852295,2.011772
846.313477,896.575928,-404.754639,2.012511
655.700684,909.484863,-406.036377,2.013252
528.442383,903.625488,-356.414795,2.013992
206.726074,902.709961,-324.829102,2.014732
-146.209717,916.168213,-238.128662,2.015471
-320.617676,923.492432,-177.520752,2.016211
-452.911377,987.762451,-218.444824,2.016951
-294.799805,1013.763428,-270.080566,2.01769
130.096436,1013.48877,-284.088135,2.01843
466.369629,972.930908,-345.703125,2.019188
564.331055,954.986572,-371.704102,2.019927
605.621338,933.013916,-372.070312,2.020666
375.457764,903.808594,-330.963135,2.021406
232.086182,892.547607,-311.096191,2.022145
-51.544189,897.674561,-298.278809,2.022884
-102.264404,949.401855,-269.073486,2.023624
-76.538086,993.621826,-237.579346,2.024367
3.387451,1082.885742,-189.880371,2.025135
20.782471,1095.153809,-202.789307,2.025885
4.577637,1122.436523,-239.135742,2.026631
-42.205811,1127.929688,-257.537842,2.027371
-61.157227,1121.704102,-258.087158,2.028111
-115.539551,1078.216553,-231.445312,2.02885
-134.490967,1086.82251,-211.94458,2.029589
-106.018066,1070.251465,-197.20459,2.030329
-34.790039,1017.51709,-205.352783,2.031068
18.310547,982.36084,-300.842285,2.031808
105.743408,959.381104,-292.877197,2.032547
120.025635,1014.038086,-273.284912,2.033287
65.826416,1035.27832,-275.299072,2.034026
-12.908936,1027.404785,-237.030029,2.034765
-49.713135,999.938965,-282.714844,2.035505
-22.796631,952.423096,-315.216064,2.036245
-1.00708,981.811523,-351.196289,2.037001
10.528564,980.804443,-324.188232,2.037742
-41.107178,966.888428,-295.257568,2.038481
-46.875,946.289062,-365.936279,2.03922
-78.460693,951.965332,-362.823486,2.039972
-159.759521,926.055908,-338.012695,2.040712
-177.703857,928.80249,-370.513916,2.041451
-72.601318,945.556641,-430.847168,2.042191
79.284668,898.864746,-470.672607,2.042939
331.604004,884.58252,-505.004883,2.043679
395.599365,871.490479,-558.013916,2.044418
373.260498,899.871826,-440.185547,2.045158
182.098389,943.267822,-379.02832,2.045897
129.91333,952.056885,-428.466797,2.046637
141.906738,967.529297,-453.552246,2.047376
265.50293,995.08667,-421.966553,2.048115
292.419434,1011.199951,-416.748047,2.048855
380.493164,1054.504395,-401.000977,2.049595
598.846436,1066.589355,-428.283691,2.050335
334.075928,1067.230225,-451.812744,2.051075
83.312988,1023.925781,-265.594482,2.051824
-68.572998,1031.524658,-336.547852,2.052569
-367.858887,1072.174072,-321.166992,2.053309
-538.05542,1105.041504,-223.66333,2.054048
-578.979492,1114.837646,-205.810547,2.054799
-558.288574,1082.702637,-239.593506,2.055539
-486.14502,1083.526611,-273.376465,2.056278
-336.82251,1109.161377,-278.778076,2.057018
-220.458984,1135.894775,-271.362305,2.057766
-183.380127,1124.542236,-264.587402,2.058506
-137.329102,1114.28833,-280.059814,2.059245
-140.533447,1115.112305,-296.264648,2.059985
-153.259277,1105.773926,-293.884277,2.060724
-173.583984,1143.4021,-316.314697,2.061465
-175.506592,1160.797119,-277.954102,2.062205
-174.133301,1186.523438,-289.306641,2.062944
-190.429688,1222.503662,-331.604004,2.063683
-184.753418,1226.165771,-321.990967,2.064423
-171.844482,1204.742432,-328.216553,2.065162
-155.090332,1193.29834,-348.815918,2.065902
-89.538574,1179.840088,-348.449707,2.066659
-83.129883,1222.045898,-375.0,2.067401
-36.346436,1468.231201,-169.73877,2.068461
-126.251221,1272.216797,-436.065674,2.069944
-185.943604,1207.580566,-264.49585,2.071431
-195.831299,1329.986572,-246.09375,2.073055
-186.676025,1230.377197,-401.275635,2.074555
-137.512207,1253.90625,-420.959473,2.076113
-137.512207,1238.983154,-448.791504,2.077615
-137.878418,1206.481934,-466.369629,2.079103
-174.041748,1208.129883,-528.076172,2.080584
-188.690186,1217.010498,-534.759521,2.082067
-198.852539,1198.974609,-534.484863,2.083549
-168.273926,1213.07373,-491.271973,2.085029
-164.428711,1196.502686,-518.554688,2.086509
-213.592529,1215.820312,-492.370605,2.087992
-179.901123,1209.320068,-552.703857,2.089471
-168.548584,1254.730225,-492.553711,2.090973
-229.248047,1215.270996,-522.216797,2.092454
-154.449463,1217.74292,-551.78833,2.093935
-195.281982,1254.730225,-520.6604,2.09543
-211.853027,1192.657471,-583.740234,2.096926
-162.963867,1211.517334,-542.816162,2.098445
-187.957764,1184.417725,-571.655273,2.099927
-217.62085,1184.234619,-565.52124,2.101426
-203.704834,1181.671143,-576.049805,2.102906
-168.273926,1154.022217,-569.091797,2.104404
-166.168213,1147.43042,-557.4646,2.105885
-180.175781,1156.494141,-568.084717,2.107383
-219.451904,1173.706055,-551.422119,2.108863
-199.584961,1162.628174,-573.394775,2.110359
-153.991699,1144.40918,-563.323975,2.111847
-102.081299,1136.627197,-583.099365,2.113352
-128.356934,1144.592285,-540.161133,2.114832
-174.591064,1130.401611,-560.48584,2.116332
-140.991211,1138.73291,-559.387207,2.117811
-110.321045,1145.324707,-554.260254,2.119308
-97.229004,1151.733398,-557.4646,2.120788
-95.581055,1160.797119,-522.949219,2.12229
-99.060059,1155.578613,-530.36499,2.123769
-86.151123,1189.086914,-508.392334,2.125263
-76.721191,1162.811279,-525.054932,2.126743
-8.972168,1210.235596,-483.673096,2.128241
-27.282715,1205.749512,-465.179443,2.129721
-26.092529,1179.748535,-458.404541,2.131219
-0.366211,1205.108643,-453.552246,2.132699
13.73291,1186.248779,-469.482422,2.134199
24.719238,1200.073242,-458.862305,2.135679
31.768799,1195.495605,-453.277588,2.137178
47.424316,1187.805176,-449.066162,2.138657
53.100586,1205.657959,-437.805176,2.140155
44.494629,1181.213379,-449.615479,2.141636
62.805176,1184.326172,-428.649902,2.143117
82.122803,1160.247803,-457.305908,2.144597
89.172363,1171.783447,-446.502686,2.145588
84.04541,1165.649414,-451.538086,2.146338
99.151611,1162.719727,-460.418701,2.147078
107.299805,1180.114746,-451.99585,2.147819
113.433838,1182.037354,-430.847168,2.14856
119.659424,1156.585693,-437.713623,2.149317
125.152588,1144.40918,-465.72876,2.150058
146.759033,1162.811279,-452.819824,2.150798
141.265869,1191.650391,-406.402588,2.151538
129.638672,1154.846191,-432.037354,2.152293
134.674072,1163.818359,-443.115234,2.153033
144.561768,1160.522461,-420.043945,2.153772
158.203125,1162.078857,-399.719238,2.154511
173.400879,1165.740967,-399.078369,2.15526
178.253174,1163.360596,-406.219482,2.156
172.119141,1160.247803,-405.853271,2.15674
171.295166,1146.881104,-390.289307,2.15748
180.267334,1142.944336,-390.197754,2.158228
186.767578,1143.676758,-392.486572,2.158968
185.302734,1152.648926,-371.429443,2.159708
180.725098,1161.621094,-371.154785,2.160448
171.112061,1155.853271,-386.260986,2.161197
164.611816,1146.697998,-379.302979,2.161937
168.365479,1116.485596,-379.577637,2.162677
177.154541,1121.520996,-399.353027,2.163416
182.281494,1123.901367,-361.26709,2.164165
160.583496,1135.070801,-364.929199,2.164905
159.484863,1103.668213,-379.943848,2.165644
165.161133,1107.421875,-384.521484,2.166384
172.027588,1105.224609,-385.070801,2.167134
168.823242,1098.999023,-374.084473,2.167885
175.598145,1107.055664,-378.112793,2.168631
165.344238,1095.88623,-382.507324,2.169375
162.322998,1088.562012,-389.282227,2.17014
156.738281,1089.385986,-383.880615,2.17088
155.914307,1093.048096,-384.155273,2.171619
157.836914,1065.216064,-382.873535,2.172358
153.717041,1068.237305,-387.634277,2.173115
149.963379,1062.103271,-382.415771,2.173852
148.773193,1050.109863,-374.176025,2.174613
142.63916,1034.179688,-383.422852,2.175355
136.047363,1030.792236,-391.204834,2.176111
141.357422,1020.629883,-385.162354,2.176853
140.716553,1009.277344,-383.148193,2.17768
144.287109,1009.094238,-391.021729,2.178434
136.230469,1005.432129,-388.092041,2.179175
136.413574,987.670898,-394.317627,2.179916
125.88501,985.748291,-393.859863,2.180657
127.624512,976.68457,-396.972656,2.1814
126.708984,974.304199,-396.240234,2.182141
126.159668,976.226807,-391.387939,2.182882
97.229004,972.381592,-379.302979,2.183623
106.658936,966.339111,-397.796631,2.184374
114.349365,959.381104,-386.901855,2.185114
107.208252,960.296631,-385.803223,2.185855
98.7854,959.381104,-378.570557,2.186596
93.017578,957.275391,-377.197266,2.187346
94.573975,954.711914,-372.436523,2.188087
90.545654,958.740234,-371.97876,2.188828
89.630127,947.845459,-369.232178,2.189569
90.454102,948.303223,-363.830566,2.190319
91.73584,936.950684,-365.020752,2.19106
93.200684,938.873291,-366.943359,2.191801
103.912354,925.231934,-364.379883,2.192541
97.412109,928.253174,-360.717773,2.193282
90.911865,925.323486,-366.668701,2.194023
82.855225,917.907715,-365.570068,2.194763
76.263428,901.885986,-362.182617,2.195504
74.066162,918.365479,-356.048584,2.196245
78.826904,919.189453,-356.5979,2.196986
78.826904,912.322998,-356.323242,2.197727
68.115234,907.928467,-353.485107,2.198468
59.417725,904.907227,-354.58374,2.199208
64.819336,903.076172,-356.140137,2.199949
62.164307,902.893066,-357.60498,2.20069
59.234619,899.780273,-349.822998,2.20143
53.55835,891.174316,-355.133057,2.202179
47.790527,894.836426,-355.59082,2.202921
52.001953,894.65332,-352.020264,2.203662
48.248291,898.040771,-348.449707,2.204403
49.346924,868.377686,-348.54126,2.205143
46.875,886.59668,-349.365234,2.205884
39.642334,883.575439,-355.59082,2.206625
40.557861,886.413574,-331.237793,2.207366
35.705566,876.983643,-351.470947,2.208107
34.240723,876.617432,-347.53418,2.208848
30.578613,878.173828,-344.329834,2.209588
18.768311,869.750977,-339.569092,2.210329
23.071289,869.750977,-339.111328,2.211079
20.507812,867.370605,-346.618652,2.211821
22.796631,854.827881,-334.716797,2.212562
16.662598,849.609375,-343.963623,2.213303
8.056641,851.989746,-335.540771,2.214055
4.211426,848.7854,-336.914062,2.214798
10.253906,844.116211,-339.752197,2.215539
5.859375,839.904785,-338.012695,2.21628
3.02124,838.07373,-338.378906,2.217028
-6.134033,837.890625,-337.921143,2.21777
-4.302979,829.559326,-329.498291,2.218511
2.563477,831.298828,-330.963135,2.219251
0.457764,817.657471,-340.026855,2.22
0.549316,799.072266,-339.660645,2.220742
-7.507324,810.882568,-343.963623,2.221483
-22.705078,813.354492,-338.83667,2.222224
-1.00708,805.938721,-341.674805,2.222973
7.781982,807.861328,-341.491699,2.223716
11.352539,804.656982,-338.745117,2.224461
4.577637,807.769775,-325.836182,2.225204
-3.662109,790.100098,-338.378906,2.225947
3.479004,783.050537,-330.505371,2.226689
-0.823975,792.022705,-328.033447,2.22743
0.0,794.219971,-328.125,2.228173
7.781982,789.459229,-326.934814,2.228916
9.796143,781.585693,-329.864502,2.229658
6.866455,780.029297,-332.611084,2.230399
11.077881,778.930664,-321.350098,2.231139
9.338379,772.705078,-324.09668,2.231893
12.542725,772.705078,-332.611084,2.232637
13.183594,771.697998,-330.230713,2.233377
10.894775,765.655518,-314.025879,2.234118
7.232666,764.831543,-317.047119,2.234867
12.359619,765.655518,-324.005127,2.235608
13.000488,754.394531,-324.188232,2.236349
18.859863,758.972168,-324.829102,2.237089
46.051025,753.02124,-318.603516,2.237839
22.888184,755.767822,-316.955566,2.238581
36.346436,757.873535,-313.842773,2.239322
31.036377,749.816895,-311.462402,2.240063
31.036377,746.063232,-317.504883,2.240813
37.261963,752.655029,-310.455322,2.241544
40.740967,744.598389,-314.300537,2.242276
43.85376,750.915527,-314.483643,2.243007
39.825439,744.232178,-316.955566,2.243737
38.818359,739.196777,-317.138672,2.244497
45.959473,750.091553,-306.884766,2.245239
47.241211,748.626709,-311.37085,2.24598
52.093506,750.640869,-310.455322,2.246721
31.402588,761.169434,-301.66626,2.247471
53.100586,766.75415,-293.334961,2.248212
47.241211,759.246826,-304.321289,2.248953
52.459717,773.529053,-288.665771,2.249693
51.269531,775.085449,-286.468506,2.250537
54.199219,780.303955,-282.897949,2.251279
61.065674,771.148682,-281.616211,2.252019
67.474365,774.353027,-287.658691,2.252761
90.270996,785.888672,-277.404785,2.253501
73.33374,789.18457,-272.277832,2.254242
72.875977,786.804199,-278.137207,2.254983
76.080322,783.691406,-277.587891,2.255724
78.094482,787.445068,-272.460938,2.256465
80.566406,792.755127,-263.031006,2.257206
83.770752,797.424316,-263.48877,2.257947
89.080811,785.797119,-275.665283,2.258698
93.75,784.790039,-264.862061,2.259439
89.080811,793.212891,-267.333984,2.26018
93.383789,794.403076,-257.354736,2.260922
100.891113,790.557861,-257.537842,2.261671
97.503662,793.395996,-258.636475,2.262412
107.757568,792.755127,-249.206543,2.263153
104.827881,794.403076,-249.389648,2.263894
117.004395,786.804199,-255.249023,2.264644
109.130859,794.219971,-254.241943,2.265386
112.243652,795.959473,-247.924805,2.266126
118.19458,792.388916,-255.706787,2.266867
115.447998,793.945312,-249.389648,2.267618
117.370605,794.677734,-247.283936,2.268359
111.328125,785.339355,-245.452881,2.2691
112.976074,788.17749,-248.565674,2.269841
123.504639,786.712646,-252.7771,2.2706
120.941162,782.043457,-251.403809,2.271349
128.631592,786.895752,-253.78418,2.272095
126.89209,778.930664,-254.974365,2.272842
123.87085,774.261475,-253.967285,2.273583
123.687744,772.796631,-255.523682,2.274324
120.849609,779.388428,-257.995605,2.275066
126.89209,772.521973,-257.080078,2.275807
121.856689,770.141602,-250.946045,2.276548
122.2229,769.775391,-257.720947,2.277289
125.427246,771.606445,-248.565674,2.278031
122.589111,763.549805,-261.108398,2.278772
121.124268,765.655518,-260.925293,2.279513
122.2229,764.648438,-255.432129,2.280254
122.314453,765.655518,-249.938965,2.280995
120.666504,773.4375,-251.220703,2.281736
117.919922,764.373779,-259.735107,2.282478
116.912842,760.162354,-237.39624,2.283219
114.349365,766.113281,-256.622314,2.28396
124.145508,775.268555,-252.319336,2.284701
114.624023,770.324707,-249.938965,2.285456
117.279053,772.247314,-244.445801,2.286199
113.616943,769.226074,-253.875732,2.28694
124.145508,761.444092,-251.586914,2.287682
124.053955,767.669678,-249.298096,2.288434
124.237061,772.338867,-244.903564,2.289176
126.342773,766.75415,-245.910645,2.289918
117.1875,786.254883,-239.135742,2.290659
119.750977,774.719238,-245.727539,2.291401
119.750977,769.40918,-239.4104,2.292142
121.948242,773.071289,-240.234375,2.292883
119.659424,758.789062,-251.220703,2.293625
116.912842,762.268066,-250.579834,2.294376
126.800537,763.183594,-246.917725,2.295117
121.307373,774.44458,-242.889404,2.295858
115.081787,768.768311,-244.812012,2.296599
120.391846,769.134521,-237.213135,2.29735
121.307373,764.73999,-236.846924,2.298092
128.723145,768.585205,-233.093262,2.298833
124.420166,775.543213,-242.340088,2.299575
118.103027,750.183105,-241.973877,2.300326
112.518311,764.556885,-244.354248,2.301087
114.898682,772.338867,-239.318848,2.301849
118.835449,757.507324,-238.952637,2.302604
111.053467,769.775391,-241.607666,2.303349
110.321045,772.43042,-237.487793,2.30409
113.891602,773.986816,-239.593506,2.304831
114.074707,781.585693,-238.677979,2.305573
107.574463,779.754639,-241.05835,2.306315
115.081787,782.958984,-239.4104,2.307056
105.285645,779.296875,-238.769531,2.307798
112.609863,788.269043,-235.748291,2.308539
108.947754,790.649414,-227.783203,2.309281
104.095459,788.543701,-234.924316,2.310023
118.286133,787.628174,-235.38208,2.310764
114.440918,790.008545,-229.614258,2.311505
113.616943,790.740967,-228.973389,2.312248
113.15918,792.297363,-232.086182,2.312989
112.609863,790.008545,-235.656738,2.313731
109.954834,792.205811,-252.868652,2.314472
105.926514,795.959473,-231.536865,2.315237
110.870361,793.029785,-233.459473,2.315979
109.680176,794.403076,-224.67041,2.31672
104.919434,796.417236,-231.262207,2.317461
107.391357,790.466309,-242.431641,2.318203
107.666016,799.255371,-228.149414,2.318944
111.694336,792.938232,-232.543945,2.319685
109.954834,797.058105,-232.635498,2.320426
105.46875,794.769287,-226.501465,2.321177
115.997314,795.043945,-232.543945,2.322002
106.201172,786.804199,-232.269287,2.322744
100.708008,788.726807,-234.924316,2.323485
105.560303,791.290283,-228.607178,2.324226
115.722656,794.494629,-229.522705,2.324965
105.46875,790.649414,-229.614258,2.325705
105.743408,787.902832,-231.994629,2.326444
108.032227,777.740479,-229.980469,2.327184
100.616455,778.747559,-225.585938,2.327923
103.179932,783.966064,-227.874756,2.328663
99.609375,779.205322,-228.33252,2.329402
95.397949,777.191162,-232.177734,2.330151
94.024658,777.923584,-229.888916,2.330891
91.552734,776.641846,-234.283447,2.33163
99.517822,776.000977,-233.36792,2.33237
91.186523,778.839111,-232.910156,2.333119
91.461182,780.578613,-232.177734,2.333859
97.229004,783.508301,-230.804443,2.334601
93.017578,778.656006,-228.881836,2.335365
97.503662,781.585693,-225.860596,2.336109
93.200684,785.339355,-229.431152,2.336848
92.010498,779.47998,-224.853516,2.337588
88.165283,781.585693,-225.036621,2.338327
91.918945,779.937744,-239.4104,2.339081
95.855713,782.867432,-228.881836,2.33982
88.806152,778.656006,-229.3396,2.34056
112.701416,784.606934,-222.747803,2.3413
97.320557,783.782959,-226.226807,2.342051
95.397949,789.825439,-221.557617,2.342791
89.904785,793.212891,-225.311279,2.343535
85.784912,795.684814,-231.35376,2.344281
88.165283,787.811279,-224.945068,2.345027
84.136963,797.332764,-225.311279,2.345772
79.559326,779.846191,-225.036621,2.346511
84.960938,793.121338,-226.318359,2.347251
86.975098,794.586182,-229.3396,2.347991
80.01709,796.783447,-231.445312,2.348731
83.862305,801.361084,-219.177246,2.349471
83.862305,796.051025,-218.170166,2.35021
80.01709,802.276611,-223.754883,2.350952
74.707031,804.199219,-221.099854,2.351692
81.573486,805.023193,-217.437744,2.352432
80.474854,818.481445,-222.106934,2.353171
79.650879,799.072266,-224.761963,2.353911
79.559326,799.804688,-220.184326,2.354651
75.805664,793.304443,-196.655273,2.35539
80.932617,800.537109,-217.346191,2.35613
80.932617,811.706543,-220.64209,2.356869
88.256836,817.474365,-213.592529,2.357608
89.080811,805.023193,-224.212646,2.358348
89.263916,812.62207,-217.529297,2.359088
92.559814,805.938721,-221.191406,2.359841
90.911865,806.396484,-219.268799,2.360581
85.601807,799.621582,-229.248047,2.36132
94.482422,804.382324,-228.790283,2.362059
98.327637,812.072754,-226.68457,2.362819
89.72168,813.995361,-228.607178,2.363558
92.010498,808.410645,-233.825684,2.364298
95.397949,814.819336,-227.874756,2.365037
95.76416,812.62207,-226.959229,2.365786
93.200684,818.206787,-222.930908,2.366525
89.996338,812.347412,-222.839355,2.367265
98.236084,821.136475,-212.219238,2.368004
95.855713,823.150635,-222.381592,2.368745
95.489502,818.023682,-218.078613,2.369484
96.313477,820.495605,-222.839355,2.370224
104.827881,821.411133,-224.578857,2.370963
104.003906,818.664551,-229.431152,2.371703
107.574463,819.946289,-225.311279,2.372443
108.123779,811.523438,-228.33252,2.373183
113.800049,813.903809,-228.33252,2.373922
124.420166,820.037842,-225.952148,2.374663
115.447998,813.903809,-229.156494,2.375402
122.497559,816.558838,-221.282959,2.376143
120.758057,811.706543,-227.142334,2.376884
126.617432,810.882568,-228.33252,2.377626
125.610352,817.29126,-222.65625,2.378366
127.990723,821.228027,-223.297119,2.379105
129.638672,822.052002,-223.022461,2.379845
135.406494,824.615479,-221.191406,2.380602
135.864258,825.439453,-217.071533,2.381342
139.251709,821.31958,-232.36084,2.382081
137.329102,815.551758,-233.001709,2.382821
140.167236,817.199707,-231.536865,2.38357
141.63208,821.685791,-224.945068,2.384309
141.998291,819.763184,-228.607178,2.385049
144.012451,826.904297,-225.769043,2.385788
143.554688,820.495605,-227.325439,2.386529
144.561768,824.615479,-226.318359,2.387269
145.568848,825.3479,-226.867676,2.388009
147.491455,822.875977,-220.550537,2.388748
145.294189,821.960449,-221.282959,2.389488
149.230957,837.524414,-219.543457,2.390228
155.731201,844.848633,-218.170166,2.390967
149.414062,834.228516,-223.114014,2.391707
146.759033,834.04541,-215.240479,2.392447
146.575928,835.876465,-212.036133,2.393275
143.829346,838.165283,-190.063477,2.394015
146.209717,844.665527,-201.141357,2.394754
137.695312,844.75708,-209.472656,2.395494
145.019531,843.841553,-209.381104,2.396233
145.294189,836.334229,-208.557129,2.396973
149.780273,838.7146,-217.987061,2.397713
148.223877,843.841553,-218.994141,2.398452
148.590088,839.172363,-219.543457,2.399192
150.695801,840.820312,-215.515137,2.399931
150.146484,845.489502,-212.219238,2.40067
146.118164,846.954346,-215.606689,2.401419
142.181396,844.665527,-217.712402,2.402159
146.392822,848.144531,-207.550049,2.402898
145.385742,849.884033,-203.430176,2.403638
148.956299,849.700928,-207.91626,2.404387
145.843506,852.081299,-207.275391,2.405127
146.575928,848.602295,-203.979492,2.405866
139.434814,853.088379,-206.176758,2.406606
147.30835,857.391357,-193.267822,2.407346
148.956299,850.708008,-204.437256,2.408085
141.082764,851.806641,-201.873779,2.408824
143.737793,846.679688,-198.120117,2.409564
141.998291,854.919434,-201.873779,2.410303
139.984131,850.43335,-204.528809,2.411042
146.118164,851.623535,-199.951172,2.411782
156.005859,861.328125,-202.423096,2.412521
148.498535,853.729248,-204.071045,2.413261
137.695312,858.947754,-197.662354,2.414
149.597168,860.778809,-198.669434,2.414741
142.730713,859.588623,-199.768066,2.41549
143.737793,850.524902,-198.486328,2.416239
138.427734,850.799561,-192.626953,2.416983
147.949219,848.327637,-196.563721,2.417723
142.181396,846.405029,-195.831299,2.418462
143.096924,850.891113,-195.281982,2.419203
148.956299,846.405029,-202.514648,2.419942
137.237549,847.412109,-202.972412,2.420682
139.068604,844.207764,-210.754395,2.421421
137.969971,843.017578,-203.338623,2.422163
144.012451,838.256836,-201.690674,2.422903
149.230957,839.080811,-203.155518,2.423642
142.272949,838.7146,-196.380615,2.424381
141.174316,844.116211,-199.493408,2.425133
146.575928,834.686279,-196.746826,2.425874
139.526367,838.439941,-196.380615,2.426614
139.892578,848.7854,-200.592041,2.427353
134.399414,860.50415,-197.479248,2.428092
143.005371,844.390869,-197.570801,2.428831
147.583008,849.060059,-200.408936,2.429571
140.716553,840.820312,-203.979492,2.430311
134.674072,849.517822,-201.690674,2.431051
138.061523,820.678711,-200.958252,2.431791
134.765625,856.933594,-203.430176,2.43253
123.779297,853.363037,-202.789307,2.43327
129.730225,849.884033,-204.528809,2.43402
126.434326,854.644775,-201.782227,2.43476
122.955322,849.609375,-210.571289,2.435499
124.053955,848.419189,-208.465576,2.436239
123.962402,857.757568,-203.430176,2.436978
117.919922,855.285645,-211.029053,2.437728
115.905762,866.821289,-199.035645,2.438467
115.356445,863.250732,-207.550049,2.439207
119.110107,858.673096,-213.409424,2.439946
124.420166,860.50415,-205.169678,2.440694
116.088867,856.842041,-207.550049,2.441434
112.518311,859.954834,-210.479736,2.442173
113.525391,860.961914,-212.95166,2.442912
114.715576,866.18042,-210.113525,2.443661
110.229492,860.321045,-222.015381,2.444401
109.222412,864.440918,-211.120605,2.44514
103.912354,863.616943,-214.782715,2.445879
109.039307,867.919922,-218.902588,2.446628
108.764648,871.307373,-215.057373,2.447367
110.50415,869.934082,-212.493896,2.448106
105.651855,870.391846,-212.310791,2.448846
106.47583,872.772217,-215.423584,2.449595
107.940674,882.476807,-210.296631,2.450336
111.419678,877.89917,-216.339111,2.451075
101.898193,882.93457,-216.796875,2.451816
107.849121,886.59668,-217.163086,2.452584
104.370117,887.969971,-213.592529,2.453344
104.46167,898.040771,-210.205078,2.454099
103.271484,898.590088,-217.803955,2.454844
107.208252,901.153564,-212.402344,2.455585
119.384766,902.893066,-213.409424,2.456325
113.342285,905.36499,-206.085205,2.457064
116.271973,906.829834,-210.205078,2.457804
116.18042,903.259277,-202.23999,2.458544
121.398926,908.38623,-204.25415,2.459283
117.736816,908.111572,-205.627441,2.460023
122.497559,911.682129,-213.134766,2.460762
109.863281,912.506104,-207.824707,2.461525
118.377686,910.858154,-215.515137,2.462264
124.969482,915.161133,-212.768555,2.463003
124.511719,913.696289,-209.93042,2.463827
120.20874,917.08374,-212.95166,2.464567
123.321533,921.295166,-213.134766,2.465306
125.518799,919.921875,-220.458984,2.466045
122.2229,925.506592,-214.324951,2.466785
122.039795,921.295166,-208.465576,2.467525
125.610352,915.06958,-212.95166,2.468264
130.004883,914.245605,-212.127686,2.469004
137.512207,916.900635,-211.853027,2.469755
136.047363,917.449951,-208.831787,2.470495
136.688232,911.590576,-207.550049,2.471234
138.793945,915.527344,-213.867188,2.471973
143.829346,923.950195,-208.740234,2.472721
143.371582,921.020508,-209.014893,2.473457
140.075684,922.210693,-212.95166,2.474212
149.780273,923.309326,-209.838867,2.474952
148.773193,927.520752,-206.176758,2.475692
152.252197,920.74585,-206.451416,2.476432
152.160645,921.936035,-210.754395,2.477171
148.040771,920.837402,-210.9375,2.47791
149.780273,927.337646,-210.296631,2.47865
143.829346,930.267334,-214.324951,2.479389
153.533936,922.027588,-205.9021,2.480128
159.484863,921.569824,-205.352783,2.480868
156.738281,920.10498,-209.93042,2.48162
159.484863,922.393799,-206.90918,2.482357
156.463623,924.957275,-213.134766,2.483094
158.752441,917.175293,-221.557617,2.483831
154.724121,921.569824,-216.339111,2.484582
163.696289,926.330566,-218.170166,2.485322
161.132812,922.576904,-209.564209,2.486063
148.223877,911.773682,-220.184326,2.486813
152.709961,919.73877,-210.479736,2.487562
154.35791,920.471191,-214.691162,2.488309
160.766602,917.175293,-217.62085,2.489048
158.935547,918.365479,-209.838867,2.489788
153.900146,919.73877,-229.705811,2.490529
157.287598,920.196533,-204.528809,2.491269
149.505615,920.10498,-208.007812,2.492009
157.012939,915.802002,-215.698242,2.492748
159.667969,920.837402,-218.170166,2.493488
153.625488,908.38623,-216.522217,2.494227
157.012939,916.351318,-210.571289,2.494967
155.914307,918.09082,-215.148926,2.495707
157.653809,913.604736,-213.775635,2.496446
156.097412,899.32251,-216.247559,2.497185
155.273438,899.505615,-207.275391,2.497925
163.146973,906.555176,-211.853027,2.498664
163.05542,902.984619,-217.163086,2.499414
158.477783,907.836914,-233.184814,2.500154
161.590576,905.639648,-209.564209,2.500895
158.569336,904.266357,-218.719482,2.501634
152.618408,906.646729,-210.662842,2.502375
158.02002,902.435303,-217.071533,2.503115
153.167725,904.632568,-212.036133,2.503854
161.773682,903.076172,-216.339111,2.504594
159.759521,904.35791,-215.057373,2.505333
160.583496,906.097412,-214.141846,2.506072
153.808594,908.203125,-214.782715,2.506811
150.421143,899.047852,-213.043213,2.507551
155.456543,898.590088,-211.853027,2.50829
155.36499,904.724121,-210.388184,2.50903
153.167725,911.315918,-214.508057,2.509769
156.646729,900.695801,-204.071045,2.510509
159.484863,909.942627,-203.704834,2.511251
162.597656,903.35083,-211.395264,2.511996
158.294678,915.252686,-214.233398,2.512736
156.37207,902.893066,-224.304199,2.513475
146.209717,898.498535,-211.669922,2.514214
167.907715,910.858154,-215.789795,2.514964
157.012939,910.03418,-226.959229,2.515705
135.406494,909.576416,-209.564209,2.516444
130.645752,905.731201,-211.029053,2.517183
153.625488,902.709961,-218.719482,2.517933
160.949707,901.794434,-214.050293,2.518672
158.569336,905.090332,-210.662842,2.519412
143.920898,918.09082,-208.557129,2.520151
138.153076,934.570312,-208.465576,2.520901
142.272949,918.273926,-211.212158,2.521641
151.794434,920.74585,-209.014893,2.522381
150.604248,920.654297,-200.683594,2.52312
135.314941,919.921875,-212.860107,2.52387
137.695312,919.0979,-207.550049,2.524609
133.026123,925.689697,-208.465576,2.525349
135.955811,928.344727,-207.183838,2.526088
141.998291,933.929443,-217.803955,2.526837
145.751953,933.746338,-209.289551,2.527577
136.322021,933.746338,-198.760986,2.528319
115.814209,936.401367,-191.162109,2.529062
132.385254,914.0625,-215.9729,2.529818
144.561768,914.337158,-214.141846,2.530558
152.984619,930.175781,-203.613281,2.531298
142.456055,934.295654,-207.91626,2.532037
125.427246,925.506592,-215.057373,2.532786
130.92041,928.894043,-216.522217,2.533526
132.293701,939.697266,-209.197998,2.534265
139.984131,946.472168,-203.613281,2.535103
128.356934,928.985596,-221.099854,2.535843
119.20166,932.006836,-215.881348,2.536583
124.87793,940.429688,-216.339111,2.537321
145.385742,936.309814,-210.388184,2.538069
141.082764,930.358887,-217.803955,2.53881
128.082275,937.957764,-213.500977,2.539549
129.730225,937.133789,-216.522217,2.540289
125.610352,933.013916,-225.67749,2.541028
141.448975,940.429688,-214.508057,2.541767
146.118164,938.781738,-206.634521,2.542507
138.244629,935.852051,-204.162598,2.543246
131.011963,946.838379,-210.296631,2.543986
135.223389,945.831299,-216.888428,2.544726
145.477295,941.986084,-206.726074,2.545465
142.364502,945.922852,-209.106445,2.546205
141.63208,952.697754,-211.029053,2.546944
144.012451,944.18335,-214.508057,2.547684
144.378662,949.035645,-232.269287,2.548424
154.35791,953.979492,-212.585449,2.549163
150.695801,943.450928,-213.95874,2.549906
160.125732,953.521729,-211.669922,2.550652
157.37915,943.54248,-219.268799,2.551392
153.808594,945.739746,-219.177246,2.552131
158.203125,955.169678,-217.163086,2.552871
161.132812,950.775146,-215.881348,2.553631
159.301758,949.127197,-232.910156,2.554373
159.118652,948.577881,-217.62085,2.555112
171.569824,948.486328,-209.381104,2.555862
170.288086,948.577881,-215.881348,2.556603
169.0979,948.120117,-217.529297,2.557349
167.175293,947.20459,-215.9729,2.558095
171.936035,947.753906,-211.486816,2.558841
174.407959,941.162109,-226.501465,2.55958
168.548584,939.239502,-222.65625,2.560319
177.246094,943.267822,-219.63501,2.561059
177.154541,946.380615,-222.930908,2.5618
178.894043,942.810059,-222.106934,2.56254
179.80957,940.52124,-223.754883,2.563279
178.436279,952.697754,-223.114014,2.564019
177.886963,945.373535,-228.424072,2.564759
177.246094,960.754395,-225.769043,2.565501
174.682617,939.51416,-225.128174,2.56624
166.351318,941.894531,-227.508545,2.56698
169.372559,942.352295,-224.487305,2.567719
174.957275,945.098877,-230.34668,2.568458
170.379639,945.007324,-223.846436,2.569198
174.133301,950.500488,-222.930908,2.569937
169.372559,948.852539,-227.69165,2.570677
168.09082,944.824219,-232.543945,2.571416
164.154053,952.148438,-234.466553,2.572157
168.09082,952.514648,-228.607178,2.572897
169.647217,956.451416,-228.881836,2.57365
169.0979,953.430176,-227.69165,2.574391
163.879395,951.141357,-229.3396,2.57513
167.449951,955.26123,-233.642578,2.57587
165.618896,957.092285,-229.705811,2.576618
170.10498,954.437256,-240.05127,2.577359
160.400391,960.571289,-229.888916,2.578098
158.203125,953.24707,-235.473633,2.578838
157.562256,957.733154,-234.375,2.579577
159.484863,964.782715,-230.529785,2.580326
156.280518,968.170166,-231.262207,2.581066
153.442383,959.472656,-228.790283,2.581805
156.463623,961.303711,-227.508545,2.582544
152.34375,962.585449,-226.593018,2.583293
152.526855,956.90918,-236.938477,2.584033
157.196045,962.768555,-235.565186,2.584772
146.484375,964.416504,-222.473145,2.585511
144.287109,960.571289,-234.924316,2.58626
150.146484,955.9021,-241.333008,2.587
144.836426,956.359863,-239.135742,2.587739
145.385742,956.726074,-244.995117,2.588479
145.019531,956.90918,-245.269775,2.589228
140.167236,964.782715,-241.424561,2.589968
130.737305,958.648682,-219.818115,2.590707
131.744385,959.655762,-233.093262,2.591446
137.60376,957.733154,-245.08667,2.592195
141.540527,966.339111,-241.05835,2.592935
134.399414,962.127686,-245.452881,2.593674
135.131836,957.275391,-242.980957,2.594414
134.490967,960.296631,-247.10083,2.595163
139.434814,965.240479,-248.291016,2.595902
133.392334,970.64209,-238.40332,2.596642
133.392334,967.895508,-242.614746,2.597381
132.751465,954.803467,-252.227783,2.598131
130.554199,963.684082,-255.79834,2.59887
132.843018,961.029053,-248.291016,2.59961
132.385254,974.121094,-242.523193,2.600349
130.371094,957.641602,-249.664307,2.601098
134.765625,966.247559,-254.608154,2.601837
123.962402,960.662842,-244.07959,2.602577
115.356445,961.761475,-245.727539,2.603316
124.786377,967.62085,-248.291016,2.604066
116.638184,965.148926,-247.467041,2.604808
121.124268,978.149414,-249.206543,2.60568
120.941162,974.395752,-236.755371,2.606452
122.314453,977.416992,-243.530273,2.607192
115.722656,970.916748,-235.107422,2.607931
114.257812,975.402832,-245.178223,2.608671
111.877441,970.550537,-244.445801,2.609412
115.17334,968.62793,-244.903564,2.610151
118.835449,972.747803,-246.185303,2.610891
120.117188,971.923828,-244.628906,2.61163
115.539551,970.001221,-249.023438,2.612371
121.582031,973.571777,-243.988037,2.613111
121.673584,976.776123,-239.135742,2.613851
119.934082,970.550537,-247.375488,2.61459
115.081787,975.67749,-250.030518,2.61533
120.666504,972.381592,-238.40332,2.616069
116.638184,968.261719,-246.368408,2.616809
111.51123,980.621338,-242.248535,2.617549
112.335205,979.705811,-244.720459,2.618286
112.518311,980.621338,-248.748779,2.619023
110.229492,978.33252,-239.044189,2.61976
112.1521,977.325439,-236.206055,2.620516
113.15918,970.367432,-236.297607,2.62126
111.053467,975.769043,-242.889404,2.622
107.48291,971.466064,-240.692139,2.622739
113.15918,977.233887,-243.988037,2.623478
117.919922,972.930908,-245.910645,2.624218
117.736816,966.247559,-245.819092,2.624957
115.814209,968.62793,-252.044678,2.625697
113.800049,941.986084,-243.988037,2.626436
113.250732,957.000732,-254.425049,2.627175
111.694336,956.726074,-252.7771,2.627922
118.652344,960.296631,-244.354248,2.628668
120.483398,959.655762,-252.044678,2.629416
100.708008,953.704834,-245.727539,2.630162
117.095947,961.303711,-251.220703,2.630901
114.349365,954.89502,-242.980957,2.631641
115.905762,955.993652,-240.509033,2.632381
112.060547,947.296143,-248.474121,2.633121
114.16626,945.465088,-252.7771,2.633861
114.990234,949.859619,-252.593994,2.6346
117.645264,943.908691,-252.960205,2.63534
121.856689,940.155029,-246.826172,2.636104
115.814209,933.837891,-246.09375,2.636845
112.243652,938.049316,-247.192383,2.637585
117.279053,938.781738,-244.354248,2.638324
117.1875,942.169189,-243.988037,2.639064
113.708496,940.795898,-237.762451,2.639803
114.532471,942.077637,-238.952637,2.640542
127.075195,944.274902,-235.931396,2.641281
121.673584,939.331055,-246.643066,2.642035
126.159668,934.936523,-247.650146,2.642783
123.962402,948.944092,-241.333008,2.643525
123.046875,944.915771,-247.741699,2.644266
120.025635,944.549561,-249.755859,2.64502
119.842529,937.133789,-243.896484,2.645762
118.19458,941.986084,-241.699219,2.646506
125.793457,943.359375,-240.966797,2.647256
123.413086,942.260742,-242.614746,2.648026
126.251221,941.986084,-247.10083,2.648769
131.011963,945.373535,-239.044189,2.649509
134.124756,941.802979,-241.05835,2.65025
134.216309,945.19043,-232.910156,2.651003
132.476807,942.077637,-244.171143,2.651744
133.392334,944.18335,-243.438721,2.652485
131.652832,937.5,-235.839844,2.653226
138.153076,937.042236,-245.178223,2.653978
137.512207,939.331055,-237.39624,2.654718
143.829346,934.47876,-235.473633,2.655458
144.287109,942.626953,-257.537842,2.656199
145.111084,938.598633,-234.191895,2.656951
142.456055,941.986084,-235.839844,2.657691
142.089844,938.964844,-233.276367,2.658432
144.927979,938.140869,-229.797363,2.659172
145.385742,939.697266,-228.057861,2.659922
148.864746,938.964844,-228.973389,2.660662
148.864746,939.056396,-233.459473,2.661403
145.568848,936.859131,-228.973389,2.662143
150.787354,941.802979,-227.325439,2.662894
154.083252,947.20459,-228.515625,2.663635
161.682129,949.676514,-224.761963,2.664376
151.977539,942.352295,-228.515625,2.665117
152.526855,943.084717,-231.994629,2.665866
156.463623,949.768066,-219.268799,2.666607
152.618408,943.817139,-228.790283,2.667348
154.541016,946.380615,-236.938477,2.668091
149.597168,950.042725,-228.33252,2.668844
160.03418,954.345703,-225.494385,2.669584
159.210205,946.655273,-223.937988,2.670325
157.104492,944.458008,-236.206055,2.671065
160.491943,943.908691,-242.156982,2.671815
163.970947,955.993652,-226.043701,2.672556
157.836914,954.986572,-229.3396,2.673296
163.879395,954.345703,-233.36792,2.674037
151.428223,949.951172,-226.135254,2.674787
156.738281,951.141357,-229.888916,2.675528
157.196045,949.127197,-220.64209,2.676354
155.456543,954.162598,-229.156494,2.677094
154.266357,959.197998,-232.086182,2.677845
162.963867,950.317383,-229.980469,2.678585
159.576416,955.627441,-227.966309,2.679324
162.414551,948.120117,-231.628418,2.680064
154.815674,953.521729,-230.895996,2.680825
157.104492,953.979492,-229.064941,2.681576
153.625488,959.472656,-229.522705,2.682335
152.618408,956.359863,-227.050781,2.683087
154.815674,956.359863,-225.585938,2.683863
150.054932,956.451416,-227.600098,2.684611
156.37207,958.557129,-227.325439,2.685354
155.273438,960.845947,-235.473633,2.686103
152.160645,958.831787,-236.022949,2.686895
150.054932,960.205078,-236.38916,2.687655
154.083252,953.338623,-234.924316,2.688413
147.857666,953.613281,-231.536865,2.689173
156.005859,955.169678,-231.170654,2.689958
155.090332,947.662354,-240.600586,2.690715
142.089844,945.19043,-237.854004,2.69147
145.751953,946.746826,-235.290527,2.692229
142.089844,951.23291,-227.508545,2.692978
147.399902,953.979492,-232.269287,2.693718
155.273438,945.281982,-231.445312,2.694457
155.273438,937.316895,-215.148926,2.695197
148.498535,949.951172,-236.206055,2.695936
153.808594,942.718506,-236.022949,2.696675
148.31543,948.669434,-237.030029,2.697414
150.604248,945.831299,-231.719971,2.698176
150.970459,951.690674,-238.220215,2.698926
149.32251,957.733154,-238.311768,2.699673
149.139404,953.155518,-231.719971,2.700418
144.65332,957.91626,-236.572266,2.701182
144.744873,951.324463,-233.36792,2.701923
139.434814,945.739746,-243.438721,2.702662
141.357422,946.472168,-241.424561,2.703401
144.927979,956.085205,-233.551025,2.70414
143.371582,951.141357,-236.572266,2.70488
136.688232,952.148438,-232.727051,2.70562
140.258789,950.775146,-231.536865,2.706359
135.040283,949.310303,-233.917236,2.707099
139.160156,949.859619,-242.706299,2.707839
137.237549,946.563721,-227.508545,2.708578
138.519287,938.049316,-234.832764,2.709318
161.04126,951.416016,-237.213135,2.710066
136.230469,955.169678,-240.509033,2.710804
137.969971,950.683594,-238.037109,2.711541
140.533447,952.056885,-241.516113,2.712278
138.153076,946.746826,-244.812012,2.713024
137.237549,951.049805,-232.543945,2.713767
140.625,953.430176,-236.572266,2.714506
140.808105,949.035645,-238.311768,2.715246
139.343262,959.381104,-235.656738,2.715985
139.434814,955.810547,-237.579346,2.716725
140.991211,959.289551,-238.769531,2.717465
143.280029,957.275391,-240.692139,2.718204
147.766113,960.571289,-234.100342,2.718944
117.1875,963.867188,-241.149902,2.719684
140.441895,967.071533,-232.910156,2.720423
144.836426,960.571289,-237.39624,2.721163
145.843506,965.881348,-238.677979,2.721903
138.153076,972.564697,-233.825684,2.722657
140.075684,965.606689,-237.213135,2.723397
142.63916,965.423584,-238.677979,2.724136
143.64624,963.684082,-232.910156,2.724875
142.913818,968.994141,-233.001709,2.725622
139.526367,967.712402,-241.607666,2.726362
147.949219,969.177246,-234.558105,2.727101
149.597168,965.332031,-234.832764,2.72784
150.604248,972.290039,-233.459473,2.728589
149.32251,962.677002,-230.621338,2.729329
154.174805,960.754395,-235.107422,2.730068
156.280518,967.895508,-237.670898,2.730807
151.245117,972.747803,-231.262207,2.731557
149.414062,970.825195,-238.037109,2.732297
147.583008,966.247559,-236.938477,2.733036
156.829834,961.120605,-213.775635,2.733776
156.829834,965.332031,-227.874756,2.734525
151.977539,967.62085,-240.783691,2.735265
156.463623,967.071533,-238.494873,2.736004
157.470703,961.029053,-241.790771,2.736744
153.442383,961.395264,-237.487793,2.737492
160.308838,960.205078,-236.022949,2.738232
156.738281,964.141846,-239.044189,2.738972
161.682129,962.95166,-241.607666,2.739711
163.879395,970.550537,-235.839844,2.74046
161.590576,968.536377,-241.05835,2.741199
161.499023,962.677002,-238.769531,2.741938
166.07666,970.64209,-239.044189,2.742677
165.344238,969.268799,-222.473145,2.743426
169.921875,976.043701,-229.248047,2.744169
172.485352,968.719482,-225.036621,2.744908
171.75293,971.832275,-224.121094,2.745647
180.450439,970.275879,-225.860596,2.746397
176.696777,964.508057,-233.459473,2.747225
172.851562,974.67041,-231.536865,2.747967
168.823242,969.451904,-227.142334,2.748706
171.936035,973.480225,-228.790283,2.749445
168.914795,961.669922,-232.269287,2.750184
171.661377,969.543457,-228.149414,2.750923
177.886963,971.282959,-231.903076,2.751662
176.605225,963.317871,-228.240967,2.752401
171.112061,961.486816,-228.790283,2.753141
180.175781,962.95166,-255.615234,2.75388
173.583984,966.339111,-235.656738,2.754629
171.75293,961.669922,-227.874756,2.755368
179.351807,962.127686,-231.079102,2.756109
174.957275,956.817627,-232.818604,2.75685
171.569824,960.205078,-231.445312,2.757606
171.203613,954.89502,-232.818604,2.758347
174.957275,954.986572,-229.980469,2.759086
177.337646,956.359863,-223.754883,2.759825
180.999756,958.831787,-234.008789,2.760575
174.682617,960.021973,-220.550537,2.761315
175.689697,958.007812,-220.64209,2.762054
168.823242,956.726074,-221.557617,2.762793
176.147461,960.845947,-216.97998,2.763534
175.140381,962.95166,-212.219238,2.764273
171.020508,955.810547,-223.754883,2.765012
178.070068,956.176758,-219.085693,2.765751
167.907715,952.23999,-223.297119,2.76649
172.302246,954.528809,-223.66333,2.767229
171.295166,953.338623,-230.987549,2.767968
170.471191,955.627441,-221.008301,2.768707
171.295166,945.739746,-223.297119,2.76946
170.74585,947.296143,-228.790283,2.770204
172.119141,946.655273,-223.754883,2.77095
173.675537,942.169189,-224.029541,2.771689
148.406982,945.007324,-230.804443,2.772428
163.421631,935.577393,-233.459473,2.773167
166.168213,944.000244,-226.776123,2.773906
164.611816,938.598633,-227.233887,2.774645
160.583496,940.704346,-230.438232,2.775405
163.970947,940.979004,-226.68457,2.776146
157.562256,939.239502,-225.769043,2.776886
155.273438,940.704346,-228.240967,2.777625
154.907227,943.450928,-226.593018,2.778365
154.815674,937.5,-226.318359,2.779104
149.230957,943.634033,-223.846436,2.779842
154.541016,944.824219,-225.036621,2.780581
151.428223,944.18335,-230.712891,2.781319
160.400391,938.781738,-216.888428,2.782056
155.548096,936.309814,-223.571777,2.782793
156.463623,937.683105,-226.959229,2.783529
158.111572,934.753418,-223.937988,2.784283
157.196045,937.774658,-214.050293,2.785023
157.562256,940.887451,-218.353271,2.785762
155.456543,947.937012,-224.304199,2.786502
150.512695,933.654785,-217.346191,2.787241
147.857666,940.429688,-230.895996,2.78798
145.477295,940.246582,-229.797363,2.788719
151.519775,937.133789,-222.747803,2.789458
146.026611,938.781738,-228.973389,2.790198
150.878906,937.683105,-229.705811,2.790938
152.801514,940.246582,-221.191406,2.791677
144.378662,942.810059,-223.66333,2.792415
149.963379,930.999756,-224.029541,2.793154
146.30127,941.253662,-222.839355,2.793893
143.920898,935.028076,-224.67041,2.794632
144.927979,939.971924,-221.740723,2.79537
138.977051,935.943604,-221.923828,2.79611
146.850586,932.830811,-229.3396,2.796849
145.385742,914.611816,-227.600098,2.797588
146.850586,932.4646,-227.325439,2.798327
144.65332,926.055908,-217.62085,2.799066
142.822266,926.422119,-224.853516,2.799805
144.836426,926.422119,-233.184814,2.800544
150.970459,929.992676,-227.142334,2.801283
145.294189,929.80957,-235.107422,2.802022
143.005371,917.358398,-236.38916,2.802763
141.906738,923.400879,-231.170654,2.803502
144.65332,923.675537,-226.68457,2.804241
146.484375,923.583984,-223.754883,2.804981
143.005371,935.119629,-220.092773,2.80572
146.026611,937.5,-220.184326,2.806459
140.899658,926.513672,-220.916748,2.807198
134.674072,926.147461,-224.121094,2.807938
139.068604,932.189941,-223.205566,2.808677
135.955811,934.753418,-220.275879,2.809416
142.181396,938.232422,-226.135254,2.810155
137.878418,931.82373,-219.268799,2.810894
141.815186,934.753418,-223.754883,2.811632
142.272949,932.739258,-226.226807,2.812371
134.94873,925.323486,-225.494385,2.81311
143.280029,935.760498,-219.63501,2.81385
137.054443,933.563232,-219.726562,2.814589
130.462646,934.936523,-227.050781,2.815328
145.111084,937.042236,-217.163086,2.816066
137.695312,934.020996,-221.191406,2.816805
140.533447,941.436768,-222.198486,2.817555
144.195557,933.47168,-215.423584,2.818385
163.787842,936.218262,-222.747803,2.819124
140.350342,940.246582,-219.909668,2.819863
149.597168,934.295654,-222.65625,2.820602
153.259277,920.471191,-224.121094,2.821342
148.956299,930.999756,-220.733643,2.822081
149.597168,931.915283,-223.480225,2.822832
152.435303,930.358887,-224.853516,2.823572
152.252197,931.732178,-221.466064,2.824312
154.907227,938.598633,-224.304199,2.825051
154.35791,936.035156,-225.860596,2.82579
151.33667,939.880371,-218.536377,2.82653
151.245117,937.683105,-213.134766,2.827268
153.991699,939.422607,-224.487305,2.828007
152.34375,938.964844,-225.494385,2.828747
151.702881,941.070557,-224.761963,2.829486
156.646729,934.661865,-214.416504,2.830224
153.442383,930.175781,-214.96582,2.830963
150.787354,928.527832,-224.945068,2.831715
152.252197,937.133789,-219.726562,2.832455
159.484863,937.591553,-213.592529,2.833194
157.653809,936.035156,-217.62085,2.833933
160.491943,948.21167,-220.916748,2.834692
163.970947,930.633545,-219.726562,2.835448
160.766602,932.281494,-220.367432,2.836204
166.717529,935.211182,-223.66333,2.836958
163.879395,943.450928,-226.776123,2.837737
162.506104,939.056396,-218.719482,2.838501
159.576416,936.49292,-215.423584,2.839254
163.787842,933.654785,-215.9729,2.840012
186.035156,937.957764,-216.888428,2.840774
156.463623,935.48584,-220.64209,2.841539
152.160645,938.415527,-223.846436,2.842292
162.231445,940.063477,-219.63501,2.843033
165.893555,939.697266,-213.226318,2.843798
157.470703,935.48584,-214.874268,2.844538
153.533936,958.465576,-213.409424,2.845276
160.949707,942.810059,-213.409424,2.846016
157.836914,934.936523,-226.68457,2.846764
155.456543,928.80249,-224.212646,2.847503
162.689209,936.950684,-219.177246,2.848242
160.766602,933.654785,-224.304199,2.848982
159.301758,936.950684,-214.691162,2.84973
150.146484,933.746338,-217.803955,2.85047
155.731201,936.950684,-226.409912,2.851208
159.118652,931.640625,-223.754883,2.851947
158.935547,923.675537,-224.121094,2.852693
156.280518,921.75293,-219.543457,2.85343
161.315918,936.309814,-224.761963,2.854166
153.991699,927.886963,-230.529785,2.854907
149.505615,922.851562,-225.952148,2.855677
157.37915,924.957275,-213.775635,2.856419
157.562256,926.971436,-216.97998,2.857162
150.878906,921.478271,-221.466064,2.857903
157.470703,932.189941,-220.367432,2.858653
151.428223,924.957275,-219.451904,2.859394
153.533936,925.048828,-215.148926,2.860135
149.230957,922.943115,-218.261719,2.860876
149.414062,924.133301,-215.515137,2.861626
147.857666,928.894043,-218.078613,2.862367
145.111084,925.964355,-215.240479,2.863107
156.921387,925.598145,-221.099854,2.863848
154.724121,923.583984,-212.95166,2.864597
148.864746,933.47168,-213.500977,2.865338
153.259277,929.534912,-213.684082,2.866079
147.30835,930.084229,-218.62793,2.866819
144.65332,924.499512,-220.64209,2.867569
146.484375,924.407959,-211.761475,2.86831
142.730713,928.894043,-211.669922,2.869051
141.448975,929.351807,-221.832275,2.869792
143.920898,930.267334,-216.796875,2.870524
146.66748,928.253174,-212.768555,2.871265
149.688721,923.126221,-216.796875,2.872006
135.131836,924.591064,-194.641113,2.872746
143.280029,926.330566,-202.514648,2.873496
147.125244,927.246094,-212.95166,2.874236
148.590088,930.633545,-210.662842,2.874977
135.864258,931.82373,-213.317871,2.875717
143.737793,924.316406,-230.34668,2.876468
139.434814,928.070068,-219.543457,2.877219
147.033691,932.281494,-219.085693,2.877978
141.815186,923.126221,-214.050293,2.878734
140.441895,921.75293,-221.374512,2.879515
118.011475,927.337646,-222.198486,2.880291
133.026123,922.393799,-228.057861,2.881084
147.216797,933.47168,-217.163086,2.881869
136.413574,922.485352,-226.226807,2.882686
140.258789,923.309326,-218.994141,2.883477
145.477295,924.865723,-219.451904,2.88426
144.561768,918.457031,-225.219727,2.885068
149.780273,930.267334,-224.029541,2.885758
150.878906,927.703857,-226.959229,2.886526
146.66748,931.732178,-223.205566,2.887302
145.385742,932.4646,-224.212646,2.888129
139.434814,927.703857,-231.170654,2.888983
146.850586,944.000244,-211.853027,2.889957
148.31543,943.54248,-215.606689,2.890782
143.829346,936.859131,-218.536377,2.89162
149.414062,945.922852,-221.008301,2.892448
146.118164,943.908691,-221.191406,2.893237
146.392822,947.937012,-215.515137,2.894012
150.878906,939.239502,-210.021973,2.894795
151.885986,940.704346,-216.97998,2.895572
145.751953,943.54248,-222.106934,2.896341
153.533936,946.472168,-220.825195,2.897108
155.36499,949.859619,-224.029541,2.897868
159.118652,952.423096,-229.797363,2.898634
157.012939,951.873779,-226.867676,2.899386
159.301758,952.880859,-221.557617,2.900137
159.0271,951.416016,-229.3396,2.900883
162.872314,953.704834,-230.987549,2.90163
157.562256,959.472656,-225.585938,2.902378
156.280518,953.613281,-232.269287,2.903126
162.506104,960.388184,-228.790283,2.90388
160.766602,962.585449,-221.832275,2.904621
161.407471,961.303711,-222.839355,2.905363
162.231445,962.860107,-218.536377,2.906111
162.414551,984.100342,-214.050293,2.906853
168.09082,969.177246,-219.268799,2.907608
167.816162,961.029053,-227.233887,2.908357
167.999268,966.064453,-222.473145,2.909103
168.273926,969.177246,-216.247559,2.909843
166.717529,967.712402,-225.402832,2.910585
167.175293,961.578369,-230.529785,2.911337
172.76001,966.888428,-220.916748,2.912091
