ACC_X,ACC_Y,ACC_Z,Time
-343.597412,517.364502,802.368164,1.920692
-340.85083,516.998291,795.043945,1.921442
-340.393066,525.787354,802.642822,1.92221
-325.469971,524.871826,792.114258,1.922955
-325.744629,526.519775,788.085938,1.9237
-327.392578,538.879395,800.445557,1.924491
-321.258545,540.618896,798.156738,1.925271
-317.230225,543.09082,803.466797,1.926041
-313.38501,544.464111,808.227539,1.926792
-318.786621,547.668457,812.347412,1.927538
-313.934326,548.583984,812.347412,1.928283
-317.047119,549.407959,818.023682,1.929028
-310.272217,552.79541,823.974609,1.929773
-303.955078,545.471191,815.185547,1.930518
-305.69458,539.428711,820.037842,1.931262
-307.434082,536.682129,807.58667,1.932007
-298.919678,530.639648,807.952881,1.932751
-294.525146,523.681641,800.079346,1.933491
-295.257568,518.096924,785.614014,1.934226
-278.869629,502.075195,781.311035,1.934963
-277.770996,491.821289,772.43042,1.935697
-283.081055,484.954834,766.937256,1.936445
-263.85498,459.320068,753.753662,1.937192
-237.487793,691.40625,774.353027,1.937937
-269.256592,582.000732,858.123779,1.938682
-371.704102,475.708008,988.952637,1.939428
-330.688477,459.503174,982.543945,1.940173
-281.341553,555.175781,941.253662,1.940918
-170.196533,769.592285,938.690186,1.941663
-392.944336,617.889404,950.500488,1.942421
-206.359863,613.037109,930.908203,1.943165
-289.764404,600.67749,974.761963,1.94391
-167.907715,658.447266,975.67749,1.944655
-232.635498,617.340088,963.317871,1.9454
-201.049805,480.285645,969.726562,1.946134
-387.084961,512.237549,882.93457,1.946868
-190.429688,550.964355,841.461182,1.947602
-356.231689,538.513184,849.700928,1.948337
-322.357178,519.378662,851.806641,1.94911
-252.685547,500.701904,852.44751,1.949855
-233.917236,521.026611,850.616455,1.950598
-222.564697,493.743896,844.940186,1.951342
-247.741699,449.890137,835.601807,1.952088
-282.531738,435.333252,835.876465,1.952823
-334.350586,468.292236,831.390381,1.953626
-321.44165,451.263428,833.03833,1.954393
-298.461914,433.776855,831.02417,1.955139
-295.898438,433.502197,833.679199,1.955883
-284.179688,437.438965,844.940186,1.956628
-271.911621,415.19165,839.72168,1.957373
-277.130127,406.860352,837.70752,1.958118
-290.222168,399.169922,829.467773,1.958862
-298.736572,392.669678,812.805176,1.959597
-275.848389,386.260986,792.114258,1.960333
-259.094238,355.957031,750.0,1.961067
-202.697754,369.781494,728.759766,1.961802
-121.124268,366.485596,691.955566,1.962537
-104.553223,347.717285,658.26416,1.963306
-75.714111,338.928223,651.672363,1.964052
-68.29834,329.040527,633.178711,1.964796
-62.62207,325.469971,614.868164,1.965539
-57.037354,314.941406,609.283447,1.966296
-68.664551,288.299561,608.36792,1.96704
-48.339844,316.864014,627.13623,1.967804
-35.064697,328.125,646.820068,1.968548
-2.380371,351.470947,640.594482,1.969397
12.542725,397.888184,661.651611,1.970138
7.049561,419.403076,666.229248,1.970879
-25.909424,413.17749,663.024902,1.971619
-77.270508,371.612549,670.074463,1.972386
-208.648682,351.470947,668.701172,1.973131
-276.855469,349.639893,654.876709,1.973876
-277.404785,368.774414,643.066406,1.97462
-245.819092,383.880615,639.587402,1.975365
-226.501465,383.239746,655.883789,1.9761
-111.877441,417.205811,664.215088,1.976863
-247.192383,409.240723,673.370361,1.977611
-403.839111,400.726318,681.976318,1.978356
-387.451172,412.628174,680.877686,1.979101
-366.027832,441.558838,675.567627,1.979846
-352.203369,464.904785,679.870605,1.98059
-342.407227,488.983154,682.525635,1.981335
-286.743164,513.061523,687.286377,1.982119
-272.918701,505.737305,701.660156,1.982864
-226.593018,517.547607,708.618164,1.983621
-208.374023,517.364502,729.58374,1.984364
-208.099365,520.019531,728.210449,1.985107
-190.52124,520.751953,763.824463,1.98585
-183.929443,528.625488,797.88208,1.986604
-181.45752,543.182373,807.037354,1.987347
-184.204102,562.866211,815.2771,1.98809
-200.408936,567.352295,824.34082,1.988834
-221.466064,572.937012,843.475342,1.989569
-224.853516,579.89502,862.426758,1.990309
-250.579834,587.402344,873.138428,1.991059
-271.636963,586.029053,897.216797,1.991854
-276.672363,586.578369,904.266357,1.992626
-268.798828,581.817627,889.526367,1.993371
-264.221191,578.24707,880.554199,1.994116
-234.924316,564.239502,870.941162,1.99486
-221.923828,538.421631,841.003418,1.995616
-204.803467,533.111572,827.728271,1.99636
-196.746826,521.942139,819.213867,1.997104
-186.401367,518.005371,799.438477,1.997849
-187.774658,471.221924,785.888672,1.998647
-202.697754,461.517334,794.586182,1.999445
-210.113525,450.164795,783.874512,2.000204
-203.613281,435.882568,779.846191,2.000996
-207.183838,434.60083,779.663086,2.001749
-209.564209,405.487061,772.155762,2.00259
-203.521729,406.311035,777.648926,2.003354
-209.014893,395.782471,770.233154,2.004102
-212.310791,391.021729,758.422852,2.00485
-199.951172,390.74707,755.310059,2.005598
-205.169678,375.274658,746.612549,2.006343
-205.627441,364.562988,754.302979,2.007088
-196.929932,349.54834,738.647461,2.007833
-198.760986,353.942871,731.048584,2.008578
-192.443848,317.138672,740.020752,2.009386
-186.218262,316.497803,739.379883,2.010133
-184.753418,291.503906,733.886719,2.010878
-179.718018,284.545898,730.499268,2.011623
-171.203613,263.946533,736.083984,2.012378
-167.541504,277.954102,723.358154,2.013123
-154.907227,245.544434,718.414307,2.013868
-157.745361,226.318359,717.681885,2.014612
-156.005859,215.332031,722.625732,2.015357
-145.385742,203.155518,716.033936,2.016091
-154.815674,197.479248,718.231201,2.016826
-145.6604,198.21167,714.752197,2.01756
-142.364502,185.48584,706.420898,2.018326
-146.942139,175.964355,706.878662,2.019071
-157.653809,175.323486,699.09668,2.019816
-146.484375,164.794922,696.624756,2.02056
-148.040771,162.597656,682.70874,2.021316
-127.166748,157.562256,680.969238,2.022061
-132.93457,154.541016,671.081543,2.022805
-123.596191,155.731201,656.616211,2.02355
-119.293213,140.167236,659.179688,2.024305
-133.300781,133.300781,645.53833,2.025049
-150.787354,145.111084,643.52417,2.025794
-183.380127,157.745361,626.312256,2.02654
-175.323486,154.815674,608.36792,2.027307
-181.274414,163.238525,599.945068,2.028093
-180.908203,174.133301,590.606689,2.028829
-183.654785,179.534912,585.662842,2.029621
-189.239502,188.50708,573.120117,2.030367
-187.957764,203.613281,558.288574,2.031112
-202.789307,218.261719,545.196533,2.031856
-226.409912,227.050781,531.280518,2.032635
-237.213135,215.606689,521.66748,2.03338
-235.839844,214.233398,520.751953,2.034121
-244.262695,216.61377,520.751953,2.034863
-250.762939,224.761963,501.251221,2.03562
-243.621826,231.994629,490.539551,2.036362
-256.896973,244.628906,500.061035,2.037103
-257.171631,232.818604,492.919922,2.037844
-264.678955,242.889404,486.14502,2.038568
-259.460449,253.234863,488.983154,2.039309
-260.925293,257.8125,487.792969,2.040051
-262.298584,252.685547,482.116699,2.040794
-264.038086,245.727539,486.419678,2.041638
-266.693115,239.868164,485.870361,2.042379
-277.587891,240.05127,492.736816,2.043121
-276.580811,270.721436,494.476318,2.043863
-267.242432,262.664795,500.335693,2.044614
-274.56665,256.530762,497.86377,2.045355
-276.947021,260.284424,474.517822,2.046097
-286.010742,264.404297,481.842041,2.046838
-281.433105,269.897461,487.976074,2.047588
-265.319824,269.073486,488.983154,2.04833
-276.672363,262.115479,494.293213,2.049075
-283.447266,264.862061,505.645752,2.049816
-277.679443,260.467529,502.89917,2.050572
-258.544922,267.883301,500.518799,2.051314
-275.756836,267.51709,496.765137,2.052054
-281.982422,276.489258,496.490479,2.052795
-279.144287,286.834717,498.046875,2.053539
-280.792236,289.489746,500.244141,2.05427
-277.313232,301.391602,506.835938,2.055001
-269.348145,309.356689,505.279541,2.055732
-259.918213,329.406738,512.512207,2.056485
-256.622314,346.343994,516.723633,2.057225
-259.460449,356.414795,516.174316,2.057965
-257.904053,371.337891,530.36499,2.058706
-248.291016,385.71167,547.210693,2.059452
-251.12915,403.198242,575.592041,2.06021
-241.882324,433.044434,579.89502,2.060961
-248.016357,458.587646,592.712402,2.061708
-246.459961,471.77124,613.952637,2.062479
-253.417969,488.342285,619.537354,2.063219
-260.192871,496.124268,634.277344,2.063959
-262.939453,500.701904,643.157959,2.064702
-280.059814,516.723633,653.411865,2.065459
-291.595459,521.66748,672.546387,2.066199
-293.792725,533.752441,675.933838,2.066939
-308.074951,556.45752,694.702148,2.067679
-308.349609,559.204102,710.723877,2.068429
-297.271729,575.683594,756.500244,2.069169
-340.484619,635.375977,912.963867,2.069963
-182.189941,651.123047,888.61084,2.070771
-220.458984,663.757324,864.16626,2.07152
-342.956543,668.243408,867.462158,2.072262
-254.974365,678.497314,864.349365,2.073023
-264.404297,678.497314,863.342285,2.073764
-304.321289,671.539307,853.088379,2.074506
-289.031982,665.222168,849.609375,2.075247
-271.728516,667.327881,844.299316,2.076002
-288.94043,662.750244,831.207275,2.076744
-279.876709,665.496826,826.080322,2.077487
-275.939941,673.187256,827.819824,2.078229
-294.433594,661.376953,826.171875,2.078979
-278.22876,653.869629,823.608398,2.079721
-280.517578,658.172607,827.545166,2.080462
-288.848877,650.665283,818.206787,2.081203
-285.919189,650.939941,806.945801,2.081955
-277.679443,647.55249,787.536621,2.082707
-298.278809,647.918701,779.663086,2.083448
-302.215576,645.263672,776.184082,2.08419
-294.342041,635.192871,770.507812,2.084948
-300.384521,617.523193,772.796631,2.085693
-299.377441,617.706299,760.71167,2.086434
-296.356201,610.565186,751.464844,2.087175
-275.939941,620.269775,742.950439,2.087929
-258.361816,617.797852,725.097656,2.088671
-251.77002,619.812012,726.470947,2.089412
-235.198975,616.149902,698.547363,2.090154
-229.980469,590.606689,692.504883,2.090906
-293.334961,576.049805,681.518555,2.091648
-282.073975,580.352783,658.26416,2.092389
-229.888916,577.514648,658.172607,2.093133
-180.81665,591.156006,653.869629,2.093885
-220.550537,593.902588,652.954102,2.094627
-247.650146,602.874756,678.68042,2.095368
-201.324463,611.663818,660.003662,2.09611
-180.999756,607.910156,666.595459,2.09686
-224.578857,612.121582,677.032471,2.097602
-256.80542,604.156494,678.863525,2.098343
-241.607666,600.036621,702.667236,2.099084
-232.269287,610.198975,681.793213,2.099828
-255.249023,619.07959,687.744141,2.100559
-275.756836,619.07959,693.511963,2.101291
-253.692627,617.980957,702.850342,2.102022
-244.995117,614.4104,715.118408,2.102774
-250.213623,608.184814,718.780518,2.103514
-248.199463,606.079102,718.688965,2.104253
-218.353271,610.290527,725.830078,2.104993
-264.587402,613.952637,723.449707,2.105742
-324.554443,627.13623,726.287842,2.106483
-369.232178,629.333496,726.745605,2.107223
-332.702637,642.791748,745.239258,2.107963
-360.534668,657.897949,755.950928,2.108678
-354.58374,650.57373,761.535645,2.109418
-342.86499,674.835205,767.211914,2.110159
-329.498291,673.095703,768.035889,2.110898
-305.969238,690.856934,777.008057,2.111649
-303.314209,688.659668,775.726318,2.112478
-278.320312,704.406738,777.46582,2.113219
-283.630371,720.703125,775.543213,2.113958
-282.897949,732.147217,784.14917,2.114709
-293.518066,733.520508,781.311035,2.115449
-303.131104,740.203857,795.959473,2.11619
-323.638916,750.091553,797.973633,2.11693
-337.738037,758.605957,807.312012,2.117681
-344.329834,757.415771,814.178467,2.118421
-338.104248,777.557373,819.671631,2.11916
-335.998535,777.740479,833.862305,2.1199
-340.301514,770.782471,840.72876,2.120649
-328.491211,784.332275,855.46875,2.12139
-329.13208,787.536621,861.785889,2.122131
-320.343018,802.825928,863.067627,2.122871
-309.997559,798.88916,864.349365,2.123628
-307.800293,798.248291,889.251709,2.124369
-318.054199,797.058105,873.779297,2.125109
-311.187744,800.720215,860.046387,2.125849
-302.124023,795.318604,853.271484,2.126599
-306.976318,793.304443,842.834473,2.127339
-302.307129,795.501709,842.651367,2.12808
-302.947998,793.304443,835.235596,2.12882
-293.701172,784.423828,842.376709,2.129572
-285.095215,791.290283,844.848633,2.130312
-272.644043,797.973633,857.116699,2.131052
-269.165039,794.128418,864.257812,2.131791
-264.678955,790.100098,871.032715,2.132541
-264.038086,791.290283,874.694824,2.133282
-261.016846,792.755127,884.216309,2.134027
-255.157471,790.83252,875.610352,2.134773
-254.425049,793.029785,872.2229,2.135542
-253.509521,791.8396,863.525391,2.136283
-249.481201,787.536621,862.518311,2.137023
-244.812012,782.592773,854.919434,2.137763
-247.10083,782.867432,848.7854,2.138513
-214.141846,773.895264,835.327148,2.139253
-224.029541,773.162842,831.298828,2.139994
-211.94458,762.542725,820.861816,2.140734
-204.89502,772.705078,815.093994,2.141483
-202.972412,764.373779,811.065674,2.142223
-194.458008,759.246826,808.959961,2.142965
-191.436768,766.571045,807.678223,2.143706
-185.028076,752.01416,807.769775,2.144459
-196.838379,751.373291,801.727295,2.145199
-194.366455,745.056152,798.339844,2.145939
-189.971924,755.767822,798.706055,2.146679
-192.443848,749.450684,796.600342,2.147378
-186.035156,740.386963,801.269531,2.148118
-188.323975,727.935791,791.19873,2.148857
-183.746338,724.090576,794.219971,2.149638
-176.422119,726.470947,789.001465,2.150393
-169.73877,725.280762,788.085938,2.151154
-168.182373,716.583252,788.909912,2.151912
-164.520264,717.590332,783.416748,2.15267
-153.808594,710.449219,786.895752,2.153412
-163.696289,712.646484,791.381836,2.154154
-167.633057,713.012695,796.417236,2.154896
-169.830322,695.251465,783.416748,2.155649
-167.724609,699.371338,783.599854,2.156391
-178.436279,693.145752,774.261475,2.157132
-184.661865,687.286377,771.972656,2.157874
-176.696777,697.723389,777.374268,2.158626
-170.196533,714.202881,776.275635,2.159367
-185.211182,703.948975,772.247314,2.160131
-177.79541,706.420898,773.071289,2.160909
-180.450439,704.223633,773.803711,2.16168
-181.549072,705.047607,771.057129,2.162434
-183.288574,699.920654,754.302979,2.163226
-183.654785,698.822021,754.760742,2.163981
-200.775146,694.976807,745.605469,2.164727
-195.648193,686.37085,738.830566,2.165515
-204.986572,694.976807,739.837646,2.166271
-205.169678,692.321777,734.436035,2.167055
-210.113525,699.09668,735.900879,2.167807
-233.001709,697.998047,741.210938,2.168593
-224.212646,691.223145,739.837646,2.169371
-228.69873,698.913574,745.880127,2.170138
-236.480713,707.702637,751.098633,2.170932
-248.565674,692.230225,743.041992,2.171664
-250.305176,694.793701,749.084473,2.172395
-254.882812,693.786621,748.260498,2.173127
-267.974854,699.371338,748.535156,2.173874
-259.460449,696.807861,756.04248,2.174606
-269.622803,697.08252,753.570557,2.175337
-269.348145,695.343018,748.718262,2.176068
-270.812988,697.174072,751.281738,2.176833
-261.657715,698.822021,747.711182,2.177564
-263.763428,701.202393,740.478516,2.178295
-259.918213,702.301025,743.95752,2.179026
-255.79834,703.125,745.788574,2.179774
-258.361816,688.659668,746.612549,2.180505
-257.8125,690.216064,742.126465,2.181239
-256.988525,683.074951,729.58374,2.18197
-260.742188,683.898926,723.999023,2.182739
-243.896484,681.793213,727.386475,2.183575
-251.495361,681.70166,731.048584,2.184309
-251.037598,683.441162,723.54126,2.185041
-243.255615,692.138672,723.266602,2.185794
-239.868164,696.350098,724.731445,2.186527
-248.565674,699.279785,721.893311,2.187258
-238.677979,707.794189,734.710693,2.187989
-235.198975,709.80835,735.900879,2.18874
-231.719971,720.336914,748.901367,2.18947
-230.163574,719.146729,753.662109,2.190201
-233.276367,734.436035,757.69043,2.190932
-240.234375,738.739014,759.796143,2.191675
-235.38208,750.091553,771.240234,2.192407
-236.846924,755.859375,779.571533,2.193138
-256.256104,756.408691,791.473389,2.193869
-235.839844,776.000977,797.973633,2.194607
-240.966797,776.000977,812.072754,2.195338
-238.311768,784.423828,815.551758,2.196069
-250.579834,774.261475,821.044922,2.1968
-247.650146,783.508301,825.622559,2.197555
-252.960205,782.867432,820.404053,2.198295
-253.417969,780.853271,831.848145,2.199036
-250.213623,781.585693,815.185547,2.199776
-254.882812,777.923584,820.861816,2.200527
-249.664307,761.260986,800.720215,2.201268
-250.854492,761.444092,774.810791,2.20201
-244.171143,756.774902,795.593262,2.202759
-242.248535,756.591797,797.88208,2.203528
-229.888916,761.444092,791.931152,2.204285
-220.916748,760.803223,790.19165,2.205025
-226.043701,746.795654,786.804199,2.205766
-230.895996,742.858887,774.810791,2.206527
-220.825195,741.027832,777.740479,2.207268
-223.388672,725.006104,764.831543,2.208008
-226.959229,722.53418,763.641357,2.208748
-215.148926,717.956543,758.972168,2.2095
-217.163086,697.814941,750.366211,2.210244
-224.761963,698.638916,747.711182,2.210984
-205.535889,684.906006,731.323242,2.211724
-209.564209,677.764893,719.87915,2.212479
-206.634521,664.672852,722.259521,2.213219
-203.887939,660.827637,711.730957,2.213959
-204.528809,650.665283,706.329346,2.214699
-211.853027,640.960693,700.469971,2.215449
-217.254639,639.770508,690.216064,2.21619
-213.317871,633.728027,689.758301,2.21693
-215.148926,627.7771,679.962158,2.21767
-214.782715,622.375488,656.890869,2.21842
-214.324951,608.001709,669.891357,2.219161
-215.9729,601.043701,645.721436,2.219901
-206.085205,607.543945,646.179199,2.220677
-203.979492,596.282959,643.249512,2.221516
-195.373535,595.825195,634.552002,2.222262
-195.648193,597.106934,615.783691,2.223026
-189.239502,598.205566,606.903076,2.223771
-176.147461,597.198486,614.593506,2.224511
-172.851562,592.346191,616.149902,2.225252
-168.09082,593.902588,621.09375,2.225992
-159.942627,592.346191,624.298096,2.226731
-156.280518,594.360352,620.910645,2.227478
-159.301758,589.508057,616.516113,2.228213
-153.259277,601.959229,616.790771,2.228945
-153.991699,592.346191,613.40332,2.229678
-155.548096,597.381592,617.340088,2.230409
-168.823242,582.733154,608.642578,2.231141
-174.591064,587.585449,596.923828,2.231871
-162.322998,582.183838,599.212646,2.232603
-161.682129,583.190918,594.085693,2.233334
-165.893555,583.831787,593.444824,2.234065
-169.189453,581.085205,595.733643,2.234796
-168.731689,574.676514,580.9021,2.235529
-172.393799,585.113525,584.655762,2.23626
-178.894043,577.514648,579.345703,2.236991
-178.710938,576.965332,574.951172,2.237722
-174.316406,584.655762,576.782227,2.238454
-165.344238,582.641602,567.443848,2.239185
-168.914795,577.331543,563.873291,2.239921
-166.534424,581.90918,555.908203,2.240653
-174.865723,580.352783,554.80957,2.241387
-170.379639,574.493408,551.696777,2.242119
-159.301758,579.986572,546.020508,2.242851
-162.780762,562.042236,550.78125,2.243582
-160.491943,563.690186,550.323486,2.244314
-149.871826,555.633545,544.830322,2.245046
-148.681641,565.338135,551.239014,2.245776
-138.336182,560.577393,536.773682,2.246507
-144.744873,559.936523,525.787354,2.24724
-148.956299,553.619385,519.744873,2.247972
-140.625,561.035156,518.371582,2.248703
-142.63916,575.408936,500.610352,2.249434
-147.125244,572.937012,488.15918,2.250164
-154.724121,575.317383,472.503662,2.250905
-156.646729,584.381104,462.432861,2.251645
-151.519775,591.339111,451.721191,2.252385
-163.970947,606.262207,440.002441,2.253125
-167.999268,619.995117,428.009033,2.253994
-181.82373,628.326416,414.916992,2.254735
-189.51416,630.706787,383.789062,2.255474
-188.598633,638.122559,378.753662,2.256214
-204.437256,648.101807,373.809814,2.256955
-199.493408,670.98999,366.760254,2.257695
-180.541992,689.39209,223.66333,2.258435
-124.237061,758.239746,112.701416,2.259175
-601.226807,812.438965,211.029053,2.259915
-285.919189,782.684326,256.072998,2.260655
-137.786865,702.11792,308.258057,2.261395
-404.47998,676.574707,272.55249,2.262135
-320.159912,736.450195,238.494873,2.262875
-262.207031,768.035889,287.93335,2.263614
-423.065186,762.542725,300.750732,2.264354
-282.165527,810.058594,303.039551,2.265094
-270.355225,852.355957,373.535156,2.265834
-350.646973,877.441406,386.71875,2.266574
-279.418945,928.80249,449.615479,2.267314
-280.975342,940.338135,534.0271,2.268055
-290.771484,959.564209,536.315918,2.268795
-284.454346,1002.868652,632.8125,2.269535
-305.877686,1042.510986,700.927734,2.270275
-168.273926,1014.129639,769.592285,2.271016
-187.408447,1017.150879,847.137451,2.271756
-234.649658,1058.258057,888.885498,2.272496
-188.140869,1081.970215,890.533447,2.273235
-139.801025,1091.674805,890.258789,2.273974
-163.238525,1100.55542,873.962402,2.274715
-206.542969,1104.034424,835.968018,2.275456
-319.244385,1083.251953,798.88916,2.276205
-287.017822,1071.624756,744.781494,2.276951
-320.800781,1035.186768,673.095703,2.277718
-462.615967,1030.426025,636.84082,2.278466
-438.354492,1013.397217,603.69873,2.279207
-435.058594,1030.609131,598.388672,2.279948
-479.187012,1030.426025,607.086182,2.280688
-403.106689,1049.6521,649.108887,2.281428
-377.838135,1063.751221,681.152344,2.282176
-340.301514,1075.378418,731.506348,2.282917
-310.821533,1090.484619,766.113281,2.283658
-244.628906,1090.484619,786.16333,2.284398
-213.775635,1093.597412,798.88916,2.285138
-196.105957,1089.477539,774.810791,2.285879
-188.781738,1077.667236,747.070312,2.286651
-225.128174,1069.793701,692.138672,2.287404
-238.769531,1026.123047,637.390137,2.288171
-264.862061,987.579346,591.339111,2.288946
-313.934326,986.206055,566.52832,2.289688
-301.574707,961.853027,544.372559,2.29043
-312.927246,952.972412,538.05542,2.291174
-319.335938,966.247559,552.886963,2.291934
-272.369385,966.430664,555.633545,2.292679
-277.954102,961.212158,564.697266,2.29342
-244.262695,952.423096,588.134766,2.294162
-231.628418,941.52832,588.226318,2.294917
-227.783203,951.23291,591.61377,2.295658
-220.001221,937.042236,584.381104,2.296399
-215.240479,928.80249,584.381104,2.297141
-225.585938,914.611816,564.697266,2.297893
-232.818604,891.815186,517.364502,2.298636
-220.184326,882.659912,500.976562,2.299378
-203.24707,859.039307,460.968018,2.300119
-192.352295,848.602295,420.593262,2.300871
-170.471191,818.389893,402.099609,2.301613
-113.525391,822.235107,393.310547,2.302354
-88.531494,808.776855,383.972168,2.303095
-69.30542,792.388916,377.288818,2.303846
-50.079346,791.473389,371.063232,2.304587
-23.620605,786.529541,365.936279,2.305328
-21.972656,777.46582,349.822998,2.306069
-17.944336,775.360107,345.245361,2.306821
-18.859863,773.895264,338.012695,2.307566
-22.338867,756.134033,338.83667,2.308307
-34.240723,746.795654,333.068848,2.309048
-42.114258,727.844238,342.315674,2.309798
-55.847168,729.675293,333.80127,2.310539
-66.925049,726.287842,336.547852,2.31128
-74.249268,740.936279,344.696045,2.312021
-78.00293,741.577148,343.780518,2.312773
-102.355957,735.534668,345.245361,2.313514
-87.70752,738.830566,339.019775,2.314255
-108.398438,754.486084,336.82251,2.314997
-116.363525,721.893311,343.322754,2.315738
-101.806641,705.505371,328.216553,2.31647
-53.283691,715.484619,325.378418,2.317201
-67.657471,711.82251,311.828613,2.317932
-24.078369,715.393066,310.546875,2.318685
-11.810303,711.639404,284.637451,2.319425
-22.979736,718.597412,286.468506,2.320164
-21.514893,729.309082,295.806885,2.320904
-17.486572,723.907471,289.306641,2.321654
-22.064209,734.069824,276.123047,2.322394
-32.592773,740.570068,290.039062,2.323134
-11.169434,727.752686,287.109375,2.323874
-34.057617,757.873535,287.017822,2.324624
-26.641846,757.873535,278.045654,2.325451
-17.486572,752.563477,279.693604,2.326191
-54.107666,761.169434,275.482178,2.326931
-33.691406,759.887695,274.200439,2.327684
-31.402588,765.197754,304.321289,2.328425
-52.55127,748.168945,299.835205,2.329165
-42.938232,753.112793,311.828613,2.329905
-26.916504,754.486084,318.786621,2.330655
-22.338867,749.267578,336.730957,2.331395
-25.177002,768.859863,357.23877,2.332135
-9.613037,784.332275,369.689941,2.332875
-1.922607,789.916992,379.852295,2.333625
-6.225586,801.086426,384.155273,2.334365
-1.556396,814.727783,391.937256,2.335104
-8.880615,796.966553,394.134521,2.335844
-35.064697,790.19165,404.47998,2.336593
-43.945312,824.249268,408.325195,2.337334
-42.114258,839.263916,410.888672,2.338074
-58.868408,864.898682,407.226562,2.338813
-74.615479,847.320557,436.065674,2.339563
-66.925049,841.827393,439.27002,2.340303
-67.657471,877.89917,435.974121,2.341044
-95.306396,902.435303,453.460693,2.341784
-53.924561,906.463623,460.784912,2.342533
-49.072266,929.443359,462.615967,2.343273
-74.890137,936.767578,450.622559,2.344044
-59.692383,971.008301,469.390869,2.344786
-40.374756,980.34668,468.566895,2.345539
-88.897705,979.156494,468.933105,2.34628
-72.052002,1000.854492,490.814209,2.347031
-51.544189,1009.552002,496.948242,2.347777
-102.264404,1060.36377,506.561279,2.34854
-100.250244,1059.173584,513.153076,2.349285
-136.59668,1026.489258,539.245605,2.350026
-100.708008,1073.547363,555.084229,2.350778
-105.834961,1042.510986,565.979004,2.351519
-87.06665,1117.584229,712.188721,2.352259
-173.583984,1073.638916,756.225586,2.352999
8.148193,1060.913086,773.620605,2.353771
26.367188,1079.13208,773.254395,2.354521
-79.559326,1090.209961,749.176025,2.355284
10.71167,1078.674316,732.330322,2.356031
-14.923096,1067.230225,689.208984,2.356795
-45.776367,1062.652588,592.895508,2.357536
-44.311523,1022.277832,560.119629,2.358276
-39.093018,999.298096,491.455078,2.359016
-67.382812,1013.305664,455.566406,2.359767
-107.116699,1026.397705,408.508301,2.360507
-93.200684,1026.855469,381.866455,2.361248
-102.081299,1006.622314,388.183594,2.361989
-109.313965,1010.101318,393.127441,2.362745
-83.496094,1008.544922,400.360107,2.363487
-98.327637,1006.896973,433.776855,2.364227
-87.70752,1086.090088,430.755615,2.364967
-33.325195,1098.266602,417.480469,2.365715
-96.588135,1057.159424,446.136475,2.366455
-31.585693,1053.039551,459.04541,2.367195
26.641846,1051.66626,443.206787,2.367935
-44.769287,1023.468018,444.580078,2.36869
5.0354,1015.045166,440.826416,2.369452
5.401611,1011.383057,435.058594,2.370209
-24.810791,993.804932,425.170898,2.370964
4.943848,977.600098,421.600342,2.371747
4.02832,956.359863,424.621582,2.372542
-6.134033,940.612793,395.599365,2.3733
-28.656006,929.351807,380.218506,2.374056
-6.958008,898.773193,344.787598,2.37483
-24.261475,866.729736,311.279297,2.375583
-46.051025,860.321045,266.143799,2.376318
-29.571533,855.194092,240.509033,2.377049
-34.515381,844.207764,204.071045,2.377806
-51.818848,840.545654,150.512695,2.378549
-50.628662,819.030762,128.356934,2.379283
-51.635742,812.530518,85.601807,2.380015
-56.213379,804.290771,66.467285,2.380777
-51.635742,792.297363,25.45166,2.38151
-55.664062,802.185059,0.091553,2.382241
-32.318115,798.065186,-17.852783,2.382974
-25.543213,773.162842,-72.32666,2.383721
-58.044434,727.844238,-36.712646,2.384452
-118.560791,670.532227,-42.205811,2.385183
68.572998,757.965088,-164.611816,2.385914
-165.252686,735.443115,-178.527832,2.386672
9.613037,721.801758,-248.931885,2.387414
36.804199,723.358154,-328.948975,2.388155
-305.69458,721.801758,-372.98584,2.388897
-228.790283,723.358154,-436.157227,2.389649
-94.940186,732.513428,-463.439941,2.390391
-257.8125,751.098633,-526.062012,2.391141
-281.982422,803.55835,-569.824219,2.3919
-135.5896,809.875488,-606.262207,2.392691
-221.282959,852.355957,-652.862549,2.393449
-251.403809,677.032471,-669.799805,2.394213
-382.873535,923.76709,-701.019287,2.394975
-230.804443,838.439941,-762.359619,2.395761
-265.594482,796.508789,-792.114258,2.39651
-236.755371,885.498047,-799.255371,2.397351
-154.266357,762.908936,-820.037842,2.398096
-198.852539,829.01001,-808.776855,2.398838
-118.011475,863.708496,-804.748535,2.39958
-77.728271,925.872803,-784.057617,2.400321
-93.109131,995.727539,-815.093994,2.401063
-88.348389,997.467041,-795.86792,2.401805
-108.398438,977.783203,-760.803223,2.402546
-127.89917,1176.086426,-722.442627,2.403288
71.411133,957.733154,-688.659668,2.40403
361.358643,760.437012,-449.157715,2.404771
-234.100342,1191.28418,-331.512451,2.405513
109.954834,923.950195,-230.987549,2.406255
580.718994,1027.496338,-238.677979,2.406998
-581.359863,1040.679932,-175.78125,2.407739
-338.470459,1147.979736,-168.548584,2.408481
626.953125,1253.90625,-143.371582,2.409223
272.827148,1522.613525,-69.213867,2.409964
302.67334,1393.615723,122.131348,2.410705
429.473877,1707.91626,155.822754,2.411446
130.645752,1731.903076,255.065918,2.412188
-194.641113,1895.233154,307.800293,2.41293
53.100586,1721.832275,460.784912,2.413671
86.883545,1757.080078,627.502441,2.414412
361.358643,813.354492,1016.601562,2.415154
-1858.886719,1500.549316,1765.686035,2.41591
-2047.210693,1122.528076,1910.888672,2.416653
-203.979492,1773.101807,1459.80835,2.417394
1695.465088,1574.890137,1371.09375,2.418141
2694.122314,2150.482178,1334.381104,2.418889
2326.446533,1816.955566,1185.424805,2.419658
-63.446045,1813.201904,1053.955078,2.420408
-674.743652,1841.949463,1129.486084,2.421149
-910.583496,1871.887207,1100.55542,2.421892
-696.990967,1878.479004,972.930908,2.422634
596.191406,1959.869385,919.921875,2.423376
1227.172852,2005.92041,909.576416,2.424118
130.554199,1859.802246,965.148926,2.424916
-512.695312,1847.991943,1054.962158,2.425668
-520.111084,1836.82251,1037.29248,2.426448
733.703613,1888.73291,1019.622803,2.427201
997.558594,1921.783447,1051.391602,2.427966
384.70459,1940.917969,1064.575195,2.428708
-537.139893,1924.438477,1067.41333,2.42945
-507.202148,1886.077881,1057.617188,2.430194
86.517334,1875.0,1046.447754,2.430953
320.43457,1813.018799,1027.954102,2.431697
94.75708,1759.368896,1025.299072,2.432438
-518.096924,1602.630615,1002.13623,2.43318
-690.673828,1479.949951,936.126709,2.433934
-633.911133,1490.753174,898.31543,2.434676
-316.131592,1421.173096,857.299805,2.435418
-174.77417,1417.96875,795.135498,2.43616
-217.346191,1358.184814,725.830078,2.436913
-564.056396,1348.022461,558.746338,2.437654
-710.998535,1337.493896,464.630127,2.438396
-710.357666,1267.456055,432.312012,2.439137
-621.276855,1226.44043,409.515381,2.439775
-485.046387,1175.994873,383.789062,2.440517
-458.862305,1135.070801,360.900879,2.441258
-492.370605,1076.843262,333.80127,2.442
-611.755371,962.860107,245.269775,2.442751
-639.770508,972.930908,116.455078,2.443492
-361.907959,1013.397217,64.086914,2.444233
212.677002,1093.87207,16.571045,2.444974
450.531006,1118.865967,14.099121,2.445726
563.140869,1146.057129,44.219971,2.446467
453.735352,1051.483154,82.855225,2.447208
147.857666,947.021484,106.567383,2.44795
-102.722168,793.029785,94.482422,2.448701
-134.124756,764.556885,23.803711,2.449442
-86.791992,742.218018,-9.063721,2.450183
12.268066,802.001953,-85.693359,2.450923
159.667969,836.334229,-126.617432,2.451663
220.458984,904.998779,-197.570801,2.452395
229.614258,903.900146,-225.860596,2.453126
155.731201,771.057129,-224.487305,2.453857
90.362549,614.776611,-232.177734,2.454609
-154.724121,595.275879,-237.121582,2.455349
-429.290771,552.978516,-30.853271,2.456089
-417.938232,607.818604,82.580566,2.45683
-112.1521,682.525635,72.143555,2.457581
445.861816,835.327148,26.824951,2.458321
579.89502,868.743896,-40.100098,2.459061
542.816162,851.989746,-55.57251,2.459801
416.748047,742.584229,-156.280518,2.460551
194.000244,695.800781,-199.768066,2.461292
-35.980225,594.726562,-321.807861,2.462032
-78.186035,598.205566,-414.001465,2.462772
60.424805,642.51709,-433.410645,2.463523
358.520508,689.117432,-464.630127,2.464263
442.932129,665.405273,-478.912354,2.465003
388.458252,566.986084,-545.74585,2.465744
252.502441,508.300781,-646.636963,2.466494
-169.830322,503.173828,-769.042969,2.467364
-119.842529,547.210693,-789.18457,2.468106
81.207275,591.064453,-813.995361,2.468847
482.116699,590.9729,-822.418213,2.469601
441.101074,497.039795,-874.328613,2.470342
320.526123,469.482422,-942.901611,2.471082
60.882568,393.4021,-973.388672,2.471822
248.748779,495.758057,-1163.360596,2.472572
1412.200928,527.984619,-933.563232,2.473313
-343.322754,231.719971,-448.883057,2.474057
-1385.83374,523.040771,-397.43042,2.474799
-462.341309,756.958008,-432.312012,2.475554
1800.384521,1087.280273,-645.812988,2.476295
1884.246826,1116.027832,-810.058594,2.477036
388.183594,795.776367,-846.77124,2.477777
-22.43042,746.887207,-1060.36377,2.478528
244.07959,905.456543,-1140.197754,2.479269
393.127441,613.220215,-535.583496,2.480009
379.669189,627.410889,-350.55542,2.480749
402.374268,853.179932,-235.931396,2.4815
680.145264,1096.252441,-379.669189,2.48224
748.718262,1157.226562,-666.687012,2.482981
1751.220703,1047.454834,-532.836914,2.483721
1932.128906,794.677734,-465.820312,2.484472
-738.28125,587.219238,-261.474609,2.485213
-1507.232666,1152.832031,-124.053955,2.485953
-1494.781494,1229.187012,-289.672852,2.486693
-329.864502,1234.771729,-349.731445,2.487443
1533.325195,1370.819092,-56.671143,2.488183
2446.380615,1269.470215,-28.564453,2.488924
-1511.901855,997.924805,400.085449,2.489664
-2430.725098,1297.210693,333.526611,2.490433
-2064.971924,1168.212891,278.045654,2.49118
2583.251953,1610.229492,122.2229,2.491945
2999.908447,1528.289795,196.19751,2.492707
1937.438965,1367.523193,-96.954346,2.493448
248.565674,1436.737061,-195.098877,2.494188
-783.233643,1295.288086,258.728027,2.494929
-2300.262451,1246.21582,298.278809,2.49567
-2326.171875,1240.905762,127.807617,2.496411
-1799.835205,1218.475342,-390.930176,2.497152
-240.142822,1392.974854,-517.822266,2.497893
-223.66333,1151.184082,-128.448486,2.498645
2120.08667,1413.391113,-182.922363,2.499388
2603.759766,1547.790527,-273.651123,2.500129
1640.441895,1346.466064,78.186035,2.50087
-131.011963,1736.206055,287.200928,2.501611
513.885498,2385.131836,893.096924,2.502352
1798.736572,2999.908447,2999.908447,2.503093
2768.463135,2999.908447,2999.908447,2.503833
-1449.279785,2999.908447,2999.908447,2.504604
-702.209473,1403.045654,-2100.311279,2.505361
-1429.6875,521.026611,-3000.0,2.506123
-2629.577637,-527.709961,-3000.0,2.506872
-1073.0896,116.088867,-501.434326,2.507638
-492.1875,1049.926758,707.15332,2.508379
1824.09668,2314.727783,2060.48584,2.509119
2089.782715,1874.176025,702.941895,2.50986
1319.915771,1440.582275,-28.564453,2.51061
18.859863,877.624512,-1038.94043,2.51135
-458.221436,780.395508,-1432.525635,2.512091
-432.769775,732.971191,-1077.758789,2.512831
-114.349365,926.055908,-85.968018,2.513583
152.435303,1084.16748,272.003174,2.514323
95.306396,1328.887939,504.089355,2.515063
-7.598877,1325.592041,-135.955811,2.515803
-412.445068,1137.817383,-478.45459,2.516551
-643.432617,895.843506,-755.950928,2.517292
-646.911621,824.981689,-628.509521,2.518033
-406.768799,1023.193359,-105.743408,2.518773
-278.961182,1258.300781,223.66333,2.519524
221.64917,1250.427246,154.907227,2.520264
115.17334,1102.844238,-254.058838,2.521005
91.278076,1037.017822,-503.723145,2.521746
31.951904,1016.784668,-532.653809,2.522493
3.387451,1045.532227,-319.885254,2.523231
-60.882568,1114.471436,-141.723633,2.523981
-45.86792,1152.282715,-109.863281,2.524715
-23.071289,1079.498291,-172.119141,2.525468
-32.043457,1025.299072,-360.717773,2.526199
-97.686768,932.4646,-426.635742,2.52693
-93.200684,929.992676,-446.685791,2.527661
-132.568359,949.676514,-400.360107,2.528402
-111.419678,1013.214111,-273.101807,2.529133
-87.06665,1035.552979,-280.975342,2.529864
-44.403076,1015.045166,-332.794189,2.530595
-38.360596,921.295166,-439.63623,2.531337
-80.383301,882.019043,-444.763184,2.532069
-87.615967,874.694824,-356.506348,2.5328
-88.806152,896.209717,-252.593994,2.533531
-32.409668,927.886963,-252.685547,2.534289
54.199219,935.394287,-366.394043,2.535031
116.546631,957.092285,-381.500244,2.535773
151.428223,998.016357,-344.512939,2.536598
143.096924,990.509033,-307.159424,2.537351
168.365479,987.854004,-284.637451,2.538093
109.130859,1002.7771,-308.990479,2.538835
71.594238,952.697754,-269.165039,2.539577
-21.057129,963.500977,-242.340088,2.540332
-81.207275,997.283936,-248.657227,2.541075
-109.863281,959.014893,-319.061279,2.541816
-146.209717,996.368408,-320.343018,2.542557
-136.871338,994.07959,-243.347168,2.543309
-115.539551,990.783691,-261.657715,2.54405
-19.40918,992.706299,-281.890869,2.544791
19.592285,995.819092,-328.216553,2.545533
80.749512,965.057373,-322.44873,2.546284
93.841553,982.452393,-315.765381,2.547025
91.094971,1008.728027,-308.258057,2.547767
9.155273,1005.615234,-321.166992,2.548508
-37.078857,979.156494,-323.913574,2.549258
-91.186523,981.903076,-321.166992,2.55
-104.736328,999.481201,-344.238281,2.550741
-90.911865,1007.080078,-345.428467,2.551482
-22.43042,960.662842,-348.54126,2.552236
15.655518,976.776123,-357.23877,2.552978
87.06665,1004.241943,-360.351562,2.55372
61.340332,1011.657715,-369.506836,2.554461
54.656982,991.973877,-375.823975,2.555202
63.62915,999.847412,-392.669678,2.555934
70.129395,997.283936,-396.881104,2.556666
39.093018,997.558594,-398.895264,2.557397
24.078369,999.389648,-396.881104,2.558153
16.113281,989.135742,-399.627686,2.558894
-7.049561,987.945557,-398.254395,2.559635
-47.424316,1002.044678,-409.790039,2.560384
-39.276123,996.368408,-405.029297,2.561187
-56.762695,998.382568,-425.262451,2.561936
33.599854,988.586426,-408.416748,2.562677
190.795898,955.810547,-466.094971,2.563419
302.124023,933.013916,-525.054932,2.564184
485.50415,865.631104,-552.337646,2.564924
518.096924,901.611328,-540.893555,2.565665
457.214355,952.514648,-467.559814,2.566409
410.614014,1017.883301,-305.145264,2.567172
271.820068,1007.8125,-454.376221,2.56792
265.411377,994.720459,-226.226807,2.568687
226.501465,964.782715,-215.057373,2.569434
117.004395,987.854004,-333.343506,2.570176
35.15625,985.656738,-340.759277,2.570916
-81.939697,990.692139,-227.508545,2.571657
-207.550049,1042.785645,-180.267334,2.572399
-229.431152,1051.483154,-200.775146,2.57314
-284.179688,1003.78418,-322.814941,2.573884
-277.862549,981.170654,-412.902832,2.574626
-180.81665,952.514648,-425.445557,2.575368
-70.3125,921.661377,-557.006836,2.576109
-18.035889,934.112549,-528.808594,2.57685
1.00708,974.029541,-491.912842,2.577591
-129.180908,941.253662,-588.775635,2.578335
-265.50293,929.718018,-542.08374,2.579078
-216.156006,921.661377,-562.408447,2.57982
-205.352783,928.344727,-647.003174,2.580561
-238.40332,862.335205,-680.69458,2.581303
-139.434814,941.436768,-628.967285,2.582045
-21.697998,948.760986,-625.671387,2.582786
166.625977,896.484375,-708.343506,2.583527
269.53125,783.691406,-721.5271,2.584268
311.187744,765.289307,-708.251953,2.585009
359.161377,852.996826,-698.455811,2.585751
442.749023,897.583008,-710.906982,2.586492
379.669189,959.289551,-771.881104,2.587233
268.066406,934.570312,-657.165527,2.587975
41.015625,953.338623,-624.206543,2.588716
1299.133301,980.895996,-811.248779,2.589457
741.760254,783.599854,-1066.40625,2.5902
-304.504395,739.837646,-723.632812,2.590942
-185.668945,1158.874512,-14.648438,2.591683
-110.870361,1219.940186,-92.376709,2.592424
177.79541,1096.343994,-361.175537,2.593208
24.719238,1153.289795,-122.772217,2.59395
-418.395996,1224.060059,10.345459,2.594692
-503.448486,1305.358887,85.510254,2.595433
-444.030762,1304.80957,5.950928,2.596167
-277.313232,1271.026611,-16.204834,2.596898
-243.804932,1366.333008,74.798584,2.597629
-226.226807,1388.031006,64.63623,2.59836
-145.019531,1435.272217,108.581543,2.599099
-132.751465,1452.758789,53.100586,2.59984
-126.251221,1443.145752,16.662598,2.60058
-3.387451,1480.407715,-122.589111,2.60132
-70.587158,1490.570068,-171.844482,2.602059
-194.000244,1379.150391,-112.518311,2.602799
-121.21582,1325.958252,-141.906738,2.60354
180.084229,1237.976074,-262.756348,2.604279
223.205566,1135.345459,-388.916016,2.605021
192.626953,1148.986816,-381.04248,2.605761
-24.353027,1100.372314,-453.00293,2.606501
34.515381,1114.837646,-431.213379,2.607325
68.939209,1136.169434,-470.76416,2.608064
258.81958,1080.413818,-500.244141,2.608802
249.481201,991.699219,-591.339111,2.609547
138.885498,987.39624,-636.657715,2.610287
9.979248,947.387695,-570.465088,2.61104
95.214844,984.924316,-538.421631,2.61178
232.177734,999.298096,-516.540527,2.612521
238.952637,962.310791,-565.887451,2.613262
191.070557,960.021973,-612.213135,2.614012
78.094482,970.001221,-628.875732,2.614753
97.503662,970.001221,-483.856201,2.615493
-10.528564,998.10791,-441.467285,2.616234
16.387939,1027.862549,-449.981689,2.616985
71.594238,1024.291992,-411.895752,2.617726
151.611328,1040.863037,-398.712158,2.618466
181.915283,1023.55957,-440.734863,2.619207
167.175293,1025.024414,-431.213379,2.619957
88.989258,1040.130615,-341.217041,2.620697
92.74292,1047.271729,-334.533691,2.621437
157.287598,1058.807373,-341.491699,2.622178
101.531982,1031.158447,-356.231689,2.622927
138.061523,1038.024902,-352.56958,2.623668
94.940186,1048.370361,-363.464355,2.624408
91.552734,1013.305664,-376.373291,2.625148
102.44751,1015.777588,-380.493164,2.625898
100.891113,991.607666,-421.417236,2.626639
93.292236,976.68457,-430.664062,2.62738
111.14502,958.740234,-436.065674,2.628121
116.455078,930.633545,-506.103516,2.628872
110.595703,914.0625,-520.294189,2.629664
113.891602,920.379639,-527.34375,2.630429
88.531494,921.569824,-528.991699,2.63118
88.897705,892.822266,-528.076172,2.631944
102.996826,904.266357,-529.907227,2.632685
142.547607,899.505615,-549.682617,2.633426
132.293701,881.195068,-540.527344,2.63417
125.518799,903.625488,-529.174805,2.634925
94.116211,921.295166,-498.22998,2.635667
95.672607,915.435791,-476.531982,2.636433
103.546143,923.400879,-477.630615,2.637189
100.799561,920.654297,-480.285645,2.637977
89.630127,926.147461,-455.01709,2.638726
93.841553,952.056885,-408.416748,2.639467
102.722168,966.339111,-412.811279,2.640209
99.975586,968.078613,-406.402588,2.640951
79.833984,958.831787,-411.621094,2.641692
64.27002,938.873291,-442.382812,2.642434
63.446045,939.51416,-425.994873,2.643175
77.545166,960.296631,-412.719727,2.643918
80.566406,976.135254,-405.212402,2.64466
67.840576,966.888428,-438.079834,2.645404
68.389893,949.401855,-457.305908,2.646146
64.819336,945.19043,-472.869873,2.646888
65.734863,953.24707,-468.475342,2.647629
65.826416,968.719482,-454.193115,2.648371
76.35498,958.740234,-467.651367,2.649112
94.940186,952.423096,-470.672607,2.649854
77.545166,951.965332,-484.313965,2.650595
69.213867,954.25415,-473.144531,2.651336
62.530518,959.564209,-463.897705,2.652078
63.079834,969.268799,-463.623047,2.65282
80.566406,960.662842,-462.432861,2.653562
75.622559,959.289551,-452.087402,2.654305
79.925537,969.909668,-445.3125,2.655048
68.389893,982.635498,-433.135986,2.655789
58.227539,962.219238,-425.170898,2.656531
70.129395,967.437744,-427.55127,2.657272
78.00293,981.719971,-421.600342,2.658013
73.699951,985.290527,-398.803711,2.658754
73.699951,981.170654,-401.824951,2.659495
80.566406,981.262207,-432.037354,2.660236
92.834473,980.987549,-415.557861,2.660977
79.742432,978.69873,-394.40918,2.661731
75.805664,977.508545,-403.930664,2.662492
67.565918,969.177246,-396.148682,2.663256
100.158691,962.493896,-415.374756,2.664048
113.616943,945.281982,-407.775879,2.664797
95.306396,953.521729,-398.620605,2.665555
97.229004,938.781738,-403.4729,2.666302
92.193604,938.140869,-399.719238,2.667054
105.46875,933.013916,-408.599854,2.667797
111.14502,920.654297,-410.705566,2.668537
113.525391,939.605713,-401.275635,2.669277
105.377197,940.612793,-389.007568,2.670016
110.961914,927.062988,-411.712646,2.670754
129.364014,912.414551,-415.83252,2.671492
112.1521,908.111572,-441.741943,2.672246
111.877441,905.639648,-440.460205,2.673003
103.637695,899.047852,-409.14917,2.673735
136.138916,906.37207,-383.69751,2.674466
145.385742,898.132324,-398.529053,2.675197
149.414062,885.040283,-409.14917,2.675941
104.644775,880.92041,-398.071289,2.676673
106.201172,882.202148,-383.331299,2.677404
145.843506,903.625488,-390.014648,2.678136
150.878906,899.047852,-403.4729,2.67898
144.012451,894.470215,-403.839111,2.679729
121.765137,885.772705,-410.980225,2.68047
133.392334,877.807617,-399.44458,2.681201
154.907227,876.068115,-388.366699,2.681947
188.232422,891.082764,-388.366699,2.682678
193.725586,884.307861,-407.592773,2.683409
156.921387,864.532471,-412.628174,2.68414
157.287598,864.990234,-405.395508,2.684879
163.146973,876.159668,-386.535645,2.68561
197.845459,877.89917,-376.922607,2.686341
200.958252,872.955322,-404.663086,2.687072
177.246094,867.004395,-400.268555,2.687829
140.808105,866.638184,-383.789062,2.68857
170.928955,860.321045,-392.120361,2.689312
196.746826,856.384277,-405.944824,2.690053
192.5354,876.89209,-363.28125,2.690805
169.830322,889.984131,-373.901367,2.691546
183.654785,875.335693,-377.838135,2.692288
185.852051,865.722656,-406.768799,2.693029
195.373535,859.954834,-410.797119,2.69378
190.52124,885.314941,-381.866455,2.694522
164.520264,887.420654,-373.260498,2.695263
182.739258,879.547119,-397.338867,2.696004
191.253662,867.919922,-397.888184,2.696756
184.112549,867.645264,-398.345947,2.697498
170.837402,858.856201,-392.39502,2.698239
162.597656,868.286133,-390.197754,2.69898
168.914795,868.743896,-382.232666,2.699737
171.295166,862.701416,-383.148193,2.700494
175.140381,851.898193,-388.092041,2.701264
171.203613,852.081299,-389.190674,2.702014
145.385742,863.983154,-392.303467,2.70278
156.37207,859.954834,-395.41626,2.703522
163.604736,855.651855,-398.620605,2.704263
162.04834,851.074219,-383.331299,2.705005
154.541016,857.391357,-372.802734,2.705757
146.30127,863.433838,-393.218994,2.706499
155.822754,837.890625,-412.719727,2.70724
157.928467,848.7854,-396.240234,2.707982
148.132324,848.876953,-393.4021,2.708734
152.618408,857.757568,-398.895264,2.709475
147.857666,856.567383,-390.930176,2.710239
140.533447,872.772217,-382.598877,2.710994
131.92749,879.91333,-386.810303,2.71178
135.406494,868.103027,-402.648926,2.712528
134.58252,859.588623,-403.015137,2.71327
133.300781,875.518799,-383.331299,2.714032
126.617432,879.089355,-388.092041,2.714774
121.124268,877.990723,-381.317139,2.715516
130.279541,880.371094,-391.662598,2.716258
136.688232,876.800537,-402.008057,2.717
122.406006,883.026123,-398.986816,2.717741
114.440918,876.525879,-412.536621,2.718482
108.306885,883.483887,-396.789551,2.719224
76.629639,894.287109,-377.01416,2.719966
93.292236,901.611328,-390.289307,2.720707
106.750488,886.505127,-417.84668,2.721448
106.018066,909.851074,-388.366699,2.722189
76.629639,911.682129,-368.95752,2.72294
68.023682,917.358398,-383.422852,2.723682
73.699951,920.654297,-357.971191,2.724423
76.99585,920.196533,-372.619629,2.725165
75.439453,917.541504,-380.0354,2.725908
86.334229,908.203125,-382.507324,2.72665
63.62915,917.449951,-365.478516,2.727396
59.051514,919.73877,-390.838623,2.728137
73.791504,915.710449,-399.078369,2.728879
63.446045,914.245605,-380.950928,2.72962
49.89624,918.640137,-386.901855,2.730361
57.769775,916.809082,-390.197754,2.731103
57.403564,903.167725,-401.367188,2.731846
74.249268,920.10498,-400.360107,2.732587
69.396973,915.161133,-396.42334,2.733328
62.62207,908.660889,-414.001465,2.73407
68.572998,908.843994,-408.782959,2.734824
64.544678,924.407959,-379.486084,2.735566
46.875,929.351807,-370.513916,2.736307
49.255371,919.189453,-388.824463,2.737048
59.234619,913.787842,-376.556396,2.737788
37.445068,917.449951,-368.499756,2.73852
42.84668,925.140381,-359.436035,2.73925
46.875,927.062988,-360.168457,2.739981
35.339355,922.119141,-363.739014,2.740713
24.353027,893.280029,-380.218506,2.741469
30.670166,904.449463,-391.387939,2.742209
42.205811,896.66748,-385.253906,2.742949
33.416748,885.955811,-417.84668,2.743689
28.381348,887.969971,-402.648926,2.744428
17.944336,912.322998,-380.310059,2.745169
25.726318,885.223389,-376.922607,2.745909
33.691406,870.025635,-420.684814,2.746658
40.19165,857.208252,-425.079346,2.747399
12.451172,857.116699,-404.205322,2.748139
2.655029,875.610352,-393.127441,2.748879
35.614014,867.095947,-402.923584,2.749627
28.747559,859.222412,-399.44458,2.750368
14.73999,850.616455,-394.866943,2.751196
2.471924,857.116699,-396.331787,2.751937
7.69043,847.229004,-399.536133,2.752677
12.451172,851.531982,-397.705078,2.753417
13.916016,844.299316,-387.72583,2.754158
7.598877,847.045898,-389.648438,2.754898
2.380371,838.806152,-362.640381,2.75565
-7.781982,851.898193,-365.844727,2.75639
5.67627,848.876953,-383.972168,2.75713
3.570557,839.355469,-377.105713,2.75787
11.077881,835.784912,-380.493164,2.75861
12.634277,833.129883,-382.873535,2.75935
7.141113,828.094482,-378.112793,2.76009
14.465332,836.151123,-386.535645,2.76083
23.986816,828.826904,-388.549805,2.761571
14.190674,831.573486,-371.429443,2.762311
20.324707,836.517334,-391.571045,2.763051
16.937256,824.981689,-386.810303,2.763791
20.782471,828.460693,-392.120361,2.764531
14.923096,821.594238,-391.387939,2.765271
16.296387,832.122803,-383.056641,2.766011
14.190674,828.918457,-405.303955,2.766751
18.4021,815.002441,-401.000977,2.767504
10.437012,825.073242,-380.126953,2.768245
12.451172,825.98877,-398.254395,2.768985
24.810791,822.967529,-398.4375,2.769726
7.781982,826.263428,-362.182617,2.770472
14.282227,834.320068,-363.464355,2.771212
45.684814,832.855225,-379.577637,2.771964
41.564941,826.812744,-384.887695,2.77271
21.789551,829.376221,-375.0,2.773475
17.211914,839.904785,-365.112305,2.774221
27.648926,846.313477,-357.513428,2.774961
42.84668,850.708008,-354.949951,2.775701
56.488037,852.996826,-366.943359,2.776442
47.698975,840.545654,-357.60498,2.777182
13.916016,843.75,-342.041016,2.777922
29.022217,860.137939,-351.928711,2.778663
49.072266,862.609863,-349.090576,2.779404
40.924072,848.968506,-351.745605,2.780145
37.994385,856.933594,-347.900391,2.780885
27.46582,849.243164,-333.80127,2.781626
53.741455,859.680176,-332.794189,2.78242
62.438965,854.46167,-339.752197,2.783172
36.895752,841.278076,-335.449219,2.783936
38.360596,838.165283,-352.752686,2.784683
50.354004,846.405029,-348.083496,2.785447
48.339844,859.222412,-329.13208,2.786189
46.051025,875.976562,-335.083008,2.78693
10.894775,857.391357,-327.667236,2.787671
21.697998,854.278564,-342.315674,2.788448
33.050537,863.15918,-339.111328,2.78919
43.029785,860.870361,-332.977295,2.789931
58.959961,865.081787,-331.512451,2.790673
43.670654,871.398926,-344.696045,2.791425
53.192139,869.293213,-342.590332,2.792167
77.270508,867.370605,-359.344482,2.792909
84.320068,864.257812,-367.034912,2.79365
94.116211,866.455078,-366.30249,2.794401
79.376221,877.89917,-369.781494,2.795143
62.713623,874.603271,-343.963623,2.795884
72.143555,869.018555,-350.097656,2.796625
69.946289,862.060547,-356.964111,2.797376
65.002441,860.229492,-331.604004,2.798118
74.615479,870.300293,-339.111328,2.798859
72.418213,871.398926,-336.730957,2.7996
55.755615,865.539551,-333.618164,2.800351
52.093506,865.997314,-330.047607,2.801093
53.55835,868.286133,-326.11084,2.801834
54.382324,879.180908,-323.455811,2.802575
15.838623,869.20166,-332.977295,2.803326
21.972656,862.518311,-309.173584,2.804068
40.649414,876.89209,-327.667236,2.804809
56.671143,889.526367,-309.631348,2.80555
38.085938,872.497559,-310.913086,2.8063
25.177002,859.130859,-334.80835,2.807042
29.937744,851.44043,-327.667236,2.807783
45.410156,862.060547,-323.822021,2.808524
53.649902,864.440918,-330.871582,2.809265
47.515869,861.877441,-332.244873,2.809997
54.199219,857.299805,-342.224121,2.810728
59.509277,857.940674,-343.963623,2.811459
62.805176,852.355957,-338.928223,2.81221
90.454102,854.003906,-353.668213,2.812951
80.932617,859.771729,-352.203369,2.813692
75.164795,857.208252,-336.181641,2.814432
80.841064,852.813721,-350.280762,2.815186
82.489014,850.616455,-350.55542,2.815941
71.411133,845.306396,-357.60498,2.816684
55.206299,851.165771,-338.104248,2.817425
65.460205,855.285645,-336.090088,2.818181
74.157715,848.7854,-337.188721,2.818921
80.01709,847.595215,-341.217041,2.819659
73.608398,853.271484,-340.942383,2.820411
68.389893,853.271484,-339.569092,2.821172
72.601318,853.363037,-327.575684,2.821904
87.890625,862.060547,-323.272705,2.822635
87.06665,861.877441,-334.075928,2.823447
86.425781,867.004395,-324.554443,2.824193
86.883545,861.694336,-326.843262,2.824925
113.067627,862.426758,-333.618164,2.825655
101.898193,866.638184,-328.582764,2.826386
105.102539,857.849121,-330.780029,2.827129
98.7854,851.623535,-325.378418,2.82786
106.750488,864.16626,-321.716309,2.828592
105.285645,860.046387,-317.047119,2.829323
108.398438,854.095459,-317.504883,2.83008
113.983154,854.919434,-319.793701,2.830822
113.983154,864.349365,-308.624268,2.831564
113.15918,858.48999,-304.229736,2.832305
121.490479,860.870361,-304.870605,2.833055
111.968994,861.51123,-323.822021,2.833797
108.673096,862.884521,-307.70874,2.834538
109.954834,861.785889,-303.314209,2.835279
109.039307,864.624023,-299.835205,2.83603
113.525391,855.834961,-302.124023,2.836772
122.406006,856.658936,-303.588867,2.837513
122.2229,863.433838,-301.757812,2.838254
123.962402,867.462158,-301.849365,2.839007
128.082275,864.624023,-309.173584,2.839748
133.300781,858.581543,-309.906006,2.840489
132.293701,861.602783,-317.871094,2.841231
124.969482,868.377686,-304.595947,2.841981
132.110596,868.19458,-312.927246,2.842723
129.547119,860.50415,-317.779541,2.843465
128.356934,865.631104,-315.948486,2.844214
128.448486,874.053955,-309.631348,2.844995
139.251709,878.265381,-317.138672,2.845746
135.040283,874.694824,-316.131592,2.846487
119.476318,874.694824,-309.356689,2.847229
130.462646,881.286621,-300.292969,2.84797
129.91333,888.702393,-301.116943,2.848712
127.258301,879.364014,-304.779053,2.849454
128.082275,883.94165,-311.279297,2.850196
131.378174,886.230469,-310.36377,2.850961
129.455566,879.455566,-307.525635,2.851717
132.202148,875.976562,-313.201904,2.852475
128.90625,881.195068,-317.230225,2.853251
125.610352,884.216309,-317.596436,2.853992
125.427246,881.103516,-326.202393,2.854733
122.314453,887.695312,-321.350098,2.855474
137.695312,889.984131,-327.484131,2.856226
127.716064,880.737305,-324.554443,2.856968
128.356934,895.202637,-317.779541,2.857709
122.680664,887.237549,-334.80835,2.85845
115.356445,891.174316,-307.800293,2.859205
125.244141,892.822266,-329.681396,2.859947
119.20166,895.477295,-329.498291,2.860694
118.286133,901.062012,-330.505371,2.861435
105.010986,897.583008,-321.258545,2.862185
106.658936,902.069092,-321.258545,2.862927
109.680176,917.633057,-312.286377,2.863669
113.15918,909.118652,-311.737061,2.864409
109.313965,903.900146,-320.617676,2.865161
97.137451,917.08374,-312.927246,2.865902
94.573975,922.576904,-298.736572,2.866643
98.602295,924.041748,-303.863525,2.867385
103.088379,916.534424,-306.335449,2.868136
101.257324,916.07666,-311.37085,2.868878
91.552734,922.393799,-307.891846,2.869619
88.531494,922.302246,-313.476562,2.87036
89.263916,915.252686,-312.744141,2.871112
76.538086,919.006348,-313.38501,2.871854
83.862305,923.034668,-304.595947,2.872595
94.940186,929.443359,-312.744141,2.873337
92.102051,926.78833,-331.329346,2.874093
70.3125,920.654297,-328.033447,2.874834
64.361572,910.949707,-328.857422,2.875575
62.347412,907.653809,-319.702148,2.876316
76.263428,915.252686,-326.843262,2.877024
51.635742,911.499023,-333.709717,2.877766
56.671143,902.526855,-333.068848,2.878507
58.410645,906.829834,-336.639404,2.879249
70.861816,912.963867,-325.10376,2.879996
62.438965,910.766602,-317.596436,2.880729
67.29126,901.062012,-325.653076,2.88146
54.931641,896.942139,-332.885742,2.882191
43.121338,888.702393,-325.469971,2.882946
50.628662,893.554688,-333.251953,2.883687
59.417725,888.244629,-321.624756,2.884429
54.931641,887.786865,-327.026367,2.885171
48.156738,889.984131,-336.547852,2.885922
37.902832,883.575439,-339.569092,2.886664
36.437988,876.89209,-333.984375,2.887405
49.438477,879.638672,-320.983887,2.888147
61.431885,873.321533,-332.244873,2.8889
54.656982,859.588623,-346.343994,2.889641
42.938232,858.581543,-347.442627,2.890382
45.959473,857.574463,-337.82959,2.891123
44.952393,858.398438,-344.055176,2.891874
57.403564,855.102539,-337.463379,2.892616
56.396484,853.820801,-331.329346,2.893357
35.064697,848.876953,-334.350586,2.894099
29.47998,846.679688,-350.280762,2.89494
31.494141,847.045898,-336.547852,2.895683
43.85376,854.827881,-343.048096,2.896424
60.791016,852.996826,-339.477539,2.897165
53.649902,857.116699,-347.259521,2.897916
31.585693,852.630615,-342.86499,2.898657
29.388428,868.011475,-327.392578,2.899398
29.205322,869.293213,-318.511963,2.90014
41.19873,865.722656,-316.40625,2.900891
36.621094,866.18042,-322.08252,2.901632
35.980225,867.828369,-322.998047,2.902374
36.529541,865.447998,-312.011719,2.903115
36.254883,862.976074,-320.159912,2.903866
34.973145,862.609863,-324.829102,2.904607
36.346436,872.955322,-321.44165,2.905348
28.289795,867.736816,-306.152344,2.906089
54.382324,872.406006,-303.771973,2.90684
58.502197,868.927002,-311.737061,2.907582
41.381836,860.687256,-311.096191,2.908323
41.107178,866.821289,-313.476562,2.909064
46.875,875.88501,-313.38501,2.909834
50.079346,862.792969,-304.595947,2.910589
51.635742,868.469238,-312.561035,2.91136
45.501709,865.081787,-312.652588,2.912149
62.438965,865.264893,-307.434082,2.912921
70.3125,875.518799,-300.567627,2.913676
65.093994,870.117188,-301.116943,2.914491
63.720703,867.004395,-321.899414,2.915258
65.551758,867.828369,-319.061279,2.916014
78.369141,874.786377,-299.560547,2.916808
60.60791,879.821777,-295.440674,2.917564
70.678711,871.948242,-308.074951,2.918305
78.094482,873.413086,-304.6875,2.919108
67.840576,877.349854,-285.919189,2.919887
71.228027,872.680664,-292.877197,2.920633
73.33374,874.053955,-301.208496,2.921385
80.01709,869.934082,-320.617676,2.922124
69.580078,872.314453,-296.264648,2.922854
81.207275,872.86377,-294.342041,2.923585
91.094971,868.011475,-308.258057,2.924318
97.045898,868.927002,-318.786621,2.92505
77.362061,870.391846,-308.349609,2.925782
75.714111,879.547119,-309.539795,2.926513
83.770752,882.293701,-291.137695,2.927274
85.510254,882.385254,-286.376953,2.928006
83.587646,875.152588,-294.708252,2.928737
75.714111,881.561279,-291.412354,2.929469
65.551758,875.335693,-289.764404,2.930208
75.622559,889.709473,-305.786133,2.930941
82.580566,876.617432,-311.37085,2.931672
84.411621,877.89917,-296.905518,2.932403
79.650879,884.674072,-281.799316,2.933137
90.454102,879.821777,-283.355713,2.933877
83.03833,875.152588,-291.503906,2.934608
90.454102,868.103027,-321.533203,2.935338
92.74292,860.50415,-288.116455,2.93607
96.588135,877.166748,-288.848877,2.936802
85.327148,890.441895,-270.355225,2.937533
82.397461,890.716553,-304.504395,2.938264
76.812744,870.300293,-333.709717,2.938996
77.362061,869.476318,-274.291992,2.939727
61.523438,889.801025,-244.354248,2.940458
75.073242,884.399414,-297.363281,2.941189
78.918457,860.229492,-344.238281,2.941922
65.643311,844.75708,-329.498291,2.942653
64.63623,857.940674,-297.363281,2.943385
91.003418,869.293213,-285.003662,2.944115
102.905273,870.391846,-314.39209,2.944847
75.897217,848.327637,-341.949463,2.945578
60.791016,836.883545,-366.760254,2.946309
64.910889,830.841064,-320.526123,2.947039
79.559326,849.700928,-295.074463,2.94777
95.855713,848.602295,-310.72998,2.948522
73.242188,846.588135,-337.554932,2.949253
47.424316,833.312988,-361.999512,2.949984
55.206299,829.193115,-348.358154,2.950715
51.452637,820.037842,-357.788086,2.951456
64.727783,823.608398,-352.111816,2.952188
62.438965,821.228027,-341.583252,2.952919
64.361572,815.2771,-346.069336,2.953649
84.686279,801.544189,-372.711182,2.95439
80.291748,799.072266,-383.880615,2.955121
68.023682,774.169922,-350.921631,2.955852
52.185059,805.206299,-347.991943,2.956584
53.100586,809.326172,-373.077393,2.957343
42.388916,793.304443,-398.620605,2.958104
38.269043,789.367676,-412.811279,2.958857
41.290283,787.811279,-403.015137,2.959602
49.255371,792.022705,-355.041504,2.960399
65.185547,801.177979,-380.584717,2.961163
44.586182,789.276123,-404.47998,2.96192
23.345947,787.628174,-412.078857,2.962719
-9.338379,767.211914,-406.311035,2.963477
15.106201,795.501709,-382.873535,2.964234
40.008545,830.200195,-371.429443,2.965017
51.727295,888.702393,-356.506348,2.965786
80.108643,913.970947,-312.194824,2.966518
66.28418,928.070068,-288.757324,2.967249
65.460205,933.746338,-271.636963,2.968065
44.128418,916.900635,-268.981934,2.968809
38.635254,891.448975,-248.931885,2.969541
67.657471,900.604248,-252.13623,2.970271
80.566406,900.787354,-354.766846,2.971002
56.57959,898.864746,-397.064209,2.971741
12.176514,873.779297,-345.245361,2.972472
20.782471,896.575928,-292.694092,2.973203
82.946777,913.146973,-276.031494,2.973934
58.685303,946.838379,-297.637939,2.974685
36.16333,936.767578,-319.152832,2.975422
-25.817871,917.633057,-319.610596,2.976168
-68.756104,898.956299,-354.858398,2.976911
-57.678223,883.94165,-366.210938,2.977664
-16.113281,862.426758,-376.922607,2.978407
-0.823975,855.651855,-438.995361,2.979149
-3.02124,842.468262,-433.044434,2.979891
30.395508,838.7146,-420.776367,2.980646
46.417236,813.079834,-494.567871,2.981388
-43.85376,795.135498,-479.370117,2.982129
-115.081787,777.648926,-500.244141,2.982871
-86.608887,784.057617,-537.597656,2.983622
-65.917969,778.015137,-495.20874,2.984373
-30.029297,793.395996,-501.800537,2.985124
-34.423828,795.959473,-474.609375,2.985886
-64.453125,800.994873,-526.794434,2.986662
-89.538574,740.020752,-656.524658,2.987404
-146.118164,690.582275,-764.556885,2.988146
-252.960205,625.488281,-799.987793,2.988887
-211.029053,623.016357,-738.922119,2.989639
-174.499512,654.693604,-688.842773,2.990381
8.148193,687.469482,-725.55542,2.991139
-66.009521,665.496826,-813.262939,2.991895
-134.857178,632.171631,-843.933105,2.992667
-204.89502,587.585449,-948.577881,2.993435
-154.907227,563.323975,-1014.49585,2.994176
-78.186035,529.541016,-894.104004,2.994918
-701.202393,698.822021,-721.893311,2.995659
-572.021484,823.791504,-741.027832,2.996401
-238.220215,760.71167,-773.4375,2.997142
-855.926514,519.378662,-822.509766,2.997884
-1201.629639,461.242676,-867.004395,2.998625
-1107.60498,438.903809,-926.78833,2.999367
-420.959473,663.391113,-869.476318,3.000111
-210.113525,813.079834,-652.679443,3.000853
232.635498,748.260498,-539.154053,3.001595
213.043213,702.392578,-351.745605,3.002337
502.807617,726.013184,-467.193604,3.003078
668.97583,834.320068,-586.669922,3.00382
603.881836,762.542725,-739.196777,3.004562
638.85498,747.253418,-763.641357,3.005312
816.741943,821.777344,-707.336426,3.006058
842.74292,882.751465,-536.956787,3.006801
733.978271,1019.439697,-403.656006,3.007542
839.538574,1115.570068,-197.296143,3.008283
954.711914,1090.026855,-82.214355,3.009025
950.042725,1124.359131,-131.378174,3.009766
948.852539,1084.16748,-295.806885,3.010507
938.140869,1055.603027,-382.873535,3.011249
892.730713,1002.319336,-454.193115,3.01199
940.704346,988.952637,-592.071533,3.012732
916.717529,890.625,-663.94043,3.013474
937.591553,852.264404,-718.414307,3.014215
829.559326,885.955811,-711.273193,3.014957
680.69458,929.718018,-549.499512,3.015721
655.426025,1214.996338,-273.925781,3.016463
424.346924,1269.65332,-77.911377,3.017204
434.051514,1267.181396,95.76416,3.017945
466.369629,1272.766113,-17.852783,3.018683
296.264648,1225.708008,-90.637207,3.019414
258.361816,1170.318604,-183.105469,3.020146
204.620361,1125.183105,-213.684082,3.020877
103.912354,1051.483154,-309.173584,3.021612
83.129883,992.06543,-446.044922,3.022353
-404.296875,777.648926,-482.391357,3.023092
-703.674316,671.905518,-702.941895,3.023832
-908.203125,711.914062,-747.619629,3.024571
-1463.928223,935.302734,-361.358643,3.025311
-1560.699463,1069.335938,148.590088,3.026051
-1983.581543,1178.833008,185.668945,3.02679
-1890.472412,1198.242188,5.401611,3.027531
-1291.168213,1251.708984,-80.474854,3.028271
-944.091797,1225.891113,-30.578613,3.02901
-776.45874,1187.713623,-18.493652,3.02975
-364.746094,1166.8396,-64.544678,3.030501
-197.20459,1181.57959,-155.36499,3.031242
-106.109619,1193.572998,-154.174805,3.031983
212.768555,1204.650879,-109.49707,3.032722
320.159912,1147.979736,-134.58252,3.033462
306.793213,1112.823486,-213.043213,3.034201
300.842285,1081.054688,-350.738525,3.034941
315.39917,1059.997559,-396.148682,3.035682
359.710693,1028.22876,-407.501221,3.036421
400.817871,1037.750244,-445.861816,3.037161
420.135498,1039.764404,-452.819824,3.037987
480.46875,1017.51709,-450.531006,3.03873
489.990234,999.755859,-446.777344,3.039484
503.814697,980.621338,-452.270508,3.040224
482.116699,980.072021,-467.926025,3.040964
483.581543,984.008789,-473.602295,3.041704
471.679688,959.381104,-484.49707,3.042453
468.200684,925.323486,-524.597168,3.043192
450.256348,908.935547,-549.591064,3.043932
401.092529,872.131348,-602.050781,3.044671
377.380371,842.74292,-663.848877,3.045421
318.328857,796.966553,-694.610596,3.046161
236.114502,740.29541,-757.965088,3.0469
261.566162,758.056641,-680.969238,3.04764
103.45459,948.669434,-446.685791,3.04839
-152.34375,1168.762207,-39.001465,3.04913
-398.4375,1224.609375,122.497559,3.049869
-664.123535,1260.406494,219.177246,3.050609
-873.504639,1254.272461,114.898682,3.051349
-929.260254,1267.63916,64.361572,3.052089
-959.838867,1247.955322,27.191162,3.052829
-994.720459,1243.286133,18.676758,3.053569
-801.727295,1233.032227,-25.177002,3.054309
-705.963135,1210.418701,-81.481934,3.055049
-445.404053,1162.078857,-126.800537,3.055788
-176.422119,1084.075928,-258.81958,3.056527
-44.036865,1054.504395,-324.371338,3.057277
139.160156,985.565186,-419.586182,3.058018
170.837402,979.431152,-444.488525,3.058757
248.931885,969.63501,-444.580078,3.059497
247.10083,986.022949,-417.84668,3.060246
255.432129,1003.417969,-381.68335,3.060996
243.713379,1031.341553,-370.147705,3.061741
231.994629,1039.215088,-348.266602,3.062506
237.487793,1038.482666,-332.244873,3.063275
210.296631,1028.869629,-336.090088,3.064015
212.585449,1015.869141,-354.858398,3.064755
213.226318,1017.059326,-372.436523,3.065495
208.831787,983.36792,-381.225586,3.066236
200.592041,970.092773,-391.75415,3.06698
186.584473,947.113037,-408.416748,3.067743
150.695801,935.760498,-416.473389,3.068493
123.962402,917.633057,-427.642822,3.069261
77.728271,904.083252,-453.00293,3.07001
67.657471,898.681641,-460.510254,3.070751
46.417236,886.871338,-463.806152,3.071492
36.712646,886.138916,-466.827393,3.072246
28.198242,884.857178,-452.087402,3.072988
23.712158,885.223389,-445.953369,3.073729
34.515381,891.906738,-436.065674,3.07447
38.818359,890.075684,-438.537598,3.075224
68.847656,888.885498,-425.079346,3.075966
53.649902,885.955811,-431.304932,3.076708
71.136475,866.18042,-446.502686,3.077449
67.199707,861.877441,-462.982178,3.078201
71.868896,853.546143,-463.806152,3.078942
69.671631,844.207764,-465.72876,3.079683
76.446533,844.940186,-450.531006,3.080423
68.481445,847.595215,-444.396973,3.081174
71.411133,839.72168,-437.438965,3.081915
66.101074,837.524414,-442.932129,3.082656
73.608398,830.932617,-450.98877,3.083396
69.30542,826.99585,-449.066162,3.084147
63.446045,828.643799,-445.953369,3.084888
67.199707,822.32666,-438.262939,3.085629
75.622559,824.249268,-439.63623,3.08637
68.115234,811.340332,-438.812256,3.087119
73.059082,818.664551,-438.171387,3.08786
76.904297,813.262939,-438.995361,3.088601
68.847656,800.994873,-443.206787,3.089342
62.713623,798.980713,-466.918945,3.090093
60.791016,802.001953,-441.467285,3.090834
62.713623,793.121338,-443.756104,3.091574
61.523438,799.713135,-442.565918,3.092315
62.805176,790.557861,-448.150635,3.093064
67.749023,794.952393,-453.094482,3.093807
64.819336,788.818359,-454.193115,3.094548
59.234619,790.374756,-435.516357,3.095289
61.61499,800.720215,-436.157227,3.096031
51.177979,789.276123,-444.122314,3.096762
54.107666,777.099609,-439.178467,3.097493
46.966553,790.19165,-439.086914,3.098224
43.304443,794.036865,-446.685791,3.098975
45.959473,791.107178,-467.834473,3.099714
44.586182,785.705566,-456.207275,3.100454
41.748047,818.115234,-451.171875,3.101193
44.952393,796.783447,-449.432373,3.101943
45.959473,808.227539,-437.438965,3.102682
41.290283,806.671143,-441.28418,3.103421
38.085938,809.051514,-442.29126,3.104161
40.19165,814.453125,-445.037842,3.104908
35.15625,814.544678,-448.059082,3.105645
26.733398,809.417725,-447.052002,3.106392
25.634766,814.086914,-439.178467,3.107134
24.353027,812.347412,-440.093994,3.107885
28.4729,816.375732,-441.467285,3.108626
29.205322,810.60791,-447.784424,3.10945
30.670166,817.29126,-449.890137,3.110191
35.339355,818.939209,-456.298828,3.110942
31.677246,819.030762,-452.270508,3.11168
26.275635,819.122314,-453.460693,3.112425
24.44458,825.439453,-456.02417,3.113163
19.40918,819.396973,-446.594238,3.113919
19.683838,818.115234,-452.178955,3.114655
7.965088,827.178955,-449.157715,3.115386
-0.274658,825.439453,-448.425293,3.116116
6.866455,830.291748,-450.98877,3.116857
3.570557,831.939697,-444.580078,3.117588
5.767822,829.193115,-449.066162,3.118318
5.493164,833.312988,-442.749023,3.119049
-3.295898,827.545166,-456.207275,3.119793
3.753662,834.04541,-460.235596,3.120524
8.880615,832.580566,-468.475342,3.121254
1.098633,834.228516,-467.468262,3.121985
-2.288818,834.228516,-460.327148,3.122741
-4.486084,824.249268,-467.285156,3.123482
-3.204346,829.833984,-468.933105,3.124223
-7.69043,824.981689,-466.73584,3.124964
-9.887695,825.98877,-469.299316,3.125715
-13.73291,827.911377,-471.77124,3.126456
-7.232666,823.699951,-469.299316,3.127198
-17.303467,834.869385,-473.510742,3.127938
-11.169434,830.657959,-471.313477,3.128688
-19.866943,839.263916,-472.686768,3.129429
-23.254395,835.235596,-475.341797,3.130171
-23.986816,843.75,-463.256836,3.130919
-10.620117,837.799072,-447.967529,3.1317
-18.218994,844.573975,-467.102051,3.132451
-17.303467,839.538574,-472.961426,3.133193
-15.930176,844.390869,-473.693848,3.133934
-17.852783,849.243164,-465.454102,3.134675
-23.895264,850.799561,-468.658447,3.135416
-24.169922,850.799561,-466.73584,3.136157
-31.036377,849.975586,-482.208252,3.136922
-30.303955,858.123779,-479.187012,3.137674
-24.993896,857.757568,-474.42627,3.138434
-35.522461,852.813721,-481.842041,3.139181
-30.395508,858.581543,-475.891113,3.139948
-32.501221,860.961914,-475.799561,3.140689
-23.712158,861.602783,-485.961914,3.141429
-20.050049,861.51123,-478.820801,3.14217
-19.500732,861.328125,-486.419678,3.142911
-26.184082,857.025146,-490.905762,3.143652
-28.381348,845.123291,-484.405518,3.144394
-31.12793,873.22998,-478.179932,3.145135
-28.930664,872.680664,-479.370117,3.145877
-28.747559,875.152588,-474.243164,3.146619
-26.367188,875.976562,-471.313477,3.14736
-24.536133,875.610352,-487.426758,3.148101
-27.099609,873.596191,-472.77832,3.148842
-24.536133,867.553711,-485.687256,3.149582
-20.050049,871.124268,-481.842041,3.150324
-21.697998,860.046387,-486.877441,3.151064
-22.521973,869.293213,-484.49707,3.151806
-20.050049,862.701416,-484.039307,3.152547
-18.768311,861.785889,-482.574463,3.153288
-19.40918,865.447998,-493.652344,3.154029
-17.303467,861.694336,-490.539551,3.154783
-24.993896,864.16626,-491.455078,3.155524
-26.000977,859.588623,-469.207764,3.156265
-25.360107,868.286133,-482.116699,3.157006
-20.324707,867.004395,-483.581543,3.157756
-17.303467,868.103027,-489.16626,3.158498
-13.092041,865.997314,-482.757568,3.159238
-17.669678,867.004395,-492.462158,3.159979
-14.648438,866.729736,-490.539551,3.160721
-17.028809,867.1875,-488.708496,3.161462
-14.923096,861.51123,-495.941162,3.162202
-12.451172,865.264893,-487.060547,3.162943
-17.578125,862.335205,-481.933594,3.163687
-16.571045,858.947754,-483.581543,3.164418
-9.063721,857.025146,-485.50415,3.165149
-5.310059,862.426758,-489.624023,3.16588
-4.302979,866.271973,-480.743408,3.166619
-3.845215,890.075684,-484.405518,3.167359
0.183105,865.722656,-486.785889,3.168099
-6.500244,872.497559,-483.48999,3.16884
-7.69043,868.286133,-484.49707,3.169588
-5.493164,867.004395,-486.328125,3.170328
-2.838135,866.088867,-488.708496,3.171068
-8.880615,867.645264,-477.630615,3.171807
3.295898,875.88501,-480.46875,3.172557
7.324219,869.842529,-484.405518,3.173297
5.584717,870.300293,-475.250244,3.174036
7.324219,879.730225,-484.49707,3.174776
8.422852,874.053955,-485.046387,3.175526
12.72583,870.849609,-486.694336,3.176266
4.577637,875.88501,-478.271484,3.177006
3.387451,870.483398,-489.074707,3.177745
-0.274658,873.504639,-478.637695,3.178494
6.774902,872.86377,-475.891113,3.179234
6.500244,874.145508,-470.76416,3.179973
4.486084,865.997314,-470.489502,3.180713
10.070801,875.793457,-478.820801,3.181538
18.218994,878.356934,-473.7854,3.182279
19.500732,875.793457,-482.299805,3.183019
20.141602,869.567871,-481.47583,3.18376
19.226074,871.307373,-481.292725,3.184511
18.218994,875.244141,-480.926514,3.185251
17.852783,865.814209,-478.637695,3.185991
13.366699,863.15918,-479.919434,3.186731
8.331299,860.595703,-483.581543,3.18748
13.824463,862.426758,-477.44751,3.18822
14.648438,859.863281,-485.321045,3.18896
13.549805,863.342285,-472.686768,3.1897
18.951416,859.039307,-475.158691,3.190449
13.458252,848.327637,-484.49707,3.191189
18.4021,854.095459,-480.651855,3.191929
17.669678,862.1521,-478.729248,3.192669
17.303467,864.898682,-475.708008,3.193419
20.599365,852.996826,-481.933594,3.194159
15.930176,849.334717,-486.053467,3.194899
11.444092,852.081299,-481.567383,3.195638
10.253906,850.250244,-480.285645,3.196378
9.063721,852.172852,-483.123779,3.197118
11.993408,859.49707,-482.025146,3.197857
4.302979,847.137451,-479.736328,3.198597
13.641357,860.778809,-478.088379,3.199337
9.613037,858.48999,-480.560303,3.200077
10.620117,862.426758,-483.947754,3.200816
8.69751,838.897705,-483.123779,3.201556
5.126953,860.778809,-479.644775,3.202305
-1.831055,846.77124,-484.405518,3.203049
4.119873,848.052979,-481.933594,3.203814
9.155273,845.855713,-474.975586,3.20456
10.253906,853.179932,-475.067139,3.205324
11.352539,846.496582,-483.856201,3.206064
8.972168,847.045898,-479.827881,3.206805
12.817383,852.905273,-484.588623,3.207571
9.155273,842.926025,-478.45459,3.208345
-2.655029,841.369629,-488.15918,3.20911
-3.845215,847.961426,-490.356445,3.209858
-1.922607,843.475342,-484.039307,3.210599
0.915527,841.461182,-481.018066,3.211358
-0.549316,845.855713,-482.208252,3.212101
0.274658,853.271484,-488.983154,3.212841
20.965576,859.49707,-492.095947,3.213581
12.176514,863.983154,-494.659424,3.214332
0.183105,852.44751,-501.159668,3.215073
2.01416,862.884521,-500.244141,3.215814
-3.112793,871.948242,-498.687744,3.216554
2.563477,871.21582,-492.279053,3.217303
-0.915527,872.955322,-492.1875,3.218045
-11.352539,875.061035,-493.103027,3.218787
-13.458252,882.568359,-493.652344,3.219528
-9.613037,889.61792,-491.455078,3.22028
-15.014648,882.293701,-492.645264,3.221021
-11.901855,876.708984,-496.582031,3.221762
-11.993408,873.413086,-498.321533,3.222502
-6.500244,879.730225,-493.103027,3.223253
-0.640869,878.356934,-497.406006,3.223994
-7.415771,875.152588,-497.86377,3.224734
-10.528564,876.159668,-504.364014,3.225475
-14.465332,882.019043,-498.962402,3.226225
-21.881104,884.94873,-509.307861,3.226966
-19.40918,881.378174,-503.631592,3.227707
-18.310547,887.969971,-507.568359,3.228448
-13.275146,895.111084,-499.145508,3.229199
-11.535645,888.336182,-502.166748,3.229939
-10.345459,898.956299,-503.448486,3.23068
-11.993408,909.210205,-504.547119,3.231421
-10.620117,894.927979,-499.786377,3.232171
-11.810303,892.822266,-494.934082,3.232911
-9.70459,899.32251,-502.716064,3.233652
-13.73291,889.801025,-500.701904,3.234392
-8.789062,901.428223,-498.046875,3.235132
-10.528564,905.639648,-491.455078,3.235863
-12.817383,898.956299,-506.561279,3.236594
-8.69751,898.223877,-507.659912,3.237326
-16.571045,891.998291,-506.835938,3.238077
-20.141602,898.132324,-500.701904,3.238817
-17.303467,901.153564,-502.624512,3.239557
-18.493652,901.519775,-501.068115,3.240297
-20.782471,898.956299,-498.962402,3.241047
-18.035889,900.695801,-496.582031,3.241787
-21.240234,899.780273,-494.476318,3.242527
-11.71875,898.864746,-501.251221,3.243268
-20.141602,902.252197,-494.567871,3.244023
-24.078369,896.759033,-497.039795,3.244763
-25.177002,904.35791,-493.377686,3.245502
-18.676758,899.688721,-491.455078,3.246242
-22.521973,900.787354,-493.469238,3.247009
-18.585205,897.033691,-497.955322,3.247752
-18.035889,893.829346,-511.047363,3.248492
-19.500732,892.364502,-496.948242,3.249231
-26.092529,891.998291,-495.117188,3.249983
-28.747559,895.294189,-493.286133,3.250723
-23.803711,890.350342,-472.229004,3.251463
-29.205322,887.512207,-500.88501,3.252203
-28.4729,886.047363,-497.589111,3.252953
-28.015137,879.91333,-500.244141,3.253777
-19.958496,882.568359,-500.793457,3.254518
-20.324707,887.329102,-509.124756,3.255258
-23.620605,880.371094,-500.061035,3.255997
-24.902344,883.026123,-498.321533,3.256736
-17.76123,875.976562,-493.469238,3.257476
-25.634766,880.004883,-496.032715,3.258216
-20.782471,881.103516,-486.785889,3.258953
-21.42334,881.744385,-487.335205,3.25969
-23.071289,874.511719,-491.088867,3.26044
-22.888184,883.026123,-488.525391,3.261175
-18.035889,877.075195,-483.947754,3.261906
-14.648438,871.490479,-479.644775,3.262637
-11.810303,874.237061,-487.884521,3.263369
-4.119873,875.152588,-481.933594,3.264103
-10.070801,871.21582,-482.574463,3.264835
-8.605957,867.462158,-488.800049,3.265565
-2.563477,864.440918,-493.835449,3.266296
-3.295898,858.032227,-485.412598,3.267042
-7.873535,863.15918,-478.363037,3.267775
-12.908936,863.433838,-480.743408,3.268506
-10.620117,861.419678,-483.215332,3.269236
-4.852295,862.976074,-485.687256,3.269981
-12.634277,866.455078,-490.722656,3.270722
-6.225586,860.778809,-478.088379,3.271463
-1.098633,866.912842,-479.919434,3.272204
5.126953,873.687744,-475.43335,3.272945
-7.232666,868.560791,-471.496582,3.273686
-7.141113,863.616943,-475.616455,3.274434
0.915527,864.990234,-475.616455,3.275195
1.281738,867.828369,-477.813721,3.275946
-1.922607,867.095947,-473.7854,3.276686
-6.958008,864.349365,-472.869873,3.277427
-3.479004,872.497559,-461.791992,3.278167
-2.105713,875.610352,-479.003906,3.278909
6.591797,879.547119,-471.221924,3.279665
1.739502,882.659912,-463.348389,3.280425
-0.091553,873.87085,-477.081299,3.28117
2.746582,870.941162,-468.841553,3.281954
-1.739502,867.553711,-474.151611,3.2827
5.859375,864.624023,-466.644287,3.28344
14.282227,872.772217,-473.693848,3.28418
16.571045,868.011475,-469.390869,3.284932
9.796143,868.652344,-474.517822,3.285673
15.655518,864.257812,-481.567383,3.286414
20.050049,875.701904,-474.700928,3.287155
13.641357,879.730225,-476.989746,3.287907
18.4021,876.159668,-467.834473,3.288648
7.69043,877.807617,-465.179443,3.289388
10.437012,879.180908,-462.341309,3.290132
11.993408,879.821777,-457.397461,3.29089
12.542725,874.420166,-465.545654,3.291632
11.627197,880.096436,-463.439941,3.292373
13.366699,878.723145,-465.270996,3.293113
13.916016,877.258301,-457.946777,3.293864
20.507812,869.20166,-458.770752,3.294605
20.141602,873.962402,-469.665527,3.295346
16.204834,874.420166,-464.538574,3.296087
20.874023,873.87085,-466.918945,3.296838
19.775391,871.673584,-463.439941,3.297579
21.331787,870.758057,-463.531494,3.29832
14.099121,873.687744,-468.109131,3.299061
18.951416,875.427246,-466.094971,3.299811
19.500732,873.138428,-466.003418,3.300553
23.254395,874.511719,-464.904785,3.301294
20.874023,874.603271,-461.700439,3.302035
26.733398,865.814209,-463.806152,3.302785
30.029297,879.91333,-466.186523,3.303526
24.261475,871.398926,-465.087891,3.304267
28.015137,873.22998,-461.05957,3.305008
27.557373,871.856689,-466.827393,3.305758
29.663086,873.962402,-466.094971,3.306498
30.670166,867.1875,-457.489014,3.307239
28.656006,866.18042,-461.517334,3.30798
23.071289,864.898682,-462.432861,3.308721
19.500732,863.708496,-464.813232,3.309453
21.148682,861.51123,-459.686279,3.310184
19.500732,865.814209,-464.172363,3.310915
28.747559,868.560791,-462.249756,3.311678
29.663086,862.609863,-454.833984,3.312418
30.029297,863.525391,-466.003418,3.313157
24.810791,861.602783,-463.623047,3.313896
32.409668,868.377686,-466.003418,3.314646
27.557373,859.405518,-460.327148,3.315387
29.571533,866.638184,-464.904785,3.316126
29.846191,861.602783,-453.643799,3.316866
31.677246,858.123779,-458.129883,3.317616
21.240234,860.046387,-457.03125,3.318356
29.296875,857.666016,-458.129883,3.319096
23.620605,864.349365,-447.32666,3.319835
31.768799,863.983154,-460.784912,3.320585
34.790039,866.455078,-455.474854,3.321324
27.099609,859.954834,-449.249268,3.322064
28.656006,851.348877,-460.235596,3.322804
31.311035,851.44043,-456.848145,3.323554
30.578613,856.292725,-453.552246,3.324294
31.860352,863.708496,-459.503174,3.325034
22.705078,859.49707,-459.960938,3.325857
24.993896,860.595703,-459.960938,3.326611
22.155762,862.701416,-458.587646,3.32735
18.4021,853.637695,-461.791992,3.32809
22.521973,851.989746,-468.017578,3.328829
15.197754,852.264404,-465.087891,3.329578
20.141602,851.348877,-477.905273,3.330318
14.831543,850.799561,-466.369629,3.331057
16.113281,859.680176,-459.04541,3.331797
14.831543,857.574463,-462.249756,3.332547
14.099121,859.680176,-462.615967,3.333287
11.352539,860.229492,-465.545654,3.334027
6.04248,855.194092,-472.320557,3.334766
9.521484,859.680176,-459.411621,3.335515
3.387451,854.187012,-464.904785,3.336255
9.979248,858.947754,-461.608887,3.336993
13.000488,861.968994,-458.679199,3.337733
12.634277,860.961914,-455.383301,3.338482
8.056641,867.919922,-455.108643,3.339222
5.218506,862.518311,-460.144043,3.339961
7.69043,861.694336,-455.566406,3.3407
9.979248,866.729736,-467.376709,3.341448
7.69043,861.968994,-469.024658,3.342188
-0.274658,856.018066,-466.369629,3.342927
0.549316,854.095459,-456.848145,3.343667
-2.01416,859.039307,-452.362061,3.344414
4.394531,866.363525,-458.221436,3.345151
-3.112793,867.1875,-460.05249,3.345911
-9.796143,848.968506,-464.996338,3.346684
-5.0354,855.46875,-462.158203,3.347446
-3.845215,850.982666,-465.454102,3.348211
0.640869,849.79248,-465.362549,3.348955
-5.67627,850.341797,-473.7854,3.349713
-7.049561,845.489502,-468.658447,3.350454
-15.472412,848.236084,-463.989258,3.351193
-10.71167,848.144531,-461.700439,3.351933
-17.76123,850.524902,-463.256836,3.352682
-21.881104,823.516846,-453.00293,3.353423
-24.353027,844.665527,-458.496094,3.354163
-0.640869,842.74292,-466.369629,3.354903
-21.240234,847.137451,-456.207275,3.355652
-19.317627,852.813721,-460.05249,3.356393
-23.254395,843.566895,-461.791992,3.357133
-22.979736,843.475342,-460.693359,3.357873
-24.902344,843.292236,-461.151123,3.358613
-21.42334,847.869873,-466.552734,3.359362
-26.824951,844.665527,-463.439941,3.360102
-4.211426,847.595215,-465.820312,3.360842
-26.184082,843.933105,-466.369629,3.361581
-20.233154,843.933105,-461.883545,3.362333
-21.331787,847.320557,-469.024658,3.363074
-12.908936,854.644775,-466.186523,3.363815
-18.4021,844.940186,-456.298828,3.364555
-19.134521,842.376709,-473.327637,3.365147
-46.691895,841.644287,-469.390869,3.365887
-31.677246,843.933105,-475.341797,3.366628
-25.177002,839.813232,-460.601807,3.367368
-23.986816,838.989258,-460.601807,3.368118
-18.859863,848.236084,-461.700439,3.368859
-12.72583,849.151611,-461.517334,3.369599
-18.127441,847.229004,-464.355469,3.370339
-24.719238,839.630127,-460.968018,3.371088
-20.690918,839.447021,-462.06665,3.371828
-25.268555,835.876465,-464.080811,3.372568
-14.831543,843.566895,-458.770752,3.373308
-16.021729,836.05957,-459.228516,3.374058
-15.74707,835.968018,-461.05957,3.374797
-15.289307,838.806152,-455.749512,3.375536
-17.852783,834.320068,-463.07373,3.376276
-18.676758,840.911865,-461.883545,3.377025
-9.887695,848.419189,-465.911865,3.377765
-8.331299,851.074219,-467.102051,3.378505
-10.437012,847.869873,-464.813232,3.379245
-6.68335,855.010986,-453.826904,3.379994
-6.317139,857.299805,-456.939697,3.380734
-3.936768,855.46875,-457.763672,3.381473
-11.352539,853.363037,-464.080811,3.382212
-12.359619,859.130859,-462.890625,3.382962
-10.803223,857.48291,-467.651367,3.383703
-11.352539,861.602783,-457.946777,3.384443
-20.141602,867.095947,-458.862305,3.385183
-13.366699,867.645264,-462.799072,3.385932
-8.239746,861.053467,-459.594727,3.386673
-9.521484,889.892578,-456.665039,3.387412
-15.106201,870.666504,-457.580566,3.388151
-5.584717,864.16626,-457.305908,3.388901
-16.479492,867.919922,-465.545654,3.389643
-10.894775,864.16626,-463.623047,3.390384
-6.317139,867.095947,-458.770752,3.391124
-6.04248,874.420166,-459.411621,3.391875
-10.894775,870.574951,-466.552734,3.392615
-9.70459,866.821289,-467.926025,3.393355
-9.429932,866.18042,-460.05249,3.394094
-0.915527,870.666504,-462.249756,3.394843
-0.366211,868.103027,-468.200684,3.395583
0.823975,865.356445,-469.940186,3.396323
3.387451,870.574951,-460.876465,3.397063
-6.591797,873.321533,-459.686279,3.397897
-4.02832,869.659424,-467.834473,3.398637
-3.112793,869.293213,-469.573975,3.399376
-2.01416,861.236572,-473.419189,3.400115
5.401611,868.652344,-468.566895,3.400864
9.155273,861.785889,-446.502686,3.401604
5.67627,861.694336,-473.968506,3.402344
9.521484,859.771729,-466.918945,3.403083
16.75415,858.123779,-460.968018,3.403833
21.606445,865.905762,-460.05249,3.404573
18.218994,860.870361,-466.369629,3.405312
15.930176,862.518311,-465.454102,3.406052
35.888672,862.518311,-467.834473,3.406799
13.916016,858.856201,-467.559814,3.407536
