ACC_X,ACC_Y,ACC_Z
523.135986,466.528015,720.288025
523.135986,460.671997,722.239990
517.280029,470.432007,724.192017
523.135986,474.335999,724.192017
521.184021,464.575989,718.335999
519.231995,474.335999,720.288025
525.088013,466.528015,722.239990
521.184021,466.528015,718.335999
511.424011,470.432007,718.335999
523.135986,472.384003,722.239990
521.184021,476.287994,726.143982
523.135986,474.335999,726.143982
523.135986,470.432007,714.432007
519.231995,468.480011,710.528015
528.992004,470.432007,720.288025
528.992004,478.239990,716.383972
525.088013,476.287994,714.432007
525.088013,472.384003,718.335999
523.135986,466.528015,710.528015
523.135986,478.239990,720.288025
525.088013,472.384003,712.479980
519.231995,472.384003,724.192017
521.184021,472.384003,720.288025
521.184021,470.432007,714.432007
523.135986,470.432007,710.528015
519.231995,472.384003,714.432007
521.184021,472.384003,720.288025
523.135986,460.671997,714.432007
525.088013,472.384003,712.479980
519.231995,472.384003,714.432007
511.424011,476.287994,720.288025
515.328003,468.480011,712.479980
523.135986,470.432007,710.528015
517.280029,476.287994,710.528015
511.424011,482.144012,716.383972
515.328003,470.432007,714.432007
511.424011,468.480011,708.575989
509.471985,476.287994,710.528015
511.424011,470.432007,710.528015
513.375977,466.528015,712.479980
513.375977,474.335999,708.575989
505.567993,474.335999,720.288025
507.519989,480.191986,712.479980
509.471985,478.239990,708.575989
507.519989,476.287994,710.528015
503.615997,468.480011,706.624023
507.519989,476.287994,710.528015
509.471985,474.335999,716.383972
513.375977,478.239990,708.575989
507.519989,482.144012,710.528015
515.328003,474.335999,712.479980
507.519989,476.287994,716.383972
509.471985,474.335999,710.528015
513.375977,486.048004,710.528015
511.424011,484.096008,706.624023
503.615997,480.191986,708.575989
505.567993,482.144012,710.528015
507.519989,478.239990,710.528015
507.519989,476.287994,710.528015
515.328003,486.048004,702.719971
505.567993,478.239990,712.479980
505.567993,478.239990,716.383972
509.471985,478.239990,702.719971
513.375977,472.384003,706.624023
511.424011,484.096008,714.432007
513.375977,488.000000,718.335999
513.375977,480.191986,710.528015
507.519989,480.191986,720.288025
513.375977,488.000000,724.192017
511.424011,486.048004,714.432007
519.231995,486.048004,720.288025
511.424011,486.048004,710.528015
507.519989,482.144012,720.288025
513.375977,482.144012,714.432007
517.280029,480.191986,710.528015
513.375977,476.287994,722.239990
513.375977,484.096008,726.143982
519.231995,484.096008,714.432007
511.424011,480.191986,710.528015
519.231995,482.144012,712.479980
511.424011,476.287994,720.288025
515.328003,474.335999,718.335999
513.375977,486.048004,716.383972
513.375977,476.287994,718.335999
503.615997,480.191986,720.288025
513.375977,476.287994,722.239990
507.519989,480.191986,720.288025
511.424011,480.191986,716.383972
507.519989,480.191986,720.288025
513.375977,482.144012,716.383972
513.375977,489.951996,712.479980
511.424011,484.096008,718.335999
519.231995,482.144012,714.432007
515.328003,472.384003,722.239990
513.375977,482.144012,708.575989
505.567993,478.239990,724.192017
507.519989,476.287994,718.335999
513.375977,472.384003,708.575989
511.424011,474.335999,710.528015
511.424011,474.335999,714.432007
517.280029,474.335999,716.383972
517.280029,486.048004,710.528015
505.567993,474.335999,718.335999
503.615997,468.480011,724.192017
505.567993,474.335999,720.288025
513.375977,466.528015,712.479980
507.519989,476.287994,714.432007
513.375977,474.335999,710.528015
505.567993,472.384003,714.432007
505.567993,478.239990,724.192017
499.712006,482.144012,716.383972
505.567993,476.287994,718.335999
497.760010,464.575989,718.335999
495.808014,474.335999,724.192017
497.760010,478.239990,724.192017
507.519989,474.335999,720.288025
503.615997,468.480011,716.383972
505.567993,474.335999,716.383972
503.615997,464.575989,710.528015
507.519989,474.335999,710.528015
503.615997,468.480011,724.192017
499.712006,468.480011,722.239990
509.471985,462.623993,718.335999
501.664001,462.623993,726.143982
507.519989,474.335999,718.335999
507.519989,460.671997,716.383972
505.567993,468.480011,724.192017
517.280029,468.480011,720.288025
509.471985,464.575989,724.192017
505.567993,464.575989,724.192017
499.712006,468.480011,714.432007
503.615997,462.623993,718.335999
513.375977,462.623993,716.383972
509.471985,462.623993,714.432007
503.615997,474.335999,724.192017
511.424011,474.335999,722.239990
513.375977,468.480011,718.335999
507.519989,474.335999,716.383972
503.615997,470.432007,718.335999
507.519989,468.480011,716.383972
499.712006,470.432007,724.192017
509.471985,468.480011,724.192017
507.519989,474.335999,720.288025
507.519989,470.432007,726.143982
513.375977,472.384003,728.096008
509.471985,468.480011,716.383972
511.424011,468.480011,718.335999
509.471985,468.480011,724.192017
511.424011,470.432007,724.192017
509.471985,466.528015,720.288025
509.471985,468.480011,716.383972
507.519989,470.432007,726.143982
511.424011,470.432007,726.143982
509.471985,468.480011,716.383972
513.375977,464.575989,718.335999
513.375977,462.623993,710.528015
513.375977,468.480011,716.383972
505.567993,464.575989,726.143982
505.567993,474.335999,722.239990
505.567993,472.384003,724.192017
505.567993,470.432007,726.143982
501.664001,472.384003,720.288025
503.615997,470.432007,716.383972
503.615997,468.480011,714.432007
507.519989,474.335999,716.383972
503.615997,472.384003,728.096008
509.471985,468.480011,718.335999
513.375977,468.480011,714.432007
507.519989,470.432007,724.192017
509.471985,474.335999,718.335999
509.471985,468.480011,724.192017
517.280029,470.432007,726.143982
513.375977,468.480011,718.335999
513.375977,478.239990,720.288025
515.328003,474.335999,722.239990
515.328003,470.432007,724.192017
515.328003,468.480011,724.192017
507.519989,470.432007,730.047974
519.231995,466.528015,726.143982
515.328003,478.239990,728.096008
513.375977,472.384003,728.096008
517.280029,468.480011,722.239990
515.328003,474.335999,724.192017
517.280029,470.432007,726.143982
511.424011,480.191986,728.096008
515.328003,478.239990,728.096008
517.280029,478.239990,720.288025
517.280029,472.384003,724.192017
515.328003,468.480011,716.383972
511.424011,474.335999,720.288025
511.424011,476.287994,720.288025
525.088013,468.480011,722.239990
511.424011,468.480011,712.479980
513.375977,472.384003,708.575989
507.519989,476.287994,722.239990
509.471985,474.335999,720.288025
521.184021,478.239990,714.432007
515.328003,480.191986,716.383972
517.280029,474.335999,714.432007
517.280029,474.335999,716.383972
515.328003,464.575989,720.288025
517.280029,474.335999,716.383972
507.519989,474.335999,720.288025
525.088013,470.432007,714.432007
511.424011,474.335999,710.528015
513.375977,478.239990,710.528015
511.424011,480.191986,714.432007
513.375977,480.191986,714.432007
525.088013,478.239990,716.383972
511.424011,480.191986,710.528015
517.280029,474.335999,710.528015
511.424011,478.239990,710.528015
509.471985,472.384003,704.671997
515.328003,478.239990,710.528015
519.231995,472.384003,718.335999
515.328003,468.480011,706.624023
515.328003,486.048004,712.479980
509.471985,482.144012,708.575989
517.280029,472.384003,724.192017
507.519989,480.191986,720.288025
517.280029,474.335999,714.432007
513.375977,464.575989,716.383972
515.328003,476.287994,718.335999
521.184021,474.335999,710.528015
517.280029,478.239990,714.432007
519.231995,470.432007,718.335999
517.280029,476.287994,716.383972
513.375977,476.287994,710.528015
511.424011,476.287994,718.335999
521.184021,474.335999,724.192017
517.280029,480.191986,722.239990
519.231995,486.048004,722.239990
517.280029,486.048004,720.288025
519.231995,482.144012,718.335999
517.280029,476.287994,712.479980
521.184021,489.951996,720.288025
519.231995,478.239990,710.528015
515.328003,468.480011,718.335999
519.231995,482.144012,724.192017
521.184021,470.432007,710.528015
515.328003,468.480011,714.432007
515.328003,468.480011,716.383972
515.328003,468.480011,712.479980
519.231995,482.144012,712.479980
519.231995,480.191986,714.432007
521.184021,476.287994,706.624023
525.088013,474.335999,714.432007
519.231995,478.239990,712.479980
523.135986,476.287994,724.192017
517.280029,478.239990,720.288025
521.184021,464.575989,718.335999
521.184021,468.480011,718.335999
519.231995,482.144012,714.432007
530.943970,482.144012,714.432007
523.135986,472.384003,710.528015
527.039978,476.287994,718.335999
525.088013,472.384003,716.383972
525.088013,472.384003,720.288025
528.992004,478.239990,718.335999
532.895996,470.432007,720.288025
521.184021,470.432007,714.432007
525.088013,476.287994,724.192017
528.992004,466.528015,722.239990
528.992004,468.480011,728.096008
528.992004,482.144012,718.335999
527.039978,472.384003,716.383972
528.992004,472.384003,724.192017
528.992004,470.432007,710.528015
525.088013,476.287994,718.335999
530.943970,466.528015,728.096008
530.943970,472.384003,726.143982
532.895996,474.335999,726.143982
523.135986,474.335999,724.192017
532.895996,484.096008,733.952026
534.848022,476.287994,726.143982
530.943970,478.239990,735.903992
532.895996,476.287994,724.192017
530.943970,486.048004,728.096008
534.848022,472.384003,728.096008
527.039978,476.287994,726.143982
532.895996,470.432007,718.335999
534.848022,468.480011,730.047974
532.895996,474.335999,726.143982
530.943970,468.480011,722.239990
523.135986,480.191986,726.143982
534.848022,474.335999,726.143982
534.848022,482.144012,732.000000
530.943970,472.384003,726.143982
527.039978,468.480011,726.143982
532.895996,472.384003,722.239990
530.943970,478.239990,724.192017
532.895996,468.480011,724.192017
527.039978,478.239990,724.192017
532.895996,476.287994,726.143982
530.943970,472.384003,718.335999
532.895996,478.239990,722.239990
532.895996,474.335999,724.192017
536.799988,476.287994,720.288025
532.895996,478.239990,728.096008
534.848022,482.144012,722.239990
530.943970,476.287994,720.288025
523.135986,470.432007,722.239990
521.184021,482.144012,730.047974
513.375977,470.432007,732.000000
525.088013,468.480011,728.096008
532.895996,478.239990,722.239990
523.135986,474.335999,732.000000
528.992004,472.384003,726.143982
519.231995,478.239990,728.096008
519.231995,472.384003,718.335999
527.039978,472.384003,724.192017
523.135986,474.335999,726.143982
521.184021,484.096008,728.096008
523.135986,480.191986,724.192017
523.135986,482.144012,730.047974
523.135986,472.384003,724.192017
523.135986,476.287994,732.000000
532.895996,478.239990,724.192017
525.088013,468.480011,718.335999
523.135986,478.239990,722.239990
532.895996,480.191986,728.096008
532.895996,472.384003,718.335999
528.992004,484.096008,724.192017
532.895996,472.384003,728.096008
525.088013,468.480011,728.096008
525.088013,468.480011,728.096008
527.039978,472.384003,722.239990
530.943970,470.432007,726.143982
525.088013,474.335999,728.096008
530.943970,480.191986,733.952026
527.039978,472.384003,737.856018
528.992004,468.480011,720.288025
527.039978,486.048004,730.047974
532.895996,480.191986,726.143982
534.848022,478.239990,724.192017
536.799988,470.432007,732.000000
530.943970,466.528015,728.096008
525.088013,464.575989,728.096008
530.943970,474.335999,726.143982
536.799988,474.335999,741.760010
536.799988,468.480011,733.952026
530.943970,468.480011,728.096008
538.752014,464.575989,732.000000
532.895996,474.335999,730.047974
538.752014,466.528015,732.000000
538.752014,466.528015,737.856018
544.607971,474.335999,737.856018
536.799988,464.575989,733.952026
538.752014,470.432007,726.143982
546.559998,462.623993,737.856018
534.848022,476.287994,732.000000
544.607971,460.671997,726.143982
538.752014,464.575989,726.143982
536.799988,464.575989,732.000000
528.992004,462.623993,726.143982
534.848022,458.720001,728.096008
542.656006,468.480011,733.952026
530.943970,466.528015,728.096008
544.607971,472.384003,730.047974
538.752014,460.671997,724.192017
534.848022,472.384003,735.903992
530.943970,474.335999,733.952026
528.992004,464.575989,728.096008
530.943970,464.575989,728.096008
534.848022,468.480011,724.192017
534.848022,466.528015,724.192017
530.943970,470.432007,733.952026
532.895996,482.144012,724.192017
538.752014,476.287994,714.432007
540.703979,482.144012,728.096008
548.512024,466.528015,726.143982
540.703979,464.575989,726.143982
534.848022,472.384003,728.096008
536.799988,464.575989,722.239990
542.656006,470.432007,730.047974
536.799988,466.528015,726.143982
532.895996,472.384003,735.903992
530.943970,478.239990,726.143982
530.943970,468.480011,728.096008
536.799988,462.623993,728.096008
530.943970,462.623993,728.096008
538.752014,470.432007,732.000000
538.752014,470.432007,726.143982
540.703979,468.480011,730.047974
534.848022,466.528015,728.096008
542.656006,468.480011,741.760010
544.607971,468.480011,743.711975
538.752014,474.335999,741.760010
536.799988,460.671997,732.000000
538.752014,472.384003,730.047974
536.799988,466.528015,735.903992
542.656006,464.575989,737.856018
544.607971,462.623993,743.711975
536.799988,464.575989,739.807983
548.512024,478.239990,745.664001
540.703979,468.480011,737.856018
552.416016,468.480011,743.711975
542.656006,474.335999,741.760010
534.848022,468.480011,743.711975
540.703979,472.384003,741.760010
534.848022,468.480011,735.903992
538.752014,474.335999,745.664001
540.703979,460.671997,743.711975
542.656006,468.480011,743.711975
538.752014,480.191986,745.664001
540.703979,472.384003,733.952026
530.943970,476.287994,741.760010
540.703979,476.287994,747.616028
544.607971,468.480011,743.711975
536.799988,476.287994,749.567993
544.607971,468.480011,747.616028
527.039978,470.432007,741.760010
532.895996,474.335999,737.856018
534.848022,468.480011,726.143982
528.992004,468.480011,728.096008
536.799988,478.239990,743.711975
538.752014,474.335999,733.952026
532.895996,480.191986,732.000000
530.943970,476.287994,743.711975
534.848022,472.384003,733.952026
530.943970,489.951996,737.856018
528.992004,482.144012,747.616028
532.895996,470.432007,739.807983
530.943970,464.575989,739.807983
536.799988,470.432007,733.952026
532.895996,478.239990,735.903992
530.943970,474.335999,735.903992
527.039978,474.335999,737.856018
536.799988,478.239990,735.903992
528.992004,474.335999,739.807983
532.895996,470.432007,733.952026
527.039978,476.287994,737.856018
530.943970,482.144012,735.903992
530.943970,478.239990,737.856018
536.799988,486.048004,743.711975
528.992004,484.096008,743.711975
536.799988,486.048004,739.807983
530.943970,488.000000,737.856018
530.943970,476.287994,732.000000
530.943970,472.384003,743.711975
534.848022,478.239990,739.807983
536.799988,476.287994,741.760010
527.039978,482.144012,735.903992
534.848022,482.144012,735.903992
538.752014,486.048004,733.952026
534.848022,472.384003,730.047974
536.799988,476.287994,741.760010
536.799988,480.191986,741.760010
536.799988,482.144012,739.807983
542.656006,480.191986,741.760010
532.895996,486.048004,737.856018
532.895996,488.000000,735.903992
528.992004,484.096008,745.664001
530.943970,484.096008,747.616028
536.799988,484.096008,743.711975
536.799988,484.096008,747.616028
530.943970,486.048004,733.952026
527.039978,497.760010,739.807983
532.895996,489.951996,733.952026
534.848022,486.048004,737.856018
534.848022,491.903992,737.856018
540.703979,484.096008,739.807983
534.848022,486.048004,737.856018
540.703979,489.951996,732.000000
527.039978,497.760010,728.096008
528.992004,489.951996,732.000000
527.039978,486.048004,732.000000
530.943970,484.096008,730.047974
528.992004,476.287994,735.903992
523.135986,488.000000,730.047974
527.039978,484.096008,724.192017
527.039978,486.048004,737.856018
528.992004,489.951996,728.096008
530.943970,488.000000,739.807983
536.799988,486.048004,733.952026
525.088013,484.096008,735.903992
528.992004,491.903992,730.047974
525.088013,489.951996,737.856018
525.088013,484.096008,724.192017
525.088013,489.951996,718.335999
523.135986,484.096008,739.807983
527.039978,493.855988,730.047974
517.280029,482.144012,728.096008
525.088013,480.191986,724.192017
519.231995,488.000000,722.239990
521.184021,480.191986,724.192017
509.471985,474.335999,718.335999
515.328003,486.048004,724.192017
517.280029,478.239990,716.383972
503.615997,472.384003,708.575989
517.280029,476.287994,716.383972
513.375977,480.191986,708.575989
511.424011,482.144012,716.383972
515.328003,480.191986,720.288025
513.375977,464.575989,714.432007
507.519989,468.480011,710.528015
507.519989,478.239990,710.528015
517.280029,476.287994,710.528015
511.424011,474.335999,714.432007
507.519989,486.048004,714.432007
505.567993,472.384003,712.479980
507.519989,476.287994,716.383972
511.424011,478.239990,710.528015
509.471985,468.480011,712.479980
517.280029,476.287994,720.288025
507.519989,482.144012,710.528015
511.424011,478.239990,710.528015
505.567993,480.191986,708.575989
521.184021,480.191986,706.624023
511.424011,474.335999,710.528015
513.375977,474.335999,712.479980
511.424011,470.432007,706.624023
507.519989,472.384003,702.719971
513.375977,474.335999,710.528015
519.231995,480.191986,712.479980
515.328003,486.048004,706.624023
513.375977,470.432007,708.575989
511.424011,474.335999,710.528015
509.471985,474.335999,710.528015
511.424011,474.335999,708.575989
507.519989,464.575989,698.815979
517.280029,474.335999,704.671997
509.471985,484.096008,696.864014
513.375977,478.239990,702.719971
513.375977,472.384003,702.719971
511.424011,478.239990,702.719971
509.471985,472.384003,698.815979
517.280029,468.480011,700.768005
513.375977,470.432007,696.864014
501.664001,468.480011,694.911987
503.615997,476.287994,700.768005
505.567993,464.575989,700.768005
501.664001,468.480011,694.911987
503.615997,462.623993,685.151978
511.424011,470.432007,694.911987
507.519989,464.575989,692.960022
503.615997,466.528015,687.104004
505.567993,474.335999,692.960022
503.615997,464.575989,692.960022
501.664001,460.671997,687.104004
501.664001,456.768005,692.960022
507.519989,464.575989,692.960022
509.471985,470.432007,698.815979
509.471985,470.432007,696.864014
507.519989,464.575989,700.768005
513.375977,466.528015,706.624023
507.519989,466.528015,696.864014
507.519989,464.575989,700.768005
509.471985,466.528015,692.960022
513.375977,460.671997,698.815979
511.424011,458.720001,694.911987
511.424011,460.671997,704.671997
511.424011,462.623993,706.624023
513.375977,458.720001,698.815979
511.424011,456.768005,694.911987
521.184021,450.911987,706.624023
521.184021,450.911987,698.815979
513.375977,452.864014,702.719971
519.231995,452.864014,704.671997
525.088013,466.528015,708.575989
525.088013,456.768005,702.719971
528.992004,454.816010,708.575989
517.280029,443.104004,708.575989
528.992004,445.056000,712.479980
528.992004,447.007996,714.432007
528.992004,445.056000,716.383972
528.992004,441.152008,718.335999
525.088013,450.911987,710.528015
530.943970,439.200012,720.288025
540.703979,447.007996,720.288025
530.943970,447.007996,714.432007
530.943970,437.247986,720.288025
530.943970,435.295990,732.000000
528.992004,437.247986,720.288025
534.848022,435.295990,724.192017
536.799988,439.200012,724.192017
532.895996,435.295990,716.383972
536.799988,439.200012,726.143982
532.895996,423.584015,726.143982
540.703979,431.391998,724.192017
542.656006,429.440002,726.143982
546.559998,439.200012,728.096008
546.559998,425.536011,737.856018
542.656006,427.488007,726.143982
542.656006,421.631989,728.096008
542.656006,427.488007,732.000000
548.512024,425.536011,730.047974
546.559998,419.679993,739.807983
538.752014,417.727997,741.760010
554.367981,413.824005,735.903992
546.559998,425.536011,747.616028
550.463989,425.536011,747.616028
550.463989,421.631989,743.711975
550.463989,417.727997,745.664001
550.463989,419.679993,745.664001
560.223999,427.488007,751.520020
560.223999,417.727997,755.424011
554.367981,406.015991,753.471985
546.559998,409.920013,747.616028
554.367981,409.920013,745.664001
556.320007,423.584015,751.520020
560.223999,415.776001,749.567993
554.367981,419.679993,749.567993
556.320007,409.920013,743.711975
560.223999,406.015991,759.328003
550.463989,409.920013,755.424011
556.320007,406.015991,759.328003
552.416016,406.015991,749.567993
556.320007,419.679993,755.424011
546.559998,409.920013,759.328003
546.559998,407.967987,751.520020
546.559998,409.920013,763.231995
554.367981,427.488007,753.471985
550.463989,406.015991,755.424011
550.463989,409.920013,751.520020
556.320007,411.872009,751.520020
550.463989,406.015991,759.328003
550.463989,406.015991,761.280029
548.512024,407.967987,757.375977
548.512024,415.776001,755.424011
554.367981,421.631989,763.231995
554.367981,417.727997,761.280029
546.559998,409.920013,763.231995
544.607971,411.872009,767.135986
546.559998,409.920013,761.280029
544.607971,419.679993,765.184021
542.656006,417.727997,765.184021
544.607971,413.824005,767.135986
542.656006,423.584015,763.231995
550.463989,425.536011,765.184021
560.223999,419.679993,767.135986
548.512024,423.584015,763.231995
538.752014,429.440002,769.088013
546.559998,431.391998,769.088013
542.656006,427.488007,761.280029
548.512024,427.488007,757.375977
548.512024,431.391998,753.471985
536.799988,433.343994,757.375977
542.656006,427.488007,761.280029
534.848022,421.631989,759.328003
527.039978,423.584015,757.375977
527.039978,429.440002,751.520020
528.992004,437.247986,753.471985
527.039978,433.343994,745.664001
534.848022,441.152008,753.471985
523.135986,433.343994,747.616028
519.231995,441.152008,749.567993
521.184021,437.247986,753.471985
525.088013,441.152008,743.711975
515.328003,441.152008,751.520020
515.328003,448.959991,741.760010
519.231995,450.911987,741.760010
521.184021,452.864014,733.952026
511.424011,458.720001,733.952026
513.375977,456.768005,743.711975
505.567993,458.720001,735.903992
505.567993,452.864014,735.903992
503.615997,466.528015,737.856018
507.519989,460.671997,735.903992
501.664001,470.432007,732.000000
495.808014,460.671997,722.239990
491.903992,478.239990,724.192017
505.567993,470.432007,724.192017
489.951996,474.335999,726.143982
489.951996,474.335999,726.143982
486.048004,478.239990,722.239990
480.191986,476.287994,720.288025
482.144012,482.144012,728.096008
486.048004,472.384003,716.383972
486.048004,480.191986,718.335999
476.287994,486.048004,720.288025
462.623993,482.144012,716.383972
476.287994,480.191986,716.383972
474.335999,486.048004,714.432007
466.528015,484.096008,710.528015
482.144012,489.951996,720.288025
468.480011,491.903992,704.671997
464.575989,491.903992,702.719971
464.575989,501.664001,708.575989
464.575989,495.808014,710.528015
462.623993,503.615997,712.479980
462.623993,499.712006,702.719971
464.575989,497.760010,710.528015
464.575989,495.808014,710.528015
460.671997,499.712006,702.719971
458.720001,503.615997,698.815979
466.528015,505.567993,702.719971
460.671997,501.664001,708.575989
462.623993,509.471985,712.479980
452.864014,499.712006,706.624023
458.720001,507.519989,694.911987
456.768005,509.471985,692.960022
452.864014,509.471985,700.768005
448.959991,509.471985,700.768005
450.911987,515.328003,708.575989
452.864014,517.280029,706.624023
454.816010,509.471985,700.768005
452.864014,511.424011,700.768005
458.720001,517.280029,700.768005
454.816010,513.375977,702.719971
450.911987,515.328003,696.864014
445.056000,509.471985,698.815979
447.007996,515.328003,700.768005
450.911987,511.424011,702.719971
450.911987,515.328003,700.768005
452.864014,515.328003,696.864014
454.816010,521.184021,694.911987
454.816010,517.280029,691.007996
447.007996,515.328003,696.864014
450.911987,521.184021,692.960022
450.911987,515.328003,691.007996
441.152008,515.328003,700.768005
450.911987,515.328003,696.864014
450.911987,515.328003,691.007996
450.911987,513.375977,689.056030
450.911987,519.231995,692.960022
443.104004,517.280029,696.864014
450.911987,525.088013,687.104004
445.056000,517.280029,689.056030
443.104004,515.328003,694.911987
450.911987,517.280029,689.056030
441.152008,515.328003,696.864014
441.152008,523.135986,689.056030
441.152008,519.231995,687.104004
443.104004,521.184021,692.960022
447.007996,515.328003,696.864014
441.152008,515.328003,696.864014
448.959991,517.280029,689.056030
437.247986,513.375977,681.247986
441.152008,519.231995,683.200012
437.247986,509.471985,687.104004
437.247986,513.375977,681.247986
443.104004,511.424011,687.104004
437.247986,511.424011,685.151978
450.911987,515.328003,696.864014
447.007996,515.328003,700.768005
447.007996,515.328003,696.864014
441.152008,513.375977,696.864014
447.007996,509.471985,700.768005
433.343994,509.471985,685.151978
435.295990,513.375977,687.104004
441.152008,515.328003,691.007996
437.247986,515.328003,683.200012
443.104004,515.328003,689.056030
441.152008,515.328003,689.056030
437.247986,517.280029,687.104004
437.247986,513.375977,687.104004
447.007996,507.519989,692.960022
437.247986,515.328003,685.151978
435.295990,503.615997,692.960022
435.295990,513.375977,685.151978
445.056000,505.567993,683.200012
437.247986,509.471985,683.200012
443.104004,509.471985,681.247986
443.104004,507.519989,687.104004
437.247986,513.375977,681.247986
433.343994,515.328003,685.151978
437.247986,509.471985,689.056030
427.488007,503.615997,683.200012
429.440002,495.808014,683.200012
427.488007,501.664001,683.200012
431.391998,501.664001,683.200012
433.343994,501.664001,685.151978
421.631989,499.712006,685.151978
429.440002,503.615997,689.056030
427.488007,503.615997,689.056030
421.631989,497.760010,687.104004
427.488007,495.808014,679.296021
429.440002,491.903992,683.200012
421.631989,491.903992,681.247986
423.584015,493.855988,679.296021
429.440002,503.615997,683.200012
427.488007,503.615997,689.056030
415.776001,499.712006,687.104004
423.584015,497.760010,689.056030
417.727997,499.712006,689.056030
419.679993,488.000000,687.104004
419.679993,497.760010,685.151978
419.679993,491.903992,675.392029
415.776001,493.855988,685.151978
415.776001,491.903992,687.104004
423.584015,484.096008,675.392029
421.631989,491.903992,687.104004
423.584015,493.855988,679.296021
421.631989,493.855988,692.960022
419.679993,495.808014,694.911987
427.488007,489.951996,689.056030
419.679993,488.000000,675.392029
417.727997,497.760010,683.200012
413.824005,495.808014,692.960022
421.631989,493.855988,694.911987
421.631989,493.855988,685.151978
427.488007,493.855988,683.200012
425.536011,488.000000,696.864014
431.391998,489.951996,683.200012
427.488007,486.048004,692.960022
425.536011,491.903992,694.911987
435.295990,493.855988,687.104004
429.440002,486.048004,694.911987
425.536011,486.048004,689.056030
419.679993,488.000000,687.104004
425.536011,486.048004,685.151978
425.536011,488.000000,683.200012
413.824005,480.191986,679.296021
415.776001,488.000000,685.151978
419.679993,493.855988,675.392029
409.920013,488.000000,673.440002
406.015991,493.855988,677.343994
406.015991,486.048004,685.151978
404.063995,493.855988,671.487976
419.679993,484.096008,669.536011
409.920013,491.903992,675.392029
400.160004,488.000000,667.583984
406.015991,489.951996,667.583984
415.776001,488.000000,681.247986
413.824005,497.760010,667.583984
404.063995,501.664001,659.776001
398.208008,486.048004,673.440002
406.015991,480.191986,681.247986
413.824005,493.855988,673.440002
406.015991,488.000000,671.487976
411.872009,486.048004,677.343994
409.920013,486.048004,667.583984
402.112000,484.096008,665.632019
409.920013,489.951996,667.583984
407.967987,489.951996,677.343994
413.824005,489.951996,675.392029
406.015991,493.855988,671.487976
409.920013,484.096008,665.632019
409.920013,489.951996,683.200012
421.631989,489.951996,671.487976
413.824005,497.760010,669.536011
409.920013,493.855988,673.440002
419.679993,495.808014,671.487976
415.776001,488.000000,655.872009
413.824005,493.855988,669.536011
417.727997,491.903992,675.392029
425.536011,484.096008,673.440002
423.584015,474.335999,679.296021
429.440002,480.191986,673.440002
427.488007,482.144012,677.343994
425.536011,489.951996,683.200012
431.391998,488.000000,669.536011
427.488007,495.808014,685.151978
435.295990,484.096008,679.296021
433.343994,489.951996,679.296021
437.247986,489.951996,687.104004
441.152008,493.855988,681.247986
437.247986,484.096008,681.247986
435.295990,480.191986,681.247986
443.104004,486.048004,683.200012
441.152008,497.760010,692.960022
445.056000,488.000000,683.200012
445.056000,488.000000,691.007996
445.056000,476.287994,689.056030
443.104004,489.951996,692.960022
450.911987,489.951996,692.960022
452.864014,480.191986,691.007996
458.720001,484.096008,696.864014
454.816010,482.144012,687.104004
458.720001,478.239990,691.007996
456.768005,488.000000,691.007996
460.671997,486.048004,694.911987
458.720001,480.191986,692.960022
460.671997,474.335999,694.911987
460.671997,484.096008,694.911987
464.575989,472.384003,692.960022
460.671997,472.384003,691.007996
464.575989,476.287994,704.671997
466.528015,489.951996,691.007996
462.623993,486.048004,698.815979
462.623993,468.480011,691.007996
470.432007,474.335999,694.911987
470.432007,480.191986,698.815979
466.528015,478.239990,692.960022
460.671997,474.335999,694.911987
460.671997,476.287994,696.864014
474.335999,474.335999,691.007996
464.575989,482.144012,694.911987
464.575989,470.432007,691.007996
470.432007,472.384003,692.960022
468.480011,468.480011,698.815979
474.335999,474.335999,702.719971
472.384003,474.335999,698.815979
482.144012,460.671997,706.624023
486.048004,470.432007,698.815979
478.239990,468.480011,712.479980
480.191986,470.432007,708.575989
480.191986,468.480011,712.479980
478.239990,468.480011,706.624023
493.855988,460.671997,708.575989
484.096008,462.623993,694.911987
486.048004,474.335999,708.575989
491.903992,468.480011,706.624023
484.096008,464.575989,712.479980
484.096008,468.480011,706.624023
484.096008,468.480011,712.479980
489.951996,472.384003,708.575989
491.903992,470.432007,708.575989
497.760010,474.335999,706.624023
495.808014,464.575989,718.335999
501.664001,478.239990,708.575989
493.855988,472.384003,714.432007
497.760010,470.432007,712.479980
497.760010,462.623993,714.432007
503.615997,456.768005,716.383972
499.712006,470.432007,718.335999
505.567993,468.480011,714.432007
499.712006,460.671997,712.479980
503.615997,470.432007,714.432007
517.280029,468.480011,714.432007
507.519989,466.528015,710.528015
511.424011,468.480011,712.479980
503.615997,462.623993,718.335999
517.280029,468.480011,714.432007
503.615997,472.384003,722.239990
513.375977,472.384003,722.239990
503.615997,472.384003,726.143982
513.375977,474.335999,720.288025
515.328003,474.335999,718.335999
519.231995,460.671997,722.239990
515.328003,470.432007,722.239990
523.135986,470.432007,722.239990
523.135986,468.480011,718.335999
530.943970,468.480011,720.288025
523.135986,470.432007,722.239990
530.943970,468.480011,722.239990
528.992004,466.528015,728.096008
527.039978,474.335999,724.192017
528.992004,474.335999,726.143982
532.895996,476.287994,722.239990
536.799988,474.335999,720.288025
534.848022,474.335999,730.047974
534.848022,470.432007,728.096008
538.752014,474.335999,722.239990
536.799988,474.335999,722.239990
536.799988,474.335999,732.000000
544.607971,470.432007,732.000000
544.607971,472.384003,728.096008
540.703979,470.432007,722.239990
544.607971,476.287994,720.288025
544.607971,470.432007,728.096008
548.512024,468.480011,733.952026
548.512024,470.432007,739.807983
552.416016,476.287994,722.239990
544.607971,478.239990,728.096008
546.559998,474.335999,722.239990
552.416016,474.335999,718.335999
546.559998,472.384003,722.239990
552.416016,468.480011,718.335999
548.512024,478.239990,720.288025
548.512024,478.239990,710.528015
546.559998,478.239990,722.239990
554.367981,474.335999,724.192017
558.271973,474.335999,724.192017
548.512024,474.335999,722.239990
550.463989,468.480011,728.096008
552.416016,474.335999,724.192017
550.463989,480.191986,722.239990
554.367981,478.239990,720.288025
554.367981,486.048004,724.192017
564.127991,482.144012,724.192017
558.271973,476.287994,732.000000
554.367981,478.239990,735.903992
560.223999,476.287994,726.143982
558.271973,480.191986,732.000000
560.223999,478.239990,718.335999
566.080017,482.144012,728.096008
562.176025,486.048004,722.239990
558.271973,486.048004,724.192017
564.127991,476.287994,726.143982
554.367981,480.191986,726.143982
564.127991,480.191986,732.000000
566.080017,482.144012,735.903992
564.127991,480.191986,726.143982
558.271973,482.144012,726.143982
558.271973,486.048004,728.096008
554.367981,482.144012,724.192017
562.176025,478.239990,718.335999
566.080017,472.384003,728.096008
558.271973,476.287994,726.143982
554.367981,486.048004,732.000000
560.223999,482.144012,724.192017
556.320007,476.287994,726.143982
554.367981,484.096008,733.952026
562.176025,480.191986,718.335999
556.320007,478.239990,724.192017
554.367981,476.287994,730.047974
550.463989,478.239990,722.239990
560.223999,474.335999,728.096008
556.320007,468.480011,726.143982
560.223999,476.287994,730.047974
550.463989,478.239990,724.192017
544.607971,478.239990,728.096008
552.416016,480.191986,724.192017
538.752014,480.191986,720.288025
552.416016,480.191986,726.143982
546.559998,480.191986,726.143982
542.656006,478.239990,722.239990
556.320007,474.335999,728.096008
542.656006,470.432007,726.143982
550.463989,468.480011,728.096008
548.512024,466.528015,726.143982
546.559998,476.287994,728.096008
548.512024,470.432007,718.335999
548.512024,458.720001,726.143982
544.607971,472.384003,728.096008
542.656006,464.575989,726.143982
538.752014,470.432007,726.143982
536.799988,474.335999,714.432007
534.848022,472.384003,728.096008
540.703979,472.384003,728.096008
540.703979,472.384003,728.096008
546.559998,472.384003,722.239990
536.799988,472.384003,724.192017
544.607971,472.384003,722.239990
534.848022,472.384003,730.047974
544.607971,468.480011,720.288025
542.656006,470.432007,726.143982
534.848022,472.384003,728.096008
530.943970,468.480011,728.096008
538.752014,478.239990,720.288025
530.943970,478.239990,735.903992
540.703979,474.335999,722.239990
534.848022,482.144012,728.096008
536.799988,472.384003,718.335999
530.943970,482.144012,724.192017
530.943970,474.335999,724.192017
538.752014,474.335999,720.288025
528.992004,472.384003,724.192017
519.231995,472.384003,716.383972
528.992004,472.384003,714.432007
523.135986,468.480011,716.383972
523.135986,480.191986,726.143982
530.943970,478.239990,712.479980
525.088013,482.144012,712.479980
517.280029,478.239990,710.528015
523.135986,480.191986,712.479980
525.088013,472.384003,718.335999
527.039978,482.144012,714.432007
523.135986,472.384003,724.192017
525.088013,472.384003,716.383972
513.375977,474.335999,714.432007
513.375977,476.287994,710.528015
519.231995,482.144012,716.383972
525.088013,484.096008,712.479980
517.280029,474.335999,716.383972
507.519989,474.335999,712.479980
521.184021,482.144012,706.624023
515.328003,488.000000,706.624023
517.280029,486.048004,710.528015
521.184021,489.951996,708.575989
515.328003,480.191986,704.671997
517.280029,480.191986,716.383972
515.328003,488.000000,712.479980
515.328003,489.951996,716.383972
517.280029,476.287994,716.383972
517.280029,486.048004,720.288025
509.471985,486.048004,718.335999
511.424011,474.335999,710.528015
515.328003,484.096008,720.288025
517.280029,482.144012,710.528015
519.231995,478.239990,712.479980
519.231995,482.144012,716.383972
519.231995,488.000000,716.383972
525.088013,484.096008,712.479980
525.088013,484.096008,716.383972
523.135986,484.096008,716.383972
519.231995,484.096008,704.671997
519.231995,476.287994,710.528015
525.088013,499.712006,698.815979
519.231995,482.144012,712.479980
519.231995,482.144012,710.528015
525.088013,484.096008,712.479980
511.424011,482.144012,710.528015
517.280029,489.951996,704.671997
515.328003,488.000000,706.624023
515.328003,470.432007,714.432007
511.424011,486.048004,720.288025
511.424011,493.855988,718.335999
509.471985,480.191986,710.528015
517.280029,488.000000,710.528015
521.184021,480.191986,708.575989
525.088013,482.144012,706.624023
525.088013,480.191986,706.624023
513.375977,480.191986,710.528015
511.424011,484.096008,712.479980
515.328003,484.096008,702.719971
521.184021,482.144012,704.671997
521.184021,482.144012,704.671997
515.328003,484.096008,702.719971
507.519989,482.144012,708.575989
515.328003,484.096008,702.719971
517.280029,491.903992,712.479980
509.471985,486.048004,712.479980
515.328003,480.191986,708.575989
515.328003,486.048004,712.479980
515.328003,484.096008,708.575989
515.328003,484.096008,704.671997
519.231995,484.096008,712.479980
517.280029,464.575989,706.624023
513.375977,472.384003,708.575989
513.375977,486.048004,710.528015
517.280029,476.287994,710.528015
517.280029,474.335999,708.575989
517.280029,476.287994,712.479980
511.424011,464.575989,704.671997
515.328003,478.239990,708.575989
507.519989,472.384003,716.383972
507.519989,474.335999,708.575989
519.231995,472.384003,706.624023
519.231995,464.575989,708.575989
515.328003,476.287994,712.479980
511.424011,482.144012,716.383972
507.519989,468.480011,714.432007
513.375977,468.480011,716.383972
517.280029,474.335999,716.383972
515.328003,460.671997,712.479980
523.135986,470.432007,718.335999
521.184021,470.432007,720.288025
513.375977,466.528015,716.383972
515.328003,466.528015,714.432007
511.424011,464.575989,714.432007
511.424011,460.671997,718.335999
521.184021,458.720001,714.432007
515.328003,466.528015,710.528015
519.231995,458.720001,726.143982
515.328003,470.432007,724.192017
515.328003,456.768005,716.383972
511.424011,456.768005,718.335999
519.231995,452.864014,718.335999
519.231995,452.864014,720.288025
519.231995,458.720001,718.335999
515.328003,456.768005,724.192017
513.375977,464.575989,714.432007
513.375977,466.528015,718.335999
517.280029,460.671997,728.096008
515.328003,460.671997,714.432007
513.375977,462.623993,724.192017
507.519989,462.623993,728.096008
511.424011,470.432007,730.047974
509.471985,452.864014,728.096008
525.088013,462.623993,730.047974
521.184021,454.816010,724.192017
513.375977,452.864014,722.239990
513.375977,458.720001,726.143982
511.424011,454.816010,722.239990
505.567993,462.623993,722.239990
507.519989,470.432007,724.192017
511.424011,466.528015,726.143982
507.519989,460.671997,724.192017
499.712006,460.671997,724.192017
509.471985,458.720001,728.096008
507.519989,460.671997,716.383972
507.519989,456.768005,720.288025
511.424011,458.720001,724.192017
513.375977,445.056000,710.528015
509.471985,462.623993,718.335999
495.808014,458.720001,716.383972
505.567993,456.768005,720.288025
503.615997,462.623993,714.432007
503.615997,454.816010,718.335999
505.567993,452.864014,718.335999
507.519989,454.816010,714.432007
507.519989,454.816010,712.479980
509.471985,462.623993,718.335999
503.615997,454.816010,724.192017
511.424011,452.864014,722.239990
509.471985,454.816010,718.335999
509.471985,452.864014,728.096008
511.424011,454.816010,722.239990
507.519989,456.768005,720.288025
505.567993,458.720001,726.143982
509.471985,450.911987,722.239990
505.567993,450.911987,720.288025
493.855988,460.671997,714.432007
497.760010,452.864014,712.479980
491.903992,462.623993,710.528015
501.664001,462.623993,712.479980
503.615997,452.864014,708.575989
503.615997,456.768005,712.479980
499.712006,445.056000,716.383972
497.760010,450.911987,712.479980
509.471985,445.056000,720.288025
497.760010,443.104004,726.143982
503.615997,450.911987,728.096008
507.519989,437.247986,722.239990
505.567993,435.295990,735.903992
499.712006,433.343994,726.143982
507.519989,439.200012,730.047974
503.615997,450.911987,720.288025
513.375977,441.152008,724.192017
499.712006,450.911987,722.239990
507.519989,441.152008,728.096008
513.375977,448.959991,720.288025
505.567993,445.056000,722.239990
501.664001,448.959991,724.192017
495.808014,450.911987,714.432007
503.615997,441.152008,716.383972
507.519989,454.816010,714.432007
511.424011,443.104004,712.479980
513.375977,433.343994,714.432007
511.424011,443.104004,722.239990
503.615997,443.104004,732.000000
515.328003,433.343994,718.335999
517.280029,435.295990,726.143982
503.615997,441.152008,728.096008
505.567993,431.391998,728.096008
509.471985,441.152008,724.192017
513.375977,447.007996,728.096008
507.519989,441.152008,722.239990
509.471985,448.959991,722.239990
509.471985,450.911987,728.096008
515.328003,441.152008,728.096008
511.424011,458.720001,732.000000
511.424011,450.911987,732.000000
521.184021,452.864014,732.000000
509.471985,452.864014,728.096008
513.375977,452.864014,728.096008
515.328003,452.864014,728.096008
511.424011,448.959991,741.760010
515.328003,447.007996,728.096008
519.231995,447.007996,730.047974
517.280029,443.104004,722.239990
515.328003,439.200012,720.288025
519.231995,437.247986,722.239990
511.424011,433.343994,724.192017
507.519989,439.200012,726.143982
503.615997,439.200012,720.288025
515.328003,450.911987,726.143982
517.280029,445.056000,722.239990
513.375977,450.911987,722.239990
509.471985,452.864014,722.239990
515.328003,456.768005,735.903992
501.664001,454.816010,726.143982
509.471985,458.720001,732.000000
509.471985,460.671997,733.952026
511.424011,460.671997,733.952026
517.280029,454.816010,741.760010
513.375977,456.768005,747.616028
517.280029,456.768005,732.000000
503.615997,452.864014,732.000000
507.519989,456.768005,728.096008
523.135986,456.768005,724.192017
521.184021,445.056000,730.047974
509.471985,448.959991,726.143982
515.328003,445.056000,726.143982
515.328003,448.959991,730.047974
521.184021,452.864014,728.096008
511.424011,448.959991,722.239990
515.328003,450.911987,732.000000
521.184021,443.104004,726.143982
519.231995,456.768005,728.096008
517.280029,450.911987,737.856018
521.184021,448.959991,726.143982
515.328003,447.007996,728.096008
515.328003,452.864014,732.000000
523.135986,460.671997,733.952026
517.280029,462.623993,732.000000
523.135986,450.911987,726.143982
525.088013,450.911987,735.903992
530.943970,456.768005,733.952026
519.231995,456.768005,739.807983
519.231995,456.768005,732.000000
517.280029,462.623993,737.856018
521.184021,466.528015,732.000000
523.135986,466.528015,733.952026
523.135986,454.816010,735.903992
519.231995,460.671997,728.096008
525.088013,452.864014,724.192017
521.184021,458.720001,722.239990
521.184021,454.816010,726.143982
517.280029,458.720001,726.143982
527.039978,460.671997,722.239990
525.088013,466.528015,714.432007
523.135986,456.768005,722.239990
511.424011,470.432007,726.143982
519.231995,464.575989,728.096008
525.088013,464.575989,722.239990
521.184021,466.528015,716.383972
532.895996,460.671997,722.239990
523.135986,464.575989,722.239990
532.895996,456.768005,730.047974
527.039978,468.480011,735.903992
530.943970,466.528015,728.096008
534.848022,460.671997,733.952026
528.992004,470.432007,741.760010
532.895996,470.432007,741.760010
525.088013,468.480011,732.000000
530.943970,474.335999,737.856018
538.752014,478.239990,722.239990
536.799988,464.575989,732.000000
540.703979,458.720001,722.239990
534.848022,476.287994,732.000000
538.752014,468.480011,733.952026
540.703979,468.480011,726.143982
536.799988,468.480011,728.096008
542.656006,476.287994,741.760010
544.607971,474.335999,733.952026
540.703979,468.480011,735.903992
552.416016,476.287994,730.047974
546.559998,472.384003,732.000000
550.463989,470.432007,726.143982
540.703979,474.335999,737.856018
550.463989,478.239990,741.760010
548.512024,472.384003,739.807983
550.463989,478.239990,743.711975
554.367981,484.096008,747.616028
560.223999,476.287994,747.616028
562.176025,482.144012,735.903992
558.271973,484.096008,741.760010
558.271973,486.048004,737.856018
552.416016,482.144012,726.143982
560.223999,480.191986,726.143982
560.223999,486.048004,732.000000
558.271973,486.048004,732.000000
554.367981,486.048004,726.143982
558.271973,480.191986,724.192017
568.031982,480.191986,730.047974
562.176025,488.000000,728.096008
569.984009,495.808014,732.000000
571.935974,488.000000,726.143982
571.935974,484.096008,728.096008
566.080017,476.287994,730.047974
569.984009,480.191986,722.239990
573.888000,497.760010,730.047974
573.888000,497.760010,726.143982
568.031982,499.712006,732.000000
571.935974,480.191986,730.047974
571.935974,493.855988,735.903992
573.888000,493.855988,743.711975
583.648010,489.951996,732.000000
569.984009,493.855988,739.807983
575.840027,495.808014,726.143982
583.648010,497.760010,724.192017
579.744019,497.760010,732.000000
579.744019,495.808014,726.143982
573.888000,495.808014,724.192017
583.648010,505.567993,726.143982
577.791992,499.712006,724.192017
587.552002,505.567993,728.096008
585.599976,513.375977,730.047974
577.791992,505.567993,726.143982
573.888000,515.328003,728.096008
575.840027,513.375977,722.239990
583.648010,505.567993,724.192017
585.599976,517.280029,726.143982
581.695984,497.760010,720.288025
585.599976,497.760010,722.239990
579.744019,511.424011,724.192017
585.599976,517.280029,732.000000
581.695984,515.328003,724.192017
573.888000,517.280029,720.288025
583.648010,507.519989,726.143982
581.695984,509.471985,718.335999
587.552002,507.519989,718.335999
579.744019,497.760010,718.335999
573.888000,517.280029,710.528015
573.888000,513.375977,720.288025
581.695984,503.615997,718.335999
587.552002,503.615997,724.192017
587.552002,503.615997,718.335999
585.599976,515.328003,706.624023
585.599976,501.664001,710.528015
581.695984,503.615997,714.432007
587.552002,509.471985,716.383972
583.648010,505.567993,712.479980
593.408020,509.471985,712.479980
579.744019,517.280029,710.528015
585.599976,503.615997,706.624023
587.552002,499.712006,708.575989
585.599976,513.375977,712.479980
585.599976,503.615997,716.383972
593.408020,501.664001,706.624023
591.455994,507.519989,706.624023
593.408020,511.424011,712.479980
599.263977,499.712006,702.719971
599.263977,509.471985,708.575989
585.599976,503.615997,710.528015
591.455994,503.615997,712.479980
591.455994,503.615997,712.479980
591.455994,521.184021,708.575989
585.599976,501.664001,710.528015
591.455994,503.615997,714.432007
593.408020,509.471985,716.383972
591.455994,509.471985,712.479980
593.408020,503.615997,704.671997
593.408020,503.615997,716.383972
595.359985,497.760010,712.479980
585.599976,501.664001,710.528015
583.648010,505.567993,704.671997
601.216003,499.712006,714.432007
603.168030,499.712006,708.575989
595.359985,495.808014,706.624023
593.408020,501.664001,712.479980
593.408020,495.808014,710.528015
597.312012,488.000000,716.383972
599.263977,489.951996,712.479980
587.552002,493.855988,708.575989
603.168030,497.760010,712.479980
605.119995,486.048004,712.479980
601.216003,497.760010,714.432007
605.119995,486.048004,710.528015
605.119995,480.191986,714.432007
601.216003,482.144012,714.432007
591.455994,488.000000,700.768005
593.408020,491.903992,700.768005
589.504028,488.000000,706.624023
591.455994,482.144012,706.624023
591.455994,493.855988,702.719971
589.504028,480.191986,704.671997
593.408020,480.191986,710.528015
593.408020,484.096008,706.624023
591.455994,484.096008,714.432007
589.504028,480.191986,704.671997
585.599976,486.048004,704.671997
585.599976,478.239990,704.671997
575.840027,474.335999,706.624023
583.648010,478.239990,694.911987
575.840027,476.287994,691.007996
579.744019,472.384003,700.768005
577.791992,472.384003,696.864014
575.840027,482.144012,694.911987
583.648010,476.287994,702.719971
573.888000,478.239990,700.768005
583.648010,484.096008,700.768005
577.791992,478.239990,698.815979
579.744019,470.432007,698.815979
566.080017,476.287994,696.864014
571.935974,482.144012,700.768005
566.080017,476.287994,702.719971
569.984009,470.432007,698.815979
566.080017,478.239990,704.671997
566.080017,470.432007,708.575989
564.127991,468.480011,694.911987
571.935974,472.384003,698.815979
568.031982,470.432007,694.911987
564.127991,480.191986,694.911987
562.176025,472.384003,687.104004
564.127991,470.432007,689.056030
575.840027,474.335999,691.007996
564.127991,478.239990,700.768005
568.031982,466.528015,696.864014
566.080017,464.575989,689.056030
566.080017,460.671997,683.200012
568.031982,456.768005,691.007996
558.271973,466.528015,698.815979
564.127991,470.432007,696.864014
558.271973,460.671997,683.200012
564.127991,468.480011,687.104004
556.320007,464.575989,696.864014
560.223999,468.480011,694.911987
560.223999,460.671997,691.007996
558.271973,462.623993,691.007996
554.367981,470.432007,691.007996
552.416016,456.768005,692.960022
560.223999,456.768005,694.911987
558.271973,454.816010,704.671997
556.320007,456.768005,691.007996
548.512024,448.959991,689.056030
550.463989,478.239990,692.960022
546.559998,462.623993,687.104004
556.320007,466.528015,689.056030
546.559998,460.671997,679.296021
542.656006,468.480011,687.104004
546.559998,464.575989,687.104004
542.656006,474.335999,687.104004
552.416016,460.671997,689.056030
552.416016,464.575989,685.151978
552.416016,460.671997,687.104004
548.512024,454.816010,679.296021
546.559998,468.480011,689.056030
534.848022,456.768005,694.911987
544.607971,464.575989,685.151978
538.752014,448.959991,689.056030
546.559998,464.575989,683.200012
544.607971,462.623993,681.247986
548.512024,468.480011,685.151978
546.559998,468.480011,687.104004
546.559998,472.384003,691.007996
548.512024,468.480011,691.007996
544.607971,462.623993,692.960022
540.703979,472.384003,696.864014
538.752014,462.623993,694.911987
538.752014,460.671997,694.911987
542.656006,462.623993,692.960022
548.512024,462.623993,694.911987
540.703979,456.768005,681.247986
544.607971,460.671997,692.960022
542.656006,458.720001,692.960022
540.703979,456.768005,687.104004
542.656006,462.623993,694.911987
536.799988,454.816010,689.056030
540.703979,462.623993,687.104004
534.848022,456.768005,687.104004
538.752014,464.575989,687.104004
542.656006,470.432007,687.104004
536.799988,470.432007,694.911987
540.703979,464.575989,692.960022
532.895996,466.528015,687.104004
536.799988,464.575989,694.911987
536.799988,458.720001,694.911987
530.943970,458.720001,694.911987
534.848022,458.720001,696.864014
544.607971,472.384003,691.007996
534.848022,468.480011,692.960022
536.799988,460.671997,687.104004
530.943970,464.575989,692.960022
540.703979,464.575989,689.056030
534.848022,460.671997,685.151978
546.559998,456.768005,681.247986
542.656006,458.720001,694.911987
540.703979,466.528015,692.960022
540.703979,468.480011,681.247986
540.703979,468.480011,683.200012
544.607971,458.720001,687.104004
534.848022,468.480011,692.960022
544.607971,468.480011,692.960022
540.703979,470.432007,694.911987
542.656006,470.432007,704.671997
540.703979,458.720001,696.864014
542.656006,470.432007,700.768005
544.607971,468.480011,687.104004
548.512024,468.480011,691.007996
538.752014,462.623993,692.960022
538.752014,454.816010,685.151978
548.512024,468.480011,691.007996
542.656006,460.671997,689.056030
540.703979,462.623993,687.104004
544.607971,456.768005,687.104004
538.752014,468.480011,689.056030
544.607971,466.528015,692.960022
536.799988,466.528015,675.392029
534.848022,468.480011,679.296021
534.848022,462.623993,689.056030
540.703979,462.623993,692.960022
536.799988,468.480011,691.007996
534.848022,466.528015,685.151978
540.703979,476.287994,679.296021
538.752014,464.575989,694.911987
540.703979,462.623993,679.296021
538.752014,458.720001,687.104004
540.703979,456.768005,687.104004
540.703979,466.528015,687.104004
534.848022,464.575989,689.056030
540.703979,466.528015,692.960022
540.703979,460.671997,692.960022
540.703979,462.623993,683.200012
544.607971,468.480011,687.104004
538.752014,456.768005,689.056030
540.703979,468.480011,692.960022
544.607971,466.528015,685.151978
540.703979,462.623993,683.200012
534.848022,468.480011,687.104004
532.895996,464.575989,671.487976
528.992004,466.528015,679.296021
523.135986,460.671997,679.296021
523.135986,458.720001,683.200012
534.848022,462.623993,681.247986
532.895996,456.768005,681.247986
525.088013,466.528015,667.583984
532.895996,450.911987,667.583984
528.992004,458.720001,679.296021
528.992004,466.528015,671.487976
521.184021,454.816010,675.392029
519.231995,456.768005,677.343994
519.231995,456.768005,677.343994
517.280029,464.575989,675.392029
523.135986,458.720001,687.104004
511.424011,456.768005,683.200012
519.231995,450.911987,681.247986
525.088013,456.768005,683.200012
521.184021,452.864014,679.296021
511.424011,458.720001,677.343994
515.328003,452.864014,677.343994
519.231995,462.623993,677.343994
515.328003,462.623993,683.200012
519.231995,452.864014,681.247986
513.375977,456.768005,673.440002
519.231995,458.720001,675.392029
517.280029,454.816010,679.296021
521.184021,462.623993,675.392029
513.375977,450.911987,677.343994
515.328003,466.528015,681.247986
519.231995,456.768005,677.343994
521.184021,456.768005,681.247986
519.231995,450.911987,685.151978
515.328003,466.528015,679.296021
519.231995,454.816010,679.296021
511.424011,445.056000,683.200012
519.231995,454.816010,683.200012
525.088013,452.864014,675.392029
517.280029,445.056000,679.296021
519.231995,454.816010,689.056030
521.184021,458.720001,679.296021
525.088013,452.864014,685.151978
525.088013,470.432007,679.296021
525.088013,464.575989,681.247986
523.135986,470.432007,683.200012
521.184021,466.528015,679.296021
519.231995,468.480011,673.440002
519.231995,470.432007,675.392029
517.280029,454.816010,679.296021
515.328003,466.528015,675.392029
517.280029,462.623993,671.487976
523.135986,470.432007,679.296021
515.328003,458.720001,677.343994
525.088013,464.575989,665.632019
517.280029,474.335999,677.343994
509.471985,466.528015,685.151978
517.280029,462.623993,671.487976
509.471985,462.623993,675.392029
513.375977,470.432007,675.392029
513.375977,466.528015,671.487976
507.519989,470.432007,675.392029
507.519989,456.768005,675.392029
511.424011,462.623993,681.247986
517.280029,468.480011,677.343994
517.280029,456.768005,677.343994
503.615997,464.575989,679.296021
521.184021,466.528015,681.247986
515.328003,466.528015,685.151978
519.231995,460.671997,685.151978
515.328003,466.528015,685.151978
527.039978,470.432007,679.296021
525.088013,460.671997,679.296021
517.280029,464.575989,681.247986
528.992004,462.623993,689.056030
521.184021,464.575989,691.007996
521.184021,466.528015,681.247986
525.088013,460.671997,675.392029
525.088013,458.720001,685.151978
530.943970,456.768005,671.487976
525.088013,470.432007,685.151978
530.943970,460.671997,677.343994
527.039978,460.671997,679.296021
530.943970,468.480011,677.343994
527.039978,462.623993,689.056030
530.943970,468.480011,677.343994
532.895996,468.480011,675.392029
532.895996,466.528015,681.247986
525.088013,472.384003,692.960022
532.895996,470.432007,683.200012
528.992004,468.480011,696.864014
527.039978,462.623993,689.056030
523.135986,460.671997,689.056030
530.943970,474.335999,683.200012
527.039978,460.671997,683.200012
528.992004,460.671997,681.247986
532.895996,470.432007,685.151978
525.088013,472.384003,685.151978
532.895996,464.575989,679.296021
532.895996,464.575989,689.056030
527.039978,472.384003,683.200012
538.752014,476.287994,689.056030
534.848022,468.480011,683.200012
534.848022,466.528015,683.200012
532.895996,470.432007,679.296021
532.895996,470.432007,689.056030
536.799988,468.480011,689.056030
538.752014,462.623993,685.151978
534.848022,470.432007,679.296021
536.799988,464.575989,685.151978
546.559998,464.575989,681.247986
540.703979,462.623993,685.151978
540.703979,470.432007,679.296021
540.703979,466.528015,681.247986
540.703979,474.335999,689.056030
544.607971,474.335999,691.007996
538.752014,464.575989,694.911987
540.703979,466.528015,689.056030
536.799988,474.335999,691.007996
540.703979,468.480011,687.104004
532.895996,472.384003,685.151978
540.703979,468.480011,681.247986
540.703979,468.480011,685.151978
544.607971,468.480011,681.247986
532.895996,474.335999,692.960022
542.656006,464.575989,687.104004
542.656006,470.432007,681.247986
534.848022,468.480011,681.247986
534.848022,470.432007,679.296021
538.752014,472.384003,681.247986
538.752014,468.480011,679.296021
538.752014,472.384003,687.104004
546.559998,462.623993,679.296021
542.656006,474.335999,689.056030
542.656006,474.335999,692.960022
538.752014,468.480011,683.200012
538.752014,476.287994,691.007996
538.752014,474.335999,689.056030
538.752014,476.287994,683.200012
534.848022,468.480011,685.151978
530.943970,478.239990,687.104004
538.752014,470.432007,694.911987
542.656006,478.239990,689.056030
534.848022,482.144012,689.056030
536.799988,480.191986,691.007996
538.752014,482.144012,679.296021
530.943970,472.384003,683.200012
536.799988,478.239990,687.104004
536.799988,478.239990,679.296021
534.848022,468.480011,681.247986
528.992004,480.191986,675.392029
527.039978,478.239990,673.440002
536.799988,474.335999,679.296021
536.799988,474.335999,679.296021
530.943970,478.239990,681.247986
528.992004,472.384003,685.151978
532.895996,464.575989,681.247986
532.895996,470.432007,689.056030
536.799988,472.384003,681.247986
530.943970,480.191986,683.200012
534.848022,470.432007,689.056030
536.799988,472.384003,687.104004
536.799988,474.335999,691.007996
534.848022,468.480011,683.200012
530.943970,472.384003,685.151978
528.992004,484.096008,685.151978
534.848022,474.335999,677.343994
532.895996,468.480011,685.151978
532.895996,474.335999,685.151978
540.703979,472.384003,677.343994
536.799988,474.335999,677.343994
538.752014,480.191986,679.296021
540.703979,472.384003,679.296021
532.895996,468.480011,683.200012
540.703979,466.528015,687.104004
540.703979,460.671997,692.960022
544.607971,464.575989,692.960022
542.656006,474.335999,691.007996
548.512024,478.239990,692.960022
530.943970,472.384003,681.247986
540.703979,472.384003,691.007996
542.656006,474.335999,683.200012
542.656006,474.335999,691.007996
542.656006,474.335999,687.104004
550.463989,476.287994,689.056030
556.320007,472.384003,683.200012
554.367981,474.335999,677.343994
548.512024,474.335999,696.864014
550.463989,478.239990,689.056030
560.223999,476.287994,687.104004
546.559998,464.575989,683.200012
550.463989,474.335999,689.056030
552.416016,474.335999,687.104004
558.271973,464.575989,689.056030
560.223999,474.335999,694.911987
546.559998,474.335999,692.960022
554.367981,468.480011,692.960022
554.367981,474.335999,696.864014
573.888000,464.575989,696.864014
566.080017,474.335999,685.151978
554.367981,470.432007,691.007996
560.223999,460.671997,696.864014
558.271973,476.287994,694.911987
558.271973,466.528015,692.960022
564.127991,474.335999,704.671997
566.080017,464.575989,694.911987
575.840027,466.528015,704.671997
568.031982,470.432007,704.671997
575.840027,478.239990,696.864014
573.888000,472.384003,696.864014
573.888000,480.191986,702.719971
583.648010,478.239990,700.768005
571.935974,482.144012,696.864014
571.935974,482.144012,696.864014
579.744019,476.287994,691.007996
571.935974,478.239990,696.864014
575.840027,464.575989,694.911987
573.888000,470.432007,694.911987
569.984009,472.384003,696.864014
571.935974,464.575989,692.960022
575.840027,460.671997,698.815979
577.791992,470.432007,696.864014
577.791992,470.432007,692.960022
579.744019,472.384003,692.960022
579.744019,470.432007,692.960022
571.935974,478.239990,696.864014
562.176025,468.480011,696.864014
569.984009,468.480011,685.151978
568.031982,478.239990,687.104004
569.984009,474.335999,691.007996
579.744019,476.287994,702.719971
566.080017,474.335999,692.960022
575.840027,472.384003,700.768005
571.935974,472.384003,691.007996
571.935974,468.480011,692.960022
575.840027,476.287994,691.007996
569.984009,478.239990,691.007996
573.888000,470.432007,698.815979
571.935974,478.239990,700.768005
566.080017,472.384003,692.960022
569.984009,478.239990,696.864014
575.840027,484.096008,696.864014
564.127991,480.191986,692.960022
573.888000,480.191986,691.007996
569.984009,474.335999,685.151978
577.791992,468.480011,687.104004
569.984009,486.048004,689.056030
569.984009,478.239990,683.200012
577.791992,472.384003,696.864014
573.888000,470.432007,694.911987
566.080017,478.239990,691.007996
575.840027,478.239990,700.768005
566.080017,472.384003,696.864014
571.935974,480.191986,691.007996
573.888000,474.335999,691.007996
564.127991,474.335999,694.911987
571.935974,476.287994,696.864014
573.888000,478.239990,700.768005
573.888000,474.335999,689.056030
575.840027,468.480011,692.960022
569.984009,476.287994,683.200012
571.935974,470.432007,696.864014
575.840027,472.384003,696.864014
573.888000,470.432007,694.911987
569.984009,476.287994,687.104004
577.791992,476.287994,696.864014
569.984009,474.335999,689.056030
573.888000,474.335999,689.056030
577.791992,468.480011,687.104004
569.984009,476.287994,689.056030
583.648010,474.335999,692.960022
583.648010,474.335999,694.911987
577.791992,472.384003,689.056030
583.648010,472.384003,691.007996
575.840027,468.480011,696.864014
579.744019,472.384003,694.911987
575.840027,460.671997,698.815979
579.744019,460.671997,700.768005
581.695984,470.432007,694.911987
579.744019,464.575989,692.960022
579.744019,462.623993,698.815979
581.695984,466.528015,696.864014
573.888000,458.720001,694.911987
577.791992,460.671997,696.864014
569.984009,470.432007,700.768005
579.744019,466.528015,692.960022
583.648010,474.335999,698.815979
583.648010,468.480011,694.911987
579.744019,462.623993,692.960022
575.840027,472.384003,696.864014
579.744019,462.623993,704.671997
575.840027,466.528015,700.768005
566.080017,466.528015,704.671997
577.791992,454.816010,706.624023
569.984009,470.432007,698.815979
568.031982,466.528015,694.911987
568.031982,460.671997,698.815979
568.031982,458.720001,700.768005
569.984009,460.671997,694.911987
568.031982,464.575989,706.624023
569.984009,464.575989,698.815979
568.031982,460.671997,704.671997
569.984009,466.528015,694.911987
575.840027,452.864014,700.768005
566.080017,462.623993,698.815979
566.080017,460.671997,687.104004
568.031982,456.768005,696.864014
571.935974,452.864014,700.768005
568.031982,470.432007,698.815979
568.031982,466.528015,698.815979
560.223999,462.623993,696.864014
554.367981,454.816010,694.911987
562.176025,462.623993,700.768005
562.176025,462.623993,700.768005
560.223999,464.575989,700.768005
560.223999,466.528015,698.815979
556.320007,474.335999,700.768005
558.271973,468.480011,700.768005
562.176025,466.528015,696.864014
560.223999,466.528015,696.864014
566.080017,454.816010,694.911987
573.888000,464.575989,694.911987
568.031982,456.768005,698.815979
562.176025,460.671997,702.719971
556.320007,468.480011,698.815979
558.271973,468.480011,700.768005
566.080017,460.671997,698.815979
569.984009,464.575989,700.768005
571.935974,472.384003,700.768005
568.031982,464.575989,698.815979
566.080017,460.671997,706.624023
560.223999,468.480011,700.768005
568.031982,466.528015,700.768005
556.320007,462.623993,702.719971
562.176025,456.768005,700.768005
568.031982,462.623993,704.671997
573.888000,462.623993,698.815979
566.080017,452.864014,702.719971
571.935974,464.575989,702.719971
569.984009,458.720001,698.815979
568.031982,464.575989,702.719971
568.031982,458.720001,694.911987
573.888000,464.575989,706.624023
562.176025,464.575989,702.719971
568.031982,456.768005,700.768005
569.984009,474.335999,708.575989
571.935974,468.480011,712.479980
571.935974,456.768005,704.671997
571.935974,464.575989,696.864014
566.080017,458.720001,708.575989
573.888000,456.768005,702.719971
562.176025,462.623993,704.671997
569.984009,470.432007,698.815979
564.127991,464.575989,702.719971
573.888000,466.528015,706.624023
569.984009,458.720001,698.815979
558.271973,458.720001,702.719971
575.840027,450.911987,702.719971
569.984009,454.816010,702.719971
566.080017,452.864014,698.815979
571.935974,452.864014,696.864014
569.984009,458.720001,702.719971
566.080017,456.768005,700.768005
560.223999,452.864014,704.671997
564.127991,450.911987,698.815979
566.080017,456.768005,698.815979
566.080017,452.864014,700.768005
558.271973,450.911987,694.911987
569.984009,458.720001,694.911987
568.031982,456.768005,696.864014
558.271973,450.911987,704.671997
562.176025,456.768005,696.864014
566.080017,450.911987,698.815979
566.080017,447.007996,702.719971
568.031982,441.152008,704.671997
566.080017,454.816010,700.768005
564.127991,445.056000,702.719971
562.176025,452.864014,704.671997
571.935974,452.864014,700.768005
564.127991,454.816010,706.624023
560.223999,462.623993,706.624023
568.031982,456.768005,700.768005
566.080017,454.816010,704.671997
571.935974,445.056000,704.671997
566.080017,445.056000,712.479980
566.080017,448.959991,704.671997
568.031982,445.056000,716.383972
569.984009,445.056000,714.432007
575.840027,447.007996,708.575989
569.984009,445.056000,708.575989
566.080017,443.104004,700.768005
573.888000,450.911987,710.528015
571.935974,445.056000,702.719971
566.080017,433.343994,712.479980
569.984009,443.104004,716.383972
571.935974,437.247986,712.479980
571.935974,437.247986,716.383972
571.935974,437.247986,714.432007
566.080017,439.200012,710.528015
571.935974,441.152008,700.768005
573.888000,441.152008,704.671997
575.840027,443.104004,716.383972
573.888000,443.104004,718.335999
573.888000,437.247986,714.432007
575.840027,435.295990,712.479980
568.031982,439.200012,706.624023
575.840027,437.247986,712.479980
569.984009,435.295990,720.288025
569.984009,439.200012,694.911987
571.935974,437.247986,712.479980
562.176025,431.391998,702.719971
568.031982,421.631989,708.575989
568.031982,439.200012,704.671997
568.031982,421.631989,706.624023
568.031982,429.440002,702.719971
571.935974,433.343994,706.624023
566.080017,433.343994,710.528015
569.984009,433.343994,706.624023
564.127991,435.295990,710.528015
566.080017,433.343994,714.432007
564.127991,437.247986,706.624023
569.984009,443.104004,708.575989
571.935974,435.295990,706.624023
562.176025,433.343994,700.768005
562.176025,425.536011,702.719971
566.080017,439.200012,710.528015
566.080017,431.391998,716.383972
558.271973,429.440002,710.528015
560.223999,435.295990,708.575989
568.031982,439.200012,712.479980
564.127991,439.200012,708.575989
560.223999,439.200012,710.528015
568.031982,437.247986,704.671997
564.127991,433.343994,710.528015
566.080017,429.440002,712.479980
564.127991,437.247986,712.479980
569.984009,441.152008,704.671997
571.935974,435.295990,712.479980
571.935974,433.343994,708.575989
571.935974,425.536011,712.479980
573.888000,443.104004,710.528015
566.080017,437.247986,724.192017
568.031982,437.247986,704.671997
560.223999,441.152008,712.479980
564.127991,437.247986,712.479980
569.984009,441.152008,698.815979
568.031982,437.247986,702.719971
554.367981,439.200012,708.575989
568.031982,437.247986,702.719971
564.127991,435.295990,708.575989
564.127991,443.104004,704.671997
560.223999,437.247986,708.575989
564.127991,435.295990,712.479980
558.271973,439.200012,710.528015
556.320007,447.007996,706.624023
554.367981,450.911987,694.911987
560.223999,441.152008,716.383972
558.271973,445.056000,694.911987
556.320007,441.152008,706.624023
552.416016,447.007996,706.624023
548.512024,441.152008,704.671997
554.367981,447.007996,704.671997
558.271973,445.056000,704.671997
546.559998,454.816010,708.575989
542.656006,450.911987,710.528015
550.463989,441.152008,706.624023
540.703979,437.247986,712.479980
538.752014,439.200012,694.911987
548.512024,439.200012,698.815979
544.607971,441.152008,698.815979
536.799988,441.152008,694.911987
534.848022,443.104004,694.911987
525.088013,437.247986,698.815979
527.039978,443.104004,700.768005
528.992004,437.247986,700.768005
530.943970,448.959991,694.911987
525.088013,437.247986,694.911987
528.992004,437.247986,696.864014
530.943970,437.247986,702.719971
525.088013,437.247986,702.719971
523.135986,447.007996,704.671997
528.992004,437.247986,698.815979
523.135986,443.104004,704.671997
527.039978,435.295990,708.575989
527.039978,443.104004,694.911987
525.088013,435.295990,708.575989
527.039978,429.440002,710.528015
521.184021,433.343994,698.815979
517.280029,429.440002,704.671997
528.992004,429.440002,708.575989
528.992004,427.488007,708.575989
519.231995,433.343994,704.671997
519.231995,437.247986,702.719971
530.943970,431.391998,698.815979
523.135986,429.440002,702.719971
528.992004,435.295990,708.575989
525.088013,429.440002,702.719971
519.231995,429.440002,698.815979
513.375977,437.247986,704.671997
517.280029,439.200012,700.768005
521.184021,443.104004,700.768005
525.088013,437.247986,696.864014
519.231995,433.343994,694.911987
515.328003,435.295990,687.104004
525.088013,441.152008,692.960022
517.280029,433.343994,694.911987
513.375977,437.247986,706.624023
513.375977,439.200012,700.768005
513.375977,439.200012,696.864014
515.328003,431.391998,712.479980
517.280029,429.440002,704.671997
509.471985,441.152008,700.768005
515.328003,441.152008,698.815979
519.231995,439.200012,698.815979
511.424011,433.343994,700.768005
519.231995,439.200012,704.671997
517.280029,439.200012,698.815979
507.519989,441.152008,694.911987
509.471985,447.007996,704.671997
511.424011,447.007996,704.671997
511.424011,447.007996,702.719971
515.328003,445.056000,706.624023
511.424011,439.200012,698.815979
521.184021,445.056000,696.864014
521.184021,433.343994,691.007996
513.375977,443.104004,694.911987
513.375977,437.247986,691.007996
511.424011,439.200012,698.815979
517.280029,431.391998,696.864014
525.088013,441.152008,692.960022
519.231995,439.200012,698.815979
523.135986,443.104004,698.815979
527.039978,429.440002,702.719971
528.992004,435.295990,696.864014
528.992004,437.247986,708.575989
525.088013,443.104004,706.624023
519.231995,437.247986,708.575989
523.135986,429.440002,708.575989
527.039978,439.200012,710.528015
532.895996,429.440002,710.528015
530.943970,431.391998,700.768005
536.799988,429.440002,704.671997
538.752014,433.343994,706.624023
544.607971,433.343994,706.624023
544.607971,433.343994,706.624023
542.656006,433.343994,704.671997
534.848022,435.295990,706.624023
538.752014,441.152008,706.624023
534.848022,443.104004,700.768005
527.039978,431.391998,708.575989
532.895996,417.727997,698.815979
544.607971,417.727997,716.383972
534.848022,409.920013,710.528015
544.607971,419.679993,708.575989
532.895996,417.727997,698.815979
534.848022,419.679993,704.671997
536.799988,413.824005,712.479980
542.656006,419.679993,708.575989
538.752014,411.872009,708.575989
540.703979,413.824005,708.575989
534.848022,413.824005,698.815979
540.703979,406.015991,706.624023
536.799988,406.015991,702.719971
542.656006,409.920013,702.719971
534.848022,406.015991,712.479980
536.799988,409.920013,698.815979
544.607971,398.208008,706.624023
538.752014,398.208008,704.671997
536.799988,407.967987,702.719971
544.607971,409.920013,696.864014
530.943970,404.063995,696.864014
530.943970,402.112000,694.911987
534.848022,394.303986,712.479980
532.895996,396.256012,708.575989
532.895996,394.303986,700.768005
532.895996,396.256012,700.768005
532.895996,394.303986,698.815979
527.039978,392.351990,692.960022
527.039978,394.303986,706.624023
527.039978,392.351990,694.911987
532.895996,388.447998,698.815979
532.895996,392.351990,700.768005
525.088013,394.303986,694.911987
527.039978,392.351990,698.815979
523.135986,394.303986,700.768005
532.895996,390.399994,696.864014
523.135986,392.351990,698.815979
532.895996,388.447998,704.671997
527.039978,380.640015,704.671997
523.135986,386.496002,700.768005
528.992004,374.783997,698.815979
530.943970,388.447998,704.671997
530.943970,388.447998,706.624023
536.799988,382.592010,712.479980
542.656006,368.928009,706.624023
536.799988,374.783997,706.624023
540.703979,382.592010,702.719971
538.752014,378.687988,706.624023
534.848022,374.783997,712.479980
530.943970,378.687988,706.624023
536.799988,380.640015,716.383972
540.703979,378.687988,698.815979
538.752014,380.640015,710.528015
540.703979,380.640015,706.624023
536.799988,378.687988,712.479980
546.559998,380.640015,712.479980
542.656006,386.496002,714.432007
538.752014,392.351990,708.575989
536.799988,374.783997,702.719971
538.752014,394.303986,720.288025
544.607971,398.208008,716.383972
544.607971,392.351990,716.383972
540.703979,380.640015,710.528015
536.799988,376.735992,706.624023
534.848022,380.640015,702.719971
536.799988,370.880005,708.575989
528.992004,380.640015,702.719971
530.943970,378.687988,704.671997
528.992004,380.640015,702.719971
528.992004,388.447998,692.960022
519.231995,374.783997,691.007996
528.992004,374.783997,691.007996
511.424011,382.592010,689.056030
515.328003,382.592010,681.247986
513.375977,374.783997,675.392029
511.424011,388.447998,679.296021
513.375977,386.496002,679.296021
521.184021,376.735992,677.343994
517.280029,376.735992,671.487976
521.184021,386.496002,671.487976
507.519989,382.592010,689.056030
517.280029,384.544006,689.056030
511.424011,386.496002,696.864014
503.615997,386.496002,691.007996
511.424011,396.256012,694.911987
515.328003,392.351990,696.864014
515.328003,394.303986,692.960022
515.328003,390.399994,696.864014
525.088013,400.160004,694.911987
525.088013,398.208008,696.864014
509.471985,398.208008,694.911987
511.424011,398.208008,692.960022
521.184021,392.351990,694.911987
509.471985,407.967987,696.864014
507.519989,402.112000,694.911987
501.664001,402.112000,702.719971
505.567993,402.112000,692.960022
505.567993,394.303986,696.864014
501.664001,390.399994,708.575989
501.664001,396.256012,696.864014
493.855988,400.160004,692.960022
497.760010,404.063995,696.864014
497.760010,402.112000,696.864014
493.855988,394.303986,694.911987
493.855988,400.160004,700.768005
493.855988,404.063995,691.007996
489.951996,404.063995,691.007996
489.951996,411.872009,696.864014
489.951996,407.967987,683.200012
486.048004,402.112000,694.911987
486.048004,398.208008,694.911987
486.048004,398.208008,694.911987
480.191986,392.351990,691.007996
476.287994,400.160004,708.575989
484.096008,400.160004,706.624023
482.144012,386.496002,698.815979
486.048004,396.256012,698.815979
482.144012,394.303986,714.432007
482.144012,386.496002,706.624023
476.287994,382.592010,716.383972
476.287994,388.447998,710.528015
468.480011,384.544006,720.288025
470.432007,378.687988,718.335999
470.432007,380.640015,724.192017
476.287994,376.735992,724.192017
474.335999,376.735992,726.143982
464.575989,392.351990,732.000000
472.384003,392.351990,737.856018
474.335999,400.160004,743.711975
478.239990,394.303986,749.567993
482.144012,386.496002,759.328003
478.239990,386.496002,757.375977
478.239990,388.447998,753.471985
468.480011,382.592010,749.567993
470.432007,396.256012,741.760010
470.432007,384.544006,739.807983
480.191986,388.447998,743.711975
489.951996,382.592010,732.000000
478.239990,382.592010,728.096008
472.384003,374.783997,714.432007
476.287994,374.783997,712.479980
448.959991,372.832001,700.768005
456.768005,365.023987,696.864014
470.432007,347.455994,696.864014
472.384003,384.544006,692.960022
478.239990,366.976013,679.296021
476.287994,365.023987,685.151978
476.287994,386.496002,679.296021
478.239990,394.303986,681.247986
478.239990,392.351990,683.200012
474.335999,402.112000,675.392029
474.335999,406.015991,675.392029
474.335999,419.679993,675.392029
466.528015,413.824005,673.440002
433.343994,443.104004,671.487976
569.984009,515.328003,663.679993
597.312012,507.519989,696.864014
569.984009,185.440002,714.432007
589.504028,68.320000,747.616028
376.735992,548.512024,868.640015
542.656006,763.231995,894.015991
720.288025,343.552002,895.968018
817.888000,113.216003,944.768005
392.351990,298.656006,1024.800049
886.208008,458.720001,1046.271973
536.799988,306.463989,1122.400024
755.424011,324.032013,1141.920044
790.559998,144.447998,1155.583984
782.752014,150.304001,1157.536011
745.664001,335.743988,1157.536011
581.695984,365.023987,1139.968018
595.359985,347.455994,1104.832031
642.208008,355.264008,1106.784058
759.328003,441.152008,1098.975952
730.047974,415.776001,1085.312012
669.536011,370.880005,1083.359985
733.952026,380.640015,1069.696045
661.728027,435.295990,1057.984009
651.968018,413.824005,1056.031982
640.255981,320.127991,1034.560059
630.495972,255.712006,1026.751953
624.640015,294.752014,1015.039978
636.351990,333.791992,1011.135986
708.575989,279.135986,1007.231995
722.239990,179.584000,991.616028
-42.944000,-279.135986,981.856018
714.432007,-107.360001,839.359985
667.583984,-448.959991,730.047974
899.872009,-445.056000,691.007996
769.088013,-345.503998,722.239990
720.288025,-15.616000,796.416016
599.263977,201.056000,878.400024
554.367981,351.359985,890.112000
513.375977,382.592010,872.544006
538.752014,407.967987,860.831970
519.231995,396.256012,841.312012
511.424011,376.735992,835.455994
517.280029,324.032013,812.031982
552.416016,222.528000,790.559998
552.416016,89.792000,769.088013
599.263977,-35.136002,747.616028
620.736023,-212.768005,714.432007
636.351990,-417.727997,696.864014
661.728027,-597.312012,687.104004
671.487976,-716.383972,691.007996
755.424011,-815.935974,712.479980
829.599976,-790.559998,753.471985
378.687988,-175.679993,790.559998
269.376007,876.447998,890.112000
544.607971,872.544006,921.343994
257.664001,497.760010,823.744019
507.519989,493.855988,804.223999
505.567993,439.200012,815.935974
657.823975,230.335999,790.559998
-25.375999,1702.144043,712.479980
310.368011,4692.607910,724.192017
1239.520020,3357.439941,868.640015
-56.608002,-597.312012,854.976013
874.495972,-1602.592041,825.695984
630.495972,-716.383972,765.184021
573.888000,351.359985,730.047974
365.023987,841.312012,743.711975
368.928009,1413.248047,735.903992
472.384003,778.848022,706.624023
447.007996,15.616000,632.447998
445.056000,195.199997,593.408020
525.088013,730.047974,595.359985
888.159973,673.440002,634.400024
363.071991,216.671997,583.648010
390.399994,222.528000,587.552002
527.039978,433.343994,605.119995
489.951996,411.872009,589.504028
427.488007,267.424011,558.271973
517.280029,236.192001,577.791992
519.231995,279.135986,589.504028
907.679993,201.056000,636.351990
302.559998,308.415985,575.840027
585.599976,263.519989,610.976013
648.064026,197.151993,614.880005
316.223999,165.919998,568.031982
269.376007,302.559998,568.031982
310.368011,308.415985,591.455994
573.888000,173.727997,593.408020
776.895996,138.591995,593.408020
866.687988,187.391998,610.976013
216.671997,288.895996,597.312012
579.744019,327.936005,669.536011
488.000000,156.160004,653.919983
556.320007,228.384003,632.447998
458.720001,296.704010,657.823975
554.367981,404.063995,698.815979
501.664001,245.951996,726.143982
445.056000,193.248001,694.911987
540.703979,394.303986,677.343994
489.951996,474.335999,669.536011
554.367981,283.040009,679.296021
528.992004,130.783997,681.247986
532.895996,204.960007,675.392029
585.599976,359.167999,677.343994
505.567993,366.976013,681.247986
544.607971,251.807999,679.296021
603.168030,183.488007,691.007996
568.031982,224.479996,700.768005
568.031982,286.944000,702.719971
560.223999,292.799988,700.768005
519.231995,261.567993,694.911987
528.992004,259.615997,691.007996
550.463989,277.183990,694.911987
550.463989,247.904007,698.815979
521.184021,212.768005,689.056030
507.519989,220.576004,687.104004
484.096008,244.000000,685.151978
501.664001,232.287994,681.247986
568.031982,185.440002,681.247986
548.512024,136.639999,669.536011
363.071991,154.207993,648.064026
441.152008,242.048004,646.112000
513.375977,199.104004,653.919983
489.951996,105.407997,650.015991
517.280029,80.031998,646.112000
540.703979,173.727997,650.015991
509.471985,240.095993,648.064026
468.480011,234.240005,659.776001
532.895996,156.160004,673.440002
546.559998,87.839996,679.296021
519.231995,124.928001,687.104004
495.808014,203.007996,685.151978
528.992004,247.904007,696.864014
495.808014,204.960007,691.007996
497.760010,146.399994,708.575989
503.615997,142.496002,702.719971
513.375977,187.391998,706.624023
521.184021,230.335999,712.479980
431.391998,201.056000,724.192017
456.768005,183.488007,710.528015
489.951996,138.591995,720.288025
486.048004,103.456001,712.479980
456.768005,130.783997,702.719971
456.768005,185.440002,706.624023
458.720001,175.679993,716.383972
462.623993,154.207993,702.719971
478.239990,122.975998,712.479980
482.144012,103.456001,706.624023
472.384003,132.735992,716.383972
474.335999,162.016006,714.432007
464.575989,150.304001,716.383972
458.720001,117.120003,712.479980
466.528015,85.888000,708.575989
476.287994,81.984001,710.528015
456.768005,93.695999,706.624023
388.447998,124.928001,704.671997
468.480011,128.832001,708.575989
460.671997,85.888000,716.383972
755.424011,80.031998,737.856018
271.328003,-11.712000,732.000000
587.552002,210.815994,733.952026
466.528015,142.496002,747.616028
476.287994,163.968002,743.711975
525.088013,122.975998,747.616028
468.480011,70.272003,755.424011
546.559998,126.879997,747.616028
511.424011,146.399994,753.471985
530.943970,183.488007,751.520020
636.351990,195.199997,761.280029
409.920013,132.735992,737.856018
571.935974,169.824005,728.096008
314.272003,101.503998,718.335999
569.984009,214.720001,747.616028
605.119995,39.040001,751.520020
470.432007,23.424000,739.807983
491.903992,179.584000,712.479980
388.447998,286.944000,704.671997
564.127991,240.095993,716.383972
530.943970,52.703999,708.575989
538.752014,39.040001,698.815979
513.375977,146.399994,685.151978
456.768005,279.135986,683.200012
482.144012,265.471985,679.296021
509.471985,156.160004,685.151978
523.135986,76.127998,679.296021
513.375977,89.792000,669.536011
493.855988,185.440002,663.679993
482.144012,240.095993,657.823975
484.096008,226.432007,651.968018
482.144012,165.919998,653.919983
486.048004,124.928001,648.064026
482.144012,144.447998,640.255981
482.144012,187.391998,640.255981
474.335999,218.623993,646.112000
470.432007,191.296005,630.495972
478.239990,152.255997,642.208008
489.951996,134.688004,636.351990
476.287994,148.352005,640.255981
484.096008,175.679993,642.208008
476.287994,177.632004,644.159973
478.239990,142.496002,650.015991
468.480011,124.928001,640.255981
478.239990,140.544006,636.351990
482.144012,146.399994,634.400024
474.335999,142.496002,646.112000
478.239990,130.783997,646.112000
474.335999,117.120003,642.208008
474.335999,140.544006,653.919983
466.528015,154.207993,651.968018
466.528015,160.063995,651.968018
474.335999,142.496002,648.064026
468.480011,132.735992,653.919983
462.623993,142.496002,650.015991
464.575989,148.352005,648.064026
462.623993,163.968002,651.968018
462.623993,158.112000,651.968018
470.432007,150.304001,648.064026
472.384003,167.871994,634.400024
460.671997,167.871994,632.447998
464.575989,173.727997,624.640015
462.623993,175.679993,609.023987
458.720001,167.871994,609.023987
468.480011,169.824005,589.504028
478.239990,181.535995,595.359985
466.528015,185.440002,577.791992
464.575989,187.391998,577.791992
460.671997,201.056000,568.031982
468.480011,193.248001,564.127991
466.528015,191.296005,558.271973
468.480011,179.584000,554.367981
464.575989,179.584000,564.127991
476.287994,189.343994,568.031982
476.287994,193.248001,558.271973
480.191986,199.104004,571.935974
484.096008,197.151993,569.984009
478.239990,197.151993,571.935974
484.096008,183.488007,564.127991
478.239990,203.007996,571.935974
489.951996,212.768005,579.744019
476.287994,206.912003,579.744019
493.855988,203.007996,568.031982
497.760010,187.391998,575.840027
521.184021,81.984001,540.703979
532.895996,99.552002,482.144012
515.328003,370.880005,456.768005
503.615997,458.720001,480.191986
488.000000,240.095993,509.471985
482.144012,115.167999,534.848022
468.480011,210.815994,534.848022
460.671997,380.640015,525.088013
470.432007,380.640015,503.615997
484.096008,306.463989,515.328003
489.951996,292.799988,519.231995
484.096008,337.696014,542.656006
491.903992,366.976013,527.039978
495.808014,366.976013,507.519989
501.664001,361.119995,505.567993
501.664001,361.119995,519.231995
505.567993,351.359985,517.280029
513.375977,345.503998,507.519989
521.184021,339.648010,497.760010
521.184021,337.696014,495.808014
515.328003,324.032013,495.808014
523.135986,296.704010,497.760010
532.895996,283.040009,491.903992
544.607971,277.183990,489.951996
554.367981,259.615997,486.048004
558.271973,236.192001,489.951996
560.223999,224.479996,482.144012
566.080017,214.720001,472.384003
560.223999,206.912003,478.239990
579.744019,197.151993,472.384003
575.840027,193.248001,466.528015
569.984009,195.199997,472.384003
579.744019,199.104004,470.432007
587.552002,204.960007,464.575989
587.552002,203.007996,464.575989
591.455994,201.056000,468.480011
601.216003,210.815994,476.287994
614.880005,206.912003,476.287994
616.831970,224.479996,482.144012
622.687988,236.192001,493.855988
628.544006,240.095993,503.615997
638.304016,222.528000,523.135986
653.919983,216.671997,542.656006
661.728027,236.192001,566.080017
667.583984,234.240005,573.888000
681.247986,222.528000,589.504028
691.007996,234.240005,612.927979
692.960022,238.143997,634.400024
702.719971,230.335999,640.255981
700.768005,240.095993,636.351990
696.864014,259.615997,636.351990
700.768005,253.759995,630.495972
691.007996,249.856003,622.687988
689.056030,288.895996,607.072021
696.864014,286.944000,601.216003
689.056030,281.088013,587.552002
692.960022,284.992004,579.744019
696.864014,292.799988,573.888000
691.007996,296.704010,566.080017
692.960022,298.656006,564.127991
706.624023,286.944000,564.127991
712.479980,290.847992,568.031982
704.671997,288.895996,573.888000
712.479980,277.183990,595.359985
710.528015,267.424011,612.927979
718.335999,261.567993,622.687988
720.288025,277.183990,624.640015
726.143982,263.519989,634.400024
726.143982,251.807999,638.304016
733.952026,253.759995,657.823975
732.000000,259.615997,663.679993
741.760010,253.759995,655.872009
735.903992,259.615997,661.728027
733.952026,269.376007,665.632019
720.288025,259.615997,665.632019
724.192017,263.519989,661.728027
724.192017,265.471985,653.919983
722.239990,281.088013,655.872009
716.383972,253.759995,644.159973
716.383972,244.000000,642.208008
718.335999,253.759995,624.640015
718.335999,238.143997,620.736023
706.624023,247.904007,614.880005
704.671997,242.048004,599.263977
704.671997,234.240005,599.263977
702.719971,234.240005,603.168030
692.960022,232.287994,595.359985
696.864014,242.048004,593.408020
692.960022,228.384003,595.359985
687.104004,230.335999,593.408020
681.247986,228.384003,597.312012
679.296021,234.240005,593.408020
679.296021,224.479996,601.216003
689.056030,220.576004,597.312012
687.104004,220.576004,610.976013
689.056030,214.720001,609.023987
689.056030,210.815994,614.880005
696.864014,212.768005,618.783997
691.007996,216.671997,622.687988
683.200012,208.863998,616.831970
685.151978,212.768005,634.400024
692.960022,204.960007,628.544006
685.151978,199.104004,630.495972
683.200012,197.151993,630.495972
692.960022,206.912003,628.544006
689.056030,199.104004,626.591980
675.392029,204.960007,614.880005
689.056030,193.248001,599.263977
679.296021,195.199997,601.216003
679.296021,191.296005,595.359985
677.343994,189.343994,583.648010
677.343994,183.488007,577.791992
673.440002,183.488007,569.984009
669.536011,171.776001,571.935974
679.296021,169.824005,568.031982
679.296021,160.063995,562.176025
687.104004,156.160004,575.840027
691.007996,142.496002,569.984009
694.911987,140.544006,583.648010
702.719971,128.832001,583.648010
702.719971,124.928001,589.504028
710.528015,126.879997,595.359985
720.288025,134.688004,605.119995
730.047974,107.360001,607.072021
728.096008,115.167999,607.072021
735.903992,115.167999,612.927979
741.760010,111.264000,612.927979
747.616028,115.167999,618.783997
757.375977,109.311996,616.831970
761.280029,107.360001,620.736023
767.135986,101.503998,622.687988
778.848022,109.311996,618.783997
780.799988,97.599998,622.687988
780.799988,93.695999,632.447998
784.703979,95.648003,626.591980
794.463989,97.599998,630.495972
800.320007,99.552002,636.351990
813.984009,87.839996,626.591980
821.791992,83.935997,626.591980
817.888000,85.888000,632.447998
813.984009,80.031998,630.495972
825.695984,80.031998,626.591980
825.695984,80.031998,628.544006
825.695984,76.127998,634.400024
827.648010,76.127998,628.544006
819.840027,80.031998,620.736023
837.408020,74.176003,624.640015
831.552002,70.272003,620.736023
839.359985,72.223999,620.736023
837.408020,74.176003,618.783997
843.263977,72.223999,622.687988
831.552002,70.272003,620.736023
841.312012,64.416000,616.831970
849.119995,68.320000,616.831970
845.216003,66.367996,616.831970
845.216003,64.416000,628.544006
843.263977,72.223999,618.783997
853.023987,68.320000,622.687988
843.263977,68.320000,614.880005
841.312012,76.127998,620.736023
849.119995,66.367996,618.783997
845.216003,64.416000,616.831970
839.359985,60.512001,614.880005
845.216003,54.655998,616.831970
845.216003,70.272003,612.927979
839.359985,66.367996,616.831970
831.552002,62.464001,620.736023
839.359985,58.560001,616.831970
827.648010,64.416000,610.976013
827.648010,60.512001,612.927979
831.552002,58.560001,614.880005
829.599976,68.320000,607.072021
833.504028,72.223999,605.119995
821.791992,62.464001,610.976013
819.840027,54.655998,599.263977
817.888000,58.560001,593.408020
817.888000,66.367996,593.408020
815.935974,50.751999,591.455994
815.935974,56.608002,589.504028
804.223999,64.416000,595.359985
812.031982,50.751999,585.599976
804.223999,64.416000,589.504028
800.320007,50.751999,573.888000
794.463989,42.944000,577.791992
790.559998,56.608002,581.695984
790.559998,52.703999,571.935974
780.799988,50.751999,571.935974
790.559998,39.040001,564.127991
780.799988,52.703999,558.271973
772.992004,52.703999,566.080017
772.992004,52.703999,554.367981
761.280029,44.896000,554.367981
765.184021,54.655998,554.367981
765.184021,48.799999,556.320007
755.424011,37.088001,554.367981
759.328003,46.848000,546.559998
753.471985,46.848000,546.559998
741.760010,37.088001,548.512024
743.711975,44.896000,540.703979
732.000000,44.896000,542.656006
735.903992,46.848000,544.607971
730.047974,46.848000,538.752014
730.047974,33.183998,540.703979
722.239990,33.183998,527.039978
728.096008,37.088001,525.088013
728.096008,39.040001,521.184021
724.192017,46.848000,525.088013
714.432007,27.327999,523.135986
718.335999,46.848000,530.943970
716.383972,39.040001,519.231995
714.432007,33.183998,523.135986
712.479980,33.183998,525.088013
716.383972,35.136002,519.231995
712.479980,33.183998,517.280029
712.479980,23.424000,509.471985
706.624023,33.183998,513.375977
706.624023,27.327999,511.424011
716.383972,19.520000,509.471985
718.335999,15.616000,507.519989
714.432007,25.375999,509.471985
726.143982,15.616000,511.424011
728.096008,15.616000,515.328003
732.000000,9.760000,503.615997
733.952026,11.712000,509.471985
732.000000,13.664000,511.424011
737.856018,-3.904000,511.424011
733.952026,1.952000,507.519989
747.616028,-1.952000,509.471985
755.424011,-7.808000,511.424011
757.375977,-7.808000,517.280029
761.280029,-15.616000,505.567993
759.328003,-9.760000,511.424011
763.231995,-27.327999,507.519989
765.184021,-27.327999,509.471985
761.280029,-21.472000,503.615997
769.088013,-31.232000,509.471985
774.943970,-21.472000,505.567993
776.895996,-31.232000,513.375977
774.943970,-33.183998,511.424011
772.992004,-31.232000,509.471985
769.088013,-42.944000,515.328003
774.943970,-42.944000,511.424011
769.088013,-40.992001,507.519989
772.992004,-35.136002,503.615997
765.184021,-37.088001,505.567993
776.895996,-44.896000,511.424011
778.848022,-44.896000,513.375977
776.895996,-50.751999,511.424011
786.656006,-52.703999,499.712006
776.895996,-54.655998,511.424011
780.799988,-58.560001,511.424011
776.895996,-58.560001,499.712006
780.799988,-54.655998,503.615997
794.463989,-60.512001,503.615997
780.799988,-54.655998,509.471985
784.703979,-48.799999,503.615997
778.848022,-50.751999,499.712006
780.799988,-52.703999,495.808014
784.703979,-58.560001,503.615997
778.848022,-48.799999,493.855988
772.992004,-52.703999,489.951996
786.656006,-58.560001,486.048004
782.752014,-44.896000,488.000000
772.992004,-37.088001,482.144012
772.992004,-54.655998,476.287994
782.752014,-50.751999,472.384003
784.703979,-52.703999,472.384003
782.752014,-50.751999,468.480011
784.703979,-50.751999,482.144012
782.752014,-48.799999,476.287994
790.559998,-37.088001,468.480011
774.943970,-40.992001,470.432007
774.943970,-40.992001,466.528015
772.992004,-35.136002,462.623993
771.039978,-44.896000,456.768005
772.992004,-39.040001,460.671997
776.895996,-42.944000,454.816010
776.895996,-37.088001,450.911987
774.943970,-31.232000,450.911987
782.752014,-33.183998,456.768005
786.656006,-33.183998,452.864014
784.703979,-29.280001,447.007996
776.895996,-35.136002,448.959991
776.895996,-31.232000,448.959991
780.799988,-33.183998,450.911987
772.992004,-33.183998,439.200012
778.848022,-37.088001,441.152008
776.895996,-21.472000,435.295990
784.703979,-19.520000,425.536011
780.799988,-15.616000,425.536011
784.703979,-23.424000,415.776001
784.703979,-7.808000,419.679993
786.656006,-7.808000,413.824005
778.848022,-9.760000,411.872009
772.992004,-11.712000,406.015991
782.752014,-7.808000,402.112000
780.799988,-7.808000,415.776001
798.367981,-5.856000,413.824005
788.607971,-3.904000,413.824005
788.607971,5.856000,406.015991
800.320007,-3.904000,413.824005
813.984009,-13.664000,413.824005
821.791992,1.952000,417.727997
825.695984,-3.904000,413.824005
825.695984,-17.568001,419.679993
823.744019,-25.375999,429.440002
837.408020,-27.327999,439.200012
837.408020,-40.992001,439.200012
843.263977,-33.183998,458.720001
856.927979,-42.944000,454.816010
860.831970,-52.703999,472.384003
872.544006,-62.464001,484.096008
872.544006,-68.320000,489.951996
878.400024,-70.272003,491.903992
895.968018,-68.320000,495.808014
915.487976,-74.176003,488.000000
925.247986,-81.984001,488.000000
935.007996,-78.080002,488.000000
954.528015,-70.272003,480.191986
958.432007,-62.464001,466.528015
985.760010,-64.416000,454.816010
977.952026,-66.367996,445.056000
981.856018,-48.799999,429.440002
979.903992,-33.183998,413.824005
993.567993,-29.280001,415.776001
1003.328003,-29.280001,402.112000
1009.184021,-15.616000,378.687988
999.424011,-15.616000,376.735992
1011.135986,3.904000,376.735992
1015.039978,-1.952000,382.592010
1018.943970,-13.664000,366.976013
1030.656006,-17.568001,368.928009
1057.984009,-7.808000,376.735992
1079.456055,-15.616000,376.735992
1108.735962,-9.760000,388.447998
1169.248047,-33.183998,406.015991
1138.015991,-33.183998,421.631989
1145.823975,15.616000,415.776001
1106.784058,42.944000,413.824005
1091.167969,64.416000,390.399994
1069.696045,109.311996,372.832001
1061.887939,126.879997,355.264008
1069.696045,126.879997,343.552002
1083.359985,150.304001,339.648010
1126.303955,156.160004,363.071991
1171.199951,124.928001,384.544006
1192.671997,121.024002,396.256012
1200.479980,162.016006,396.256012
1200.479980,183.488007,406.015991
1227.807983,163.968002,415.776001
1221.952026,146.399994,415.776001
1237.567993,152.255997,413.824005
1229.760010,163.968002,413.824005
1229.760010,199.104004,415.776001
1243.423950,167.871994,429.440002
1235.615967,142.496002,421.631989
1241.472046,183.488007,406.015991
1235.615967,226.432007,398.208008
1229.760010,189.343994,407.967987
1245.375977,154.207993,423.584015
1255.135986,175.679993,425.536011
1255.135986,218.623993,419.679993
1266.848022,206.912003,402.112000
1266.848022,181.535995,419.679993
1278.560059,177.632004,433.343994
1294.176025,193.248001,439.200012
1290.271973,181.535995,433.343994
1292.223999,177.632004,460.671997
1296.128052,173.727997,482.144012
1303.936035,150.304001,509.471985
1313.696045,138.591995,525.088013
1296.128052,126.879997,534.848022
1305.887939,122.975998,546.559998
1313.696045,107.360001,573.888000
1303.936035,87.839996,585.599976
1301.984009,78.080002,587.552002
1305.887939,91.744003,597.312012
1292.223999,97.599998,609.023987
1288.319946,107.360001,624.640015
1290.271973,103.456001,634.400024
1280.511963,121.024002,646.112000
1290.271973,122.975998,655.872009
1301.984009,126.879997,665.632019
1288.319946,126.879997,673.440002
1298.079956,122.975998,687.104004
1290.271973,99.552002,694.911987
1294.176025,83.935997,702.719971
1290.271973,66.367996,708.575989
1321.504028,78.080002,700.768005
1305.887939,54.655998,694.911987
1305.887939,15.616000,671.487976
1280.511963,3.904000,669.536011
1274.656006,31.232000,659.776001
1249.280029,40.992001,661.728027
1233.663940,23.424000,650.015991
1241.472046,-3.904000,650.015991
1239.520020,-25.375999,636.351990
1229.760010,-15.616000,620.736023
1221.952026,17.568001,609.023987
1210.239990,37.088001,593.408020
1204.384033,21.472000,575.840027
1192.671997,7.808000,556.320007
1184.864014,7.808000,540.703979
1163.391968,27.327999,525.088013
1139.968018,39.040001,519.231995
1139.968018,42.944000,499.712006
1120.447998,35.136002,484.096008
1120.447998,21.472000,476.287994
1104.832031,25.375999,456.768005
1081.407959,33.183998,441.152008
1061.887939,27.327999,437.247986
1040.416016,44.896000,429.440002
1022.848022,56.608002,421.631989
1024.800049,48.799999,417.727997
1013.088013,78.080002,404.063995
1009.184021,146.399994,402.112000
1007.231995,191.296005,392.351990
989.664001,201.056000,374.783997
987.711975,255.712006,363.071991
993.567993,259.615997,355.264008
993.567993,179.584000,361.119995
1022.848022,81.984001,353.312012
1018.943970,31.232000,343.552002
1028.703979,3.904000,341.600006
1024.800049,-11.712000,333.791992
1009.184021,9.760000,324.032013
954.528015,97.599998,325.984009
911.583984,214.720001,353.312012
903.776001,132.735992,355.264008
897.919983,46.848000,329.888000
933.056030,121.024002,314.272003
911.583984,160.063995,304.511993
915.487976,80.031998,286.944000
936.960022,66.367996,263.519989
933.056030,124.928001,265.471985
944.768005,136.639999,242.048004
946.719971,107.360001,220.576004
909.632019,144.447998,197.151993
911.583984,249.856003,175.679993
835.455994,224.479996,158.112000
827.648010,134.688004,148.352005
866.687988,113.216003,152.255997
890.112000,162.016006,158.112000
888.159973,201.056000,146.399994
903.776001,204.960007,146.399994
895.968018,150.304001,128.832001
899.872009,140.544006,124.928001
905.728027,175.679993,122.975998
890.112000,222.528000,117.120003
876.447998,169.824005,121.024002
911.583984,128.832001,124.928001
907.679993,210.815994,128.832001
890.112000,277.183990,126.879997
911.583984,216.671997,134.688004
907.679993,144.447998,150.304001
899.872009,162.016006,144.447998
890.112000,203.007996,142.496002
890.112000,187.391998,140.544006
903.776001,128.832001,136.639999
899.872009,146.399994,132.735992
888.159973,183.488007,113.216003
895.968018,171.776001,122.975998
878.400024,126.879997,117.120003
862.783997,121.024002,117.120003
878.400024,144.447998,105.407997
894.015991,138.591995,101.503998
892.064026,126.879997,105.407997
894.015991,122.975998,101.503998
913.536011,154.207993,105.407997
915.487976,169.824005,97.599998
917.440002,167.871994,93.695999
929.151978,158.112000,109.311996
931.104004,144.447998,109.311996
929.151978,146.399994,134.688004
931.104004,154.207993,140.544006
952.575989,165.919998,140.544006
958.432007,162.016006,138.591995
966.239990,150.304001,126.879997
985.760010,150.304001,124.928001
993.567993,158.112000,130.783997
999.424011,169.824005,122.975998
999.424011,191.296005,126.879997
1007.231995,197.151993,126.879997
1028.703979,189.343994,126.879997
1034.560059,189.343994,121.024002
1048.223999,185.440002,124.928001
1057.984009,162.016006,109.311996
1063.839966,136.639999,99.552002
1069.696045,99.552002,93.695999
1071.647949,44.896000,99.552002
1083.359985,7.808000,103.456001
1093.119995,1.952000,101.503998
1061.887939,5.856000,87.839996
1061.887939,42.944000,91.744003
1071.647949,70.272003,99.552002
1069.696045,74.176003,89.792000
1038.463989,62.464001,91.744003
966.239990,337.696014,99.552002
970.143982,761.280029,103.456001
1026.751953,560.223999,101.503998
1048.223999,-9.760000,113.216003
1124.352051,-212.768005,117.120003
1153.631958,-124.928001,130.783997
1089.215942,128.832001,136.639999
1102.880005,333.791992,156.160004
1124.352051,294.752014,173.727997
1138.015991,83.935997,197.151993
1173.151978,-13.664000,201.056000
1220.000000,54.655998,187.391998
1169.248047,210.815994,183.488007
1255.135986,230.335999,189.343994
1253.183960,128.832001,206.912003
1212.192017,89.792000,212.768005
1179.008057,152.255997,220.576004
1204.384033,175.679993,242.048004
1188.767944,121.024002,263.519989
1192.671997,91.744003,275.231995
1190.719971,140.544006,288.895996
1173.151978,201.056000,304.511993
1141.920044,191.296005,320.127991
1145.823975,142.496002,339.648010
1139.968018,85.888000,349.407990
1208.287964,89.792000,359.167999
1268.800049,130.783997,374.783997
1241.472046,167.871994,378.687988
1118.495972,156.160004,400.160004
1399.583984,42.944000,452.864014
1374.208008,-93.695999,476.287994
1423.008057,-72.223999,501.664001
1464.000000,74.176003,538.752014
1323.456055,148.352005,552.416016
1221.952026,99.552002,571.935974
772.992004,-392.351990,610.976013
1063.839966,-359.167999,726.143982
1249.280029,292.799988,815.935974
1018.943970,460.671997,876.447998
1354.687988,-156.160004,897.919983
1555.744019,-692.960022,876.447998
1592.832031,-324.032013,831.552002
1249.280029,130.783997,829.599976
1034.560059,257.664001,812.031982
1350.784058,-204.960007,780.799988
1298.079956,-150.304001,733.952026
1464.000000,236.192001,722.239990
1157.536011,44.896000,724.192017
1307.839966,-480.191986,712.479980
1430.816040,-318.175995,687.104004
1401.536011,124.928001,673.440002
1337.119995,253.759995,681.247986
1315.647949,-138.591995,667.583984
1378.112061,-277.183990,665.632019
1444.479980,44.896000,671.487976
1315.647949,158.112000,683.200012
1292.223999,-17.568001,679.296021
1307.839966,-165.919998,681.247986
1319.552002,-1.952000,679.296021
1268.800049,109.311996,679.296021
1231.712036,64.416000,683.200012
1231.712036,-35.136002,657.823975
1227.807983,15.616000,634.400024
1221.952026,122.975998,622.687988
1204.384033,107.360001,607.072021
1202.432007,21.472000,577.791992
1218.047974,27.327999,558.271973
1218.047974,107.360001,542.656006
1204.384033,121.024002,523.135986
1188.767944,54.655998,509.471985
1165.343994,21.472000,488.000000
1126.303955,85.888000,480.191986
1114.592041,130.783997,472.384003
1130.208008,29.280001,450.911987
1124.352051,21.472000,425.536011
1122.400024,95.648003,398.208008
1114.592041,212.768005,376.735992
1054.079956,78.080002,343.552002
1069.696045,3.904000,306.463989
1048.223999,128.832001,283.040009
1075.552002,238.143997,238.143997
1061.887939,107.360001,199.104004
1097.024048,19.520000,167.871994
1073.599976,126.879997,132.735992
1079.456055,212.768005,103.456001
1071.647949,142.496002,64.416000
1079.456055,119.071999,23.424000
1028.703979,201.056000,0.000000
1022.848022,185.440002,-19.520000
1032.608032,138.591995,-37.088001
1018.943970,152.255997,-48.799999
1024.800049,156.160004,-66.367996
1028.703979,111.264000,-80.031998
1038.463989,142.496002,-87.839996
1024.800049,179.584000,-95.648003
1028.703979,140.544006,-119.071999
1020.895996,87.839996,-122.975998
993.567993,163.968002,-124.928001
976.000000,212.768005,-130.783997
956.479980,146.399994,-130.783997
936.960022,93.695999,-138.591995
927.200012,171.776001,-146.399994
950.624023,191.296005,-158.112000
948.671997,93.695999,-169.824005
938.911987,93.695999,-187.391998
923.296021,204.960007,-218.623993
931.104004,201.056000,-236.192001
919.392029,134.688004,-242.048004
878.400024,191.296005,-247.904007
872.544006,208.863998,-242.048004
882.304016,146.399994,-244.000000
888.159973,187.391998,-245.951996
892.064026,175.679993,-244.000000
909.632019,138.591995,-242.048004
733.952026,257.664001,-220.576004
878.400024,105.407997,-203.007996
868.640015,33.183998,-191.296005
888.159973,185.440002,-187.391998
946.719971,130.783997,-177.632004
894.015991,-21.472000,-187.391998
888.159973,15.616000,-167.871994
866.687988,58.560001,-142.496002
837.408020,-42.944000,-109.311996
866.687988,-74.176003,-87.839996
851.072021,58.560001,-81.984001
823.744019,95.648003,-42.944000
792.512024,-27.327999,-35.136002
794.463989,-3.904000,-58.560001
804.223999,60.512001,-48.799999
788.607971,-35.136002,-48.799999
802.271973,-58.560001,-60.512001
790.559998,37.088001,-83.935997
786.656006,25.375999,-107.360001
774.943970,11.712000,-126.879997
804.223999,52.703999,-134.688004
827.648010,40.992001,-124.928001
837.408020,11.712000,-132.735992
854.976013,37.088001,-150.304001
853.023987,68.320000,-150.304001
558.271973,372.832001,244.000000
612.927979,355.264008,640.255981
780.799988,-562.176025,491.903992
935.007996,-1054.079956,341.600006
1108.735962,-337.696014,437.247986
1015.039978,-5.856000,525.088013
1015.039978,-15.616000,431.391998
1022.848022,-119.071999,390.399994
1065.791992,-413.824005,325.984009
983.807983,-534.848022,167.871994
972.096008,-441.152008,25.375999
593.408020,-66.367996,-66.367996
733.952026,419.679993,-210.815994
726.143982,232.287994,-333.791992
794.463989,124.928001,-314.272003
802.271973,343.552002,-226.432007
800.320007,46.848000,-240.095993
964.288025,199.104004,-298.656006
972.096008,474.335999,-234.240005
909.632019,380.640015,-208.863998
849.119995,249.856003,-281.088013
683.200012,286.944000,-277.183990
706.624023,-97.599998,-251.807999
847.168030,-427.488007,-245.951996
950.624023,-569.984009,-226.432007
837.408020,-605.119995,-197.151993
810.080017,-429.440002,-238.143997
716.383972,-113.216003,-265.471985
751.520020,226.432007,-283.040009
843.263977,501.664001,-304.511993
862.783997,484.096008,-310.368011
942.815979,146.399994,-310.368011
979.903992,-242.048004,-308.415985
1016.992004,-517.280029,-316.223999
1018.943970,-607.072021,-324.032013
1067.744019,-507.519989,-339.648010
995.520020,-316.223999,-331.839996
935.007996,-324.032013,-263.519989
948.671997,-310.368011,-171.776001
1190.719971,33.183998,-93.695999
1009.184021,489.951996,-7.808000
989.664001,698.815979,25.375999
866.687988,437.247986,54.655998
938.911987,-76.127998,60.512001
1079.456055,-525.088013,72.223999
1200.479980,-854.976013,115.167999
1260.991943,-890.112000,181.535995
1266.848022,-601.216003,247.904007
1216.095947,-158.112000,259.615997
1194.624023,197.151993,242.048004
1210.239990,302.559998,226.432007
1175.104004,54.655998,203.007996
1155.583984,-322.079987,187.391998
1130.208008,-534.848022,185.440002
1143.871948,-482.144012,175.679993
1122.400024,-296.704010,177.632004
1130.208008,-144.447998,187.391998
1138.015991,-33.183998,179.584000
1141.920044,48.799999,154.207993
1126.303955,89.792000,109.311996
1110.687988,136.639999,85.888000
1065.791992,232.287994,70.272003
1089.215942,357.216003,52.703999
1104.832031,462.623993,27.327999
1067.744019,569.984009,27.327999
1030.656006,689.056030,23.424000
948.671997,728.096008,52.703999
970.143982,679.296021,68.320000
1030.656006,507.519989,81.984001
1098.975952,193.248001,87.839996
1157.536011,-136.639999,85.888000
1235.615967,-337.696014,83.935997
1249.280029,-337.696014,97.599998
1255.135986,-134.688004,105.407997
1210.239990,175.679993,117.120003
1200.479980,454.816010,113.216003
1204.384033,558.271973,113.216003
1163.391968,435.295990,115.167999
1161.439941,95.648003,122.975998
1163.391968,-314.272003,169.824005
1179.008057,-486.048004,201.056000
1169.248047,-281.088013,218.623993
1196.576050,126.879997,214.720001
1184.864014,417.727997,212.768005
1177.056030,462.623993,203.007996
1147.776001,331.839996,175.679993
1141.920044,91.744003,136.639999
1136.063965,-101.503998,91.744003
1147.776001,-150.304001,42.944000
1171.199951,-54.655998,11.712000
1159.488037,162.016006,-5.856000
1136.063965,302.559998,-44.896000
1100.927979,374.783997,-80.031998
1046.271973,404.063995,-152.255997
1005.280029,439.200012,-193.248001
991.616028,476.287994,-218.623993
983.807983,480.191986,-245.951996
981.856018,493.855988,-296.704010
997.471985,468.480011,-341.600006
927.200012,411.872009,-365.023987
974.047974,437.247986,-421.631989
929.151978,505.567993,-462.623993
870.591980,544.607971,-503.615997
786.656006,552.416016,-556.320007
739.807983,554.367981,-589.504028
813.984009,601.216003,-636.351990
897.919983,694.911987,-661.728027
1001.375977,858.880005,-595.359985
1007.231995,827.648010,-503.615997
1009.184021,394.303986,-468.480011
1071.647949,-314.272003,-497.760010
1061.887939,-1376.160034,-462.623993
1155.583984,-1971.520020,-370.880005
954.528015,-1227.807983,-236.192001
966.239990,384.544006,-173.727997
1011.135986,1385.920044,-171.776001
1028.703979,1220.000000,-193.248001
1102.880005,349.407990,-244.000000
1243.423950,-683.200012,-314.272003
1018.943970,-1311.744019,-322.079987
858.880005,-1110.687988,-374.783997
843.263977,-232.287994,-443.104004
921.343994,1009.184021,-486.048004
1081.407959,2170.624023,-413.824005
946.719971,2129.632080,-216.671997
942.815979,601.216003,-171.776001
1022.848022,-1262.943970,-257.664001
1321.504028,-2262.367920,-353.312012
1315.647949,-2324.832031,-267.424011
1298.079956,-1259.040039,-132.735992
1130.208008,333.791992,-19.520000
1091.167969,1376.160034,-5.856000
1077.504028,1499.135986,5.856000
1089.215942,862.783997,1.952000
1112.640015,-146.399994,-3.904000
1186.816040,-1110.687988,-80.031998
1276.608032,-1551.839966,-126.879997
1221.952026,-1290.271973,-124.928001
1305.887939,-566.080017,-173.727997
1241.472046,310.368011,-128.832001
1163.391968,985.760010,35.136002
1114.592041,1100.927979,173.727997
1009.184021,667.583984,255.712006
1264.895996,-128.832001,81.984001
1089.215942,-780.799988,21.472000
1130.208008,-1026.751953,13.664000
1446.432007,-800.320007,-109.311996
1208.287964,-331.839996,-37.088001
1231.712036,185.440002,-37.088001
1196.576050,515.328003,-27.327999
1163.391968,569.984009,-5.856000
1110.687988,292.799988,-1.952000
1145.823975,-76.127998,-3.904000
1223.904053,-162.016006,13.664000
1182.911987,3.904000,80.031998
1110.687988,318.175995,150.304001
1063.839966,402.112000,193.248001
1229.760010,99.552002,173.727997
1249.280029,-349.407990,179.584000
1278.560059,-681.247986,169.824005
1255.135986,-673.440002,162.016006
1180.959961,-331.839996,140.544006
1231.712036,115.167999,64.416000
1223.904053,351.359985,11.712000
1151.680054,308.415985,-23.424000
1130.208008,50.751999,-56.608002
1120.447998,-277.183990,-103.456001
1157.536011,-507.519989,-163.968002
1147.776001,-497.760010,-195.199997
1130.208008,-331.839996,-206.912003
1138.015991,-78.080002,-249.856003
1069.696045,78.080002,-257.664001
1061.887939,58.560001,-294.752014
1071.647949,-142.496002,-347.455994
1038.463989,-349.407990,-365.023987
1063.839966,-462.623993,-406.015991
1044.319946,-429.440002,-427.488007
1015.039978,-322.079987,-447.007996
1007.231995,-222.528000,-443.104004
977.952026,-329.888000,-366.976013
1038.463989,-527.039978,-279.135986
970.143982,-534.848022,-156.160004
909.632019,-286.944000,-80.031998
856.927979,121.024002,-78.080002
872.544006,370.880005,-138.591995
894.015991,329.888000,-193.248001
909.632019,11.712000,-267.424011
909.632019,-390.399994,-318.175995
946.719971,-603.168030,-376.735992
958.432007,-528.992004,-431.391998
919.392029,-247.904007,-458.720001
921.343994,35.136002,-495.808014
991.616028,167.871994,-519.231995
823.744019,54.655998,-486.048004
837.408020,-199.104004,-501.664001
854.976013,-476.287994,-523.135986
935.007996,-589.504028,-544.607971
933.056030,-468.480011,-530.943970
913.536011,-236.192001,-534.848022
911.583984,-58.560001,-525.088013
933.056030,19.520000,-523.135986
921.343994,-7.808000,-517.280029
929.151978,-148.352005,-540.703979
917.440002,-294.752014,-573.888000
925.247986,-384.544006,-577.791992
940.864014,-308.415985,-564.127991
931.104004,-193.248001,-511.424011
977.952026,-130.783997,-482.144012
966.239990,-101.503998,-433.343994
1024.800049,-130.783997,-394.303986
1077.504028,-195.199997,-365.023987
1097.024048,-177.632004,-318.175995
1083.359985,-50.751999,-195.199997
1087.264038,99.552002,-70.272003
1073.599976,54.655998,23.424000
1104.832031,-150.304001,50.751999
1110.687988,-320.127991,27.327999
1054.079956,-349.407990,-1.952000
1065.791992,-257.664001,-46.848000
1085.312012,-78.080002,-103.456001
1067.744019,31.232000,-150.304001
1095.072021,37.088001,-203.007996
1085.312012,-80.031998,-230.335999
1120.447998,-220.576004,-245.951996
1120.447998,-269.376007,-263.519989
1167.296021,-228.384003,-284.992004
1180.959961,-128.832001,-298.656006
1182.911987,-42.944000,-300.608002
1175.104004,-50.751999,-298.656006
1151.680054,-95.648003,-267.424011
1159.488037,-126.879997,-281.088013
1163.391968,-158.112000,-292.799988
1165.343994,-130.783997,-292.799988
1151.680054,-115.167999,-322.079987
1147.776001,-68.320000,-335.743988
1167.296021,-33.183998,-331.839996
1153.631958,1.952000,-339.648010
1163.391968,17.568001,-353.312012
1173.151978,1.952000,-368.928009
1147.776001,-19.520000,-368.928009
1141.920044,-33.183998,-382.592010
1132.160034,-56.608002,-400.160004
1132.160034,-62.464001,-421.631989
1138.015991,-17.568001,-409.920013
1134.112061,130.783997,-357.216003
1151.680054,341.600006,-298.656006
1151.680054,478.239990,-208.863998
1141.920044,548.512024,-146.399994
1085.312012,384.544006,-87.839996
1169.248047,-5.856000,81.984001
1395.680054,-468.480011,484.096008
1668.959961,-802.271973,993.567993
1893.439941,-884.255981,1444.479980
2065.216064,-743.711975,1708.000000
2082.783936,-484.096008,1657.248047
1965.663940,-226.432007,1225.855957
1549.887939,-91.744003,646.112000
1346.880005,5.856000,5.856000
1124.352051,97.599998,-562.176025
993.567993,171.776001,-1018.943970
722.239990,363.071991,-1276.608032
540.703979,331.839996,-1301.984009
618.783997,236.192001,-1282.463989
640.255981,183.488007,-1147.776001
730.047974,54.655998,-921.343994
913.536011,-216.671997,-675.392029
776.895996,-423.584015,-376.735992
1233.663940,-503.615997,-251.807999
1592.832031,-728.096008,-269.376007
1220.000000,-794.463989,-308.415985
927.200012,-511.424011,-466.528015
708.575989,-279.135986,-632.447998
712.479980,-44.896000,-780.799988
757.375977,152.255997,-837.408020
806.176025,117.120003,-765.184021
888.159973,-68.320000,-612.927979
1038.463989,-197.151993,-482.144012
1171.199951,-288.895996,-366.976013
1262.943970,-357.216003,-294.752014
1245.375977,-329.888000,-265.471985
1155.583984,-185.440002,-286.944000
1065.791992,-76.127998,-345.503998
987.711975,-27.327999,-439.200012
952.575989,-39.040001,-556.320007
931.104004,-52.703999,-651.968018
917.440002,-42.944000,-696.864014
899.872009,-3.904000,-712.479980
878.400024,23.424000,-722.239990
890.112000,-7.808000,-679.296021
923.296021,-66.367996,-636.351990
940.864014,-78.080002,-605.119995
979.903992,-93.695999,-562.176025
1018.943970,-113.216003,-521.184021
1073.599976,-40.992001,-493.855988
1054.079956,68.320000,-398.208008
1184.864014,121.024002,-351.359985
1216.095947,208.863998,-337.696014
1245.375977,347.455994,-337.696014
1301.984009,478.239990,-417.727997
1376.160034,609.023987,-521.184021
1139.968018,671.487976,-400.160004
33.183998,419.679993,52.703999
80.031998,827.648010,-189.343994
283.040009,763.231995,-400.160004
788.607971,249.856003,-675.392029
1206.336060,60.512001,-940.864014
253.759995,136.639999,-720.288025
864.736023,17.568001,-895.968018
905.728027,-404.063995,-839.359985
1167.296021,-486.048004,-624.640015
1192.671997,-521.184021,-378.687988
1161.439941,-566.080017,-210.815994
1057.984009,-427.488007,-167.871994
976.000000,-199.104004,-255.712006
940.864014,-42.944000,-415.776001
1001.375977,103.456001,-538.752014
728.096008,201.056000,-519.231995
687.104004,218.623993,-569.984009
800.320007,140.544006,-634.400024
899.872009,103.456001,-620.736023
938.911987,-29.280001,-558.271973
1040.416016,-177.632004,-513.375977
1159.488037,-214.720001,-462.623993
1239.520020,-136.639999,-421.631989
1192.671997,-39.040001,-394.303986
1130.208008,113.216003,-409.920013
1048.223999,312.320007,-447.007996
962.335999,665.632019,-488.000000
948.671997,331.839996,-454.816010
815.935974,-562.176025,-394.303986
763.231995,-909.632019,-511.424011
726.143982,-825.695984,-700.768005
704.671997,-601.216003,-823.744019
638.304016,-351.359985,-689.056030
722.239990,-31.232000,-497.760010
821.791992,54.655998,-333.791992
903.776001,68.320000,-232.287994
976.000000,19.520000,-265.471985
1013.088013,-3.904000,-398.208008
1040.416016,46.848000,-509.471985
1032.608032,128.832001,-538.752014
1028.703979,204.960007,-497.760010
1030.656006,261.567993,-454.816010
1050.176025,253.759995,-407.967987
1065.791992,234.240005,-368.928009
1059.936035,220.576004,-355.264008
1054.079956,185.440002,-366.976013
1050.176025,121.024002,-363.071991
1054.079956,74.176003,-396.256012
1048.223999,56.608002,-439.200012
1018.943970,27.327999,-472.384003
991.616028,13.664000,-507.519989
960.383972,17.568001,-542.656006
938.911987,58.560001,-562.176025
960.383972,76.127998,-585.599976
966.239990,103.456001,-577.791992
954.528015,144.447998,-528.992004
940.864014,193.248001,-515.328003
915.487976,335.743988,-507.519989
948.671997,325.984009,-486.048004
989.664001,76.127998,-435.295990
1001.375977,-240.095993,-460.671997
976.000000,-497.760010,-532.895996
962.335999,-571.935974,-638.304016
944.768005,-609.023987,-712.479980
935.007996,-585.599976,-728.096008
927.200012,-499.712006,-694.911987
936.960022,-351.359985,-624.640015
970.143982,-199.104004,-554.367981
989.664001,-91.744003,-476.287994
999.424011,97.599998,-380.640015
1020.895996,380.640015,-329.888000
1042.368042,413.824005,-292.799988
1083.359985,368.928009,-333.791992
1087.264038,292.799988,-376.735992
1079.456055,273.279999,-431.391998
1061.887939,212.768005,-472.384003
1038.463989,154.207993,-464.575989
1052.128052,128.832001,-462.623993
1046.271973,119.071999,-466.528015
1044.319946,107.360001,-458.720001
1030.656006,95.648003,-460.671997
1016.992004,111.264000,-468.480011
1011.135986,132.735992,-503.615997
1009.184021,140.544006,-517.280029
1024.800049,109.311996,-548.512024
1022.848022,80.031998,-546.559998
1050.176025,68.320000,-532.895996
1069.696045,52.703999,-513.375977
1079.456055,70.272003,-491.903992
1081.407959,85.888000,-474.335999
1085.312012,95.648003,-464.575989
1093.119995,107.360001,-466.528015
1085.312012,97.599998,-472.384003
1069.696045,134.688004,-491.903992
1056.031982,136.639999,-493.855988
1042.368042,152.255997,-511.424011
1036.511963,124.928001,-534.848022
1024.800049,122.975998,-550.463989
1009.184021,142.496002,-542.656006
1013.088013,158.112000,-548.512024
1018.943970,154.207993,-525.088013
1018.943970,152.255997,-525.088013
1026.751953,126.879997,-530.943970
1011.135986,93.695999,-528.992004
1013.088013,78.080002,-532.895996
1016.992004,13.664000,-548.512024
1003.328003,19.520000,-566.080017
997.471985,103.456001,-585.599976
989.664001,146.399994,-579.744019
983.807983,148.352005,-556.320007
987.711975,146.399994,-544.607971
999.424011,134.688004,-550.463989
1013.088013,117.120003,-562.176025
1013.088013,119.071999,-566.080017
1001.375977,126.879997,-564.127991
997.471985,117.120003,-569.984009
997.471985,124.928001,-577.791992
997.471985,124.928001,-579.744019
1016.992004,130.783997,-591.455994
1009.184021,117.120003,-585.599976
999.424011,132.735992,-591.455994
997.471985,128.832001,-591.455994
983.807983,101.503998,-585.599976
989.664001,50.751999,-591.455994
991.616028,52.703999,-605.119995
987.711975,62.464001,-609.023987
987.711975,80.031998,-626.591980
981.856018,60.512001,-622.687988
972.096008,72.223999,-622.687988
970.143982,85.888000,-626.591980
977.952026,87.839996,-624.640015
989.664001,68.320000,-636.351990
985.760010,66.367996,-634.400024
985.760010,70.272003,-622.687988
993.567993,50.751999,-634.400024
985.760010,19.520000,-640.255981
987.711975,17.568001,-634.400024
983.807983,35.136002,-636.351990
983.807983,52.703999,-638.304016
997.471985,42.944000,-642.208008
991.616028,37.088001,-638.304016
989.664001,46.848000,-651.968018
983.807983,40.992001,-644.159973
989.664001,35.136002,-632.447998
991.616028,25.375999,-626.591980
991.616028,13.664000,-614.880005
993.567993,13.664000,-624.640015
991.616028,1.952000,-622.687988
981.856018,-11.712000,-624.640015
979.903992,-5.856000,-630.495972
968.192017,1.952000,-638.304016
968.192017,0.000000,-642.208008
960.383972,17.568001,-648.064026
958.432007,5.856000,-638.304016
966.239990,-3.904000,-626.591980
966.239990,-5.856000,-624.640015
970.143982,-17.568001,-618.783997
976.000000,-25.375999,-622.687988
976.000000,-40.992001,-610.976013
970.143982,-46.848000,-599.263977
960.383972,-44.896000,-612.927979
952.575989,-31.232000,-632.447998
931.104004,-23.424000,-628.544006
938.911987,-89.792000,-607.072021
958.432007,-89.792000,-593.408020
974.047974,-52.703999,-566.080017
989.664001,-64.416000,-569.984009
966.239990,-68.320000,-560.223999
942.815979,-76.127998,-571.935974
933.056030,-83.935997,-595.359985
899.872009,-105.407997,-632.447998
878.400024,-72.223999,-665.632019
862.783997,-21.472000,-667.583984
892.064026,-40.992001,-610.976013
888.159973,-111.264000,-530.943970
917.440002,-177.632004,-503.615997
907.679993,-216.671997,-466.528015
