ACC_X,ACC_Y,ACC_Z
653.919983,425.536011,614.880005
659.776001,431.391998,618.783997
648.064026,429.440002,618.783997
659.776001,433.343994,612.927979
657.823975,431.391998,614.880005
661.728027,435.295990,612.927979
657.823975,431.391998,618.783997
657.823975,431.391998,618.783997
657.823975,435.295990,612.927979
648.064026,435.295990,620.736023
653.919983,437.247986,609.023987
657.823975,439.200012,614.880005
648.064026,439.200012,616.831970
659.776001,433.343994,620.736023
648.064026,433.343994,616.831970
651.968018,427.488007,620.736023
651.968018,427.488007,626.591980
657.823975,429.440002,616.831970
657.823975,427.488007,616.831970
651.968018,433.343994,620.736023
651.968018,431.391998,612.927979
655.872009,425.536011,626.591980
648.064026,427.488007,626.591980
655.872009,421.631989,624.640015
659.776001,435.295990,620.736023
650.015991,435.295990,609.023987
659.776001,431.391998,612.927979
655.872009,431.391998,614.880005
655.872009,423.584015,618.783997
653.919983,421.631989,622.687988
655.872009,421.631989,618.783997
651.968018,427.488007,626.591980
650.015991,419.679993,624.640015
648.064026,415.776001,618.783997
650.015991,431.391998,620.736023
657.823975,433.343994,628.544006
648.064026,413.824005,624.640015
653.919983,419.679993,612.927979
650.015991,421.631989,618.783997
653.919983,433.343994,616.831970
651.968018,421.631989,618.783997
653.919983,421.631989,620.736023
648.064026,423.584015,612.927979
653.919983,421.631989,618.783997
651.968018,421.631989,612.927979
650.015991,419.679993,618.783997
644.159973,421.631989,630.495972
653.919983,419.679993,620.736023
659.776001,407.967987,628.544006
651.968018,421.631989,622.687988
661.728027,417.727997,622.687988
653.919983,427.488007,614.880005
657.823975,427.488007,616.831970
655.872009,413.824005,612.927979
653.919983,417.727997,612.927979
653.919983,419.679993,618.783997
651.968018,421.631989,618.783997
659.776001,419.679993,614.880005
657.823975,419.679993,612.927979
663.679993,413.824005,618.783997
661.728027,415.776001,616.831970
655.872009,415.776001,624.640015
651.968018,425.536011,618.783997
659.776001,425.536011,622.687988
661.728027,425.536011,620.736023
669.536011,425.536011,624.640015
657.823975,423.584015,632.447998
655.872009,419.679993,620.736023
659.776001,415.776001,634.400024
661.728027,421.631989,618.783997
661.728027,411.872009,616.831970
665.632019,421.631989,634.400024
661.728027,423.584015,628.544006
663.679993,421.631989,620.736023
663.679993,413.824005,626.591980
665.632019,419.679993,630.495972
661.728027,423.584015,628.544006
659.776001,419.679993,628.544006
655.872009,417.727997,626.591980
659.776001,415.776001,624.640015
657.823975,419.679993,634.400024
661.728027,417.727997,628.544006
663.679993,417.727997,620.736023
661.728027,417.727997,626.591980
655.872009,415.776001,626.591980
653.919983,415.776001,630.495972
657.823975,423.584015,638.304016
657.823975,415.776001,632.447998
650.015991,409.920013,622.687988
657.823975,419.679993,634.400024
650.015991,415.776001,624.640015
651.968018,419.679993,620.736023
651.968018,406.015991,628.544006
655.872009,409.920013,618.783997
665.632019,406.015991,630.495972
648.064026,413.824005,618.783997
653.919983,415.776001,624.640015
650.015991,409.920013,630.495972
650.015991,407.967987,620.736023
651.968018,404.063995,626.591980
648.064026,407.967987,616.831970
651.968018,407.967987,622.687988
653.919983,409.920013,624.640015
651.968018,411.872009,624.640015
661.728027,409.920013,620.736023
659.776001,411.872009,630.495972
651.968018,409.920013,622.687988
661.728027,409.920013,620.736023
655.872009,404.063995,628.544006
661.728027,407.967987,630.495972
653.919983,407.967987,612.927979
651.968018,407.967987,626.591980
651.968018,413.824005,632.447998
659.776001,411.872009,624.640015
661.728027,409.920013,618.783997
661.728027,406.015991,626.591980
653.919983,409.920013,624.640015
655.872009,398.208008,620.736023
655.872009,417.727997,624.640015
655.872009,409.920013,626.591980
657.823975,409.920013,628.544006
655.872009,413.824005,628.544006
661.728027,407.967987,630.495972
655.872009,415.776001,622.687988
648.064026,402.112000,624.640015
655.872009,413.824005,632.447998
659.776001,407.967987,622.687988
663.679993,413.824005,626.591980
659.776001,413.824005,630.495972
657.823975,413.824005,634.400024
657.823975,415.776001,632.447998
665.632019,413.824005,634.400024
665.632019,421.631989,638.304016
651.968018,423.584015,638.304016
659.776001,421.631989,636.351990
659.776001,423.584015,632.447998
657.823975,413.824005,632.447998
661.728027,419.679993,622.687988
657.823975,415.776001,632.447998
655.872009,409.920013,624.640015
651.968018,423.584015,618.783997
659.776001,413.824005,632.447998
665.632019,421.631989,634.400024
669.536011,427.488007,638.304016
657.823975,419.679993,626.591980
661.728027,417.727997,628.544006
648.064026,417.727997,624.640015
657.823975,415.776001,630.495972
663.679993,413.824005,626.591980
661.728027,423.584015,628.544006
661.728027,413.824005,620.736023
663.679993,421.631989,634.400024
667.583984,423.584015,624.640015
665.632019,409.920013,626.591980
667.583984,423.584015,620.736023
661.728027,429.440002,632.447998
663.679993,423.584015,626.591980
663.679993,423.584015,622.687988
667.583984,419.679993,618.783997
661.728027,417.727997,628.544006
665.632019,425.536011,624.640015
669.536011,419.679993,626.591980
667.583984,409.920013,624.640015
671.487976,423.584015,622.687988
669.536011,431.391998,618.783997
673.440002,423.584015,620.736023
667.583984,419.679993,620.736023
669.536011,421.631989,616.831970
667.583984,427.488007,630.495972
673.440002,421.631989,624.640015
669.536011,425.536011,624.640015
673.440002,421.631989,622.687988
679.296021,433.343994,616.831970
675.392029,421.631989,622.687988
671.487976,427.488007,620.736023
679.296021,427.488007,620.736023
671.487976,425.536011,624.640015
679.296021,433.343994,616.831970
673.440002,431.391998,622.687988
677.343994,429.440002,622.687988
679.296021,431.391998,622.687988
681.247986,419.679993,624.640015
679.296021,429.440002,634.400024
681.247986,419.679993,624.640015
679.296021,427.488007,624.640015
689.056030,427.488007,626.591980
689.056030,419.679993,626.591980
683.200012,413.824005,630.495972
685.151978,409.920013,630.495972
691.007996,427.488007,626.591980
683.200012,417.727997,632.447998
696.864014,419.679993,636.351990
696.864014,417.727997,634.400024
694.911987,423.584015,628.544006
691.007996,415.776001,636.351990
694.911987,415.776001,632.447998
691.007996,421.631989,640.255981
700.768005,413.824005,628.544006
691.007996,411.872009,630.495972
704.671997,419.679993,638.304016
698.815979,409.920013,636.351990
698.815979,406.015991,630.495972
700.768005,415.776001,638.304016
708.575989,411.872009,630.495972
712.479980,411.872009,634.400024
710.528015,417.727997,640.255981
712.479980,417.727997,650.015991
712.479980,419.679993,644.159973
702.719971,406.015991,644.159973
698.815979,409.920013,646.112000
706.624023,406.015991,636.351990
702.719971,407.967987,644.159973
712.479980,404.063995,632.447998
716.383972,404.063995,646.112000
706.624023,404.063995,646.112000
712.479980,406.015991,638.304016
712.479980,406.015991,640.255981
706.624023,407.967987,638.304016
712.479980,406.015991,642.208008
706.624023,400.160004,634.400024
706.624023,404.063995,640.255981
700.768005,409.920013,636.351990
712.479980,404.063995,640.255981
710.528015,406.015991,636.351990
710.528015,406.015991,642.208008
716.383972,404.063995,634.400024
716.383972,407.967987,646.112000
716.383972,404.063995,636.351990
714.432007,398.208008,640.255981
712.479980,406.015991,638.304016
712.479980,404.063995,642.208008
712.479980,404.063995,640.255981
706.624023,400.160004,634.400024
712.479980,406.015991,646.112000
712.479980,404.063995,640.255981
718.335999,394.303986,640.255981
720.288025,394.303986,644.159973
714.432007,402.112000,638.304016
706.624023,394.303986,646.112000
720.288025,398.208008,648.064026
712.479980,400.160004,634.400024
724.192017,402.112000,642.208008
712.479980,406.015991,636.351990
710.528015,402.112000,648.064026
716.383972,406.015991,636.351990
718.335999,406.015991,640.255981
714.432007,404.063995,638.304016
712.479980,404.063995,640.255981
712.479980,406.015991,638.304016
708.575989,409.920013,646.112000
716.383972,404.063995,640.255981
708.575989,402.112000,642.208008
708.575989,407.967987,648.064026
714.432007,411.872009,630.495972
710.528015,398.208008,646.112000
706.624023,407.967987,632.447998
716.383972,406.015991,640.255981
710.528015,394.303986,632.447998
706.624023,404.063995,632.447998
710.528015,411.872009,632.447998
702.719971,406.015991,628.544006
700.768005,419.679993,640.255981
708.575989,415.776001,636.351990
706.624023,406.015991,640.255981
704.671997,413.824005,648.064026
708.575989,413.824005,632.447998
706.624023,415.776001,632.447998
712.479980,413.824005,634.400024
708.575989,409.920013,634.400024
710.528015,411.872009,630.495972
710.528015,411.872009,632.447998
702.719971,415.776001,632.447998
710.528015,415.776001,636.351990
696.864014,419.679993,636.351990
708.575989,423.584015,632.447998
702.719971,415.776001,634.400024
702.719971,415.776001,634.400024
702.719971,415.776001,632.447998
700.768005,415.776001,628.544006
698.815979,421.631989,632.447998
700.768005,415.776001,634.400024
694.911987,419.679993,626.591980
696.864014,417.727997,636.351990
691.007996,409.920013,634.400024
691.007996,417.727997,632.447998
691.007996,423.584015,632.447998
694.911987,423.584015,622.687988
694.911987,419.679993,622.687988
698.815979,413.824005,628.544006
696.864014,421.631989,628.544006
694.911987,425.536011,628.544006
694.911987,427.488007,628.544006
692.960022,423.584015,622.687988
692.960022,413.824005,626.591980
704.671997,417.727997,628.544006
696.864014,419.679993,634.400024
694.911987,419.679993,628.544006
700.768005,421.631989,634.400024
702.719971,417.727997,626.591980
692.960022,417.727997,620.736023
696.864014,423.584015,626.591980
687.104004,421.631989,620.736023
689.056030,415.776001,610.976013
694.911987,419.679993,622.687988
687.104004,413.824005,622.687988
685.151978,415.776001,622.687988
691.007996,406.015991,618.783997
691.007996,404.063995,622.687988
696.864014,411.872009,626.591980
687.104004,409.920013,618.783997
694.911987,413.824005,620.736023
685.151978,406.015991,614.880005
689.056030,407.967987,622.687988
692.960022,409.920013,618.783997
687.104004,417.727997,622.687988
691.007996,415.776001,620.736023
681.247986,423.584015,628.544006
681.247986,419.679993,624.640015
685.151978,404.063995,616.831970
694.911987,413.824005,626.591980
692.960022,411.872009,620.736023
683.200012,407.967987,620.736023
683.200012,398.208008,616.831970
692.960022,407.967987,632.447998
691.007996,404.063995,618.783997
681.247986,406.015991,614.880005
683.200012,402.112000,622.687988
691.007996,398.208008,618.783997
691.007996,400.160004,620.736023
683.200012,398.208008,622.687988
683.200012,398.208008,628.544006
687.104004,406.015991,628.544006
687.104004,419.679993,624.640015
683.200012,411.872009,624.640015
683.200012,390.399994,612.927979
681.247986,396.256012,626.591980
681.247986,390.399994,620.736023
681.247986,390.399994,624.640015
683.200012,390.399994,620.736023
687.104004,392.351990,620.736023
687.104004,390.399994,624.640015
679.296021,402.112000,628.544006
679.296021,396.256012,624.640015
685.151978,390.399994,630.495972
679.296021,400.160004,628.544006
691.007996,396.256012,620.736023
687.104004,394.303986,630.495972
685.151978,390.399994,624.640015
683.200012,392.351990,624.640015
687.104004,390.399994,620.736023
679.296021,394.303986,624.640015
677.343994,388.447998,634.400024
689.056030,388.447998,642.208008
691.007996,386.496002,632.447998
689.056030,382.592010,632.447998
683.200012,382.592010,632.447998
683.200012,388.447998,636.351990
679.296021,388.447998,638.304016
685.151978,386.496002,632.447998
689.056030,382.592010,632.447998
689.056030,392.351990,636.351990
689.056030,386.496002,636.351990
689.056030,380.640015,632.447998
685.151978,374.783997,638.304016
679.296021,392.351990,632.447998
683.200012,382.592010,632.447998
685.151978,378.687988,634.400024
683.200012,380.640015,634.400024
677.343994,382.592010,630.495972
675.392029,384.544006,624.640015
681.247986,386.496002,624.640015
677.343994,384.544006,624.640015
673.440002,388.447998,628.544006
671.487976,396.256012,634.400024
671.487976,386.496002,628.544006
669.536011,390.399994,628.544006
681.247986,386.496002,632.447998
675.392029,398.208008,638.304016
665.632019,384.544006,628.544006
669.536011,392.351990,624.640015
675.392029,394.303986,640.255981
667.583984,392.351990,638.304016
667.583984,396.256012,640.255981
671.487976,390.399994,636.351990
669.536011,388.447998,636.351990
665.632019,386.496002,636.351990
671.487976,386.496002,636.351990
671.487976,388.447998,634.400024
665.632019,390.399994,632.447998
663.679993,390.399994,636.351990
667.583984,390.399994,632.447998
665.632019,388.447998,634.400024
663.679993,394.303986,626.591980
653.919983,394.303986,634.400024
663.679993,388.447998,620.736023
661.728027,400.160004,628.544006
655.872009,398.208008,630.495972
657.823975,404.063995,630.495972
661.728027,402.112000,632.447998
655.872009,402.112000,634.400024
657.823975,411.872009,632.447998
648.064026,394.303986,632.447998
653.919983,400.160004,634.400024
642.208008,396.256012,636.351990
644.159973,406.015991,634.400024
644.159973,406.015991,634.400024
659.776001,409.920013,628.544006
650.015991,411.872009,636.351990
640.255981,406.015991,636.351990
644.159973,400.160004,634.400024
646.112000,415.776001,640.255981
644.159973,404.063995,630.495972
640.255981,409.920013,628.544006
636.351990,404.063995,632.447998
640.255981,413.824005,636.351990
640.255981,411.872009,636.351990
636.351990,413.824005,624.640015
644.159973,409.920013,638.304016
638.304016,413.824005,628.544006
636.351990,415.776001,634.400024
632.447998,411.872009,628.544006
638.304016,411.872009,630.495972
634.400024,415.776001,634.400024
634.400024,415.776001,634.400024
642.208008,419.679993,626.591980
636.351990,417.727997,630.495972
632.447998,415.776001,626.591980
634.400024,409.920013,628.544006
632.447998,411.872009,628.544006
634.400024,415.776001,628.544006
628.544006,415.776001,634.400024
626.591980,417.727997,630.495972
632.447998,415.776001,626.591980
626.591980,413.824005,632.447998
630.495972,417.727997,628.544006
624.640015,404.063995,634.400024
624.640015,411.872009,636.351990
632.447998,413.824005,626.591980
630.495972,411.872009,626.591980
634.400024,409.920013,628.544006
632.447998,417.727997,626.591980
634.400024,406.015991,618.783997
636.351990,407.967987,632.447998
628.544006,419.679993,634.400024
648.064026,411.872009,630.495972
638.304016,400.160004,630.495972
634.400024,398.208008,630.495972
634.400024,402.112000,618.783997
632.447998,400.160004,618.783997
636.351990,407.967987,624.640015
632.447998,415.776001,626.591980
634.400024,406.015991,630.495972
640.255981,406.015991,624.640015
636.351990,407.967987,632.447998
636.351990,409.920013,634.400024
648.064026,407.967987,634.400024
640.255981,398.208008,628.544006
636.351990,402.112000,632.447998
646.112000,407.967987,628.544006
636.351990,404.063995,632.447998
644.159973,402.112000,638.304016
638.304016,402.112000,630.495972
648.064026,400.160004,622.687988
651.968018,394.303986,630.495972
646.112000,390.399994,634.400024
644.159973,398.208008,636.351990
646.112000,394.303986,640.255981
650.015991,406.015991,638.304016
650.015991,394.303986,638.304016
650.015991,396.256012,644.159973
648.064026,398.208008,620.736023
653.919983,404.063995,628.544006
653.919983,394.303986,636.351990
655.872009,407.967987,632.447998
655.872009,394.303986,628.544006
657.823975,392.351990,630.495972
650.015991,392.351990,634.400024
651.968018,392.351990,638.304016
646.112000,394.303986,626.591980
642.208008,398.208008,630.495972
648.064026,407.967987,620.736023
646.112000,407.967987,622.687988
642.208008,400.160004,610.976013
634.400024,402.112000,620.736023
644.159973,390.399994,618.783997
638.304016,404.063995,612.927979
636.351990,396.256012,610.976013
638.304016,402.112000,618.783997
642.208008,400.160004,610.976013
632.447998,394.303986,616.831970
628.544006,406.015991,620.736023
630.495972,398.208008,609.023987
634.400024,398.208008,620.736023
626.591980,407.967987,616.831970
626.591980,398.208008,616.831970
618.783997,396.256012,630.495972
626.591980,394.303986,624.640015
616.831970,400.160004,628.544006
616.831970,394.303986,630.495972
614.880005,407.967987,634.400024
612.927979,396.256012,624.640015
607.072021,400.160004,622.687988
605.119995,386.496002,626.591980
599.263977,388.447998,618.783997
595.359985,394.303986,618.783997
597.312012,400.160004,614.880005
595.359985,392.351990,620.736023
589.504028,407.967987,620.736023
581.695984,394.303986,609.023987
581.695984,396.256012,612.927979
577.791992,398.208008,614.880005
571.935974,406.015991,622.687988
571.935974,402.112000,622.687988
571.935974,404.063995,612.927979
571.935974,404.063995,618.783997
564.127991,404.063995,618.783997
566.080017,394.303986,618.783997
568.031982,398.208008,618.783997
564.127991,400.160004,610.976013
552.416016,396.256012,616.831970
550.463989,396.256012,612.927979
552.416016,392.351990,618.783997
542.656006,396.256012,603.168030
544.607971,402.112000,601.216003
536.799988,407.967987,601.216003
542.656006,398.208008,601.216003
530.943970,398.208008,597.312012
538.752014,400.160004,593.408020
534.848022,396.256012,603.168030
530.943970,402.112000,601.216003
530.943970,402.112000,601.216003
536.799988,404.063995,605.119995
536.799988,407.967987,605.119995
532.895996,406.015991,601.216003
532.895996,411.872009,609.023987
534.848022,409.920013,607.072021
536.799988,398.208008,609.023987
536.799988,407.967987,605.119995
544.607971,409.920013,605.119995
540.703979,407.967987,614.880005
546.559998,404.063995,609.023987
544.607971,398.208008,610.976013
532.895996,411.872009,612.927979
542.656006,407.967987,610.976013
534.848022,406.015991,605.119995
532.895996,406.015991,605.119995
538.752014,407.967987,603.168030
540.703979,407.967987,601.216003
552.416016,419.679993,607.072021
550.463989,407.967987,610.976013
542.656006,402.112000,607.072021
548.512024,404.063995,612.927979
546.559998,398.208008,618.783997
550.463989,411.872009,620.736023
554.367981,407.967987,616.831970
546.559998,398.208008,618.783997
558.271973,407.967987,618.783997
552.416016,404.063995,616.831970
556.320007,404.063995,614.880005
556.320007,390.399994,620.736023
562.176025,398.208008,614.880005
568.031982,400.160004,614.880005
566.080017,396.256012,622.687988
564.127991,406.015991,610.976013
562.176025,392.351990,616.831970
569.984009,394.303986,616.831970
564.127991,398.208008,622.687988
562.176025,396.256012,624.640015
573.888000,398.208008,612.927979
571.935974,400.160004,626.591980
571.935974,394.303986,622.687988
575.840027,400.160004,624.640015
579.744019,402.112000,630.495972
583.648010,404.063995,626.591980
577.791992,388.447998,634.400024
587.552002,386.496002,624.640015
593.408020,396.256012,626.591980
587.552002,390.399994,630.495972
585.599976,394.303986,636.351990
595.359985,396.256012,620.736023
599.263977,386.496002,628.544006
595.359985,386.496002,636.351990
593.408020,392.351990,632.447998
597.312012,390.399994,628.544006
607.072021,386.496002,634.400024
605.119995,378.687988,634.400024
607.072021,386.496002,628.544006
609.023987,386.496002,632.447998
610.976013,382.592010,628.544006
616.831970,388.447998,632.447998
626.591980,384.544006,642.208008
626.591980,384.544006,638.304016
626.591980,380.640015,644.159973
628.544006,388.447998,638.304016
636.351990,370.880005,636.351990
636.351990,376.735992,644.159973
648.064026,380.640015,644.159973
636.351990,378.687988,644.159973
650.015991,378.687988,644.159973
642.208008,378.687988,646.112000
648.064026,384.544006,642.208008
648.064026,380.640015,644.159973
648.064026,376.735992,651.968018
661.728027,374.783997,646.112000
650.015991,386.496002,650.015991
661.728027,382.592010,648.064026
659.776001,380.640015,644.159973
661.728027,382.592010,653.919983
667.583984,382.592010,653.919983
665.632019,400.160004,650.015991
661.728027,392.351990,640.255981
671.487976,398.208008,644.159973
673.440002,392.351990,648.064026
673.440002,386.496002,651.968018
673.440002,394.303986,657.823975
679.296021,396.256012,648.064026
675.392029,388.447998,650.015991
675.392029,386.496002,653.919983
679.296021,390.399994,651.968018
673.440002,386.496002,657.823975
675.392029,382.592010,650.015991
681.247986,390.399994,655.872009
681.247986,396.256012,657.823975
681.247986,384.544006,655.872009
683.200012,388.447998,653.919983
679.296021,386.496002,650.015991
679.296021,396.256012,651.968018
679.296021,394.303986,640.255981
675.392029,390.399994,650.015991
683.200012,392.351990,644.159973
679.296021,394.303986,634.400024
681.247986,406.015991,640.255981
696.864014,400.160004,653.919983
689.056030,394.303986,653.919983
683.200012,390.399994,648.064026
683.200012,398.208008,655.872009
696.864014,390.399994,640.255981
696.864014,396.256012,642.208008
696.864014,404.063995,650.015991
696.864014,394.303986,646.112000
698.815979,394.303986,653.919983
696.864014,398.208008,636.351990
700.768005,406.015991,642.208008
698.815979,394.303986,648.064026
702.719971,400.160004,650.015991
704.671997,404.063995,650.015991
698.815979,404.063995,644.159973
708.575989,392.351990,636.351990
700.768005,390.399994,640.255981
704.671997,394.303986,640.255981
708.575989,404.063995,648.064026
710.528015,402.112000,648.064026
710.528015,396.256012,653.919983
698.815979,400.160004,651.968018
691.007996,407.967987,648.064026
708.575989,406.015991,651.968018
700.768005,404.063995,648.064026
708.575989,406.015991,648.064026
712.479980,409.920013,644.159973
708.575989,406.015991,650.015991
698.815979,411.872009,650.015991
708.575989,406.015991,651.968018
694.911987,409.920013,642.208008
694.911987,407.967987,642.208008
698.815979,398.208008,642.208008
692.960022,404.063995,634.400024
698.815979,407.967987,638.304016
694.911987,407.967987,636.351990
687.104004,404.063995,632.447998
687.104004,407.967987,634.400024
689.056030,411.872009,636.351990
691.007996,415.776001,636.351990
687.104004,409.920013,632.447998
692.960022,404.063995,636.351990
692.960022,407.967987,632.447998
689.056030,402.112000,632.447998
694.911987,409.920013,642.208008
683.200012,411.872009,636.351990
685.151978,409.920013,636.351990
679.296021,409.920013,634.400024
675.392029,402.112000,632.447998
679.296021,400.160004,634.400024
679.296021,404.063995,628.544006
679.296021,409.920013,634.400024
683.200012,407.967987,626.591980
673.440002,406.015991,634.400024
675.392029,407.967987,628.544006
677.343994,396.256012,628.544006
669.536011,398.208008,622.687988
669.536011,390.399994,630.495972
665.632019,392.351990,626.591980
659.776001,394.303986,622.687988
659.776001,394.303986,624.640015
657.823975,400.160004,620.736023
650.015991,396.256012,620.736023
653.919983,388.447998,618.783997
661.728027,394.303986,624.640015
655.872009,388.447998,620.736023
655.872009,382.592010,614.880005
653.919983,390.399994,622.687988
650.015991,378.687988,618.783997
655.872009,382.592010,616.831970
653.919983,378.687988,612.927979
651.968018,376.735992,620.736023
650.015991,378.687988,622.687988
651.968018,376.735992,616.831970
653.919983,378.687988,612.927979
665.632019,363.071991,620.736023
657.823975,368.928009,612.927979
650.015991,368.928009,614.880005
653.919983,359.167999,605.119995
653.919983,372.832001,603.168030
650.015991,366.976013,603.168030
661.728027,365.023987,601.216003
655.872009,361.119995,605.119995
661.728027,372.832001,607.072021
655.872009,363.071991,607.072021
657.823975,361.119995,601.216003
659.776001,365.023987,603.168030
661.728027,366.976013,603.168030
669.536011,366.976013,601.216003
663.679993,366.976013,610.976013
667.583984,359.167999,614.880005
669.536011,353.312012,609.023987
665.632019,359.167999,607.072021
679.296021,351.359985,601.216003
669.536011,355.264008,609.023987
677.343994,361.119995,605.119995
663.679993,365.023987,605.119995
677.343994,361.119995,607.072021
677.343994,361.119995,605.119995
673.440002,361.119995,614.880005
677.343994,355.264008,614.880005
669.536011,353.312012,609.023987
675.392029,349.407990,616.831970
679.296021,347.455994,614.880005
681.247986,347.455994,610.976013
681.247986,349.407990,607.072021
679.296021,357.216003,605.119995
677.343994,349.407990,601.216003
685.151978,339.648010,597.312012
677.343994,353.312012,610.976013
677.343994,365.023987,605.119995
671.487976,357.216003,603.168030
687.104004,347.455994,593.408020
679.296021,355.264008,607.072021
689.056030,351.359985,603.168030
692.960022,343.552002,603.168030
691.007996,353.312012,609.023987
691.007996,353.312012,597.312012
698.815979,355.264008,607.072021
698.815979,341.600006,601.216003
694.911987,351.359985,593.408020
691.007996,357.216003,607.072021
704.671997,366.976013,601.216003
698.815979,357.216003,597.312012
702.719971,359.167999,603.168030
702.719971,355.264008,601.216003
708.575989,359.167999,591.455994
712.479980,372.832001,597.312012
708.575989,374.783997,599.263977
708.575989,361.119995,593.408020
718.335999,366.976013,603.168030
720.288025,363.071991,593.408020
710.528015,366.976013,593.408020
720.288025,372.832001,595.359985
722.239990,366.976013,595.359985
728.096008,372.832001,593.408020
728.096008,374.783997,599.263977
739.807983,378.687988,605.119995
728.096008,378.687988,603.168030
739.807983,382.592010,605.119995
739.807983,376.735992,605.119995
739.807983,374.783997,599.263977
747.616028,392.351990,607.072021
739.807983,390.399994,595.359985
745.664001,396.256012,595.359985
739.807983,386.496002,599.263977
747.616028,394.303986,605.119995
739.807983,390.399994,597.312012
739.807983,404.063995,591.455994
739.807983,398.208008,595.359985
741.760010,398.208008,595.359985
739.807983,396.256012,593.408020
732.000000,404.063995,587.552002
741.760010,398.208008,583.648010
739.807983,404.063995,585.599976
741.760010,407.967987,591.455994
739.807983,404.063995,591.455994
747.616028,413.824005,601.216003
737.856018,419.679993,589.504028
741.760010,407.967987,591.455994
747.616028,415.776001,587.552002
743.711975,417.727997,593.408020
743.711975,419.679993,599.263977
743.711975,421.631989,591.455994
743.711975,413.824005,591.455994
743.711975,419.679993,599.263977
739.807983,427.488007,595.359985
743.711975,419.679993,593.408020
743.711975,421.631989,587.552002
743.711975,413.824005,587.552002
737.856018,415.776001,585.599976
741.760010,423.584015,581.695984
745.664001,423.584015,587.552002
743.711975,415.776001,591.455994
747.616028,415.776001,587.552002
745.664001,411.872009,581.695984
745.664001,423.584015,581.695984
741.760010,421.631989,585.599976
747.616028,429.440002,577.791992
753.471985,431.391998,587.552002
759.328003,431.391998,591.455994
747.616028,427.488007,597.312012
749.567993,425.536011,597.312012
759.328003,427.488007,587.552002
757.375977,413.824005,585.599976
757.375977,419.679993,595.359985
745.664001,413.824005,593.408020
749.567993,407.967987,591.455994
749.567993,409.920013,581.695984
749.567993,415.776001,587.552002
755.424011,415.776001,587.552002
747.616028,425.536011,583.648010
745.664001,413.824005,579.744019
749.567993,411.872009,589.504028
747.616028,413.824005,587.552002
745.664001,415.776001,581.695984
745.664001,411.872009,577.791992
747.616028,409.920013,587.552002
743.711975,407.967987,585.599976
751.520020,409.920013,583.648010
741.760010,407.967987,585.599976
737.856018,406.015991,577.791992
741.760010,411.872009,579.744019
737.856018,402.112000,577.791992
733.952026,411.872009,579.744019
726.143982,407.967987,575.840027
737.856018,404.063995,577.791992
733.952026,409.920013,575.840027
735.903992,406.015991,577.791992
726.143982,390.399994,573.888000
718.335999,404.063995,571.935974
735.903992,402.112000,575.840027
735.903992,404.063995,575.840027
735.903992,407.967987,581.695984
730.047974,398.208008,568.031982
728.096008,409.920013,573.888000
726.143982,402.112000,579.744019
722.239990,402.112000,577.791992
732.000000,406.015991,568.031982
732.000000,409.920013,569.984009
739.807983,413.824005,571.935974
735.903992,406.015991,571.935974
730.047974,404.063995,569.984009
737.856018,406.015991,573.888000
730.047974,407.967987,573.888000
732.000000,409.920013,571.935974
730.047974,407.967987,568.031982
735.903992,409.920013,573.888000
732.000000,402.112000,569.984009
737.856018,411.872009,571.935974
730.047974,407.967987,579.744019
733.952026,411.872009,579.744019
733.952026,409.920013,571.935974
737.856018,400.160004,571.935974
735.903992,411.872009,585.599976
747.616028,409.920013,581.695984
743.711975,404.063995,566.080017
737.856018,411.872009,566.080017
743.711975,402.112000,577.791992
737.856018,407.967987,577.791992
739.807983,407.967987,577.791992
739.807983,407.967987,577.791992
743.711975,406.015991,575.840027
737.856018,404.063995,575.840027
737.856018,411.872009,573.888000
745.664001,394.303986,575.840027
747.616028,411.872009,571.935974
749.567993,406.015991,566.080017
751.520020,394.303986,569.984009
753.471985,390.399994,566.080017
747.616028,404.063995,562.176025
747.616028,400.160004,569.984009
743.711975,396.256012,569.984009
759.328003,392.351990,568.031982
747.616028,400.160004,571.935974
759.328003,394.303986,562.176025
753.471985,392.351990,569.984009
755.424011,394.303986,571.935974
751.520020,402.112000,564.127991
763.231995,402.112000,569.984009
767.135986,398.208008,569.984009
761.280029,402.112000,569.984009
761.280029,398.208008,569.984009
772.992004,396.256012,583.648010
771.039978,390.399994,571.935974
772.992004,394.303986,569.984009
769.088013,400.160004,571.935974
767.135986,386.496002,577.791992
776.895996,392.351990,569.984009
778.848022,394.303986,583.648010
782.752014,394.303986,581.695984
782.752014,394.303986,589.504028
780.799988,386.496002,577.791992
782.752014,380.640015,579.744019
776.895996,386.496002,581.695984
780.799988,376.735992,573.888000
784.703979,380.640015,577.791992
784.703979,374.783997,575.840027
788.607971,378.687988,575.840027
792.512024,376.735992,581.695984
788.607971,376.735992,573.888000
788.607971,376.735992,579.744019
786.656006,366.976013,575.840027
788.607971,372.832001,581.695984
784.703979,376.735992,577.791992
784.703979,380.640015,573.888000
786.656006,365.023987,579.744019
786.656006,361.119995,585.599976
788.607971,365.023987,581.695984
786.656006,355.264008,589.504028
784.703979,363.071991,581.695984
778.848022,359.167999,585.599976
778.848022,357.216003,591.455994
786.656006,361.119995,583.648010
774.943970,357.216003,587.552002
780.799988,353.312012,591.455994
778.848022,353.312012,581.695984
776.895996,353.312012,589.504028
780.799988,353.312012,589.504028
780.799988,349.407990,585.599976
772.992004,351.359985,581.695984
778.848022,353.312012,579.744019
778.848022,347.455994,577.791992
778.848022,341.600006,575.840027
774.943970,341.600006,583.648010
780.799988,341.600006,583.648010
776.895996,327.936005,593.408020
772.992004,333.791992,583.648010
778.848022,331.839996,577.791992
774.943970,331.839996,579.744019
774.943970,329.888000,583.648010
774.943970,320.127991,581.695984
780.799988,320.127991,583.648010
778.848022,331.839996,577.791992
772.992004,329.888000,579.744019
778.848022,327.936005,587.552002
774.943970,324.032013,583.648010
772.992004,324.032013,587.552002
780.799988,327.936005,587.552002
774.943970,322.079987,585.599976
769.088013,316.223999,587.552002
772.992004,316.223999,589.504028
772.992004,314.272003,591.455994
774.943970,327.936005,581.695984
774.943970,314.272003,587.552002
772.992004,314.272003,585.599976
774.943970,314.272003,591.455994
765.184021,314.272003,591.455994
765.184021,304.511993,583.648010
771.039978,310.368011,595.359985
769.088013,296.704010,585.599976
774.943970,310.368011,583.648010
772.992004,304.511993,585.599976
771.039978,302.559998,583.648010
767.135986,292.799988,587.552002
771.039978,302.559998,589.504028
767.135986,292.799988,595.359985
763.231995,286.944000,581.695984
767.135986,294.752014,595.359985
771.039978,300.608002,591.455994
771.039978,298.656006,581.695984
774.943970,284.992004,581.695984
774.943970,290.847992,581.695984
774.943970,298.656006,585.599976
767.135986,290.847992,591.455994
774.943970,290.847992,591.455994
774.943970,294.752014,587.552002
769.088013,290.847992,579.744019
765.184021,284.992004,585.599976
771.039978,294.752014,583.648010
776.895996,288.895996,579.744019
771.039978,294.752014,571.935974
776.895996,288.895996,579.744019
772.992004,286.944000,569.984009
771.039978,298.656006,573.888000
774.943970,288.895996,579.744019
782.752014,290.847992,583.648010
771.039978,288.895996,581.695984
782.752014,292.799988,579.744019
784.703979,294.752014,577.791992
782.752014,298.656006,573.888000
788.607971,302.559998,579.744019
790.559998,292.799988,583.648010
784.703979,292.799988,583.648010
786.656006,294.752014,581.695984
796.416016,290.847992,573.888000
788.607971,298.656006,585.599976
790.559998,300.608002,587.552002
786.656006,292.799988,583.648010
794.463989,288.895996,583.648010
798.367981,286.944000,589.504028
798.367981,292.799988,583.648010
798.367981,281.088013,577.791992
796.416016,283.040009,591.455994
800.320007,284.992004,587.552002
798.367981,300.608002,577.791992
794.463989,290.847992,577.791992
798.367981,296.704010,581.695984
792.512024,298.656006,577.791992
788.607971,288.895996,585.599976
786.656006,288.895996,587.552002
792.512024,296.704010,575.840027
790.559998,292.799988,583.648010
794.463989,306.463989,587.552002
794.463989,310.368011,581.695984
788.607971,306.463989,573.888000
784.703979,308.415985,581.695984
778.848022,306.463989,583.648010
774.943970,292.799988,587.552002
780.799988,290.847992,587.552002
780.799988,296.704010,591.455994
784.703979,290.847992,573.888000
780.799988,290.847992,593.408020
778.848022,290.847992,587.552002
772.992004,296.704010,589.504028
774.943970,284.992004,591.455994
769.088013,288.895996,585.599976
778.848022,284.992004,595.359985
778.848022,288.895996,581.695984
769.088013,298.656006,585.599976
774.943970,296.704010,587.552002
767.135986,283.040009,579.744019
769.088013,292.799988,585.599976
772.992004,288.895996,577.791992
778.848022,292.799988,581.695984
771.039978,296.704010,579.744019
771.039978,304.511993,585.599976
761.280029,292.799988,583.648010
765.184021,290.847992,577.791992
774.943970,294.752014,581.695984
759.328003,296.704010,583.648010
765.184021,294.752014,583.648010
759.328003,290.847992,583.648010
761.280029,288.895996,585.599976
751.520020,298.656006,569.984009
763.231995,284.992004,573.888000
759.328003,296.704010,573.888000
753.471985,294.752014,573.888000
759.328003,294.752014,573.888000
763.231995,290.847992,569.984009
763.231995,290.847992,571.935974
761.280029,284.992004,573.888000
761.280029,294.752014,577.791992
763.231995,290.847992,577.791992
763.231995,296.704010,579.744019
765.184021,296.704010,575.840027
772.992004,294.752014,579.744019
772.992004,288.895996,573.888000
772.992004,290.847992,579.744019
774.943970,290.847992,568.031982
776.895996,290.847992,579.744019
774.943970,292.799988,585.599976
782.752014,288.895996,581.695984
784.703979,286.944000,579.744019
788.607971,288.895996,585.599976
786.656006,294.752014,593.408020
788.607971,277.183990,599.263977
794.463989,286.944000,595.359985
788.607971,286.944000,593.408020
788.607971,286.944000,589.504028
794.463989,284.992004,585.599976
792.512024,279.135986,601.216003
790.559998,279.135986,591.455994
788.607971,277.183990,593.408020
800.320007,288.895996,589.504028
798.367981,279.135986,597.312012
798.367981,273.279999,585.599976
796.416016,269.376007,587.552002
788.607971,263.519989,589.504028
780.799988,261.567993,587.552002
780.799988,265.471985,591.455994
776.895996,265.471985,587.552002
784.703979,273.279999,587.552002
784.703979,269.376007,589.504028
776.895996,261.567993,591.455994
776.895996,273.279999,591.455994
772.992004,275.231995,593.408020
790.559998,275.231995,593.408020
790.559998,267.424011,591.455994
778.848022,253.759995,585.599976
782.752014,255.712006,593.408020
784.703979,261.567993,595.359985
784.703979,257.664001,603.168030
784.703979,257.664001,601.216003
790.559998,263.519989,609.023987
786.656006,247.904007,610.976013
788.607971,251.807999,610.976013
794.463989,257.664001,612.927979
788.607971,257.664001,616.831970
788.607971,255.712006,616.831970
792.512024,255.712006,622.687988
796.416016,255.712006,630.495972
798.367981,286.944000,632.447998
786.656006,298.656006,650.015991
788.607971,267.424011,651.968018
784.703979,283.040009,650.015991
800.320007,208.863998,632.447998
841.312012,-72.223999,733.952026
788.607971,564.127991,753.471985
806.176025,538.752014,771.039978
823.744019,236.192001,755.424011
839.359985,206.912003,735.903992
862.783997,318.175995,714.432007
929.151978,415.776001,702.719971
890.112000,441.152008,704.671997
704.671997,337.696014,720.288025
1007.231995,210.815994,696.864014
782.752014,273.279999,759.328003
876.447998,339.648010,774.943970
892.064026,140.544006,813.984009
921.343994,56.608002,831.552002
903.776001,121.024002,833.504028
851.072021,152.255997,839.359985
886.208008,146.399994,833.504028
905.728027,175.679993,819.840027
894.015991,214.720001,819.840027
905.728027,236.192001,819.840027
915.487976,298.656006,825.695984
905.728027,327.936005,815.935974
888.159973,341.600006,812.031982
890.112000,331.839996,812.031982
884.255981,349.407990,819.840027
843.263977,376.735992,823.744019
880.351990,361.119995,810.080017
927.200012,325.984009,825.695984
870.591980,331.839996,829.599976
878.400024,333.791992,813.984009
899.872009,306.463989,815.935974
823.744019,269.376007,823.744019
771.039978,171.776001,825.695984
796.416016,101.503998,800.320007
821.791992,119.071999,780.799988
804.223999,76.127998,765.184021
827.648010,5.856000,745.664001
784.703979,-42.944000,751.520020
851.072021,-31.232000,732.000000
892.064026,-126.879997,716.383972
810.080017,-189.343994,724.192017
823.744019,-122.975998,720.288025
874.495972,-9.760000,718.335999
862.783997,56.608002,745.664001
837.408020,76.127998,749.567993
708.575989,-11.712000,751.520020
614.880005,-33.183998,724.192017
813.984009,29.280001,665.632019
851.072021,-42.944000,630.495972
745.664001,-158.112000,620.736023
804.223999,-206.912003,573.888000
833.504028,-253.759995,595.359985
806.176025,-245.951996,589.504028
650.015991,68.320000,581.695984
675.392029,548.512024,546.559998
675.392029,895.968018,534.848022
648.064026,1081.407959,550.463989
675.392029,1202.432007,566.080017
667.583984,1274.656006,573.888000
784.703979,1231.712036,585.599976
706.624023,1032.608032,601.216003
708.575989,823.744019,603.168030
765.184021,653.919983,622.687988
769.088013,491.903992,644.159973
772.992004,363.071991,661.728027
772.992004,382.592010,651.968018
757.375977,-19.520000,638.304016
1048.223999,-1145.823975,566.080017
835.455994,-774.943970,577.791992
759.328003,378.687988,607.072021
759.328003,710.528015,620.736023
718.335999,685.151978,614.880005
761.280029,302.559998,628.544006
817.888000,56.608002,624.640015
819.840027,138.591995,634.400024
856.927979,228.384003,650.015991
854.976013,179.584000,671.487976
812.031982,99.552002,673.440002
841.312012,107.360001,677.343994
853.023987,124.928001,677.343994
659.776001,-11.712000,677.343994
495.808014,-167.871994,675.392029
769.088013,-119.071999,626.591980
1024.800049,-74.176003,593.408020
864.736023,-171.776001,607.072021
687.104004,-210.815994,622.687988
681.247986,-56.608002,624.640015
634.400024,273.279999,626.591980
829.599976,569.984009,587.552002
835.455994,724.192017,577.791992
663.679993,876.447998,618.783997
712.479980,995.520020,632.447998
948.671997,1024.800049,616.831970
989.664001,1005.280029,628.544006
954.528015,1018.943970,651.968018
1042.368042,1034.560059,667.583984
1190.719971,1034.560059,659.776001
776.895996,-648.064026,700.768005
327.936005,-1731.423950,706.624023
199.104004,-966.239990,687.104004
517.280029,382.592010,692.960022
698.815979,607.072021,653.919983
968.192017,480.191986,536.799988
1284.416016,437.247986,503.615997
523.135986,597.312012,597.312012
534.848022,685.151978,548.512024
917.440002,624.640015,482.144012
486.048004,790.559998,491.903992
646.112000,1081.407959,466.528015
991.616028,283.040009,435.295990
872.544006,-669.536011,452.864014
552.416016,-271.328003,472.384003
735.903992,409.920013,476.287994
810.080017,651.968018,499.712006
730.047974,365.023987,525.088013
771.039978,87.839996,525.088013
683.200012,199.104004,538.752014
651.968018,415.776001,554.367981
698.815979,464.575989,564.127991
677.343994,409.920013,571.935974
618.783997,363.071991,568.031982
634.400024,382.592010,577.791992
708.575989,429.440002,581.695984
747.616028,472.384003,571.935974
747.616028,501.664001,581.695984
732.000000,497.760010,587.552002
732.000000,478.239990,589.504028
751.520020,474.335999,577.791992
833.504028,429.440002,579.744019
380.640015,134.688004,556.320007
683.200012,283.040009,470.432007
796.416016,329.888000,425.536011
784.703979,242.048004,374.783997
810.080017,197.151993,361.119995
802.271973,167.871994,376.735992
794.463989,197.151993,409.920013
735.903992,269.376007,437.247986
702.719971,337.696014,464.575989
712.479980,361.119995,491.903992
720.288025,341.600006,497.760010
691.007996,296.704010,501.664001
702.719971,281.088013,505.567993
718.335999,259.615997,519.231995
722.239990,218.623993,521.184021
694.911987,169.824005,530.943970
679.296021,107.360001,534.848022
708.575989,52.703999,534.848022
722.239990,7.808000,542.656006
708.575989,3.904000,556.320007
718.335999,-9.760000,566.080017
741.760010,-19.520000,577.791992
759.328003,7.808000,595.359985
755.424011,15.616000,618.783997
772.992004,29.280001,616.831970
753.471985,31.232000,620.736023
767.135986,25.375999,632.447998
761.280029,3.904000,648.064026
786.656006,-25.375999,655.872009
794.463989,-74.176003,648.064026
802.271973,-117.120003,651.968018
788.607971,-152.255997,648.064026
790.559998,-195.199997,655.872009
794.463989,-298.656006,659.776001
823.744019,-417.727997,653.919983
948.671997,-534.848022,661.728027
714.432007,-739.807983,620.736023
817.888000,-823.744019,626.591980
700.768005,-579.744019,651.968018
528.992004,201.056000,741.760010
696.864014,480.191986,784.703979
552.416016,175.679993,728.096008
622.687988,177.632004,718.335999
700.768005,365.023987,753.471985
255.712006,1325.407959,804.223999
-507.519989,4290.496094,675.392029
1569.407959,4107.007812,739.807983
603.168030,2182.335938,837.408020
372.832001,-1504.991943,854.976013
1061.887939,-1682.624023,745.664001
858.880005,-925.247986,626.591980
854.976013,-242.048004,624.640015
349.407990,1342.975952,687.104004
866.687988,1852.447998,786.656006
667.583984,554.367981,772.992004
603.168030,-517.280029,683.200012
521.184021,-191.296005,605.119995
628.544006,732.000000,612.927979
677.343994,913.536011,644.159973
628.544006,398.208008,651.968018
601.216003,39.040001,610.976013
571.935974,163.968002,562.176025
585.599976,489.951996,564.127991
587.552002,556.320007,583.648010
624.640015,349.407990,581.695984
671.487976,185.440002,566.080017
733.952026,244.000000,554.367981
523.135986,345.503998,542.656006
630.495972,425.536011,558.271973
698.815979,308.415985,560.223999
603.168030,185.440002,525.088013
673.440002,212.768005,511.424011
614.880005,302.559998,521.184021
609.023987,290.847992,509.471985
610.976013,286.944000,515.328003
726.143982,236.192001,538.752014
732.000000,177.632004,538.752014
700.768005,222.528000,558.271973
687.104004,314.272003,556.320007
640.255981,318.175995,546.559998
648.064026,281.088013,534.848022
642.208008,247.904007,534.848022
642.208008,226.432007,523.135986
624.640015,244.000000,523.135986
603.168030,259.615997,511.424011
626.591980,261.567993,509.471985
638.304016,228.384003,505.567993
605.119995,199.104004,491.903992
710.528015,230.335999,503.615997
745.664001,179.584000,503.615997
497.760010,158.112000,488.000000
642.208008,253.759995,501.664001
653.919983,290.847992,501.664001
638.304016,195.199997,493.855988
657.823975,150.304001,488.000000
640.255981,199.104004,499.712006
626.591980,245.951996,505.567993
648.064026,261.567993,507.519989
616.831970,236.192001,509.471985
640.255981,214.720001,515.328003
646.112000,212.768005,519.231995
609.023987,242.048004,525.088013
575.840027,279.135986,507.519989
636.351990,306.463989,527.039978
892.064026,347.455994,556.320007
708.575989,177.632004,542.656006
337.696014,83.935997,509.471985
474.335999,286.944000,536.799988
769.088013,417.727997,554.367981
577.791992,306.463989,536.799988
429.440002,230.335999,534.848022
478.239990,228.384003,538.752014
548.512024,265.471985,538.752014
1065.791992,409.920013,571.935974
585.599976,201.056000,538.752014
569.984009,222.528000,507.519989
325.984009,173.727997,532.895996
837.408020,380.640015,568.031982
954.528015,318.175995,595.359985
530.943970,121.024002,548.512024
993.567993,402.112000,542.656006
488.000000,97.599998,513.375977
462.623993,210.815994,503.615997
669.536011,376.735992,503.615997
454.816010,271.328003,499.712006
698.815979,304.511993,523.135986
837.408020,314.272003,519.231995
702.719971,222.528000,501.664001
552.416016,138.591995,478.239990
476.287994,208.863998,460.671997
733.952026,368.928009,484.096008
673.440002,316.223999,476.287994
610.976013,296.704010,466.528015
655.872009,314.272003,443.104004
525.088013,238.143997,439.200012
573.888000,284.992004,439.200012
642.208008,324.032013,441.152008
624.640015,314.272003,437.247986
626.591980,304.511993,431.391998
618.783997,286.944000,437.247986
626.591980,265.471985,441.152008
628.544006,277.183990,443.104004
614.880005,290.847992,437.247986
581.695984,292.799988,433.343994
583.648010,284.992004,437.247986
568.031982,281.088013,458.720001
573.888000,288.895996,466.528015
556.320007,261.567993,472.384003
542.656006,234.240005,468.480011
577.791992,208.863998,472.384003
626.591980,162.016006,482.144012
626.591980,144.447998,488.000000
616.831970,138.591995,480.191986
620.736023,136.639999,480.191986
616.831970,144.447998,486.048004
638.304016,144.447998,480.191986
618.783997,216.671997,474.335999
569.984009,530.943970,470.432007
661.728027,208.863998,341.600006
706.624023,-1.952000,128.832001
683.200012,655.872009,128.832001
679.296021,837.408020,325.984009
597.312012,329.888000,462.623993
532.895996,-242.048004,489.951996
552.416016,-140.544006,458.720001
536.799988,355.264008,437.247986
546.559998,509.471985,392.351990
575.840027,253.759995,372.832001
577.791992,29.280001,400.160004
566.080017,91.744003,439.200012
527.039978,290.847992,431.391998
527.039978,310.368011,396.256012
532.895996,183.488007,378.687988
534.848022,126.879997,407.967987
548.512024,173.727997,425.536011
536.799988,222.528000,409.920013
521.184021,208.863998,394.303986
525.088013,175.679993,392.351990
521.184021,179.584000,409.920013
517.280029,171.776001,413.824005
519.231995,171.776001,404.063995
534.848022,189.343994,402.112000
532.895996,206.912003,396.256012
521.184021,210.815994,404.063995
505.567993,197.151993,406.015991
511.424011,189.343994,423.584015
507.519989,199.104004,415.776001
511.424011,214.720001,413.824005
517.280029,212.768005,413.824005
523.135986,210.815994,415.776001
523.135986,216.671997,429.440002
528.992004,222.528000,439.200012
534.848022,197.151993,450.911987
548.512024,203.007996,464.575989
556.320007,214.720001,484.096008
571.935974,187.391998,509.471985
575.840027,173.727997,542.656006
585.599976,175.679993,577.791992
591.455994,169.824005,620.736023
607.072021,163.968002,655.872009
609.023987,169.824005,685.151978
612.927979,165.919998,691.007996
607.072021,165.919998,716.383972
610.976013,163.968002,710.528015
622.687988,165.919998,712.479980
612.927979,169.824005,708.575989
610.976013,173.727997,708.575989
612.927979,181.535995,696.864014
603.168030,185.440002,673.440002
603.168030,179.584000,657.823975
589.504028,201.056000,630.495972
587.552002,208.863998,616.831970
579.744019,195.199997,587.552002
587.552002,187.391998,583.648010
573.888000,197.151993,579.744019
566.080017,195.199997,571.935974
573.888000,195.199997,560.223999
569.984009,193.248001,571.935974
575.840027,183.488007,577.791992
569.984009,167.871994,591.455994
579.744019,167.871994,610.976013
569.984009,173.727997,614.880005
575.840027,165.919998,616.831970
575.840027,156.160004,630.495972
581.695984,171.776001,622.687988
583.648010,179.584000,628.544006
575.840027,181.535995,630.495972
575.840027,185.440002,618.783997
579.744019,195.199997,626.591980
569.984009,204.960007,618.783997
571.935974,210.815994,605.119995
573.888000,210.815994,601.216003
569.984009,208.863998,601.216003
568.031982,214.720001,599.263977
566.080017,206.912003,589.504028
564.127991,210.815994,597.312012
558.271973,208.863998,589.504028
558.271973,197.151993,573.888000
564.127991,193.248001,573.888000
560.223999,187.391998,571.935974
568.031982,179.584000,571.935974
571.935974,171.776001,566.080017
564.127991,177.632004,554.367981
554.367981,175.679993,566.080017
558.271973,181.535995,554.367981
562.176025,187.391998,552.416016
562.176025,187.391998,552.416016
564.127991,177.632004,552.416016
568.031982,185.440002,552.416016
569.984009,195.199997,552.416016
571.935974,208.863998,542.656006
575.840027,199.104004,548.512024
585.599976,206.912003,550.463989
587.552002,214.720001,544.607971
593.408020,216.671997,544.607971
603.168030,212.768005,556.320007
601.216003,206.912003,552.416016
610.976013,226.432007,552.416016
595.359985,228.384003,550.463989
607.072021,210.815994,550.463989
609.023987,210.815994,546.559998
614.880005,220.576004,546.559998
618.783997,210.815994,540.703979
609.023987,199.104004,540.703979
620.736023,206.912003,538.752014
620.736023,224.479996,538.752014
630.495972,216.671997,546.559998
622.687988,218.623993,540.703979
630.495972,232.287994,536.799988
622.687988,224.479996,530.943970
624.640015,224.479996,540.703979
634.400024,224.479996,530.943970
624.640015,234.240005,530.943970
628.544006,236.192001,534.848022
632.447998,230.335999,532.895996
634.400024,230.335999,540.703979
640.255981,244.000000,550.463989
638.304016,245.951996,548.512024
640.255981,236.192001,556.320007
644.159973,245.951996,552.416016
642.208008,263.519989,554.367981
651.968018,251.807999,554.367981
638.304016,255.712006,558.271973
650.015991,249.856003,566.080017
655.872009,251.807999,562.176025
655.872009,244.000000,571.935974
657.823975,249.856003,562.176025
669.536011,242.048004,556.320007
665.632019,244.000000,562.176025
663.679993,238.143997,554.367981
667.583984,236.192001,554.367981
667.583984,238.143997,568.031982
681.247986,240.095993,560.223999
681.247986,232.287994,558.271973
673.440002,236.192001,554.367981
681.247986,232.287994,562.176025
685.151978,242.048004,556.320007
689.056030,240.095993,558.271973
700.768005,234.240005,552.416016
694.911987,232.287994,560.223999
691.007996,245.951996,568.031982
694.911987,240.095993,569.984009
700.768005,240.095993,579.744019
708.575989,238.143997,575.840027
708.575989,236.192001,585.599976
712.479980,238.143997,583.648010
716.383972,232.287994,587.552002
720.288025,240.095993,593.408020
722.239990,226.432007,599.263977
722.239990,218.623993,599.263977
728.096008,230.335999,607.072021
728.096008,234.240005,605.119995
728.096008,214.720001,601.216003
726.143982,216.671997,612.927979
741.760010,232.287994,612.927979
733.952026,206.912003,622.687988
733.952026,214.720001,624.640015
743.711975,203.007996,618.783997
747.616028,204.960007,628.544006
745.664001,203.007996,618.783997
749.567993,203.007996,618.783997
749.567993,203.007996,620.736023
745.664001,203.007996,622.687988
759.328003,203.007996,630.495972
759.328003,206.912003,612.927979
749.567993,203.007996,622.687988
749.567993,191.296005,610.976013
749.567993,197.151993,610.976013
759.328003,199.104004,614.880005
751.520020,195.199997,610.976013
751.520020,185.440002,609.023987
747.616028,195.199997,622.687988
755.424011,199.104004,622.687988
747.616028,195.199997,618.783997
757.375977,189.343994,618.783997
757.375977,195.199997,622.687988
751.520020,183.488007,620.736023
759.328003,187.391998,618.783997
759.328003,187.391998,622.687988
765.184021,187.391998,622.687988
761.280029,177.632004,632.447998
765.184021,183.488007,628.544006
772.992004,183.488007,620.736023
776.895996,171.776001,630.495972
772.992004,179.584000,634.400024
772.992004,175.679993,632.447998
774.943970,175.679993,634.400024
776.895996,181.535995,628.544006
774.943970,177.632004,630.495972
778.848022,179.584000,628.544006
782.752014,177.632004,628.544006
778.848022,175.679993,628.544006
782.752014,173.727997,630.495972
780.799988,177.632004,624.640015
784.703979,167.871994,632.447998
784.703979,175.679993,630.495972
790.559998,171.776001,634.400024
782.752014,163.968002,630.495972
786.656006,173.727997,620.736023
788.607971,173.727997,634.400024
788.607971,167.871994,628.544006
780.799988,171.776001,632.447998
784.703979,169.824005,634.400024
802.271973,167.871994,636.351990
788.607971,162.016006,646.112000
792.512024,160.063995,646.112000
802.271973,165.919998,640.255981
790.559998,160.063995,646.112000
794.463989,158.112000,636.351990
784.703979,152.255997,638.304016
794.463989,144.447998,642.208008
790.559998,152.255997,644.159973
798.367981,158.112000,642.208008
798.367981,150.304001,638.304016
804.223999,154.207993,634.400024
792.512024,152.255997,632.447998
802.271973,150.304001,632.447998
794.463989,132.735992,628.544006
800.320007,132.735992,634.400024
796.416016,140.544006,636.351990
800.320007,132.735992,628.544006
804.223999,132.735992,636.351990
813.984009,138.591995,632.447998
813.984009,134.688004,638.304016
813.984009,122.975998,638.304016
817.888000,130.783997,636.351990
819.840027,126.879997,638.304016
823.744019,130.783997,653.919983
829.599976,130.783997,648.064026
823.744019,130.783997,657.823975
837.408020,128.832001,661.728027
835.455994,122.975998,651.968018
847.168030,126.879997,657.823975
845.216003,126.879997,659.776001
843.263977,126.879997,651.968018
853.023987,119.071999,651.968018
854.976013,119.071999,661.728027
860.831970,126.879997,661.728027
870.591980,128.832001,659.776001
866.687988,130.783997,667.583984
866.687988,132.735992,663.679993
872.544006,132.735992,673.440002
884.255981,140.544006,673.440002
895.968018,140.544006,671.487976
890.112000,134.688004,677.343994
886.208008,146.399994,673.440002
890.112000,144.447998,685.151978
903.776001,138.591995,679.296021
901.823975,138.591995,692.960022
907.679993,134.688004,691.007996
905.728027,142.496002,675.392029
911.583984,140.544006,681.247986
911.583984,148.352005,673.440002
919.392029,150.304001,685.151978
917.440002,162.016006,683.200012
917.440002,156.160004,679.296021
925.247986,158.112000,675.392029
923.296021,165.919998,683.200012
927.200012,160.063995,679.296021
929.151978,158.112000,683.200012
927.200012,163.968002,681.247986
923.296021,173.727997,679.296021
933.056030,171.776001,675.392029
929.151978,165.919998,673.440002
940.864014,173.727997,671.487976
935.007996,171.776001,681.247986
938.911987,169.824005,671.487976
938.911987,175.679993,671.487976
946.719971,179.584000,667.583984
940.864014,173.727997,671.487976
948.671997,185.440002,663.679993
940.864014,191.296005,669.536011
944.768005,183.488007,669.536011
942.815979,183.488007,669.536011
938.911987,189.343994,667.583984
942.815979,193.248001,679.296021
931.104004,191.296005,673.440002
944.768005,195.199997,677.343994
940.864014,193.248001,673.440002
948.671997,189.343994,661.728027
946.719971,187.391998,653.919983
942.815979,199.104004,657.823975
938.911987,216.671997,655.872009
946.719971,206.912003,661.728027
940.864014,214.720001,661.728027
938.911987,208.863998,667.583984
940.864014,201.056000,663.679993
940.864014,208.863998,669.536011
936.960022,206.912003,665.632019
942.815979,212.768005,665.632019
933.056030,199.104004,663.679993
935.007996,212.768005,665.632019
933.056030,210.815994,657.823975
940.864014,210.815994,655.872009
933.056030,208.863998,651.968018
929.151978,208.863998,648.064026
935.007996,216.671997,648.064026
936.960022,216.671997,638.304016
931.104004,216.671997,638.304016
936.960022,220.576004,646.112000
935.007996,201.056000,650.015991
933.056030,208.863998,650.015991
931.104004,208.863998,648.064026
929.151978,204.960007,642.208008
929.151978,208.863998,650.015991
933.056030,199.104004,636.351990
931.104004,197.151993,653.919983
927.200012,210.815994,648.064026
935.007996,204.960007,638.304016
927.200012,201.056000,642.208008
936.960022,191.296005,644.159973
929.151978,183.488007,648.064026
931.104004,197.151993,653.919983
935.007996,197.151993,644.159973
925.247986,191.296005,648.064026
936.960022,191.296005,644.159973
933.056030,191.296005,644.159973
929.151978,189.343994,648.064026
929.151978,183.488007,648.064026
933.056030,177.632004,646.112000
929.151978,177.632004,653.919983
938.911987,185.440002,653.919983
931.104004,175.679993,665.632019
931.104004,171.776001,655.872009
933.056030,165.919998,663.679993
935.007996,156.160004,659.776001
940.864014,160.063995,665.632019
936.960022,156.160004,659.776001
931.104004,163.968002,661.728027
925.247986,152.255997,663.679993
931.104004,156.160004,657.823975
927.200012,158.112000,665.632019
935.007996,140.544006,659.776001
925.247986,136.639999,661.728027
931.104004,142.496002,661.728027
929.151978,140.544006,653.919983
933.056030,134.688004,663.679993
925.247986,140.544006,661.728027
931.104004,134.688004,657.823975
933.056030,130.783997,663.679993
931.104004,126.879997,655.872009
929.151978,128.832001,655.872009
929.151978,115.167999,659.776001
931.104004,122.975998,665.632019
925.247986,124.928001,665.632019
925.247986,111.264000,657.823975
923.296021,113.216003,665.632019
931.104004,122.975998,659.776001
923.296021,117.120003,663.679993
923.296021,113.216003,665.632019
919.392029,109.311996,665.632019
925.247986,105.407997,655.872009
921.343994,101.503998,671.487976
917.440002,113.216003,655.872009
913.536011,119.071999,663.679993
921.343994,101.503998,665.632019
921.343994,97.599998,665.632019
915.487976,105.407997,659.776001
913.536011,97.599998,665.632019
909.632019,97.599998,648.064026
909.632019,97.599998,657.823975
913.536011,111.264000,655.872009
913.536011,105.407997,648.064026
919.392029,99.552002,648.064026
913.536011,105.407997,648.064026
915.487976,89.792000,642.208008
907.679993,93.695999,636.351990
909.632019,97.599998,646.112000
915.487976,97.599998,646.112000
911.583984,101.503998,648.064026
917.440002,101.503998,646.112000
921.343994,101.503998,646.112000
907.679993,103.456001,640.255981
911.583984,101.503998,648.064026
917.440002,97.599998,638.304016
925.247986,87.839996,640.255981
917.440002,97.599998,638.304016
921.343994,101.503998,638.304016
913.536011,105.407997,634.400024
915.487976,95.648003,640.255981
913.536011,101.503998,638.304016
921.343994,97.599998,646.112000
911.583984,109.311996,642.208008
909.632019,101.503998,632.447998
909.632019,101.503998,638.304016
919.392029,103.456001,640.255981
909.632019,101.503998,644.159973
915.487976,111.264000,634.400024
915.487976,107.360001,634.400024
919.392029,101.503998,634.400024
911.583984,117.120003,632.447998
913.536011,115.167999,632.447998
905.728027,121.024002,628.544006
911.583984,117.120003,630.495972
915.487976,121.024002,630.495972
913.536011,117.120003,624.640015
905.728027,124.928001,634.400024
905.728027,128.832001,624.640015
911.583984,130.783997,626.591980
911.583984,136.639999,620.736023
909.632019,140.544006,628.544006
913.536011,142.496002,626.591980
905.728027,140.544006,620.736023
899.872009,148.352005,630.495972
903.776001,144.447998,614.880005
907.679993,136.639999,610.976013
905.728027,142.496002,618.783997
903.776001,140.544006,612.927979
899.872009,150.304001,614.880005
897.919983,152.255997,605.119995
895.968018,146.399994,605.119995
894.015991,150.304001,614.880005
897.919983,165.919998,609.023987
895.968018,163.968002,601.216003
890.112000,167.871994,593.408020
903.776001,162.016006,601.216003
894.015991,160.063995,587.552002
882.304016,169.824005,595.359985
884.255981,185.440002,599.263977
892.064026,189.343994,581.695984
886.208008,185.440002,573.888000
890.112000,185.440002,587.552002
886.208008,179.584000,575.840027
886.208008,179.584000,575.840027
872.544006,187.391998,583.648010
880.351990,183.488007,583.648010
884.255981,189.343994,577.791992
880.351990,185.440002,579.744019
874.495972,187.391998,575.840027
874.495972,183.488007,577.791992
884.255981,191.296005,575.840027
882.304016,187.391998,575.840027
870.591980,187.391998,573.888000
872.544006,197.151993,568.031982
864.736023,191.296005,569.984009
858.880005,195.199997,569.984009
858.880005,208.863998,571.935974
860.831970,204.960007,564.127991
856.927979,203.007996,566.080017
853.023987,206.912003,554.367981
853.023987,197.151993,560.223999
851.072021,204.960007,564.127991
847.168030,212.768005,558.271973
839.359985,208.863998,558.271973
847.168030,208.863998,560.223999
835.455994,210.815994,558.271973
833.504028,212.768005,550.463989
839.359985,204.960007,548.512024
831.552002,216.671997,552.416016
829.599976,216.671997,538.752014
831.552002,206.912003,542.656006
835.455994,206.912003,546.559998
829.599976,212.768005,544.607971
823.744019,214.720001,542.656006
823.744019,210.815994,538.752014
815.935974,210.815994,536.799988
815.935974,210.815994,532.895996
812.031982,203.007996,536.799988
819.840027,203.007996,523.135986
815.935974,212.768005,527.039978
812.031982,206.912003,534.848022
815.935974,206.912003,530.943970
810.080017,204.960007,527.039978
806.176025,201.056000,525.088013
800.320007,201.056000,523.135986
812.031982,203.007996,525.088013
810.080017,203.007996,519.231995
806.176025,197.151993,527.039978
806.176025,191.296005,528.992004
810.080017,197.151993,525.088013
800.320007,197.151993,528.992004
806.176025,191.296005,525.088013
808.127991,189.343994,523.135986
815.935974,191.296005,527.039978
810.080017,197.151993,532.895996
810.080017,193.248001,521.184021
815.935974,179.584000,527.039978
808.127991,177.632004,523.135986
808.127991,183.488007,528.992004
817.888000,173.727997,527.039978
806.176025,167.871994,528.992004
804.223999,167.871994,530.943970
812.031982,163.968002,528.992004
819.840027,163.968002,532.895996
817.888000,162.016006,532.895996
827.648010,160.063995,534.848022
829.599976,140.544006,538.752014
835.455994,144.447998,538.752014
821.791992,136.639999,534.848022
819.840027,140.544006,544.607971
821.791992,138.591995,540.703979
821.791992,140.544006,540.703979
829.599976,134.688004,546.559998
827.648010,144.447998,552.416016
829.599976,140.544006,550.463989
825.695984,128.832001,552.416016
831.552002,122.975998,550.463989
825.695984,121.024002,556.320007
827.648010,117.120003,568.031982
827.648010,122.975998,560.223999
825.695984,115.167999,558.271973
825.695984,119.071999,568.031982
835.455994,111.264000,568.031982
835.455994,113.216003,571.935974
837.408020,115.167999,569.984009
841.312012,113.216003,577.791992
835.455994,111.264000,573.888000
835.455994,109.311996,581.695984
831.552002,115.167999,573.888000
835.455994,109.311996,583.648010
831.552002,105.407997,589.504028
831.552002,107.360001,589.504028
835.455994,111.264000,591.455994
839.359985,103.456001,579.744019
851.072021,101.503998,583.648010
854.976013,111.264000,585.599976
847.168030,109.311996,597.312012
853.023987,107.360001,603.168030
853.023987,107.360001,614.880005
856.927979,115.167999,612.927979
854.976013,111.264000,624.640015
845.216003,124.928001,630.495972
856.927979,103.456001,628.544006
878.400024,80.031998,624.640015
890.112000,93.695999,612.927979
894.015991,144.447998,610.976013
903.776001,121.024002,622.687988
911.583984,99.552002,632.447998
892.064026,142.496002,628.544006
892.064026,189.343994,640.255981
899.872009,134.688004,638.304016
903.776001,138.591995,636.351990
899.872009,208.863998,644.159973
899.872009,162.016006,634.400024
897.919983,113.216003,624.640015
890.112000,169.824005,628.544006
876.447998,175.679993,622.687988
884.255981,111.264000,603.168030
870.591980,91.744003,573.888000
864.736023,185.440002,577.791992
819.840027,62.464001,562.176025
835.455994,76.127998,544.607971
835.455994,201.056000,530.943970
847.168030,181.535995,528.992004
839.359985,76.127998,530.943970
854.976013,83.935997,515.328003
827.648010,199.104004,521.184021
841.312012,197.151993,523.135986
833.504028,103.456001,527.039978
833.504028,103.456001,528.992004
819.840027,177.632004,534.848022
829.599976,187.391998,532.895996
819.840027,117.120003,540.703979
823.744019,95.648003,550.463989
821.791992,121.024002,558.271973
817.888000,124.928001,564.127991
812.031982,87.839996,564.127991
819.840027,46.848000,581.695984
815.935974,50.751999,583.648010
817.888000,76.127998,581.695984
817.888000,58.560001,583.648010
819.840027,44.896000,577.791992
808.127991,39.040001,579.744019
806.176025,64.416000,585.599976
806.176025,60.512001,577.791992
792.512024,68.320000,568.031982
788.607971,72.223999,571.935974
788.607971,64.416000,568.031982
784.703979,70.272003,556.320007
786.656006,68.320000,554.367981
798.367981,70.272003,554.367981
788.607971,74.176003,546.559998
786.656006,74.176003,564.127991
786.656006,62.464001,560.223999
778.848022,58.560001,558.271973
780.799988,48.799999,560.223999
776.895996,40.992001,556.320007
769.088013,33.183998,568.031982
774.943970,21.472000,564.127991
782.752014,23.424000,564.127991
786.656006,29.280001,569.984009
790.559998,7.808000,573.888000
784.703979,-1.952000,562.176025
794.463989,9.760000,575.840027
800.320007,17.568001,564.127991
788.607971,11.712000,566.080017
800.320007,9.760000,568.031982
798.367981,11.712000,575.840027
794.463989,37.088001,581.695984
788.607971,35.136002,571.935974
794.463989,33.183998,573.888000
794.463989,35.136002,566.080017
798.367981,56.608002,577.791992
798.367981,50.751999,577.791992
796.416016,40.992001,568.031982
794.463989,40.992001,571.935974
796.416016,48.799999,568.031982
796.416016,42.944000,568.031982
790.559998,31.232000,560.223999
794.463989,25.375999,554.367981
794.463989,25.375999,560.223999
788.607971,25.375999,546.559998
790.559998,17.568001,554.367981
786.656006,17.568001,564.127991
782.752014,17.568001,542.656006
782.752014,17.568001,538.752014
776.895996,17.568001,544.607971
776.895996,17.568001,542.656006
788.607971,23.424000,542.656006
786.656006,29.280001,538.752014
786.656006,40.992001,523.135986
780.799988,37.088001,540.703979
784.703979,40.992001,540.703979
782.752014,37.088001,527.039978
776.895996,40.992001,530.943970
786.656006,40.992001,525.088013
778.848022,42.944000,525.088013
778.848022,42.944000,525.088013
774.943970,46.848000,519.231995
778.848022,40.992001,519.231995
784.703979,40.992001,521.184021
782.752014,33.183998,515.328003
774.943970,31.232000,515.328003
780.799988,27.327999,507.519989
780.799988,27.327999,507.519989
772.992004,39.040001,521.184021
772.992004,37.088001,513.375977
780.799988,27.327999,517.280029
774.943970,29.280001,517.280029
780.799988,31.232000,513.375977
786.656006,25.375999,511.424011
788.607971,33.183998,507.519989
782.752014,40.992001,513.375977
776.895996,42.944000,507.519989
780.799988,52.703999,511.424011
776.895996,48.799999,513.375977
778.848022,50.751999,515.328003
767.135986,64.416000,507.519989
769.088013,54.655998,509.471985
767.135986,48.799999,509.471985
776.895996,56.608002,509.471985
780.799988,56.608002,509.471985
772.992004,52.703999,491.903992
776.895996,52.703999,501.664001
774.943970,46.848000,497.760010
778.848022,46.848000,499.712006
778.848022,40.992001,493.855988
774.943970,44.896000,495.808014
774.943970,35.136002,499.712006
761.280029,40.992001,495.808014
767.135986,37.088001,491.903992
767.135986,39.040001,497.760010
772.992004,39.040001,486.048004
763.231995,48.799999,489.951996
763.231995,50.751999,493.855988
765.184021,50.751999,486.048004
761.280029,48.799999,489.951996
759.328003,52.703999,484.096008
761.280029,54.655998,488.000000
757.375977,56.608002,493.855988
765.184021,60.512001,497.760010
767.135986,52.703999,486.048004
757.375977,54.655998,488.000000
761.280029,56.608002,488.000000
765.184021,56.608002,491.903992
761.280029,48.799999,497.760010
767.135986,54.655998,480.191986
757.375977,44.896000,489.951996
753.471985,40.992001,484.096008
763.231995,37.088001,495.808014
761.280029,40.992001,484.096008
757.375977,44.896000,489.951996
763.231995,39.040001,486.048004
757.375977,39.040001,489.951996
755.424011,48.799999,489.951996
759.328003,44.896000,484.096008
761.280029,46.848000,482.144012
771.039978,40.992001,484.096008
772.992004,42.944000,482.144012
765.184021,48.799999,478.239990
763.231995,46.848000,478.239990
761.280029,35.136002,484.096008
776.895996,39.040001,478.239990
774.943970,33.183998,486.048004
772.992004,35.136002,486.048004
782.752014,19.520000,488.000000
780.799988,25.375999,489.951996
784.703979,23.424000,489.951996
790.559998,13.664000,484.096008
796.416016,5.856000,486.048004
794.463989,0.000000,488.000000
798.367981,1.952000,486.048004
796.416016,-3.904000,489.951996
794.463989,3.904000,484.096008
806.176025,-1.952000,484.096008
810.080017,-5.856000,486.048004
813.984009,-5.856000,489.951996
813.984009,-9.760000,491.903992
821.791992,-5.856000,495.808014
825.695984,-1.952000,505.567993
821.791992,-5.856000,495.808014
839.359985,-13.664000,507.519989
841.312012,-11.712000,503.615997
835.455994,-11.712000,511.424011
845.216003,-11.712000,525.088013
847.168030,-7.808000,515.328003
849.119995,-11.712000,515.328003
856.927979,-11.712000,527.039978
853.023987,-3.904000,530.943970
864.736023,-11.712000,538.752014
868.640015,-5.856000,540.703979
862.783997,-19.520000,532.895996
868.640015,-9.760000,530.943970
870.591980,-13.664000,530.943970
870.591980,-15.616000,530.943970
880.351990,-11.712000,538.752014
878.400024,-21.472000,538.752014
880.351990,-25.375999,527.039978
888.159973,-17.568001,534.848022
894.015991,-27.327999,536.799988
897.919983,-39.040001,546.559998
903.776001,-29.280001,540.703979
901.823975,-35.136002,548.512024
901.823975,-31.232000,548.512024
907.679993,-25.375999,550.463989
913.536011,-23.424000,552.416016
909.632019,-25.375999,556.320007
911.583984,-17.568001,560.223999
919.392029,-19.520000,554.367981
919.392029,-13.664000,562.176025
917.440002,-31.232000,556.320007
921.343994,-29.280001,564.127991
923.296021,-21.472000,558.271973
923.296021,-21.472000,560.223999
913.536011,-23.424000,564.127991
925.247986,-19.520000,556.320007
917.440002,-13.664000,556.320007
913.536011,-13.664000,554.367981
915.487976,-3.904000,550.463989
913.536011,-7.808000,544.607971
915.487976,-7.808000,546.559998
911.583984,-5.856000,548.512024
911.583984,-3.904000,538.752014
911.583984,-3.904000,546.559998
917.440002,-3.904000,548.512024
913.536011,3.904000,548.512024
907.679993,9.760000,534.848022
907.679993,7.808000,530.943970
909.632019,15.616000,540.703979
909.632019,11.712000,527.039978
909.632019,17.568001,544.607971
909.632019,11.712000,542.656006
907.679993,7.808000,536.799988
915.487976,9.760000,534.848022
915.487976,7.808000,540.703979
907.679993,9.760000,540.703979
907.679993,3.904000,540.703979
897.919983,5.856000,542.656006
901.823975,11.712000,538.752014
895.968018,21.472000,534.848022
899.872009,11.712000,532.895996
899.872009,15.616000,536.799988
897.919983,23.424000,525.088013
901.823975,21.472000,515.328003
894.015991,21.472000,511.424011
894.015991,15.616000,525.088013
894.015991,25.375999,521.184021
894.015991,33.183998,517.280029
884.255981,40.992001,521.184021
884.255981,35.136002,511.424011
886.208008,39.040001,507.519989
888.159973,40.992001,509.471985
888.159973,52.703999,509.471985
880.351990,50.751999,509.471985
882.304016,48.799999,493.855988
874.495972,44.896000,495.808014
884.255981,42.944000,489.951996
882.304016,44.896000,491.903992
882.304016,48.799999,493.855988
872.544006,52.703999,493.855988
876.447998,54.655998,493.855988
876.447998,52.703999,491.903992
872.544006,48.799999,486.048004
866.687988,54.655998,493.855988
868.640015,60.512001,484.096008
876.447998,46.848000,484.096008
868.640015,56.608002,484.096008
864.736023,66.367996,478.239990
868.640015,62.464001,472.384003
878.400024,64.416000,482.144012
866.687988,56.608002,472.384003
870.591980,58.560001,472.384003
872.544006,58.560001,472.384003
870.591980,68.320000,474.335999
872.544006,60.512001,472.384003
862.783997,54.655998,464.575989
872.544006,64.416000,464.575989
874.495972,62.464001,472.384003
870.591980,62.464001,480.191986
868.640015,50.751999,470.432007
866.687988,54.655998,470.432007
878.400024,58.560001,470.432007
866.687988,52.703999,468.480011
872.544006,42.944000,468.480011
864.736023,58.560001,468.480011
880.351990,52.703999,468.480011
876.447998,56.608002,474.335999
876.447998,60.512001,472.384003
884.255981,62.464001,462.623993
874.495972,60.512001,464.575989
882.304016,60.512001,466.528015
868.640015,60.512001,472.384003
884.255981,58.560001,460.671997
878.400024,60.512001,470.432007
874.495972,62.464001,470.432007
876.447998,52.703999,466.528015
868.640015,46.848000,468.480011
868.640015,52.703999,462.623993
868.640015,54.655998,460.671997
868.640015,39.040001,462.623993
880.351990,37.088001,460.671997
870.591980,42.944000,456.768005
876.447998,48.799999,462.623993
880.351990,44.896000,466.528015
868.640015,35.136002,462.623993
872.544006,35.136002,456.768005
870.591980,44.896000,452.864014
872.544006,50.751999,452.864014
864.736023,42.944000,456.768005
870.591980,39.040001,448.959991
864.736023,46.848000,454.816010
866.687988,56.608002,452.864014
868.640015,48.799999,441.152008
868.640015,48.799999,443.104004
862.783997,37.088001,450.911987
862.783997,46.848000,437.247986
862.783997,46.848000,445.056000
876.447998,44.896000,445.056000
874.495972,39.040001,441.152008
862.783997,39.040001,447.007996
880.351990,52.703999,450.911987
876.447998,35.136002,452.864014
870.591980,44.896000,443.104004
870.591980,39.040001,445.056000
880.351990,37.088001,439.200012
872.544006,39.040001,454.816010
862.783997,31.232000,447.007996
878.400024,37.088001,445.056000
880.351990,46.848000,448.959991
882.304016,35.136002,441.152008
880.351990,37.088001,450.911987
876.447998,39.040001,445.056000
882.304016,44.896000,441.152008
884.255981,44.896000,450.911987
880.351990,42.944000,439.200012
895.968018,46.848000,441.152008
892.064026,48.799999,441.152008
899.872009,42.944000,437.247986
907.679993,46.848000,441.152008
899.872009,40.992001,439.200012
903.776001,44.896000,454.816010
909.632019,40.992001,458.720001
913.536011,44.896000,466.528015
927.200012,48.799999,466.528015
929.151978,46.848000,466.528015
936.960022,42.944000,460.671997
929.151978,48.799999,476.287994
921.343994,52.703999,470.432007
933.056030,40.992001,472.384003
931.104004,42.944000,480.191986
931.104004,23.424000,488.000000
933.056030,25.375999,472.384003
936.960022,15.616000,468.480011
935.007996,15.616000,468.480011
940.864014,15.616000,480.191986
950.624023,13.664000,478.239990
942.815979,5.856000,478.239990
948.671997,1.952000,474.335999
946.719971,-1.952000,468.480011
950.624023,-3.904000,466.528015
940.864014,-7.808000,464.575989
940.864014,-3.904000,474.335999
938.911987,1.952000,466.528015
940.864014,1.952000,462.623993
933.056030,11.712000,462.623993
936.960022,3.904000,464.575989
938.911987,5.856000,460.671997
946.719971,-3.904000,474.335999
946.719971,-1.952000,466.528015
944.768005,-3.904000,474.335999
946.719971,13.664000,470.432007
946.719971,17.568001,464.575989
960.383972,7.808000,476.287994
960.383972,11.712000,488.000000
962.335999,11.712000,488.000000
962.335999,15.616000,488.000000
966.239990,15.616000,499.712006
962.335999,13.664000,499.712006
960.383972,15.616000,503.615997
970.143982,5.856000,507.519989
962.335999,0.000000,513.375977
962.335999,-3.904000,511.424011
962.335999,0.000000,509.471985
976.000000,-7.808000,515.328003
972.096008,-15.616000,517.280029
985.760010,-9.760000,507.519989
972.096008,-7.808000,513.375977
970.143982,-11.712000,511.424011
981.856018,0.000000,525.088013
964.288025,-5.856000,515.328003
972.096008,-9.760000,509.471985
964.288025,-5.856000,507.519989
976.000000,-3.904000,513.375977
962.335999,0.000000,509.471985
966.239990,-9.760000,503.615997
962.335999,0.000000,511.424011
976.000000,1.952000,511.424011
981.856018,-5.856000,519.231995
976.000000,0.000000,521.184021
974.047974,-3.904000,515.328003
977.952026,-9.760000,521.184021
972.096008,-15.616000,515.328003
972.096008,-11.712000,519.231995
960.383972,-23.424000,517.280029
956.479980,-31.232000,515.328003
962.335999,-40.992001,521.184021
962.335999,-40.992001,528.992004
962.335999,-37.088001,521.184021
952.575989,-39.040001,521.184021
952.575989,-48.799999,515.328003
962.335999,-62.464001,511.424011
954.528015,-56.608002,507.519989
940.864014,-44.896000,505.567993
935.007996,-54.655998,488.000000
931.104004,-62.464001,484.096008
927.200012,-48.799999,482.144012
919.392029,-52.703999,480.191986
919.392029,-58.560001,478.239990
915.487976,-58.560001,470.432007
917.440002,-54.655998,458.720001
909.632019,-52.703999,450.911987
899.872009,-42.944000,447.007996
901.823975,-50.751999,450.911987
894.015991,-42.944000,439.200012
899.872009,-37.088001,441.152008
894.015991,-40.992001,443.104004
895.968018,-37.088001,443.104004
899.872009,-46.848000,445.056000
895.968018,-48.799999,450.911987
897.919983,-44.896000,445.056000
897.919983,-54.655998,445.056000
903.776001,-48.799999,462.623993
903.776001,-62.464001,458.720001
903.776001,-52.703999,470.432007
919.392029,-64.416000,476.287994
913.536011,-66.367996,478.239990
913.536011,-68.320000,482.144012
915.487976,-64.416000,486.048004
925.247986,-72.223999,488.000000
921.343994,-66.367996,491.903992
925.247986,-70.272003,486.048004
929.151978,-76.127998,486.048004
925.247986,-68.320000,482.144012
923.296021,-66.367996,484.096008
923.296021,-70.272003,474.335999
921.343994,-70.272003,476.287994
927.200012,-72.223999,472.384003
921.343994,-72.223999,468.480011
923.296021,-74.176003,474.335999
927.200012,-74.176003,464.575989
925.247986,-72.223999,464.575989
913.536011,-70.272003,448.959991
917.440002,-74.176003,460.671997
909.632019,-64.416000,462.623993
915.487976,-76.127998,454.816010
919.392029,-80.031998,452.864014
913.536011,-80.031998,452.864014
915.487976,-80.031998,458.720001
907.679993,-81.984001,458.720001
909.632019,-74.176003,462.623993
907.679993,-81.984001,458.720001
909.632019,-68.320000,456.768005
903.776001,-76.127998,452.864014
903.776001,-78.080002,466.528015
897.919983,-70.272003,466.528015
901.823975,-72.223999,456.768005
897.919983,-68.320000,458.720001
901.823975,-72.223999,462.623993
903.776001,-78.080002,462.623993
899.872009,-74.176003,464.575989
903.776001,-72.223999,464.575989
899.872009,-74.176003,452.864014
892.064026,-76.127998,456.768005
892.064026,-74.176003,460.671997
899.872009,-78.080002,452.864014
895.968018,-66.367996,456.768005
894.015991,-70.272003,448.959991
886.208008,-66.367996,454.816010
890.112000,-76.127998,456.768005
880.351990,-76.127998,458.720001
894.015991,-81.984001,458.720001
894.015991,-81.984001,462.623993
886.208008,-81.984001,460.671997
884.255981,-81.984001,450.911987
882.304016,-76.127998,460.671997
886.208008,-80.031998,460.671997
892.064026,-78.080002,458.720001
890.112000,-80.031998,460.671997
890.112000,-78.080002,460.671997
899.872009,-78.080002,466.528015
899.872009,-80.031998,462.623993
899.872009,-78.080002,466.528015
886.208008,-76.127998,460.671997
888.159973,-78.080002,450.911987
894.015991,-78.080002,462.623993
888.159973,-89.792000,450.911987
886.208008,-85.888000,458.720001
884.255981,-70.272003,462.623993
897.919983,-78.080002,458.720001
894.015991,-87.839996,448.959991
890.112000,-76.127998,454.816010
892.064026,-78.080002,462.623993
886.208008,-83.935997,462.623993
878.400024,-76.127998,456.768005
888.159973,-78.080002,450.911987
886.208008,-80.031998,445.056000
884.255981,-72.223999,445.056000
892.064026,-78.080002,447.007996
884.255981,-87.839996,439.200012
878.400024,-80.031998,445.056000
888.159973,-72.223999,435.295990
880.351990,-74.176003,437.247986
882.304016,-74.176003,429.440002
892.064026,-76.127998,429.440002
882.304016,-76.127998,433.343994
886.208008,-80.031998,429.440002
886.208008,-81.984001,427.488007
882.304016,-85.888000,431.391998
886.208008,-74.176003,431.391998
895.968018,-85.888000,423.584015
892.064026,-78.080002,431.391998
892.064026,-80.031998,427.488007
894.015991,-76.127998,435.295990
892.064026,-76.127998,427.488007
890.112000,-85.888000,423.584015
895.968018,-80.031998,421.631989
888.159973,-80.031998,427.488007
894.015991,-78.080002,431.391998
899.872009,-89.792000,431.391998
899.872009,-89.792000,431.391998
899.872009,-83.935997,439.200012
905.728027,-72.223999,425.536011
901.823975,-72.223999,429.440002
907.679993,-78.080002,427.488007
897.919983,-80.031998,431.391998
901.823975,-74.176003,427.488007
901.823975,-74.176003,413.824005
903.776001,-68.320000,415.776001
899.872009,-72.223999,411.872009
915.487976,-72.223999,415.776001
901.823975,-76.127998,411.872009
913.536011,-72.223999,411.872009
911.583984,-85.888000,407.967987
911.583984,-78.080002,409.920013
909.632019,-76.127998,411.872009
901.823975,-74.176003,407.967987
915.487976,-74.176003,406.015991
919.392029,-78.080002,406.015991
925.247986,-72.223999,400.160004
913.536011,-76.127998,407.967987
911.583984,-76.127998,404.063995
925.247986,-81.984001,406.015991
915.487976,-87.839996,406.015991
915.487976,-81.984001,415.776001
919.392029,-78.080002,415.776001
923.296021,-68.320000,407.967987
923.296021,-68.320000,413.824005
919.392029,-93.695999,400.160004
925.247986,-80.031998,411.872009
927.200012,-80.031998,417.727997
927.200012,-89.792000,415.776001
927.200012,-85.888000,419.679993
923.296021,-89.792000,413.824005
923.296021,-95.648003,417.727997
921.343994,-85.888000,417.727997
929.151978,-89.792000,427.488007
931.104004,-99.552002,421.631989
923.296021,-95.648003,423.584015
929.151978,-76.127998,425.536011
936.960022,-95.648003,419.679993
927.200012,-107.360001,419.679993
925.247986,-99.552002,413.824005
927.200012,-93.695999,411.872009
927.200012,-85.888000,413.824005
923.296021,-89.792000,419.679993
925.247986,-105.407997,419.679993
942.815979,-103.456001,423.584015
933.056030,-99.552002,411.872009
929.151978,-85.888000,411.872009
933.056030,-85.888000,419.679993
929.151978,-87.839996,413.824005
931.104004,-91.744003,402.112000
929.151978,-91.744003,409.920013
933.056030,-97.599998,402.112000
938.911987,-93.695999,411.872009
933.056030,-99.552002,417.727997
936.960022,-97.599998,423.584015
935.007996,-97.599998,427.488007
935.007996,-93.695999,421.631989
938.911987,-95.648003,427.488007
940.864014,-103.456001,427.488007
936.960022,-103.456001,433.343994
935.007996,-99.552002,429.440002
935.007996,-89.792000,433.343994
936.960022,-101.503998,439.200012
942.815979,-101.503998,445.056000
942.815979,-105.407997,445.056000
933.056030,-95.648003,445.056000
942.815979,-97.599998,445.056000
942.815979,-97.599998,448.959991
946.719971,-97.599998,439.200012
938.911987,-95.648003,441.152008
936.960022,-85.888000,429.440002
942.815979,-76.127998,439.200012
938.911987,-64.416000,431.391998
935.007996,-70.272003,439.200012
944.768005,-54.655998,437.247986
936.960022,-48.799999,431.391998
936.960022,-40.992001,435.295990
938.911987,-33.183998,433.343994
940.864014,-29.280001,435.295990
936.960022,-21.472000,435.295990
936.960022,-19.520000,437.247986
940.864014,-7.808000,441.152008
940.864014,-5.856000,435.295990
948.671997,-39.040001,429.440002
948.671997,-101.503998,427.488007
938.911987,-97.599998,425.536011
933.056030,-70.272003,425.536011
923.296021,-50.751999,435.295990
925.247986,-62.464001,429.440002
935.007996,-66.367996,421.631989
931.104004,-42.944000,417.727997
929.151978,-9.760000,413.824005
927.200012,-15.616000,407.967987
929.151978,-37.088001,407.967987
927.200012,-31.232000,402.112000
927.200012,-7.808000,398.208008
931.104004,3.904000,400.160004
917.440002,-5.856000,400.160004
931.104004,-17.568001,400.160004
931.104004,-7.808000,406.015991
917.440002,0.000000,400.160004
923.296021,-9.760000,400.160004
931.104004,-27.327999,404.063995
935.007996,-27.327999,409.920013
942.815979,-35.136002,409.920013
938.911987,-35.136002,409.920013
935.007996,-40.992001,411.872009
929.151978,-54.655998,419.679993
935.007996,-52.703999,411.872009
931.104004,-56.608002,415.776001
923.296021,-62.464001,415.776001
929.151978,-50.751999,413.824005
929.151978,-64.416000,409.920013
923.296021,-60.512001,423.584015
933.056030,-58.560001,421.631989
929.151978,-54.655998,409.920013
931.104004,-50.751999,411.872009
929.151978,-39.040001,409.920013
931.104004,-37.088001,407.967987
933.056030,-29.280001,409.920013
933.056030,-33.183998,398.208008
927.200012,-29.280001,398.208008
935.007996,-19.520000,394.303986
929.151978,-21.472000,402.112000
927.200012,-29.280001,398.208008
923.296021,-25.375999,398.208008
921.343994,-37.088001,398.208008
917.440002,-31.232000,394.303986
913.536011,-35.136002,392.351990
923.296021,-40.992001,400.160004
913.536011,-40.992001,392.351990
925.247986,-33.183998,390.399994
925.247986,-39.040001,386.496002
917.440002,-42.944000,396.256012
915.487976,-40.992001,396.256012
915.487976,-46.848000,396.256012
907.679993,-35.136002,396.256012
917.440002,-39.040001,394.303986
913.536011,-42.944000,398.208008
907.679993,-35.136002,398.208008
903.776001,-37.088001,409.920013
909.632019,-25.375999,411.872009
919.392029,-13.664000,409.920013
919.392029,-23.424000,421.631989
917.440002,-17.568001,407.967987
915.487976,-23.424000,407.967987
909.632019,-19.520000,407.967987
911.583984,-27.327999,411.872009
913.536011,-27.327999,411.872009
915.487976,-31.232000,400.160004
911.583984,-13.664000,407.967987
911.583984,-25.375999,407.967987
915.487976,-31.232000,400.160004
907.679993,-31.232000,400.160004
907.679993,-29.280001,407.967987
915.487976,-31.232000,402.112000
909.632019,-25.375999,411.872009
911.583984,-31.232000,402.112000
903.776001,-23.424000,398.208008
905.728027,-21.472000,407.967987
901.823975,-39.040001,402.112000
903.776001,-31.232000,402.112000
907.679993,-27.327999,398.208008
911.583984,-33.183998,394.303986
911.583984,-23.424000,398.208008
907.679993,-31.232000,402.112000
913.536011,-13.664000,402.112000
905.728027,-21.472000,407.967987
907.679993,-29.280001,407.967987
905.728027,-27.327999,404.063995
907.679993,-29.280001,398.208008
907.679993,-25.375999,400.160004
905.728027,-17.568001,400.160004
901.823975,-29.280001,398.208008
905.728027,-25.375999,396.256012
907.679993,-19.520000,392.351990
903.776001,-21.472000,394.303986
897.919983,-23.424000,392.351990
895.968018,-21.472000,396.256012
897.919983,-25.375999,392.351990
897.919983,-23.424000,386.496002
897.919983,-19.520000,400.160004
899.872009,-27.327999,394.303986
901.823975,-13.664000,380.640015
897.919983,-23.424000,390.399994
901.823975,-23.424000,386.496002
903.776001,-17.568001,382.592010
903.776001,-19.520000,380.640015
894.015991,-19.520000,374.783997
897.919983,-19.520000,382.592010
895.968018,-23.424000,382.592010
894.015991,-13.664000,384.544006
907.679993,-27.327999,384.544006
897.919983,-9.760000,376.735992
899.872009,-19.520000,372.832001
899.872009,-17.568001,380.640015
899.872009,-21.472000,394.303986
901.823975,-19.520000,386.496002
909.632019,-19.520000,388.447998
897.919983,-25.375999,386.496002
907.679993,-19.520000,382.592010
909.632019,-19.520000,382.592010
907.679993,-25.375999,382.592010
919.392029,-21.472000,380.640015
909.632019,-21.472000,388.447998
907.679993,-19.520000,380.640015
909.632019,-15.616000,384.544006
907.679993,-13.664000,384.544006
909.632019,-15.616000,384.544006
911.583984,-9.760000,382.592010
917.440002,-17.568001,378.687988
913.536011,-11.712000,376.735992
913.536011,-13.664000,378.687988
919.392029,-23.424000,365.023987
915.487976,-11.712000,376.735992
913.536011,-19.520000,365.023987
929.151978,-7.808000,366.976013
917.440002,-7.808000,355.264008
919.392029,-5.856000,363.071991
929.151978,-3.904000,366.976013
917.440002,-9.760000,363.071991
909.632019,-15.616000,365.023987
923.296021,-9.760000,361.119995
931.104004,-7.808000,359.167999
925.247986,-15.616000,368.928009
929.151978,1.952000,359.167999
925.247986,-1.952000,361.119995
919.392029,-5.856000,368.928009
933.056030,-7.808000,366.976013
935.007996,-9.760000,372.832001
935.007996,-15.616000,368.928009
935.007996,-11.712000,365.023987
938.911987,-13.664000,357.216003
935.007996,-17.568001,361.119995
938.911987,-19.520000,353.312012
942.815979,-7.808000,357.216003
933.056030,-5.856000,357.216003
940.864014,-15.616000,365.023987
940.864014,-21.472000,359.167999
936.960022,-23.424000,355.264008
946.719971,-21.472000,361.119995
946.719971,-23.424000,359.167999
948.671997,-25.375999,366.976013
944.768005,-23.424000,372.832001
944.768005,-13.664000,366.976013
954.528015,-17.568001,368.928009
946.719971,-9.760000,366.976013
954.528015,-21.472000,368.928009
954.528015,-31.232000,365.023987
956.479980,-19.520000,366.976013
956.479980,-23.424000,370.880005
960.383972,-23.424000,361.119995
960.383972,-19.520000,355.264008
956.479980,-21.472000,368.928009
962.335999,-17.568001,370.880005
964.288025,-19.520000,382.592010
960.383972,-31.232000,384.544006
962.335999,-23.424000,380.640015
970.143982,-13.664000,382.592010
968.192017,-19.520000,388.447998
970.143982,-13.664000,394.303986
966.239990,-23.424000,394.303986
966.239990,-27.327999,400.160004
970.143982,-25.375999,413.824005
977.952026,-31.232000,413.824005
974.047974,-25.375999,417.727997
977.952026,-21.472000,423.584015
974.047974,-25.375999,435.295990
976.000000,-23.424000,435.295990
979.903992,-25.375999,441.152008
979.903992,-39.040001,443.104004
976.000000,-29.280001,445.056000
970.143982,-23.424000,448.959991
970.143982,-25.375999,448.959991
974.047974,-27.327999,456.768005
974.047974,-31.232000,458.720001
968.192017,-21.472000,456.768005
970.143982,-21.472000,462.623993
966.239990,-15.616000,470.432007
960.383972,-9.760000,474.335999
956.479980,5.856000,478.239990
962.335999,3.904000,488.000000
970.143982,0.000000,484.096008
962.335999,11.712000,493.855988
966.239990,15.616000,493.855988
966.239990,5.856000,493.855988
966.239990,3.904000,497.760010
970.143982,1.952000,499.712006
960.383972,-1.952000,501.664001
970.143982,-7.808000,493.855988
962.335999,-17.568001,497.760010
958.432007,-25.375999,488.000000
956.479980,-37.088001,484.096008
956.479980,-37.088001,484.096008
944.768005,-33.183998,476.287994
942.815979,-42.944000,470.432007
944.768005,-37.088001,458.720001
950.624023,-33.183998,437.247986
940.864014,-33.183998,433.343994
933.056030,-39.040001,429.440002
933.056030,-23.424000,417.727997
921.343994,-23.424000,406.015991
925.247986,-9.760000,404.063995
917.440002,-9.760000,392.351990
917.440002,-11.712000,378.687988
913.536011,-3.904000,374.783997
917.440002,-11.712000,366.976013
911.583984,-7.808000,355.264008
913.536011,-5.856000,355.264008
903.776001,-5.856000,359.167999
911.583984,-11.712000,357.216003
903.776001,-9.760000,368.928009
911.583984,-23.424000,368.928009
907.679993,-15.616000,368.928009
903.776001,-21.472000,368.928009
903.776001,-21.472000,370.880005
917.440002,-21.472000,384.544006
919.392029,-25.375999,374.783997
905.728027,-29.280001,388.447998
915.487976,-21.472000,386.496002
915.487976,-31.232000,402.112000
919.392029,-33.183998,394.303986
923.296021,-27.327999,388.447998
919.392029,-35.136002,394.303986
915.487976,-23.424000,390.399994
919.392029,-29.280001,386.496002
917.440002,-33.183998,382.592010
931.104004,-37.088001,384.544006
925.247986,-27.327999,380.640015
921.343994,-27.327999,390.399994
931.104004,-31.232000,388.447998
935.007996,-31.232000,384.544006
938.911987,-29.280001,370.880005
935.007996,-21.472000,374.783997
927.200012,-29.280001,384.544006
931.104004,-42.944000,384.544006
931.104004,-31.232000,386.496002
942.815979,-35.136002,380.640015
933.056030,-40.992001,374.783997
931.104004,-37.088001,390.399994
933.056030,-37.088001,390.399994
931.104004,-44.896000,380.640015
931.104004,-39.040001,392.351990
931.104004,-37.088001,396.256012
944.768005,-46.848000,390.399994
942.815979,-31.232000,390.399994
940.864014,-46.848000,396.256012
946.719971,-46.848000,396.256012
938.911987,-50.751999,394.303986
948.671997,-50.751999,406.015991
946.719971,-48.799999,388.447998
944.768005,-44.896000,398.208008
948.671997,-50.751999,400.160004
944.768005,-50.751999,404.063995
936.960022,-50.751999,396.256012
946.719971,-54.655998,390.399994
938.911987,-62.464001,400.160004
946.719971,-58.560001,396.256012
944.768005,-62.464001,398.208008
940.864014,-56.608002,400.160004
944.768005,-66.367996,392.351990
933.056030,-64.416000,396.256012
942.815979,-60.512001,400.160004
946.719971,-68.320000,394.303986
942.815979,-60.512001,392.351990
944.768005,-68.320000,400.160004
944.768005,-60.512001,400.160004
942.815979,-62.464001,390.399994
944.768005,-60.512001,392.351990
944.768005,-66.367996,386.496002
946.719971,-58.560001,390.399994
950.624023,-52.703999,390.399994
950.624023,-66.367996,392.351990
946.719971,-58.560001,390.399994
952.575989,-62.464001,400.160004
948.671997,-66.367996,392.351990
954.528015,-64.416000,390.399994
946.719971,-58.560001,386.496002
948.671997,-54.655998,390.399994
952.575989,-60.512001,396.256012
948.671997,-60.512001,392.351990
946.719971,-54.655998,384.544006
950.624023,-52.703999,386.496002
952.575989,-58.560001,386.496002
954.528015,-54.655998,390.399994
958.432007,-44.896000,386.496002
946.719971,-58.560001,384.544006
960.383972,-50.751999,388.447998
966.239990,-44.896000,390.399994
962.335999,-42.944000,384.544006
952.575989,-48.799999,380.640015
960.383972,-42.944000,394.303986
956.479980,-29.280001,390.399994
960.383972,-27.327999,386.496002
948.671997,-40.992001,388.447998
960.383972,-31.232000,390.399994
962.335999,-31.232000,378.687988
960.383972,-35.136002,388.447998
956.479980,-27.327999,380.640015
960.383972,-29.280001,376.735992
966.239990,-31.232000,384.544006
970.143982,-31.232000,380.640015
974.047974,-25.375999,386.496002
979.903992,-29.280001,400.160004
972.096008,-25.375999,390.399994
974.047974,-31.232000,396.256012
970.143982,-25.375999,388.447998
977.952026,-21.472000,386.496002
977.952026,-23.424000,390.399994
983.807983,-19.520000,390.399994
983.807983,-17.568001,386.496002
993.567993,-31.232000,390.399994
987.711975,-23.424000,398.208008
979.903992,-23.424000,398.208008
985.760010,-15.616000,400.160004
993.567993,-27.327999,400.160004
979.903992,-11.712000,402.112000
989.664001,-19.520000,386.496002
989.664001,-11.712000,400.160004
979.903992,-11.712000,396.256012
983.807983,-9.760000,398.208008
991.616028,-9.760000,398.208008
993.567993,-11.712000,388.447998
991.616028,-11.712000,392.351990
981.856018,-9.760000,396.256012
985.760010,-13.664000,396.256012
976.000000,-1.952000,388.447998
997.471985,-11.712000,386.496002
991.616028,-1.952000,396.256012
987.711975,-7.808000,392.351990
985.760010,-9.760000,400.160004
991.616028,-3.904000,388.447998
987.711975,-1.952000,386.496002
989.664001,-11.712000,388.447998
981.856018,-7.808000,392.351990
985.760010,-3.904000,386.496002
983.807983,7.808000,392.351990
981.856018,1.952000,384.544006
981.856018,1.952000,392.351990
979.903992,-1.952000,390.399994
977.952026,-3.904000,392.351990
979.903992,-7.808000,396.256012
987.711975,-1.952000,382.592010
972.096008,-7.808000,392.351990
979.903992,-3.904000,392.351990
977.952026,1.952000,390.399994
976.000000,-7.808000,392.351990
979.903992,1.952000,386.496002
979.903992,3.904000,386.496002
987.711975,-1.952000,380.640015
976.000000,-3.904000,380.640015
976.000000,7.808000,384.544006
985.760010,0.000000,386.496002
976.000000,-9.760000,380.640015
976.000000,-9.760000,382.592010
977.952026,-3.904000,382.592010
976.000000,-1.952000,382.592010
979.903992,-3.904000,376.735992
974.047974,-3.904000,382.592010
976.000000,-3.904000,392.351990
966.239990,-3.904000,384.544006
977.952026,0.000000,386.496002
985.760010,7.808000,378.687988
974.047974,-7.808000,382.592010
970.143982,1.952000,378.687988
964.288025,3.904000,376.735992
974.047974,3.904000,380.640015
968.192017,0.000000,384.544006
970.143982,3.904000,370.880005
960.383972,0.000000,380.640015
976.000000,0.000000,380.640015
964.288025,0.000000,382.592010
970.143982,0.000000,370.880005
966.239990,0.000000,378.687988
968.192017,1.952000,380.640015
960.383972,-5.856000,388.447998
960.383972,-3.904000,376.735992
966.239990,-5.856000,384.544006
964.288025,-7.808000,378.687988
954.528015,-17.568001,376.735992
958.432007,-15.616000,376.735992
958.432007,-9.760000,372.832001
948.671997,-23.424000,376.735992
956.479980,-7.808000,380.640015
958.432007,-9.760000,370.880005
948.671997,-13.664000,370.880005
946.719971,-11.712000,368.928009
956.479980,-15.616000,372.832001
948.671997,-11.712000,366.976013
948.671997,-13.664000,365.023987
950.624023,-7.808000,363.071991
948.671997,-19.520000,366.976013
944.768005,-13.664000,366.976013
952.575989,-27.327999,365.023987
944.768005,-13.664000,372.832001
940.864014,-17.568001,361.119995
944.768005,-29.280001,361.119995
944.768005,-13.664000,372.832001
942.815979,-23.424000,365.023987
942.815979,-33.183998,361.119995
944.768005,-25.375999,365.023987
936.960022,-21.472000,363.071991
933.056030,-25.375999,363.071991
931.104004,-25.375999,361.119995
933.056030,-29.280001,366.976013
938.911987,-23.424000,372.832001
942.815979,-27.327999,368.928009
933.056030,-27.327999,370.880005
940.864014,-31.232000,374.783997
940.864014,-31.232000,374.783997
933.056030,-35.136002,365.023987
921.343994,-31.232000,370.880005
929.151978,-29.280001,370.880005
938.911987,-27.327999,370.880005
931.104004,-27.327999,374.783997
933.056030,-29.280001,365.023987
936.960022,-31.232000,378.687988
929.151978,-29.280001,378.687988
936.960022,-35.136002,378.687988
929.151978,-35.136002,378.687988
927.200012,-29.280001,370.880005
917.440002,-27.327999,378.687988
919.392029,-31.232000,370.880005
929.151978,-33.183998,365.023987
921.343994,-39.040001,366.976013
929.151978,-33.183998,366.976013
929.151978,-39.040001,376.735992
931.104004,-46.848000,370.880005
931.104004,-37.088001,384.544006
938.911987,-33.183998,372.832001
921.343994,-40.992001,376.735992
929.151978,-40.992001,370.880005
929.151978,-29.280001,365.023987
923.296021,-46.848000,357.216003
927.200012,-50.751999,361.119995
931.104004,-42.944000,357.216003
931.104004,-37.088001,353.312012
942.815979,-37.088001,357.216003
938.911987,-37.088001,363.071991
942.815979,-39.040001,357.216003
931.104004,-31.232000,357.216003
936.960022,-35.136002,374.783997
938.911987,-39.040001,366.976013
942.815979,-35.136002,359.167999
944.768005,-39.040001,363.071991
944.768005,-39.040001,380.640015
931.104004,-39.040001,374.783997
944.768005,-39.040001,382.592010
940.864014,-33.183998,380.640015
946.719971,-37.088001,374.783997
940.864014,-35.136002,374.783997
942.815979,-37.088001,372.832001
940.864014,-37.088001,382.592010
942.815979,-40.992001,382.592010
940.864014,-29.280001,384.544006
944.768005,-39.040001,392.351990
944.768005,-54.655998,398.208008
948.671997,-44.896000,398.208008
944.768005,-40.992001,404.063995
948.671997,-42.944000,392.351990
944.768005,-46.848000,398.208008
944.768005,-44.896000,398.208008
946.719971,-42.944000,394.303986
944.768005,-44.896000,398.208008
946.719971,-40.992001,386.496002
936.960022,-44.896000,378.687988
929.151978,-33.183998,376.735992
919.392029,-11.712000,363.071991
921.343994,-5.856000,365.023987
925.247986,-15.616000,343.552002
946.719971,-35.136002,351.359985
944.768005,-39.040001,351.359985
940.864014,-39.040001,376.735992
952.575989,-42.944000,374.783997
948.671997,-40.992001,392.351990
940.864014,-44.896000,390.399994
944.768005,-50.751999,398.208008
948.671997,-50.751999,404.063995
952.575989,-48.799999,411.872009
954.528015,-62.464001,417.727997
946.719971,-52.703999,415.776001
931.104004,-64.416000,413.824005
944.768005,-54.655998,407.967987
948.671997,-64.416000,411.872009
936.960022,-66.367996,415.776001
950.624023,-62.464001,394.303986
942.815979,-56.608002,390.399994
942.815979,-56.608002,396.256012
933.056030,-50.751999,392.351990
938.911987,-48.799999,390.399994
921.343994,-58.560001,384.544006
929.151978,-54.655998,382.592010
938.911987,-60.512001,378.687988
938.911987,-44.896000,382.592010
935.007996,-50.751999,382.592010
935.007996,-58.560001,382.592010
927.200012,-52.703999,384.544006
931.104004,-62.464001,388.447998
927.200012,-50.751999,384.544006
913.536011,-58.560001,380.640015
913.536011,-48.799999,372.832001
911.583984,-46.848000,376.735992
909.632019,-48.799999,366.976013
915.487976,-42.944000,372.832001
905.728027,-44.896000,372.832001
905.728027,-46.848000,363.071991
909.632019,-50.751999,353.312012
915.487976,-54.655998,353.312012
901.823975,-42.944000,361.119995
903.776001,-58.560001,363.071991
897.919983,-50.751999,353.312012
895.968018,-48.799999,351.359985
894.015991,-46.848000,349.407990
884.255981,-33.183998,343.552002
886.208008,-42.944000,343.552002
888.159973,-44.896000,343.552002
878.400024,-40.992001,345.503998
882.304016,-42.944000,347.455994
880.351990,-44.896000,341.600006
872.544006,-52.703999,349.407990
874.495972,-56.608002,339.648010
880.351990,-44.896000,347.455994
872.544006,-46.848000,343.552002
868.640015,-52.703999,349.407990
870.591980,-44.896000,343.552002
870.591980,-40.992001,341.600006
858.880005,-42.944000,337.696014
860.831970,-40.992001,324.032013
854.976013,-44.896000,316.223999
862.783997,-46.848000,320.127991
851.072021,-39.040001,318.175995
854.976013,-35.136002,312.320007
856.927979,-37.088001,308.415985
851.072021,-39.040001,298.656006
851.072021,-46.848000,292.799988
841.312012,-39.040001,284.992004
851.072021,-25.375999,284.992004
849.119995,-29.280001,281.088013
841.312012,-21.472000,281.088013
843.263977,-35.136002,273.279999
837.408020,-44.896000,267.424011
843.263977,-40.992001,286.944000
839.359985,-23.424000,281.088013
845.216003,-15.616000,269.376007
841.312012,-9.760000,281.088013
841.312012,-27.327999,275.231995
843.263977,-31.232000,265.471985
841.312012,-31.232000,263.519989
839.359985,-19.520000,263.519989
847.168030,-9.760000,263.519989
841.312012,-13.664000,265.471985
835.455994,-23.424000,257.664001
839.359985,-23.424000,255.712006
845.216003,-19.520000,259.615997
845.216003,-15.616000,259.615997
837.408020,-5.856000,253.759995
849.119995,-19.520000,253.759995
845.216003,-13.664000,257.664001
839.359985,-11.712000,255.712006
837.408020,-15.616000,249.856003
843.263977,-15.616000,255.712006
853.023987,-11.712000,251.807999
851.072021,-13.664000,253.759995
853.023987,-15.616000,259.615997
849.119995,-17.568001,255.712006
851.072021,-13.664000,251.807999
854.976013,-9.760000,255.712006
854.976013,-19.520000,242.048004
851.072021,-19.520000,251.807999
862.783997,-19.520000,247.904007
856.927979,-11.712000,242.048004
851.072021,5.856000,240.095993
851.072021,-3.904000,226.432007
847.168030,1.952000,234.240005
849.119995,-1.952000,222.528000
851.072021,17.568001,216.671997
851.072021,17.568001,210.815994
851.072021,13.664000,216.671997
851.072021,7.808000,220.576004
851.072021,7.808000,212.768005
856.927979,15.616000,208.863998
851.072021,5.856000,208.863998
860.831970,9.760000,212.768005
854.976013,13.664000,222.528000
858.880005,7.808000,222.528000
864.736023,9.760000,226.432007
868.640015,3.904000,218.623993
868.640015,3.904000,216.671997
868.640015,9.760000,218.623993
858.880005,19.520000,226.432007
856.927979,15.616000,228.384003
851.072021,27.327999,224.479996
858.880005,29.280001,214.720001
858.880005,33.183998,210.815994
851.072021,37.088001,185.440002
853.023987,56.608002,187.391998
851.072021,42.944000,185.440002
849.119995,42.944000,175.679993
849.119995,54.655998,173.727997
837.408020,62.464001,169.824005
833.504028,62.464001,181.535995
835.455994,72.223999,162.016006
845.216003,62.464001,163.968002
853.023987,60.512001,162.016006
854.976013,60.512001,162.016006
839.359985,64.416000,150.304001
843.263977,62.464001,138.591995
841.312012,60.512001,130.783997
833.504028,60.512001,121.024002
833.504028,64.416000,113.216003
835.455994,74.176003,111.264000
815.935974,81.984001,107.360001
813.984009,70.272003,99.552002
817.888000,52.703999,99.552002
804.223999,64.416000,91.744003
812.031982,39.040001,87.839996
812.031982,29.280001,83.935997
804.223999,19.520000,81.984001
804.223999,39.040001,76.127998
806.176025,62.464001,76.127998
821.791992,48.799999,62.464001
817.888000,11.712000,64.416000
831.552002,7.808000,58.560001
817.888000,17.568001,60.512001
829.599976,15.616000,62.464001
819.840027,11.712000,70.272003
825.695984,9.760000,78.080002
808.127991,0.000000,78.080002
812.031982,5.856000,78.080002
815.935974,15.616000,78.080002
817.888000,13.664000,85.888000
837.408020,13.664000,93.695999
829.599976,7.808000,93.695999
829.599976,5.856000,87.839996
833.504028,3.904000,91.744003
851.072021,-1.952000,89.792000
854.976013,-23.424000,78.080002
890.112000,-29.280001,76.127998
915.487976,-27.327999,80.031998
938.911987,-11.712000,70.272003
913.536011,5.856000,68.320000
929.151978,33.183998,80.031998
899.872009,87.839996,83.935997
864.736023,124.928001,103.456001
827.648010,99.552002,115.167999
849.119995,31.232000,130.783997
870.591980,13.664000,144.447998
880.351990,60.512001,154.207993
894.015991,121.024002,152.255997
886.208008,150.304001,169.824005
886.208008,126.879997,197.151993
892.064026,74.176003,199.104004
907.679993,54.655998,218.623993
919.392029,93.695999,242.048004
911.583984,152.255997,251.807999
903.776001,138.591995,261.567993
894.015991,83.935997,275.231995
894.015991,37.088001,273.279999
903.776001,58.560001,269.376007
911.583984,109.311996,275.231995
921.343994,101.503998,263.519989
946.719971,70.272003,259.615997
960.383972,76.127998,259.615997
936.960022,97.599998,263.519989
954.528015,101.503998,253.759995
960.383972,72.223999,242.048004
894.015991,60.512001,245.951996
892.064026,89.792000,240.095993
776.895996,-27.327999,277.183990
821.791992,-93.695999,331.839996
841.312012,162.016006,427.488007
782.752014,230.335999,476.287994
806.176025,-25.375999,495.808014
882.304016,-80.031998,476.287994
935.007996,148.352005,448.959991
995.520020,177.632004,411.872009
1028.703979,44.896000,374.783997
851.072021,-109.311996,343.552002
528.992004,267.424011,316.223999
940.864014,128.832001,310.368011
948.671997,-390.399994,275.231995
1087.264038,-327.936005,240.095993
1141.920044,130.783997,242.048004
854.976013,81.984001,236.192001
895.968018,-15.616000,224.479996
874.495972,-29.280001,212.768005
923.296021,91.744003,208.863998
935.007996,-103.456001,224.479996
1311.744019,-335.743988,204.960007
788.607971,-148.352005,195.199997
1007.231995,206.912003,232.287994
897.919983,48.799999,283.040009
1145.823975,-355.264008,292.799988
1229.760010,-544.607971,325.984009
1171.199951,-105.407997,331.839996
1042.368042,117.120003,349.407990
948.671997,142.496002,351.359985
909.632019,216.671997,359.167999
942.815979,226.432007,368.928009
923.296021,101.503998,363.071991
888.159973,78.080002,351.359985
856.927979,-245.951996,355.264008
1106.784058,-784.703979,343.552002
1071.647949,-1118.495972,327.936005
1069.696045,-1346.880005,302.559998
1024.800049,-1419.104004,290.847992
974.047974,-1434.719971,290.847992
950.624023,-1307.839966,283.040009
839.359985,-882.304016,271.328003
817.888000,-876.447998,253.759995
782.752014,-1233.663940,222.528000
810.080017,-1071.647949,199.104004
845.216003,-630.495972,189.343994
866.687988,-466.528015,171.776001
935.007996,-347.455994,162.016006
956.479980,-208.863998,158.112000
968.192017,-105.407997,136.639999
923.296021,-44.896000,97.599998
919.392029,35.136002,74.176003
929.151978,-44.896000,60.512001
894.015991,21.472000,46.848000
856.927979,267.424011,35.136002
892.064026,281.088013,21.472000
862.783997,203.007996,17.568001
913.536011,119.071999,13.664000
890.112000,162.016006,-11.712000
882.304016,292.799988,-11.712000
858.880005,296.704010,-3.904000
771.039978,169.824005,-9.760000
796.416016,210.815994,0.000000
884.255981,197.151993,3.904000
884.255981,138.591995,0.000000
894.015991,236.192001,-1.952000
901.823975,261.567993,0.000000
911.583984,132.735992,7.808000
936.960022,87.839996,23.424000
933.056030,109.311996,25.375999
897.919983,177.632004,19.520000
878.400024,199.104004,29.280001
753.471985,193.248001,89.792000
677.343994,384.544006,554.367981
675.392029,89.792000,878.400024
843.263977,-694.911987,659.776001
1040.416016,-757.375977,562.176025
1186.816040,-281.088013,683.200012
1165.343994,-279.135986,663.679993
1212.192017,-366.976013,564.127991
1184.864014,-150.304001,610.976013
1112.640015,-105.407997,624.640015
1075.552002,-216.671997,513.375977
1059.936035,-372.832001,421.631989
1052.128052,-433.343994,378.687988
1061.887939,-316.223999,308.415985
1155.583984,-111.264000,189.343994
1153.631958,269.376007,87.839996
958.432007,72.223999,-17.568001
763.231995,-85.888000,-91.744003
790.559998,468.480011,-154.207993
798.367981,589.504028,-154.207993
790.559998,136.639999,-115.167999
845.216003,-21.472000,-85.888000
905.728027,327.936005,-109.311996
974.047974,577.791992,-132.735992
1038.463989,370.880005,-128.832001
995.520020,281.088013,-169.824005
856.927979,177.632004,-193.248001
810.080017,-406.015991,-193.248001
817.888000,-794.463989,-146.399994
810.080017,-669.536011,-101.503998
862.783997,-355.264008,-121.024002
903.776001,-105.407997,-101.503998
972.096008,35.136002,-93.695999
864.736023,70.272003,-105.407997
812.031982,11.712000,-146.399994
761.280029,-113.216003,-179.584000
802.271973,-140.544006,-203.007996
884.255981,-64.416000,-218.623993
944.768005,-39.040001,-228.384003
866.687988,-113.216003,-236.192001
1042.368042,-150.304001,-292.799988
960.383972,-208.863998,-288.895996
1034.560059,-302.559998,-322.079987
913.536011,-562.176025,-273.279999
790.559998,-638.304016,-204.960007
841.312012,-234.240005,-144.447998
886.208008,365.023987,-68.320000
927.200012,726.143982,-11.712000
960.383972,646.112000,11.712000
991.616028,72.223999,13.664000
1020.895996,-692.960022,11.712000
1179.008057,-1139.968018,9.760000
1143.871948,-1089.215942,60.512001
1114.592041,-603.168030,115.167999
1095.072021,-19.520000,167.871994
1114.592041,439.200012,240.095993
1180.959961,488.000000,259.615997
1214.144043,111.264000,271.328003
1251.232056,-495.808014,292.799988
1260.991943,-942.815979,304.511993
1264.895996,-1013.088013,314.272003
1163.391968,-667.583984,318.175995
1192.671997,-140.544006,283.040009
1296.128052,206.912003,240.095993
1218.047974,312.320007,212.768005
1054.079956,349.407990,218.623993
1054.079956,310.368011,201.056000
1147.776001,177.632004,189.343994
1180.959961,35.136002,193.248001
1216.095947,-40.992001,208.863998
1186.816040,-64.416000,203.007996
1169.248047,-42.944000,220.576004
1138.015991,44.896000,228.384003
1141.920044,173.727997,210.815994
1161.439941,462.623993,189.343994
1161.439941,771.039978,238.143997
1136.063965,817.888000,286.944000
1138.015991,564.127991,312.320007
1149.728027,138.591995,312.320007
1171.199951,-279.135986,314.272003
1184.864014,-505.567993,281.088013
1202.432007,-388.447998,279.135986
1216.095947,-58.560001,267.424011
1157.536011,240.095993,244.000000
1108.735962,435.295990,204.960007
1124.352051,478.239990,165.919998
1126.303955,368.928009,117.120003
1110.687988,134.688004,87.839996
1087.264038,-117.120003,62.464001
1091.167969,-325.984009,23.424000
933.056030,-286.944000,48.799999
983.807983,93.695999,37.088001
1052.128052,417.727997,27.327999
1116.543945,361.119995,29.280001
1126.303955,115.167999,40.992001
1157.536011,-201.056000,44.896000
1173.151978,-493.855988,54.655998
1132.160034,-523.135986,68.320000
1134.112061,-242.048004,46.848000
1087.264038,83.935997,17.568001
1059.936035,226.432007,-7.808000
1016.992004,279.135986,-15.616000
985.760010,185.440002,-31.232000
940.864014,-5.856000,-62.464001
929.151978,-148.352005,-91.744003
942.815979,-148.352005,-119.071999
958.432007,-52.703999,-148.352005
921.343994,85.888000,-152.255997
903.776001,163.968002,-152.255997
911.583984,126.879997,-152.255997
901.823975,64.416000,-175.679993
913.536011,3.904000,-191.296005
919.392029,-25.375999,-206.912003
905.728027,-42.944000,-203.007996
907.679993,-23.424000,-187.391998
905.728027,9.760000,-187.391998
921.343994,31.232000,-195.199997
907.679993,1.952000,-226.432007
878.400024,-15.616000,-238.143997
858.880005,-29.280001,-242.048004
831.552002,5.856000,-259.615997
835.455994,169.824005,-292.799988
813.984009,435.295990,-294.752014
813.984009,735.903992,-255.712006
808.127991,853.023987,-187.391998
829.599976,618.783997,-150.304001
864.736023,80.031998,-165.919998
866.687988,-448.959991,-201.056000
946.719971,-753.471985,-234.240005
923.296021,-813.984009,-218.623993
827.648010,-468.480011,-195.199997
683.200012,240.095993,-185.440002
663.679993,913.536011,-218.623993
718.335999,1241.472046,-273.279999
739.807983,956.479980,-304.511993
829.599976,93.695999,-349.407990
892.064026,-786.656006,-374.783997
995.520020,-1132.160034,-404.063995
1128.255981,-839.359985,-468.480011
1061.887939,-284.992004,-476.287994
927.200012,150.304001,-488.000000
878.400024,374.783997,-528.992004
845.216003,450.911987,-562.176025
804.223999,513.375977,-597.312012
823.744019,892.064026,-540.703979
702.719971,1138.015991,-433.343994
618.783997,747.616028,-335.743988
940.864014,-27.327999,-363.071991
950.624023,-853.023987,-347.455994
847.168030,-1184.864014,-351.359985
730.047974,-1026.751953,-357.216003
653.919983,-560.223999,-337.696014
732.000000,23.424000,-324.032013
841.312012,267.424011,-341.600006
976.000000,130.783997,-353.312012
1073.599976,-195.199997,-365.023987
1151.680054,-462.623993,-396.256012
1145.823975,-681.247986,-421.631989
1138.015991,-741.760010,-468.480011
1106.784058,-521.184021,-505.567993
1013.088013,-81.984001,-534.848022
870.591980,435.295990,-497.760010
819.840027,821.791992,-335.743988
765.184021,895.968018,-165.919998
778.848022,730.047974,-134.688004
847.168030,370.880005,-162.016006
991.616028,-195.199997,-156.160004
1044.319946,-827.648010,-109.311996
1132.160034,-1167.296021,-136.639999
1307.839966,-977.952026,-245.951996
979.903992,-488.000000,-230.335999
755.424011,64.416000,-288.895996
601.216003,665.632019,-368.928009
909.632019,1333.215942,-458.720001
897.919983,1809.504028,-312.320007
1095.072021,1454.239990,-242.048004
1136.063965,-85.888000,-183.488007
1106.784058,-1791.936035,-83.935997
1196.576050,-2402.912109,-68.320000
1155.583984,-1510.848022,-74.176003
1061.887939,76.127998,-115.167999
1091.167969,1229.760010,-187.391998
1206.336060,1534.271973,-263.519989
1091.167969,866.687988,-271.328003
1061.887939,-363.071991,-322.079987
1149.728027,-1362.495972,-404.063995
1188.767944,-1579.167969,-472.384003
1057.984009,-1026.751953,-468.480011
1280.511963,-171.776001,-552.416016
983.807983,347.455994,-407.967987
1104.832031,452.864014,-284.992004
1159.488037,378.687988,-165.919998
1163.391968,255.712006,-115.167999
911.583984,9.760000,-42.944000
985.760010,-195.199997,-72.223999
1200.479980,-286.944000,-179.584000
1229.760010,-273.279999,-230.335999
1249.280029,-163.968002,-283.040009
1253.183960,0.000000,-329.888000
1046.271973,93.695999,-322.079987
1048.223999,156.160004,-366.976013
1180.959961,126.879997,-447.007996
1214.144043,70.272003,-488.000000
1143.871948,64.416000,-501.664001
1054.079956,85.888000,-507.519989
1024.800049,142.496002,-523.135986
1085.312012,259.615997,-530.943970
1157.536011,263.519989,-519.231995
1323.456055,105.407997,-513.375977
1413.248047,3.904000,-497.760010
1264.895996,111.264000,-423.584015
1356.640015,257.664001,-423.584015
1120.447998,417.727997,-363.071991
1184.864014,517.280029,-374.783997
1196.576050,540.703979,-368.928009
1259.040039,546.559998,-380.640015
1223.904053,466.528015,-378.687988
1223.904053,318.175995,-349.407990
1221.952026,234.240005,-304.511993
1257.088013,281.088013,-259.615997
1268.800049,437.247986,-226.432007
1270.751953,589.504028,-173.727997
1270.751953,696.864014,-115.167999
1249.280029,743.711975,-44.896000
1231.712036,622.687988,-5.856000
1264.895996,409.920013,15.616000
1350.784058,208.863998,0.000000
1389.823975,80.031998,-5.856000
1366.400024,122.975998,-25.375999
1327.359985,316.223999,-23.424000
1323.456055,480.191986,-39.040001
1337.119995,521.184021,-52.703999
1385.920044,427.488007,-64.416000
1430.816040,255.712006,-78.080002
1438.624023,156.160004,-72.223999
1426.911987,167.871994,-66.367996
1397.631958,281.088013,-58.560001
1387.871948,398.208008,-46.848000
1335.167969,464.575989,-46.848000
1327.359985,458.720001,-46.848000
1329.312012,409.920013,-44.896000
1317.599976,320.127991,-56.608002
1307.839966,244.000000,-66.367996
1300.031982,228.384003,-85.888000
1311.744019,244.000000,-101.503998
1272.703979,271.328003,-95.648003
1241.472046,298.656006,-107.360001
1212.192017,284.992004,-113.216003
1169.248047,277.183990,-122.975998
1163.391968,263.519989,-144.447998
1169.248047,210.815994,-146.399994
1163.391968,134.688004,-144.447998
1180.959961,83.935997,-162.016006
1190.719971,54.655998,-175.679993
1165.343994,58.560001,-199.104004
1157.536011,62.464001,-222.528000
1136.063965,5.856000,-251.807999
1081.407959,-35.136002,-251.807999
1050.176025,-62.464001,-284.992004
1042.368042,-56.608002,-294.752014
1034.560059,-76.127998,-318.175995
1054.079956,-117.120003,-343.552002
1054.079956,-179.584000,-355.264008
1063.839966,-197.151993,-392.351990
1061.887939,-195.199997,-392.351990
1050.176025,-216.671997,-365.023987
1073.599976,-238.143997,-337.696014
886.208008,-312.320007,-279.135986
1046.271973,-351.359985,-349.407990
1081.407959,-439.200012,-378.687988
1202.432007,-521.184021,-357.216003
1124.352051,-417.727997,-259.615997
919.392029,-181.535995,-148.352005
905.728027,-42.944000,-76.127998
917.440002,-48.799999,15.616000
1143.871948,-507.519989,525.088013
1803.647949,-1698.239990,1996.895996
2256.511963,-2598.112061,2607.872070
2385.343994,-3004.127930,2430.239990
2227.231934,-2705.471924,1452.287964
2057.407959,-2315.072021,390.399994
1382.015991,-2158.912109,-316.223999
856.927979,-1549.887939,-823.744019
677.343994,-601.216003,-1112.640015
486.048004,154.207993,-1329.312012
-337.696014,692.960022,-1301.984009
-741.760010,872.544006,-1042.368042
81.984001,523.135986,-1147.776001
538.752014,421.631989,-1200.479980
1124.352051,160.063995,-1083.359985
646.112000,111.264000,-726.143982
636.351990,107.360001,-374.783997
1038.463989,-3.904000,-275.231995
1403.488037,-3.904000,-402.112000
1579.167969,37.088001,-618.783997
1059.936035,142.496002,-532.895996
530.943970,216.671997,-298.656006
1104.832031,111.264000,-583.648010
685.151978,224.479996,-564.127991
1005.280029,324.032013,-519.231995
856.927979,419.679993,-327.936005
745.664001,458.720001,-298.656006
769.088013,571.935974,-324.032013
915.487976,589.504028,-357.216003
970.143982,480.191986,-413.824005
821.791992,222.528000,-474.335999
831.552002,-659.776001,-521.184021
931.104004,-1190.719971,-694.911987
823.744019,-1147.776001,-936.960022
765.184021,-856.927979,-1077.504028
698.815979,-599.263977,-923.296021
780.799988,-538.752014,-599.263977
655.872009,-489.951996,-292.799988
1018.943970,56.608002,-396.256012
911.583984,441.152008,-423.584015
1089.215942,534.848022,-521.184021
1120.447998,638.304016,-462.623993
1079.456055,755.424011,-318.175995
1075.552002,657.823975,-284.992004
1097.024048,544.607971,-329.888000
1057.984009,283.040009,-363.071991
911.583984,-351.359985,-331.839996
765.184021,-839.359985,-447.007996
651.968018,-940.864014,-661.728027
624.640015,-755.424011,-792.512024
653.919983,-486.048004,-796.416016
806.176025,-337.696014,-587.552002
1011.135986,-150.304001,-294.752014
1214.144043,247.904007,-179.584000
1323.456055,681.247986,-199.104004
1350.784058,923.296021,-191.296005
1341.024048,942.815979,-140.544006
1298.079956,792.512024,-111.264000
1243.423950,482.144012,-150.304001
1159.488037,206.912003,-251.807999
1042.368042,374.783997,-339.648010
1030.656006,573.888000,-327.936005
1108.735962,380.640015,-169.824005
1106.784058,-361.119995,-40.992001
1054.079956,-843.263977,-269.376007
905.728027,-995.520020,-692.960022
810.080017,-1034.560059,-999.424011
745.664001,-1018.943970,-1052.128052
747.616028,-923.296021,-954.528015
788.607971,-733.952026,-767.135986
903.776001,-482.144012,-544.607971
999.424011,-247.904007,-310.368011
1071.647949,193.248001,-124.928001
