ACC_X,ACC_Y,ACC_Z
472.384003,505.567993,743.711975
476.287994,505.567993,741.760010
470.432007,505.567993,735.903992
472.384003,509.471985,735.903992
474.335999,497.760010,739.807983
472.384003,505.567993,732.000000
472.384003,507.519989,733.952026
474.335999,505.567993,739.807983
472.384003,505.567993,747.616028
470.432007,499.712006,743.711975
474.335999,517.280029,741.760010
472.384003,503.615997,733.952026
470.432007,503.615997,741.760010
464.575989,507.519989,733.952026
472.384003,503.615997,739.807983
470.432007,511.424011,739.807983
472.384003,501.664001,733.952026
472.384003,505.567993,743.711975
470.432007,511.424011,737.856018
474.335999,507.519989,733.952026
466.528015,505.567993,732.000000
466.528015,505.567993,733.952026
468.480011,509.471985,743.711975
470.432007,513.375977,730.047974
468.480011,503.615997,737.856018
468.480011,515.328003,737.856018
470.432007,511.424011,733.952026
460.671997,517.280029,726.143982
460.671997,511.424011,726.143982
466.528015,513.375977,732.000000
460.671997,517.280029,726.143982
460.671997,517.280029,735.903992
470.432007,511.424011,737.856018
464.575989,503.615997,739.807983
470.432007,511.424011,737.856018
460.671997,503.615997,733.952026
460.671997,517.280029,726.143982
460.671997,507.519989,733.952026
464.575989,517.280029,735.903992
462.623993,515.328003,743.711975
466.528015,507.519989,730.047974
460.671997,513.375977,735.903992
460.671997,511.424011,735.903992
460.671997,511.424011,735.903992
456.768005,515.328003,737.856018
462.623993,515.328003,737.856018
466.528015,503.615997,735.903992
454.816010,517.280029,741.760010
454.816010,511.424011,730.047974
454.816010,513.375977,743.711975
462.623993,509.471985,737.856018
452.864014,503.615997,732.000000
452.864014,515.328003,732.000000
452.864014,515.328003,722.239990
448.959991,513.375977,739.807983
456.768005,515.328003,737.856018
452.864014,513.375977,720.288025
452.864014,511.424011,728.096008
454.816010,501.664001,730.047974
450.911987,507.519989,728.096008
450.911987,501.664001,722.239990
447.007996,503.615997,728.096008
448.959991,505.567993,724.192017
454.816010,499.712006,728.096008
454.816010,513.375977,722.239990
448.959991,509.471985,720.288025
458.720001,503.615997,728.096008
460.671997,507.519989,724.192017
464.575989,499.712006,730.047974
447.007996,501.664001,732.000000
450.911987,503.615997,726.143982
454.816010,501.664001,726.143982
450.911987,501.664001,722.239990
458.720001,505.567993,726.143982
454.816010,491.903992,726.143982
454.816010,501.664001,724.192017
452.864014,505.567993,724.192017
450.911987,503.615997,732.000000
450.911987,493.855988,726.143982
450.911987,499.712006,724.192017
443.104004,497.760010,722.239990
452.864014,489.951996,728.096008
448.959991,495.808014,718.335999
445.056000,491.903992,726.143982
448.959991,497.760010,726.143982
450.911987,491.903992,718.335999
454.816010,501.664001,726.143982
452.864014,503.615997,728.096008
445.056000,501.664001,726.143982
445.056000,509.471985,726.143982
452.864014,503.615997,732.000000
454.816010,501.664001,730.047974
445.056000,495.808014,718.335999
448.959991,505.567993,722.239990
447.007996,499.712006,716.383972
445.056000,501.664001,724.192017
448.959991,505.567993,720.288025
447.007996,503.615997,722.239990
445.056000,501.664001,728.096008
437.247986,501.664001,726.143982
447.007996,505.567993,724.192017
445.056000,499.712006,724.192017
445.056000,505.567993,722.239990
445.056000,505.567993,720.288025
441.152008,511.424011,714.432007
435.295990,509.471985,714.432007
441.152008,499.712006,726.143982
433.343994,503.615997,718.335999
431.391998,513.375977,718.335999
437.247986,499.712006,710.528015
433.343994,507.519989,724.192017
429.440002,505.567993,724.192017
433.343994,503.615997,718.335999
427.488007,513.375977,722.239990
431.391998,503.615997,716.383972
431.391998,503.615997,720.288025
427.488007,499.712006,716.383972
429.440002,501.664001,712.479980
425.536011,503.615997,718.335999
423.584015,517.280029,714.432007
417.727997,505.567993,716.383972
427.488007,503.615997,722.239990
419.679993,519.231995,718.335999
413.824005,513.375977,720.288025
413.824005,517.280029,710.528015
419.679993,515.328003,708.575989
413.824005,517.280029,710.528015
413.824005,513.375977,710.528015
413.824005,513.375977,710.528015
406.015991,515.328003,712.479980
402.112000,521.184021,710.528015
402.112000,528.992004,708.575989
407.967987,515.328003,708.575989
402.112000,517.280029,698.815979
407.967987,507.519989,702.719971
400.160004,519.231995,702.719971
404.063995,513.375977,706.624023
404.063995,517.280029,706.624023
404.063995,515.328003,712.479980
406.015991,515.328003,704.671997
398.208008,517.280029,694.911987
394.303986,517.280029,702.719971
398.208008,517.280029,706.624023
400.160004,515.328003,704.671997
398.208008,521.184021,708.575989
390.399994,517.280029,706.624023
388.447998,513.375977,710.528015
402.112000,517.280029,706.624023
400.160004,511.424011,704.671997
396.256012,517.280029,704.671997
398.208008,519.231995,698.815979
404.063995,519.231995,700.768005
398.208008,513.375977,698.815979
396.256012,513.375977,691.007996
390.399994,515.328003,691.007996
390.399994,509.471985,698.815979
392.351990,511.424011,708.575989
394.303986,511.424011,702.719971
390.399994,503.615997,700.768005
392.351990,501.664001,700.768005
400.160004,507.519989,712.479980
400.160004,499.712006,696.864014
398.208008,511.424011,700.768005
398.208008,503.615997,712.479980
394.303986,505.567993,708.575989
398.208008,497.760010,706.624023
394.303986,493.855988,698.815979
402.112000,505.567993,706.624023
398.208008,505.567993,706.624023
398.208008,495.808014,710.528015
402.112000,501.664001,710.528015
402.112000,491.903992,700.768005
409.920013,491.903992,714.432007
406.015991,495.808014,708.575989
411.872009,493.855988,698.815979
415.776001,497.760010,712.479980
415.776001,486.048004,710.528015
413.824005,486.048004,720.288025
417.727997,480.191986,716.383972
411.872009,486.048004,716.383972
411.872009,486.048004,722.239990
413.824005,486.048004,716.383972
423.584015,476.287994,716.383972
413.824005,486.048004,716.383972
423.584015,480.191986,710.528015
419.679993,468.480011,718.335999
419.679993,474.335999,716.383972
431.391998,486.048004,710.528015
431.391998,484.096008,714.432007
427.488007,478.239990,718.335999
423.584015,468.480011,720.288025
433.343994,478.239990,724.192017
431.391998,472.384003,714.432007
435.295990,472.384003,720.288025
429.440002,474.335999,726.143982
435.295990,472.384003,716.383972
435.295990,478.239990,724.192017
437.247986,470.432007,718.335999
437.247986,478.239990,724.192017
435.295990,474.335999,724.192017
439.200012,464.575989,728.096008
445.056000,466.528015,726.143982
439.200012,474.335999,726.143982
433.343994,470.432007,722.239990
439.200012,470.432007,722.239990
443.104004,474.335999,728.096008
437.247986,464.575989,728.096008
441.152008,478.239990,732.000000
441.152008,472.384003,728.096008
448.959991,468.480011,726.143982
437.247986,472.384003,724.192017
445.056000,466.528015,735.903992
450.911987,460.671997,737.856018
447.007996,470.432007,732.000000
450.911987,468.480011,737.856018
452.864014,474.335999,741.760010
458.720001,478.239990,733.952026
458.720001,464.575989,739.807983
454.816010,474.335999,739.807983
452.864014,472.384003,733.952026
452.864014,462.623993,733.952026
456.768005,466.528015,733.952026
460.671997,470.432007,741.760010
462.623993,460.671997,739.807983
460.671997,466.528015,747.616028
470.432007,474.335999,733.952026
462.623993,462.623993,733.952026
464.575989,462.623993,739.807983
462.623993,466.528015,739.807983
478.239990,464.575989,743.711975
462.623993,452.864014,743.711975
466.528015,464.575989,739.807983
460.671997,464.575989,741.760010
470.432007,464.575989,739.807983
464.575989,460.671997,745.664001
472.384003,460.671997,741.760010
464.575989,462.623993,745.664001
472.384003,462.623993,745.664001
470.432007,470.432007,745.664001
470.432007,464.575989,745.664001
464.575989,464.575989,751.520020
470.432007,466.528015,749.567993
468.480011,470.432007,745.664001
470.432007,472.384003,741.760010
478.239990,468.480011,743.711975
478.239990,460.671997,745.664001
472.384003,470.432007,753.471985
472.384003,462.623993,751.520020
476.287994,480.191986,747.616028
470.432007,472.384003,745.664001
486.048004,476.287994,751.520020
476.287994,486.048004,751.520020
482.144012,486.048004,751.520020
474.335999,480.191986,745.664001
472.384003,480.191986,755.424011
476.287994,486.048004,745.664001
478.239990,493.855988,749.567993
480.191986,486.048004,751.520020
480.191986,482.144012,739.807983
480.191986,488.000000,747.616028
476.287994,493.855988,741.760010
476.287994,486.048004,733.952026
478.239990,495.808014,749.567993
484.096008,497.760010,743.711975
482.144012,495.808014,747.616028
482.144012,497.760010,749.567993
482.144012,491.903992,745.664001
478.239990,499.712006,745.664001
484.096008,499.712006,747.616028
478.239990,499.712006,747.616028
488.000000,513.375977,741.760010
486.048004,511.424011,745.664001
486.048004,513.375977,745.664001
482.144012,505.567993,743.711975
480.191986,511.424011,741.760010
486.048004,517.280029,751.520020
476.287994,505.567993,747.616028
482.144012,507.519989,751.520020
486.048004,513.375977,733.952026
474.335999,519.231995,741.760010
486.048004,517.280029,745.664001
480.191986,517.280029,741.760010
480.191986,521.184021,735.903992
476.287994,517.280029,741.760010
482.144012,509.471985,739.807983
472.384003,517.280029,737.856018
472.384003,525.088013,743.711975
482.144012,519.231995,743.711975
486.048004,517.280029,739.807983
482.144012,525.088013,743.711975
484.096008,523.135986,743.711975
480.191986,528.992004,737.856018
476.287994,528.992004,735.903992
468.480011,527.039978,732.000000
468.480011,528.992004,735.903992
474.335999,527.039978,739.807983
472.384003,528.992004,743.711975
468.480011,530.943970,732.000000
468.480011,536.799988,735.903992
466.528015,534.848022,735.903992
472.384003,530.943970,743.711975
476.287994,532.895996,730.047974
472.384003,530.943970,735.903992
466.528015,530.943970,733.952026
466.528015,532.895996,741.760010
456.768005,530.943970,728.096008
466.528015,532.895996,737.856018
470.432007,530.943970,735.903992
468.480011,528.992004,735.903992
460.671997,536.799988,730.047974
462.623993,542.656006,732.000000
468.480011,536.799988,732.000000
472.384003,540.703979,728.096008
464.575989,536.799988,726.143982
464.575989,536.799988,732.000000
464.575989,544.607971,724.192017
460.671997,536.799988,728.096008
470.432007,538.752014,726.143982
460.671997,548.512024,726.143982
458.720001,534.848022,728.096008
456.768005,536.799988,728.096008
460.671997,538.752014,724.192017
456.768005,540.703979,724.192017
458.720001,534.848022,722.239990
458.720001,532.895996,720.288025
460.671997,532.895996,722.239990
456.768005,532.895996,724.192017
464.575989,536.799988,724.192017
456.768005,536.799988,722.239990
462.623993,538.752014,720.288025
460.671997,536.799988,724.192017
456.768005,548.512024,722.239990
464.575989,536.799988,726.143982
466.528015,530.943970,735.903992
454.816010,532.895996,728.096008
456.768005,519.231995,722.239990
460.671997,523.135986,722.239990
468.480011,527.039978,720.288025
470.432007,532.895996,720.288025
464.575989,530.943970,726.143982
464.575989,530.943970,722.239990
468.480011,528.992004,732.000000
456.768005,527.039978,726.143982
466.528015,519.231995,732.000000
460.671997,528.992004,726.143982
458.720001,519.231995,724.192017
462.623993,523.135986,730.047974
456.768005,525.088013,728.096008
460.671997,517.280029,724.192017
454.816010,527.039978,726.143982
462.623993,519.231995,722.239990
462.623993,519.231995,732.000000
462.623993,519.231995,728.096008
456.768005,519.231995,728.096008
450.911987,521.184021,722.239990
458.720001,527.039978,720.288025
456.768005,525.088013,732.000000
456.768005,515.328003,718.335999
452.864014,509.471985,722.239990
450.911987,515.328003,728.096008
458.720001,519.231995,716.383972
454.816010,517.280029,714.432007
445.056000,517.280029,722.239990
450.911987,515.328003,722.239990
448.959991,517.280029,718.335999
443.104004,511.424011,710.528015
437.247986,515.328003,718.335999
445.056000,511.424011,714.432007
441.152008,511.424011,714.432007
448.959991,511.424011,720.288025
447.007996,519.231995,716.383972
437.247986,509.471985,706.624023
443.104004,507.519989,714.432007
441.152008,517.280029,712.479980
437.247986,523.135986,708.575989
443.104004,511.424011,710.528015
435.295990,515.328003,706.624023
435.295990,509.471985,712.479980
437.247986,515.328003,712.479980
443.104004,513.375977,708.575989
433.343994,507.519989,704.671997
433.343994,511.424011,706.624023
437.247986,507.519989,712.479980
439.200012,511.424011,712.479980
435.295990,507.519989,708.575989
431.391998,509.471985,706.624023
441.152008,507.519989,704.671997
433.343994,509.471985,704.671997
437.247986,515.328003,716.383972
437.247986,515.328003,712.479980
437.247986,511.424011,710.528015
443.104004,509.471985,716.383972
447.007996,513.375977,702.719971
437.247986,513.375977,710.528015
441.152008,509.471985,708.575989
445.056000,517.280029,710.528015
437.247986,513.375977,716.383972
437.247986,507.519989,716.383972
450.911987,499.712006,716.383972
454.816010,507.519989,716.383972
445.056000,513.375977,714.432007
450.911987,517.280029,716.383972
448.959991,505.567993,718.335999
448.959991,513.375977,716.383972
441.152008,511.424011,722.239990
450.911987,511.424011,720.288025
437.247986,513.375977,718.335999
456.768005,507.519989,712.479980
454.816010,503.615997,718.335999
447.007996,503.615997,720.288025
458.720001,505.567993,720.288025
448.959991,509.471985,720.288025
454.816010,501.664001,724.192017
454.816010,501.664001,732.000000
456.768005,499.712006,732.000000
456.768005,495.808014,732.000000
462.623993,511.424011,718.335999
458.720001,505.567993,726.143982
462.623993,503.615997,724.192017
460.671997,507.519989,726.143982
460.671997,513.375977,726.143982
460.671997,499.712006,732.000000
460.671997,505.567993,726.143982
460.671997,499.712006,728.096008
472.384003,505.567993,726.143982
466.528015,495.808014,730.047974
470.432007,501.664001,733.952026
470.432007,499.712006,735.903992
476.287994,513.375977,739.807983
478.239990,501.664001,730.047974
466.528015,497.760010,732.000000
472.384003,501.664001,733.952026
474.335999,503.615997,735.903992
482.144012,495.808014,730.047974
478.239990,495.808014,730.047974
472.384003,503.615997,732.000000
474.335999,495.808014,728.096008
464.575989,499.712006,730.047974
468.480011,503.615997,737.856018
472.384003,503.615997,735.903992
486.048004,509.471985,730.047974
478.239990,503.615997,733.952026
470.432007,499.712006,737.856018
476.287994,501.664001,726.143982
470.432007,503.615997,732.000000
470.432007,513.375977,737.856018
474.335999,513.375977,737.856018
476.287994,505.567993,735.903992
472.384003,503.615997,733.952026
464.575989,511.424011,743.711975
460.671997,511.424011,726.143982
470.432007,513.375977,726.143982
462.623993,499.712006,732.000000
464.575989,513.375977,745.664001
470.432007,513.375977,726.143982
468.480011,505.567993,735.903992
462.623993,517.280029,739.807983
470.432007,513.375977,737.856018
464.575989,507.519989,726.143982
470.432007,513.375977,735.903992
464.575989,511.424011,730.047974
468.480011,507.519989,739.807983
464.575989,513.375977,726.143982
468.480011,515.328003,735.903992
470.432007,511.424011,733.952026
466.528015,503.615997,735.903992
470.432007,507.519989,726.143982
470.432007,511.424011,737.856018
466.528015,509.471985,737.856018
460.671997,509.471985,732.000000
458.720001,513.375977,730.047974
456.768005,499.712006,739.807983
456.768005,507.519989,737.856018
458.720001,517.280029,726.143982
458.720001,505.567993,730.047974
456.768005,499.712006,730.047974
464.575989,505.567993,733.952026
456.768005,505.567993,739.807983
460.671997,505.567993,737.856018
470.432007,495.808014,733.952026
466.528015,501.664001,747.616028
460.671997,507.519989,737.856018
466.528015,507.519989,735.903992
466.528015,499.712006,730.047974
474.335999,495.808014,733.952026
468.480011,497.760010,733.952026
466.528015,499.712006,737.856018
468.480011,509.471985,735.903992
464.575989,501.664001,733.952026
466.528015,513.375977,732.000000
472.384003,503.615997,732.000000
464.575989,507.519989,733.952026
476.287994,507.519989,739.807983
476.287994,503.615997,728.096008
476.287994,511.424011,733.952026
482.144012,503.615997,735.903992
478.239990,507.519989,728.096008
482.144012,503.615997,730.047974
482.144012,505.567993,737.856018
472.384003,501.664001,732.000000
472.384003,509.471985,739.807983
478.239990,503.615997,733.952026
482.144012,503.615997,732.000000
486.048004,509.471985,741.760010
489.951996,505.567993,743.711975
491.903992,503.615997,730.047974
484.096008,505.567993,730.047974
489.951996,503.615997,732.000000
486.048004,495.808014,735.903992
488.000000,499.712006,739.807983
484.096008,505.567993,743.711975
488.000000,505.567993,741.760010
493.855988,503.615997,743.711975
486.048004,503.615997,745.664001
489.951996,501.664001,747.616028
491.903992,495.808014,741.760010
493.855988,497.760010,747.616028
493.855988,501.664001,737.856018
491.903992,501.664001,741.760010
488.000000,501.664001,735.903992
489.951996,497.760010,745.664001
491.903992,495.808014,741.760010
493.855988,493.855988,739.807983
488.000000,495.808014,735.903992
489.951996,501.664001,739.807983
491.903992,491.903992,739.807983
491.903992,491.903992,739.807983
489.951996,491.903992,745.664001
493.855988,489.951996,737.856018
497.760010,488.000000,733.952026
489.951996,491.903992,739.807983
493.855988,491.903992,728.096008
495.808014,493.855988,733.952026
497.760010,486.048004,735.903992
491.903992,486.048004,730.047974
497.760010,493.855988,732.000000
497.760010,495.808014,741.760010
501.664001,488.000000,743.711975
488.000000,493.855988,732.000000
488.000000,495.808014,737.856018
491.903992,497.760010,739.807983
497.760010,493.855988,739.807983
489.951996,493.855988,739.807983
488.000000,484.096008,735.903992
505.567993,495.808014,732.000000
491.903992,486.048004,726.143982
488.000000,488.000000,724.192017
488.000000,493.855988,726.143982
501.664001,488.000000,726.143982
507.519989,489.951996,730.047974
499.712006,484.096008,726.143982
489.951996,486.048004,726.143982
495.808014,484.096008,724.192017
501.664001,489.951996,732.000000
501.664001,488.000000,735.903992
491.903992,480.191986,724.192017
495.808014,482.144012,726.143982
495.808014,488.000000,728.096008
499.712006,489.951996,724.192017
493.855988,493.855988,728.096008
501.664001,486.048004,726.143982
505.567993,474.335999,733.952026
491.903992,486.048004,718.335999
495.808014,486.048004,726.143982
497.760010,489.951996,722.239990
491.903992,486.048004,726.143982
488.000000,474.335999,728.096008
488.000000,470.432007,726.143982
493.855988,484.096008,724.192017
489.951996,478.239990,728.096008
491.903992,480.191986,726.143982
493.855988,478.239990,724.192017
484.096008,478.239990,720.288025
497.760010,472.384003,724.192017
501.664001,478.239990,724.192017
489.951996,474.335999,724.192017
491.903992,476.287994,726.143982
488.000000,470.432007,733.952026
489.951996,480.191986,735.903992
493.855988,474.335999,728.096008
495.808014,478.239990,726.143982
491.903992,470.432007,722.239990
493.855988,470.432007,728.096008
493.855988,466.528015,722.239990
501.664001,470.432007,730.047974
497.760010,460.671997,728.096008
495.808014,474.335999,726.143982
505.567993,462.623993,728.096008
497.760010,456.768005,730.047974
499.712006,462.623993,728.096008
495.808014,466.528015,732.000000
501.664001,458.720001,732.000000
495.808014,468.480011,733.952026
501.664001,464.575989,733.952026
499.712006,456.768005,724.192017
497.760010,462.623993,720.288025
497.760010,456.768005,722.239990
495.808014,456.768005,726.143982
499.712006,462.623993,728.096008
503.615997,454.816010,726.143982
505.567993,454.816010,720.288025
501.664001,458.720001,722.239990
505.567993,448.959991,720.288025
509.471985,452.864014,728.096008
503.615997,454.816010,722.239990
509.471985,448.959991,728.096008
503.615997,456.768005,726.143982
501.664001,447.007996,726.143982
507.519989,458.720001,726.143982
513.375977,458.720001,726.143982
511.424011,452.864014,726.143982
509.471985,448.959991,728.096008
513.375977,450.911987,722.239990
509.471985,447.007996,728.096008
505.567993,452.864014,712.479980
505.567993,443.104004,722.239990
507.519989,443.104004,716.383972
509.471985,445.056000,722.239990
509.471985,448.959991,718.335999
515.328003,450.911987,712.479980
521.184021,447.007996,712.479980
511.424011,454.816010,716.383972
517.280029,448.959991,710.528015
513.375977,454.816010,710.528015
517.280029,454.816010,710.528015
519.231995,447.007996,712.479980
517.280029,445.056000,716.383972
525.088013,450.911987,716.383972
519.231995,452.864014,714.432007
519.231995,452.864014,716.383972
525.088013,458.720001,720.288025
523.135986,454.816010,718.335999
523.135986,456.768005,712.479980
527.039978,447.007996,737.856018
523.135986,454.816010,726.143982
532.895996,448.959991,726.143982
530.943970,462.623993,733.952026
536.799988,448.959991,743.711975
536.799988,448.959991,733.952026
534.848022,452.864014,735.903992
538.752014,456.768005,739.807983
534.848022,448.959991,733.952026
536.799988,454.816010,741.760010
538.752014,448.959991,741.760010
538.752014,443.104004,741.760010
542.656006,443.104004,745.664001
542.656006,443.104004,747.616028
548.512024,445.056000,753.471985
546.559998,450.911987,759.328003
536.799988,448.959991,745.664001
542.656006,443.104004,743.711975
544.607971,437.247986,747.616028
534.848022,445.056000,733.952026
542.656006,439.200012,730.047974
548.512024,439.200012,735.903992
532.895996,439.200012,741.760010
530.943970,443.104004,728.096008
523.135986,437.247986,724.192017
525.088013,435.295990,728.096008
534.848022,441.152008,720.288025
534.848022,429.440002,710.528015
532.895996,431.391998,718.335999
528.992004,441.152008,716.383972
536.799988,429.440002,704.671997
538.752014,437.247986,724.192017
534.848022,441.152008,722.239990
540.703979,435.295990,718.335999
530.943970,435.295990,728.096008
532.895996,441.152008,716.383972
536.799988,437.247986,722.239990
536.799988,439.200012,724.192017
534.848022,443.104004,724.192017
534.848022,443.104004,724.192017
532.895996,443.104004,732.000000
528.992004,439.200012,737.856018
530.943970,437.247986,732.000000
542.656006,445.056000,741.760010
536.799988,443.104004,745.664001
542.656006,450.911987,753.471985
542.656006,450.911987,753.471985
544.607971,450.911987,753.471985
552.416016,445.056000,755.424011
544.607971,441.152008,759.328003
544.607971,447.007996,759.328003
548.512024,439.200012,755.424011
552.416016,443.104004,761.280029
546.559998,441.152008,761.280029
556.320007,445.056000,765.184021
546.559998,441.152008,753.471985
550.463989,439.200012,757.375977
548.512024,443.104004,759.328003
550.463989,439.200012,747.616028
546.559998,437.247986,745.664001
548.512024,447.007996,743.711975
538.752014,429.440002,743.711975
538.752014,433.343994,730.047974
540.703979,437.247986,735.903992
536.799988,437.247986,722.239990
530.943970,435.295990,722.239990
530.943970,439.200012,710.528015
527.039978,441.152008,718.335999
523.135986,433.343994,702.719971
525.088013,447.007996,712.479980
525.088013,441.152008,706.624023
519.231995,443.104004,708.575989
525.088013,443.104004,700.768005
519.231995,448.959991,706.624023
525.088013,445.056000,710.528015
525.088013,456.768005,710.528015
515.328003,462.623993,710.528015
521.184021,462.623993,712.479980
521.184021,468.480011,714.432007
523.135986,466.528015,718.335999
528.992004,470.432007,714.432007
521.184021,474.335999,726.143982
523.135986,468.480011,741.760010
517.280029,466.528015,737.856018
532.895996,474.335999,737.856018
532.895996,474.335999,737.856018
527.039978,476.287994,732.000000
538.752014,474.335999,751.520020
528.992004,472.384003,747.616028
536.799988,482.144012,747.616028
528.992004,482.144012,743.711975
532.895996,470.432007,745.664001
530.943970,476.287994,753.471985
532.895996,468.480011,747.616028
536.799988,472.384003,733.952026
528.992004,468.480011,739.807983
525.088013,462.623993,728.096008
525.088013,466.528015,733.952026
530.943970,464.575989,726.143982
525.088013,462.623993,732.000000
519.231995,482.144012,724.192017
517.280029,476.287994,708.575989
513.375977,476.287994,712.479980
503.615997,476.287994,702.719971
507.519989,470.432007,704.671997
505.567993,468.480011,702.719971
499.712006,466.528015,696.864014
503.615997,472.384003,700.768005
499.712006,472.384003,687.104004
501.664001,482.144012,679.296021
497.760010,472.384003,687.104004
503.615997,480.191986,689.056030
505.567993,488.000000,683.200012
495.808014,488.000000,679.296021
495.808014,484.096008,681.247986
495.808014,501.664001,691.007996
501.664001,497.760010,687.104004
507.519989,501.664001,706.624023
503.615997,503.615997,714.432007
507.519989,507.519989,714.432007
507.519989,505.567993,708.575989
505.567993,499.712006,714.432007
517.280029,497.760010,726.143982
519.231995,505.567993,732.000000
511.424011,501.664001,730.047974
513.375977,491.903992,735.903992
521.184021,495.808014,741.760010
517.280029,503.615997,747.616028
521.184021,491.903992,737.856018
519.231995,499.712006,741.760010
513.375977,505.567993,743.711975
521.184021,505.567993,743.711975
521.184021,493.855988,747.616028
527.039978,501.664001,737.856018
519.231995,497.760010,728.096008
509.471985,499.712006,718.335999
511.424011,495.808014,726.143982
503.615997,488.000000,726.143982
509.471985,488.000000,714.432007
499.712006,484.096008,710.528015
501.664001,489.951996,718.335999
509.471985,486.048004,710.528015
505.567993,480.191986,708.575989
501.664001,482.144012,704.671997
495.808014,486.048004,704.671997
493.855988,493.855988,696.864014
488.000000,491.903992,696.864014
484.096008,480.191986,696.864014
493.855988,488.000000,692.960022
497.760010,493.855988,696.864014
488.000000,489.951996,692.960022
497.760010,489.951996,687.104004
488.000000,491.903992,696.864014
493.855988,493.855988,700.768005
497.760010,488.000000,700.768005
491.903992,493.855988,702.719971
491.903992,499.712006,698.815979
501.664001,505.567993,694.911987
501.664001,486.048004,704.671997
499.712006,491.903992,708.575989
495.808014,497.760010,710.528015
491.903992,495.808014,710.528015
495.808014,488.000000,712.479980
491.903992,501.664001,714.432007
491.903992,501.664001,710.528015
495.808014,501.664001,720.288025
501.664001,489.951996,710.528015
493.855988,497.760010,702.719971
489.951996,499.712006,712.479980
491.903992,501.664001,706.624023
495.808014,497.760010,710.528015
493.855988,499.712006,702.719971
488.000000,493.855988,702.719971
489.951996,486.048004,706.624023
493.855988,480.191986,712.479980
484.096008,472.384003,702.719971
484.096008,484.096008,700.768005
478.239990,484.096008,696.864014
478.239990,482.144012,704.671997
480.191986,488.000000,712.479980
480.191986,489.951996,704.671997
482.144012,472.384003,700.768005
480.191986,478.239990,698.815979
488.000000,480.191986,694.911987
489.951996,480.191986,704.671997
484.096008,480.191986,694.911987
470.432007,482.144012,694.911987
478.239990,489.951996,696.864014
482.144012,482.144012,698.815979
472.384003,472.384003,698.815979
482.144012,472.384003,708.575989
486.048004,470.432007,704.671997
482.144012,468.480011,704.671997
480.191986,468.480011,710.528015
480.191986,472.384003,704.671997
480.191986,476.287994,710.528015
486.048004,472.384003,704.671997
484.096008,480.191986,702.719971
488.000000,484.096008,706.624023
484.096008,480.191986,704.671997
484.096008,484.096008,700.768005
489.951996,480.191986,700.768005
491.903992,472.384003,710.528015
480.191986,486.048004,708.575989
486.048004,482.144012,710.528015
484.096008,486.048004,706.624023
491.903992,480.191986,704.671997
482.144012,478.239990,700.768005
491.903992,476.287994,694.911987
493.855988,472.384003,706.624023
488.000000,464.575989,700.768005
489.951996,470.432007,710.528015
480.191986,478.239990,698.815979
482.144012,472.384003,696.864014
484.096008,476.287994,704.671997
489.951996,472.384003,696.864014
491.903992,476.287994,694.911987
484.096008,478.239990,700.768005
484.096008,478.239990,691.007996
489.951996,476.287994,698.815979
489.951996,470.432007,691.007996
482.144012,470.432007,696.864014
482.144012,472.384003,700.768005
489.951996,478.239990,698.815979
493.855988,486.048004,691.007996
489.951996,474.335999,694.911987
478.239990,472.384003,696.864014
482.144012,470.432007,700.768005
488.000000,472.384003,706.624023
489.951996,486.048004,706.624023
491.903992,486.048004,704.671997
484.096008,484.096008,696.864014
491.903992,482.144012,700.768005
493.855988,488.000000,700.768005
491.903992,480.191986,694.911987
495.808014,476.287994,704.671997
489.951996,476.287994,706.624023
495.808014,489.951996,708.575989
489.951996,484.096008,702.719971
495.808014,478.239990,694.911987
484.096008,474.335999,694.911987
488.000000,480.191986,704.671997
491.903992,484.096008,694.911987
491.903992,486.048004,704.671997
501.664001,472.384003,689.056030
491.903992,482.144012,694.911987
489.951996,476.287994,694.911987
489.951996,476.287994,698.815979
493.855988,468.480011,696.864014
488.000000,476.287994,700.768005
480.191986,468.480011,700.768005
488.000000,472.384003,698.815979
489.951996,482.144012,704.671997
484.096008,478.239990,700.768005
489.951996,472.384003,696.864014
489.951996,474.335999,692.960022
489.951996,468.480011,692.960022
488.000000,466.528015,704.671997
484.096008,472.384003,700.768005
491.903992,476.287994,700.768005
491.903992,474.335999,694.911987
497.760010,468.480011,700.768005
489.951996,478.239990,702.719971
491.903992,478.239990,698.815979
488.000000,474.335999,696.864014
507.519989,486.048004,702.719971
493.855988,480.191986,698.815979
501.664001,482.144012,702.719971
499.712006,489.951996,698.815979
493.855988,488.000000,704.671997
491.903992,486.048004,704.671997
503.615997,493.855988,716.383972
493.855988,488.000000,708.575989
491.903992,493.855988,720.288025
491.903992,489.951996,716.383972
491.903992,497.760010,710.528015
489.951996,488.000000,718.335999
499.712006,489.951996,714.432007
501.664001,499.712006,716.383972
499.712006,499.712006,722.239990
499.712006,495.808014,714.432007
499.712006,491.903992,728.096008
499.712006,488.000000,720.288025
499.712006,501.664001,718.335999
495.808014,491.903992,722.239990
493.855988,489.951996,720.288025
501.664001,491.903992,716.383972
489.951996,495.808014,714.432007
497.760010,501.664001,716.383972
489.951996,493.855988,724.192017
493.855988,499.712006,724.192017
484.096008,499.712006,724.192017
480.191986,507.519989,714.432007
484.096008,501.664001,716.383972
491.903992,501.664001,720.288025
491.903992,497.760010,720.288025
493.855988,503.615997,718.335999
482.144012,507.519989,712.479980
486.048004,505.567993,720.288025
489.951996,505.567993,718.335999
476.287994,505.567993,712.479980
493.855988,509.471985,724.192017
486.048004,501.664001,724.192017
480.191986,509.471985,722.239990
484.096008,499.712006,720.288025
488.000000,505.567993,716.383972
489.951996,507.519989,714.432007
484.096008,513.375977,716.383972
476.287994,513.375977,722.239990
480.191986,509.471985,722.239990
493.855988,507.519989,716.383972
486.048004,515.328003,724.192017
482.144012,509.471985,720.288025
489.951996,509.471985,728.096008
493.855988,511.424011,716.383972
493.855988,513.375977,724.192017
493.855988,511.424011,724.192017
493.855988,509.471985,718.335999
493.855988,509.471985,716.383972
493.855988,503.615997,710.528015
495.808014,505.567993,726.143982
491.903992,507.519989,718.335999
493.855988,515.328003,716.383972
491.903992,501.664001,722.239990
488.000000,515.328003,714.432007
489.951996,515.328003,733.952026
491.903992,517.280029,724.192017
497.760010,503.615997,724.192017
499.712006,511.424011,732.000000
499.712006,507.519989,728.096008
497.760010,499.712006,730.047974
503.615997,511.424011,724.192017
503.615997,503.615997,730.047974
503.615997,503.615997,732.000000
509.471985,503.615997,728.096008
509.471985,503.615997,733.952026
503.615997,491.903992,741.760010
513.375977,499.712006,743.711975
511.424011,505.567993,741.760010
509.471985,507.519989,732.000000
511.424011,503.615997,735.903992
523.135986,505.567993,726.143982
515.328003,501.664001,735.903992
511.424011,499.712006,743.711975
513.375977,497.760010,737.856018
525.088013,499.712006,739.807983
528.992004,499.712006,739.807983
521.184021,497.760010,741.760010
527.039978,507.519989,737.856018
523.135986,491.903992,741.760010
525.088013,501.664001,747.616028
532.895996,495.808014,737.856018
527.039978,488.000000,735.903992
530.943970,491.903992,739.807983
536.799988,489.951996,743.711975
528.992004,484.096008,737.856018
532.895996,495.808014,741.760010
532.895996,489.951996,745.664001
532.895996,493.855988,733.952026
540.703979,486.048004,737.856018
536.799988,486.048004,741.760010
530.943970,489.951996,743.711975
532.895996,495.808014,739.807983
538.752014,491.903992,730.047974
534.848022,488.000000,735.903992
540.703979,484.096008,735.903992
538.752014,480.191986,741.760010
538.752014,486.048004,741.760010
536.799988,497.760010,732.000000
544.607971,486.048004,739.807983
542.656006,491.903992,732.000000
536.799988,489.951996,737.856018
542.656006,495.808014,733.952026
534.848022,486.048004,726.143982
536.799988,495.808014,733.952026
534.848022,486.048004,737.856018
540.703979,489.951996,733.952026
548.512024,489.951996,730.047974
540.703979,489.951996,724.192017
538.752014,489.951996,730.047974
556.320007,486.048004,730.047974
546.559998,489.951996,728.096008
544.607971,491.903992,722.239990
546.559998,491.903992,714.432007
550.463989,488.000000,728.096008
548.512024,491.903992,730.047974
548.512024,495.808014,730.047974
548.512024,488.000000,730.047974
554.367981,495.808014,739.807983
554.367981,489.951996,739.807983
556.320007,488.000000,730.047974
552.416016,478.239990,728.096008
550.463989,495.808014,739.807983
544.607971,482.144012,739.807983
538.752014,488.000000,737.856018
548.512024,489.951996,737.856018
554.367981,486.048004,733.952026
552.416016,491.903992,741.760010
548.512024,497.760010,733.952026
548.512024,488.000000,737.856018
552.416016,488.000000,743.711975
550.463989,486.048004,739.807983
560.223999,482.144012,735.903992
554.367981,472.384003,741.760010
554.367981,478.239990,747.616028
552.416016,476.287994,737.856018
550.463989,482.144012,741.760010
542.656006,476.287994,743.711975
550.463989,476.287994,741.760010
548.512024,476.287994,741.760010
550.463989,480.191986,737.856018
548.512024,476.287994,743.711975
556.320007,482.144012,743.711975
560.223999,476.287994,745.664001
546.559998,466.528015,755.424011
548.512024,476.287994,747.616028
548.512024,472.384003,749.567993
554.367981,460.671997,751.520020
552.416016,468.480011,749.567993
556.320007,470.432007,753.471985
554.367981,474.335999,757.375977
562.176025,468.480011,759.328003
556.320007,468.480011,753.471985
554.367981,468.480011,759.328003
552.416016,464.575989,753.471985
554.367981,460.671997,741.760010
556.320007,470.432007,745.664001
556.320007,468.480011,763.231995
554.367981,472.384003,751.520020
554.367981,470.432007,751.520020
548.512024,472.384003,749.567993
548.512024,474.335999,751.520020
556.320007,474.335999,747.616028
552.416016,468.480011,751.520020
548.512024,478.239990,747.616028
556.320007,468.480011,759.328003
550.463989,462.623993,759.328003
546.559998,460.671997,751.520020
550.463989,470.432007,743.711975
546.559998,468.480011,747.616028
558.271973,466.528015,753.471985
548.512024,470.432007,755.424011
550.463989,468.480011,759.328003
556.320007,468.480011,763.231995
556.320007,468.480011,759.328003
558.271973,476.287994,755.424011
554.367981,470.432007,751.520020
552.416016,470.432007,759.328003
552.416016,476.287994,759.328003
546.559998,468.480011,745.664001
546.559998,468.480011,747.616028
552.416016,478.239990,759.328003
544.607971,470.432007,751.520020
554.367981,482.144012,755.424011
548.512024,472.384003,755.424011
534.848022,476.287994,751.520020
550.463989,478.239990,743.711975
536.799988,474.335999,745.664001
548.512024,474.335999,741.760010
550.463989,476.287994,747.616028
544.607971,486.048004,751.520020
542.656006,478.239990,751.520020
548.512024,478.239990,741.760010
540.703979,480.191986,737.856018
546.559998,474.335999,747.616028
542.656006,474.335999,739.807983
546.559998,478.239990,735.903992
540.703979,472.384003,739.807983
538.752014,482.144012,741.760010
540.703979,482.144012,739.807983
538.752014,476.287994,737.856018
542.656006,474.335999,728.096008
544.607971,478.239990,726.143982
544.607971,484.096008,730.047974
540.703979,476.287994,720.288025
542.656006,476.287994,716.383972
538.752014,486.048004,722.239990
542.656006,488.000000,720.288025
536.799988,476.287994,720.288025
534.848022,474.335999,712.479980
536.799988,478.239990,716.383972
538.752014,484.096008,718.335999
544.607971,486.048004,710.528015
536.799988,491.903992,708.575989
548.512024,491.903992,706.624023
540.703979,493.855988,712.479980
540.703979,495.808014,706.624023
544.607971,491.903992,712.479980
546.559998,488.000000,712.479980
548.512024,480.191986,700.768005
544.607971,489.951996,708.575989
536.799988,488.000000,702.719971
544.607971,488.000000,706.624023
542.656006,489.951996,698.815979
540.703979,478.239990,702.719971
550.463989,480.191986,702.719971
552.416016,482.144012,698.815979
542.656006,484.096008,706.624023
546.559998,478.239990,702.719971
552.416016,486.048004,698.815979
542.656006,476.287994,710.528015
544.607971,478.239990,698.815979
540.703979,478.239990,700.768005
546.559998,478.239990,700.768005
542.656006,466.528015,702.719971
556.320007,460.671997,716.383972
552.416016,470.432007,710.528015
552.416016,472.384003,708.575989
550.463989,470.432007,704.671997
550.463989,470.432007,700.768005
550.463989,474.335999,708.575989
558.271973,468.480011,702.719971
548.512024,464.575989,702.719971
556.320007,464.575989,716.383972
560.223999,462.623993,708.575989
556.320007,456.768005,700.768005
554.367981,466.528015,710.528015
564.127991,454.816010,702.719971
552.416016,464.575989,710.528015
552.416016,460.671997,708.575989
558.271973,458.720001,710.528015
558.271973,456.768005,706.624023
554.367981,458.720001,710.528015
558.271973,454.816010,704.671997
562.176025,454.816010,700.768005
554.367981,454.816010,710.528015
560.223999,448.959991,706.624023
560.223999,452.864014,712.479980
560.223999,452.864014,706.624023
560.223999,448.959991,706.624023
556.320007,450.911987,712.479980
560.223999,450.911987,714.432007
554.367981,458.720001,714.432007
560.223999,450.911987,714.432007
556.320007,445.056000,714.432007
556.320007,441.152008,706.624023
562.176025,443.104004,720.288025
556.320007,441.152008,716.383972
548.512024,447.007996,708.575989
550.463989,447.007996,712.479980
556.320007,445.056000,712.479980
548.512024,439.200012,706.624023
548.512024,443.104004,712.479980
552.416016,431.391998,706.624023
554.367981,439.200012,714.432007
556.320007,437.247986,708.575989
546.559998,439.200012,708.575989
542.656006,443.104004,716.383972
540.703979,447.007996,710.528015
534.848022,439.200012,722.239990
548.512024,443.104004,720.288025
540.703979,437.247986,716.383972
538.752014,443.104004,720.288025
540.703979,445.056000,722.239990
536.799988,441.152008,720.288025
540.703979,435.295990,718.335999
544.607971,437.247986,716.383972
530.943970,450.911987,714.432007
528.992004,439.200012,712.479980
534.848022,433.343994,714.432007
527.039978,433.343994,714.432007
527.039978,439.200012,720.288025
525.088013,447.007996,712.479980
534.848022,429.440002,718.335999
519.231995,439.200012,718.335999
532.895996,433.343994,716.383972
527.039978,433.343994,716.383972
530.943970,441.152008,714.432007
532.895996,425.536011,716.383972
525.088013,429.440002,722.239990
519.231995,433.343994,728.096008
527.039978,425.536011,722.239990
530.943970,429.440002,728.096008
528.992004,429.440002,722.239990
521.184021,435.295990,739.807983
523.135986,425.536011,726.143982
525.088013,431.391998,735.903992
517.280029,433.343994,726.143982
521.184021,435.295990,737.856018
530.943970,431.391998,732.000000
525.088013,425.536011,728.096008
527.039978,431.391998,733.952026
527.039978,423.584015,737.856018
525.088013,427.488007,730.047974
525.088013,437.247986,735.903992
523.135986,431.391998,739.807983
532.895996,431.391998,735.903992
528.992004,427.488007,741.760010
532.895996,425.536011,743.711975
528.992004,439.200012,741.760010
532.895996,433.343994,741.760010
532.895996,431.391998,743.711975
527.039978,427.488007,741.760010
528.992004,427.488007,739.807983
525.088013,427.488007,747.616028
532.895996,439.200012,741.760010
527.039978,433.343994,739.807983
528.992004,435.295990,733.952026
528.992004,421.631989,743.711975
532.895996,429.440002,739.807983
519.231995,433.343994,730.047974
525.088013,431.391998,739.807983
525.088013,435.295990,728.096008
525.088013,435.295990,732.000000
525.088013,437.247986,728.096008
525.088013,425.536011,739.807983
519.231995,435.295990,739.807983
515.328003,441.152008,728.096008
532.895996,439.200012,741.760010
525.088013,437.247986,733.952026
519.231995,433.343994,732.000000
513.375977,439.200012,730.047974
521.184021,445.056000,732.000000
523.135986,435.295990,722.239990
515.328003,437.247986,724.192017
523.135986,443.104004,732.000000
525.088013,437.247986,728.096008
515.328003,445.056000,735.903992
525.088013,435.295990,728.096008
523.135986,443.104004,726.143982
521.184021,441.152008,732.000000
513.375977,443.104004,718.335999
511.424011,439.200012,726.143982
515.328003,450.911987,726.143982
523.135986,445.056000,724.192017
513.375977,448.959991,722.239990
521.184021,445.056000,726.143982
515.328003,448.959991,726.143982
527.039978,445.056000,726.143982
523.135986,445.056000,726.143982
523.135986,454.816010,730.047974
528.992004,450.911987,732.000000
523.135986,448.959991,735.903992
527.039978,454.816010,735.903992
527.039978,448.959991,726.143982
523.135986,447.007996,726.143982
513.375977,452.864014,728.096008
525.088013,460.671997,728.096008
515.328003,468.480011,726.143982
519.231995,460.671997,739.807983
523.135986,448.959991,728.096008
525.088013,456.768005,728.096008
527.039978,456.768005,726.143982
532.895996,468.480011,726.143982
528.992004,458.720001,735.903992
519.231995,464.575989,732.000000
528.992004,454.816010,724.192017
536.799988,466.528015,732.000000
528.992004,462.623993,733.952026
525.088013,466.528015,733.952026
528.992004,458.720001,737.856018
534.848022,462.623993,724.192017
536.799988,464.575989,726.143982
534.848022,462.623993,724.192017
530.943970,462.623993,730.047974
525.088013,466.528015,728.096008
530.943970,470.432007,722.239990
536.799988,466.528015,730.047974
540.703979,452.864014,728.096008
530.943970,466.528015,732.000000
530.943970,456.768005,730.047974
534.848022,458.720001,730.047974
538.752014,466.528015,730.047974
530.943970,462.623993,724.192017
538.752014,470.432007,730.047974
536.799988,464.575989,730.047974
542.656006,466.528015,735.903992
534.848022,474.335999,724.192017
540.703979,466.528015,724.192017
536.799988,462.623993,722.239990
534.848022,460.671997,739.807983
538.752014,464.575989,735.903992
536.799988,466.528015,726.143982
536.799988,460.671997,726.143982
540.703979,452.864014,722.239990
538.752014,462.623993,726.143982
542.656006,460.671997,726.143982
542.656006,462.623993,726.143982
538.752014,452.864014,739.807983
548.512024,460.671997,737.856018
544.607971,470.432007,726.143982
544.607971,456.768005,720.288025
546.559998,460.671997,728.096008
542.656006,462.623993,724.192017
542.656006,464.575989,726.143982
544.607971,466.528015,726.143982
538.752014,468.480011,714.432007
546.559998,462.623993,714.432007
556.320007,468.480011,724.192017
550.463989,456.768005,722.239990
554.367981,466.528015,718.335999
550.463989,468.480011,728.096008
546.559998,466.528015,716.383972
550.463989,474.335999,728.096008
542.656006,464.575989,726.143982
546.559998,462.623993,726.143982
552.416016,472.384003,732.000000
556.320007,476.287994,722.239990
550.463989,470.432007,726.143982
554.367981,470.432007,718.335999
550.463989,478.239990,724.192017
558.271973,474.335999,716.383972
556.320007,478.239990,724.192017
558.271973,478.239990,718.335999
562.176025,470.432007,714.432007
554.367981,476.287994,712.479980
558.271973,480.191986,712.479980
554.367981,474.335999,706.624023
560.223999,472.384003,714.432007
556.320007,476.287994,712.479980
556.320007,472.384003,712.479980
558.271973,462.623993,712.479980
556.320007,464.575989,710.528015
556.320007,470.432007,716.383972
554.367981,472.384003,708.575989
554.367981,468.480011,694.911987
552.416016,474.335999,694.911987
556.320007,468.480011,702.719971
554.367981,474.335999,704.671997
550.463989,468.480011,700.768005
546.559998,470.432007,700.768005
554.367981,474.335999,700.768005
542.656006,470.432007,694.911987
556.320007,468.480011,700.768005
550.463989,460.671997,696.864014
552.416016,466.528015,702.719971
550.463989,452.864014,694.911987
542.656006,458.720001,694.911987
548.512024,462.623993,694.911987
546.559998,466.528015,692.960022
542.656006,460.671997,700.768005
542.656006,466.528015,692.960022
540.703979,460.671997,694.911987
540.703979,452.864014,696.864014
536.799988,458.720001,692.960022
544.607971,462.623993,687.104004
548.512024,454.816010,689.056030
542.656006,458.720001,692.960022
538.752014,448.959991,689.056030
538.752014,456.768005,689.056030
536.799988,452.864014,694.911987
536.799988,462.623993,692.960022
540.703979,456.768005,687.104004
538.752014,460.671997,675.392029
540.703979,445.056000,689.056030
528.992004,456.768005,694.911987
540.703979,456.768005,681.247986
530.943970,452.864014,687.104004
542.656006,448.959991,685.151978
530.943970,450.911987,679.296021
536.799988,454.816010,685.151978
536.799988,452.864014,675.392029
534.848022,454.816010,681.247986
523.135986,454.816010,675.392029
523.135986,450.911987,683.200012
519.231995,445.056000,679.296021
528.992004,447.007996,673.440002
519.231995,433.343994,677.343994
523.135986,445.056000,667.583984
523.135986,439.200012,679.296021
519.231995,443.104004,681.247986
523.135986,445.056000,673.440002
517.280029,454.816010,681.247986
521.184021,454.816010,683.200012
517.280029,450.911987,683.200012
515.328003,445.056000,675.392029
513.375977,450.911987,679.296021
525.088013,447.007996,681.247986
517.280029,439.200012,671.487976
509.471985,450.911987,677.343994
519.231995,443.104004,671.487976
511.424011,445.056000,677.343994
517.280029,437.247986,677.343994
513.375977,437.247986,675.392029
507.519989,435.295990,675.392029
513.375977,445.056000,677.343994
511.424011,447.007996,681.247986
517.280029,437.247986,679.296021
507.519989,445.056000,679.296021
513.375977,437.247986,681.247986
511.424011,443.104004,679.296021
505.567993,454.816010,679.296021
511.424011,443.104004,679.296021
511.424011,445.056000,683.200012
519.231995,445.056000,689.056030
519.231995,447.007996,692.960022
517.280029,450.911987,691.007996
515.328003,437.247986,687.104004
515.328003,439.200012,689.056030
513.375977,431.391998,689.056030
515.328003,433.343994,675.392029
509.471985,431.391998,675.392029
513.375977,431.391998,683.200012
515.328003,425.536011,685.151978
515.328003,437.247986,681.247986
517.280029,425.536011,671.487976
509.471985,423.584015,683.200012
515.328003,421.631989,696.864014
517.280029,429.440002,692.960022
515.328003,425.536011,683.200012
519.231995,421.631989,689.056030
519.231995,425.536011,696.864014
517.280029,425.536011,700.768005
519.231995,435.295990,702.719971
528.992004,425.536011,700.768005
532.895996,421.631989,698.815979
528.992004,429.440002,710.528015
525.088013,431.391998,698.815979
525.088013,421.631989,714.432007
538.752014,423.584015,710.528015
538.752014,417.727997,702.719971
534.848022,429.440002,716.383972
530.943970,421.631989,712.479980
528.992004,421.631989,712.479980
540.703979,415.776001,708.575989
536.799988,419.679993,698.815979
544.607971,419.679993,700.768005
534.848022,417.727997,702.719971
550.463989,425.536011,702.719971
542.656006,429.440002,704.671997
546.559998,431.391998,712.479980
552.416016,427.488007,710.528015
546.559998,423.584015,712.479980
562.176025,419.679993,716.383972
558.271973,427.488007,714.432007
556.320007,421.631989,720.288025
558.271973,421.631989,718.335999
554.367981,421.631989,710.528015
560.223999,417.727997,718.335999
564.127991,411.872009,724.192017
554.367981,409.920013,722.239990
564.127991,411.872009,726.143982
562.176025,415.776001,718.335999
554.367981,419.679993,718.335999
562.176025,419.679993,718.335999
571.935974,411.872009,716.383972
569.984009,413.824005,714.432007
562.176025,417.727997,708.575989
568.031982,423.584015,710.528015
558.271973,415.776001,714.432007
571.935974,413.824005,716.383972
558.271973,425.536011,722.239990
564.127991,411.872009,724.192017
569.984009,409.920013,726.143982
558.271973,407.967987,720.288025
566.080017,423.584015,720.288025
562.176025,413.824005,724.192017
568.031982,407.967987,724.192017
566.080017,409.920013,728.096008
571.935974,407.967987,728.096008
569.984009,417.727997,722.239990
569.984009,411.872009,716.383972
562.176025,419.679993,716.383972
564.127991,423.584015,716.383972
560.223999,421.631989,712.479980
568.031982,425.536011,728.096008
568.031982,419.679993,720.288025
566.080017,425.536011,716.383972
564.127991,427.488007,720.288025
568.031982,419.679993,718.335999
568.031982,419.679993,722.239990
562.176025,417.727997,716.383972
569.984009,431.391998,712.479980
568.031982,427.488007,716.383972
562.176025,427.488007,720.288025
566.080017,421.631989,722.239990
569.984009,435.295990,726.143982
566.080017,433.343994,722.239990
568.031982,439.200012,712.479980
571.935974,421.631989,708.575989
566.080017,431.391998,706.624023
558.271973,429.440002,710.528015
564.127991,429.440002,716.383972
566.080017,433.343994,714.432007
560.223999,439.200012,720.288025
558.271973,437.247986,726.143982
558.271973,429.440002,722.239990
556.320007,433.343994,720.288025
558.271973,439.200012,724.192017
571.935974,425.536011,718.335999
566.080017,437.247986,716.383972
564.127991,429.440002,720.288025
571.935974,435.295990,718.335999
568.031982,425.536011,722.239990
554.367981,439.200012,722.239990
566.080017,431.391998,724.192017
568.031982,429.440002,726.143982
558.271973,429.440002,714.432007
568.031982,437.247986,722.239990
564.127991,437.247986,724.192017
569.984009,429.440002,732.000000
566.080017,441.152008,728.096008
564.127991,441.152008,720.288025
568.031982,431.391998,728.096008
566.080017,431.391998,716.383972
568.031982,431.391998,724.192017
568.031982,427.488007,724.192017
562.176025,421.631989,743.711975
568.031982,427.488007,730.047974
564.127991,417.727997,730.047974
571.935974,427.488007,730.047974
564.127991,425.536011,732.000000
569.984009,435.295990,730.047974
573.888000,429.440002,732.000000
568.031982,427.488007,730.047974
568.031982,427.488007,735.903992
569.984009,431.391998,726.143982
560.223999,425.536011,732.000000
562.176025,431.391998,728.096008
562.176025,433.343994,730.047974
568.031982,435.295990,728.096008
569.984009,439.200012,730.047974
568.031982,435.295990,720.288025
571.935974,439.200012,722.239990
569.984009,427.488007,726.143982
566.080017,427.488007,730.047974
560.223999,423.584015,730.047974
569.984009,429.440002,726.143982
566.080017,419.679993,733.952026
569.984009,425.536011,745.664001
568.031982,427.488007,730.047974
569.984009,435.295990,735.903992
571.935974,427.488007,732.000000
573.888000,433.343994,732.000000
569.984009,427.488007,732.000000
568.031982,433.343994,724.192017
575.840027,431.391998,720.288025
569.984009,433.343994,726.143982
566.080017,429.440002,714.432007
560.223999,425.536011,722.239990
566.080017,429.440002,720.288025
562.176025,433.343994,728.096008
564.127991,435.295990,733.952026
568.031982,427.488007,732.000000
568.031982,427.488007,724.192017
562.176025,425.536011,732.000000
556.320007,429.440002,728.096008
558.271973,429.440002,722.239990
568.031982,425.536011,732.000000
560.223999,421.631989,724.192017
562.176025,421.631989,726.143982
568.031982,435.295990,730.047974
560.223999,425.536011,722.239990
558.271973,417.727997,724.192017
556.320007,425.536011,730.047974
564.127991,423.584015,726.143982
564.127991,427.488007,737.856018
554.367981,429.440002,733.952026
556.320007,425.536011,726.143982
554.367981,421.631989,722.239990
556.320007,433.343994,722.239990
550.463989,425.536011,728.096008
556.320007,423.584015,722.239990
550.463989,421.631989,718.335999
562.176025,421.631989,724.192017
550.463989,425.536011,728.096008
554.367981,419.679993,724.192017
554.367981,433.343994,714.432007
550.463989,427.488007,724.192017
558.271973,425.536011,706.624023
556.320007,425.536011,722.239990
546.559998,425.536011,716.383972
550.463989,429.440002,728.096008
554.367981,431.391998,710.528015
544.607971,429.440002,716.383972
546.559998,433.343994,714.432007
542.656006,435.295990,712.479980
554.367981,429.440002,714.432007
554.367981,433.343994,716.383972
552.416016,431.391998,710.528015
552.416016,429.440002,714.432007
542.656006,439.200012,724.192017
542.656006,433.343994,718.335999
544.607971,437.247986,720.288025
540.703979,433.343994,706.624023
540.703979,435.295990,714.432007
544.607971,425.536011,716.383972
540.703979,435.295990,712.479980
540.703979,425.536011,712.479980
546.559998,429.440002,718.335999
544.607971,433.343994,720.288025
548.512024,439.200012,718.335999
552.416016,437.247986,712.479980
546.559998,439.200012,710.528015
548.512024,431.391998,712.479980
546.559998,435.295990,722.239990
548.512024,425.536011,708.575989
554.367981,433.343994,718.335999
560.223999,441.152008,714.432007
554.367981,429.440002,718.335999
554.367981,433.343994,722.239990
556.320007,429.440002,718.335999
554.367981,435.295990,714.432007
554.367981,429.440002,722.239990
552.416016,437.247986,714.432007
554.367981,439.200012,714.432007
550.463989,441.152008,718.335999
562.176025,437.247986,720.288025
556.320007,437.247986,722.239990
552.416016,433.343994,720.288025
554.367981,443.104004,726.143982
554.367981,433.343994,720.288025
558.271973,435.295990,728.096008
566.080017,439.200012,714.432007
562.176025,437.247986,732.000000
566.080017,437.247986,732.000000
564.127991,437.247986,722.239990
566.080017,431.391998,726.143982
569.984009,441.152008,728.096008
571.935974,437.247986,716.383972
562.176025,447.007996,726.143982
562.176025,435.295990,726.143982
566.080017,443.104004,718.335999
564.127991,441.152008,726.143982
558.271973,443.104004,728.096008
568.031982,439.200012,726.143982
569.984009,447.007996,720.288025
573.888000,450.911987,722.239990
571.935974,447.007996,728.096008
569.984009,447.007996,720.288025
568.031982,437.247986,720.288025
564.127991,441.152008,728.096008
564.127991,437.247986,726.143982
558.271973,439.200012,722.239990
569.984009,443.104004,720.288025
566.080017,441.152008,732.000000
564.127991,437.247986,728.096008
562.176025,437.247986,730.047974
564.127991,448.959991,728.096008
562.176025,441.152008,724.192017
562.176025,447.007996,718.335999
560.223999,450.911987,724.192017
564.127991,443.104004,726.143982
566.080017,454.816010,726.143982
568.031982,448.959991,720.288025
558.271973,452.864014,720.288025
564.127991,452.864014,716.383972
568.031982,450.911987,712.479980
562.176025,450.911987,720.288025
562.176025,452.864014,714.432007
562.176025,456.768005,728.096008
550.463989,454.816010,732.000000
560.223999,462.623993,726.143982
560.223999,458.720001,720.288025
558.271973,458.720001,716.383972
554.367981,462.623993,722.239990
558.271973,450.911987,716.383972
554.367981,460.671997,720.288025
552.416016,462.623993,724.192017
554.367981,462.623993,710.528015
552.416016,458.720001,720.288025
556.320007,462.623993,726.143982
550.463989,456.768005,722.239990
554.367981,470.432007,710.528015
552.416016,470.432007,710.528015
544.607971,456.768005,716.383972
540.703979,464.575989,712.479980
540.703979,474.335999,712.479980
542.656006,478.239990,708.575989
538.752014,476.287994,710.528015
542.656006,468.480011,712.479980
542.656006,476.287994,708.575989
540.703979,470.432007,716.383972
542.656006,472.384003,704.671997
546.559998,474.335999,704.671997
532.895996,470.432007,710.528015
532.895996,474.335999,706.624023
532.895996,470.432007,710.528015
532.895996,482.144012,724.192017
530.943970,478.239990,716.383972
530.943970,470.432007,706.624023
530.943970,468.480011,708.575989
530.943970,482.144012,712.479980
527.039978,464.575989,710.528015
525.088013,470.432007,708.575989
540.703979,466.528015,712.479980
527.039978,462.623993,710.528015
536.799988,474.335999,720.288025
534.848022,468.480011,712.479980
530.943970,476.287994,712.479980
528.992004,464.575989,722.239990
525.088013,478.239990,718.335999
532.895996,460.671997,714.432007
536.799988,474.335999,716.383972
540.703979,468.480011,716.383972
530.943970,474.335999,722.239990
544.607971,468.480011,712.479980
536.799988,474.335999,718.335999
530.943970,476.287994,712.479980
530.943970,472.384003,712.479980
527.039978,464.575989,720.288025
538.752014,462.623993,718.335999
530.943970,470.432007,722.239990
534.848022,466.528015,710.528015
534.848022,464.575989,710.528015
544.607971,464.575989,718.335999
540.703979,468.480011,724.192017
532.895996,474.335999,726.143982
530.943970,474.335999,720.288025
532.895996,460.671997,716.383972
532.895996,464.575989,720.288025
525.088013,472.384003,718.335999
528.992004,468.480011,720.288025
534.848022,470.432007,716.383972
540.703979,466.528015,718.335999
540.703979,468.480011,716.383972
530.943970,474.335999,722.239990
536.799988,474.335999,716.383972
527.039978,470.432007,714.432007
532.895996,478.239990,718.335999
536.799988,474.335999,716.383972
536.799988,462.623993,720.288025
527.039978,470.432007,712.479980
530.943970,464.575989,712.479980
525.088013,462.623993,722.239990
538.752014,474.335999,716.383972
534.848022,468.480011,712.479980
536.799988,468.480011,710.528015
544.607971,460.671997,726.143982
538.752014,468.480011,720.288025
540.703979,466.528015,718.335999
552.416016,460.671997,716.383972
540.703979,464.575989,714.432007
538.752014,460.671997,718.335999
540.703979,456.768005,714.432007
540.703979,466.528015,718.335999
544.607971,470.432007,726.143982
536.799988,464.575989,726.143982
536.799988,464.575989,726.143982
540.703979,468.480011,718.335999
542.656006,458.720001,722.239990
542.656006,466.528015,716.383972
540.703979,466.528015,726.143982
540.703979,456.768005,724.192017
544.607971,462.623993,712.479980
542.656006,460.671997,726.143982
540.703979,458.720001,724.192017
540.703979,456.768005,724.192017
538.752014,464.575989,726.143982
544.607971,462.623993,718.335999
544.607971,464.575989,724.192017
540.703979,456.768005,718.335999
538.752014,460.671997,724.192017
548.512024,454.816010,720.288025
548.512024,458.720001,726.143982
552.416016,464.575989,716.383972
554.367981,452.864014,722.239990
554.367981,452.864014,726.143982
554.367981,462.623993,726.143982
552.416016,460.671997,720.288025
550.463989,470.432007,726.143982
554.367981,462.623993,728.096008
554.367981,454.816010,724.192017
550.463989,452.864014,712.479980
554.367981,468.480011,722.239990
548.512024,460.671997,724.192017
556.320007,464.575989,722.239990
554.367981,470.432007,710.528015
552.416016,454.816010,726.143982
556.320007,472.384003,724.192017
554.367981,466.528015,720.288025
542.656006,470.432007,712.479980
556.320007,456.768005,722.239990
556.320007,462.623993,722.239990
552.416016,466.528015,714.432007
554.367981,464.575989,714.432007
550.463989,458.720001,716.383972
556.320007,456.768005,722.239990
556.320007,452.864014,714.432007
550.463989,474.335999,714.432007
552.416016,462.623993,712.479980
548.512024,454.816010,710.528015
546.559998,462.623993,712.479980
546.559998,460.671997,712.479980
554.367981,470.432007,716.383972
560.223999,464.575989,710.528015
554.367981,470.432007,714.432007
556.320007,456.768005,722.239990
550.463989,458.720001,714.432007
546.559998,468.480011,714.432007
552.416016,452.864014,710.528015
546.559998,464.575989,716.383972
554.367981,462.623993,716.383972
556.320007,450.911987,716.383972
544.607971,454.816010,710.528015
552.416016,447.007996,716.383972
544.607971,454.816010,716.383972
550.463989,450.911987,712.479980
556.320007,447.007996,714.432007
556.320007,450.911987,716.383972
550.463989,450.911987,716.383972
540.703979,441.152008,720.288025
548.512024,447.007996,718.335999
554.367981,445.056000,726.143982
548.512024,452.864014,718.335999
544.607971,450.911987,720.288025
552.416016,450.911987,728.096008
548.512024,448.959991,724.192017
548.512024,454.816010,722.239990
542.656006,448.959991,714.432007
544.607971,447.007996,728.096008
544.607971,448.959991,722.239990
546.559998,450.911987,722.239990
540.703979,447.007996,726.143982
542.656006,447.007996,722.239990
536.799988,452.864014,726.143982
538.752014,445.056000,720.288025
546.559998,448.959991,720.288025
544.607971,437.247986,718.335999
540.703979,447.007996,728.096008
554.367981,439.200012,716.383972
544.607971,439.200012,722.239990
538.752014,439.200012,730.047974
544.607971,437.247986,718.335999
540.703979,437.247986,714.432007
544.607971,441.152008,728.096008
550.463989,433.343994,726.143982
546.559998,435.295990,724.192017
540.703979,435.295990,724.192017
540.703979,441.152008,728.096008
548.512024,443.104004,741.760010
550.463989,443.104004,733.952026
540.703979,439.200012,730.047974
546.559998,437.247986,726.143982
544.607971,435.295990,735.903992
542.656006,431.391998,737.856018
548.512024,431.391998,726.143982
548.512024,439.200012,726.143982
538.752014,435.295990,726.143982
536.799988,429.440002,726.143982
542.656006,427.488007,739.807983
542.656006,433.343994,726.143982
542.656006,429.440002,726.143982
546.559998,431.391998,743.711975
546.559998,439.200012,726.143982
540.703979,421.631989,732.000000
538.752014,429.440002,735.903992
542.656006,433.343994,737.856018
540.703979,437.247986,743.711975
538.752014,429.440002,730.047974
544.607971,429.440002,739.807983
546.559998,427.488007,724.192017
540.703979,421.631989,728.096008
540.703979,435.295990,726.143982
542.656006,429.440002,726.143982
542.656006,431.391998,732.000000
538.752014,431.391998,730.047974
550.463989,425.536011,730.047974
548.512024,423.584015,739.807983
542.656006,433.343994,735.903992
544.607971,431.391998,737.856018
540.703979,431.391998,743.711975
536.799988,433.343994,726.143982
538.752014,441.152008,737.856018
530.943970,435.295990,733.952026
536.799988,431.391998,739.807983
538.752014,439.200012,735.903992
542.656006,427.488007,726.143982
538.752014,429.440002,730.047974
540.703979,439.200012,741.760010
540.703979,425.536011,743.711975
540.703979,439.200012,730.047974
540.703979,433.343994,745.664001
542.656006,439.200012,737.856018
538.752014,435.295990,743.711975
536.799988,427.488007,743.711975
538.752014,429.440002,743.711975
538.752014,427.488007,730.047974
532.895996,425.536011,733.952026
538.752014,427.488007,737.856018
544.607971,431.391998,749.567993
538.752014,433.343994,735.903992
530.943970,433.343994,743.711975
532.895996,435.295990,741.760010
532.895996,439.200012,741.760010
544.607971,433.343994,747.616028
542.656006,437.247986,743.711975
534.848022,437.247986,737.856018
536.799988,447.007996,741.760010
544.607971,437.247986,743.711975
540.703979,433.343994,743.711975
540.703979,439.200012,732.000000
528.992004,431.391998,733.952026
540.703979,437.247986,741.760010
538.752014,439.200012,743.711975
532.895996,441.152008,739.807983
536.799988,445.056000,733.952026
530.943970,433.343994,737.856018
532.895996,443.104004,730.047974
532.895996,439.200012,747.616028
532.895996,433.343994,737.856018
532.895996,437.247986,743.711975
534.848022,435.295990,735.903992
528.992004,437.247986,732.000000
528.992004,437.247986,735.903992
540.703979,445.056000,722.239990
525.088013,443.104004,730.047974
528.992004,443.104004,728.096008
532.895996,447.007996,732.000000
528.992004,441.152008,743.711975
532.895996,447.007996,728.096008
527.039978,454.816010,730.047974
532.895996,443.104004,735.903992
528.992004,435.295990,735.903992
527.039978,443.104004,730.047974
540.703979,447.007996,730.047974
527.039978,439.200012,745.664001
527.039978,443.104004,737.856018
532.895996,439.200012,739.807983
530.943970,450.911987,724.192017
530.943970,450.911987,726.143982
528.992004,447.007996,737.856018
530.943970,447.007996,733.952026
523.135986,448.959991,726.143982
532.895996,439.200012,722.239990
530.943970,447.007996,743.711975
532.895996,448.959991,726.143982
530.943970,450.911987,726.143982
527.039978,445.056000,735.903992
523.135986,445.056000,730.047974
527.039978,445.056000,730.047974
527.039978,448.959991,726.143982
527.039978,450.911987,724.192017
523.135986,447.007996,726.143982
523.135986,437.247986,726.143982
523.135986,443.104004,718.335999
528.992004,437.247986,722.239990
521.184021,445.056000,732.000000
532.895996,439.200012,720.288025
525.088013,447.007996,724.192017
519.231995,441.152008,714.432007
525.088013,450.911987,724.192017
528.992004,437.247986,728.096008
519.231995,435.295990,720.288025
519.231995,431.391998,722.239990
515.328003,427.488007,728.096008
523.135986,433.343994,722.239990
515.328003,439.200012,720.288025
517.280029,441.152008,726.143982
521.184021,439.200012,720.288025
521.184021,431.391998,722.239990
519.231995,433.343994,732.000000
523.135986,437.247986,726.143982
523.135986,425.536011,728.096008
525.088013,435.295990,722.239990
527.039978,431.391998,722.239990
525.088013,435.295990,728.096008
525.088013,435.295990,735.903992
519.231995,427.488007,728.096008
523.135986,425.536011,735.903992
519.231995,435.295990,728.096008
527.039978,435.295990,728.096008
528.992004,425.536011,722.239990
523.135986,429.440002,722.239990
528.992004,421.631989,718.335999
521.184021,419.679993,726.143982
527.039978,423.584015,733.952026
521.184021,423.584015,735.903992
525.088013,427.488007,737.856018
527.039978,423.584015,726.143982
523.135986,423.584015,733.952026
525.088013,425.536011,735.903992
521.184021,417.727997,726.143982
519.231995,427.488007,726.143982
523.135986,433.343994,733.952026
525.088013,431.391998,732.000000
521.184021,427.488007,733.952026
513.375977,427.488007,722.239990
511.424011,421.631989,722.239990
517.280029,429.440002,726.143982
527.039978,417.727997,724.192017
521.184021,425.536011,718.335999
519.231995,423.584015,722.239990
527.039978,425.536011,728.096008
523.135986,425.536011,728.096008
528.992004,425.536011,726.143982
528.992004,433.343994,722.239990
521.184021,425.536011,726.143982
517.280029,427.488007,724.192017
519.231995,421.631989,718.335999
525.088013,429.440002,728.096008
523.135986,423.584015,726.143982
523.135986,423.584015,730.047974
523.135986,423.584015,730.047974
525.088013,439.200012,724.192017
525.088013,437.247986,730.047974
527.039978,417.727997,726.143982
521.184021,425.536011,726.143982
523.135986,423.584015,726.143982
528.992004,423.584015,730.047974
525.088013,419.679993,735.903992
530.943970,425.536011,728.096008
528.992004,425.536011,730.047974
528.992004,423.584015,730.047974
528.992004,423.584015,726.143982
536.799988,427.488007,726.143982
525.088013,431.391998,728.096008
523.135986,423.584015,726.143982
527.039978,419.679993,724.192017
527.039978,425.536011,732.000000
527.039978,413.824005,726.143982
523.135986,423.584015,726.143982
527.039978,425.536011,724.192017
525.088013,425.536011,733.952026
523.135986,425.536011,730.047974
519.231995,427.488007,730.047974
532.895996,427.488007,722.239990
527.039978,417.727997,733.952026
519.231995,425.536011,728.096008
523.135986,423.584015,724.192017
519.231995,421.631989,716.383972
519.231995,421.631989,724.192017
515.328003,419.679993,728.096008
519.231995,425.536011,732.000000
525.088013,419.679993,718.335999
515.328003,427.488007,710.528015
521.184021,429.440002,724.192017
519.231995,425.536011,728.096008
513.375977,423.584015,724.192017
521.184021,427.488007,720.288025
517.280029,429.440002,724.192017
521.184021,431.391998,722.239990
517.280029,423.584015,720.288025
525.088013,433.343994,722.239990
517.280029,427.488007,724.192017
515.328003,427.488007,720.288025
521.184021,423.584015,718.335999
513.375977,431.391998,724.192017
517.280029,429.440002,718.335999
507.519989,425.536011,716.383972
509.471985,425.536011,724.192017
511.424011,425.536011,712.479980
509.471985,431.391998,724.192017
513.375977,425.536011,724.192017
509.471985,421.631989,722.239990
513.375977,425.536011,718.335999
503.615997,431.391998,714.432007
507.519989,413.824005,720.288025
509.471985,425.536011,718.335999
507.519989,425.536011,714.432007
511.424011,433.343994,724.192017
509.471985,429.440002,716.383972
507.519989,423.584015,710.528015
503.615997,413.824005,710.528015
503.615997,431.391998,716.383972
509.471985,429.440002,712.479980
503.615997,427.488007,712.479980
488.000000,421.631989,710.528015
499.712006,427.488007,718.335999
505.567993,431.391998,720.288025
507.519989,417.727997,716.383972
505.567993,425.536011,716.383972
499.712006,427.488007,712.479980
499.712006,421.631989,712.479980
499.712006,427.488007,716.383972
503.615997,425.536011,710.528015
493.855988,427.488007,712.479980
488.000000,421.631989,712.479980
505.567993,417.727997,716.383972
495.808014,421.631989,712.479980
495.808014,429.440002,710.528015
505.567993,429.440002,706.624023
495.808014,429.440002,714.432007
489.951996,427.488007,714.432007
491.903992,435.295990,708.575989
497.760010,433.343994,708.575989
495.808014,435.295990,710.528015
491.903992,435.295990,710.528015
488.000000,437.247986,710.528015
493.855988,437.247986,708.575989
491.903992,439.200012,710.528015
488.000000,445.056000,710.528015
493.855988,445.056000,712.479980
489.951996,447.007996,696.864014
491.903992,445.056000,702.719971
493.855988,450.911987,712.479980
499.712006,448.959991,712.479980
488.000000,454.816010,716.383972
495.808014,454.816010,716.383972
491.903992,466.528015,714.432007
495.808014,466.528015,710.528015
495.808014,474.335999,716.383972
491.903992,470.432007,710.528015
493.855988,464.575989,708.575989
495.808014,470.432007,710.528015
501.664001,464.575989,716.383972
489.951996,464.575989,706.624023
495.808014,466.528015,702.719971
491.903992,462.623993,714.432007
495.808014,458.720001,710.528015
493.855988,452.864014,710.528015
495.808014,462.623993,710.528015
495.808014,466.528015,708.575989
501.664001,464.575989,710.528015
497.760010,462.623993,700.768005
495.808014,450.911987,694.911987
503.615997,452.864014,708.575989
499.712006,460.671997,712.479980
505.567993,458.720001,706.624023
499.712006,464.575989,714.432007
495.808014,464.575989,720.288025
505.567993,452.864014,724.192017
501.664001,454.816010,726.143982
495.808014,458.720001,722.239990
509.471985,452.864014,722.239990
507.519989,454.816010,714.432007
517.280029,456.768005,720.288025
503.615997,458.720001,720.288025
509.471985,447.007996,718.335999
505.567993,454.816010,720.288025
503.615997,460.671997,718.335999
507.519989,458.720001,718.335999
507.519989,462.623993,724.192017
511.424011,466.528015,718.335999
509.471985,478.239990,726.143982
503.615997,468.480011,724.192017
511.424011,482.144012,733.952026
515.328003,478.239990,739.807983
515.328003,474.335999,741.760010
519.231995,482.144012,749.567993
525.088013,482.144012,747.616028
511.424011,476.287994,745.664001
521.184021,476.287994,755.424011
517.280029,474.335999,751.520020
513.375977,474.335999,747.616028
513.375977,474.335999,753.471985
519.231995,470.432007,747.616028
517.280029,474.335999,743.711975
507.519989,468.480011,741.760010
517.280029,474.335999,733.952026
517.280029,480.191986,741.760010
517.280029,478.239990,743.711975
509.471985,472.384003,732.000000
505.567993,472.384003,747.616028
507.519989,486.048004,745.664001
507.519989,476.287994,741.760010
513.375977,488.000000,745.664001
507.519989,480.191986,745.664001
503.615997,482.144012,739.807983
509.471985,476.287994,745.664001
507.519989,474.335999,741.760010
509.471985,464.575989,747.616028
501.664001,470.432007,747.616028
513.375977,468.480011,737.856018
505.567993,468.480011,730.047974
501.664001,464.575989,741.760010
505.567993,466.528015,732.000000
501.664001,452.864014,730.047974
491.903992,456.768005,730.047974
495.808014,468.480011,732.000000
493.855988,456.768005,733.952026
499.712006,464.575989,735.903992
499.712006,466.528015,739.807983
499.712006,456.768005,739.807983
499.712006,466.528015,739.807983
499.712006,458.720001,747.616028
499.712006,468.480011,751.520020
491.903992,470.432007,745.664001
495.808014,458.720001,741.760010
497.760010,468.480011,753.471985
493.855988,456.768005,753.471985
488.000000,448.959991,747.616028
493.855988,452.864014,743.711975
493.855988,441.152008,737.856018
488.000000,450.911987,743.711975
486.048004,443.104004,739.807983
484.096008,437.247986,743.711975
482.144012,437.247986,743.711975
474.335999,441.152008,728.096008
478.239990,439.200012,730.047974
464.575989,439.200012,722.239990
466.528015,445.056000,724.192017
462.623993,437.247986,728.096008
458.720001,439.200012,722.239990
456.768005,429.440002,728.096008
460.671997,433.343994,720.288025
460.671997,439.200012,714.432007
462.623993,435.295990,728.096008
460.671997,423.584015,730.047974
464.575989,423.584015,728.096008
460.671997,427.488007,710.528015
458.720001,431.391998,722.239990
458.720001,421.631989,714.432007
456.768005,423.584015,710.528015
454.816010,425.536011,722.239990
456.768005,417.727997,710.528015
454.816010,423.584015,710.528015
450.911987,425.536011,712.479980
443.104004,427.488007,706.624023
445.056000,425.536011,712.479980
458.720001,425.536011,700.768005
454.816010,429.440002,704.671997
443.104004,427.488007,706.624023
437.247986,425.536011,708.575989
437.247986,425.536011,702.719971
441.152008,425.536011,710.528015
445.056000,423.584015,704.671997
445.056000,415.776001,708.575989
437.247986,413.824005,708.575989
443.104004,406.015991,708.575989
439.200012,407.967987,710.528015
443.104004,409.920013,718.335999
437.247986,417.727997,716.383972
441.152008,423.584015,706.624023
441.152008,427.488007,702.719971
437.247986,425.536011,708.575989
435.295990,425.536011,704.671997
439.200012,435.295990,702.719971
437.247986,423.584015,694.911987
445.056000,431.391998,694.911987
435.295990,431.391998,691.007996
437.247986,431.391998,696.864014
435.295990,425.536011,696.864014
445.056000,431.391998,698.815979
439.200012,423.584015,694.911987
443.104004,427.488007,692.960022
439.200012,429.440002,696.864014
443.104004,427.488007,698.815979
450.911987,427.488007,698.815979
445.056000,429.440002,698.815979
448.959991,433.343994,694.911987
448.959991,435.295990,698.815979
454.816010,433.343994,694.911987
448.959991,439.200012,702.719971
452.864014,439.200012,696.864014
456.768005,439.200012,694.911987
462.623993,437.247986,696.864014
468.480011,443.104004,691.007996
470.432007,445.056000,692.960022
468.480011,445.056000,689.056030
466.528015,443.104004,694.911987
472.384003,437.247986,691.007996
480.191986,433.343994,694.911987
480.191986,435.295990,694.911987
486.048004,447.007996,692.960022
480.191986,443.104004,687.104004
480.191986,441.152008,694.911987
486.048004,437.247986,704.671997
497.760010,443.104004,694.911987
493.855988,445.056000,702.719971
503.615997,454.816010,692.960022
501.664001,454.816010,692.960022
497.760010,454.816010,694.911987
503.615997,458.720001,698.815979
501.664001,456.768005,692.960022
507.519989,460.671997,706.624023
507.519989,460.671997,696.864014
509.471985,464.575989,692.960022
509.471985,458.720001,696.864014
513.375977,462.623993,687.104004
515.328003,462.623993,683.200012
511.424011,462.623993,681.247986
517.280029,456.768005,679.296021
511.424011,454.816010,679.296021
513.375977,454.816010,679.296021
515.328003,452.864014,677.343994
513.375977,450.911987,671.487976
521.184021,445.056000,661.728027
521.184021,452.864014,665.632019
517.280029,458.720001,663.679993
523.135986,448.959991,669.536011
519.231995,454.816010,659.776001
519.231995,456.768005,665.632019
519.231995,464.575989,669.536011
525.088013,454.816010,665.632019
521.184021,452.864014,669.536011
519.231995,458.720001,669.536011
525.088013,456.768005,671.487976
527.039978,445.056000,661.728027
530.943970,448.959991,655.872009
525.088013,448.959991,653.919983
519.231995,447.007996,661.728027
523.135986,447.007996,655.872009
528.992004,450.911987,655.872009
525.088013,447.007996,650.015991
519.231995,443.104004,659.776001
517.280029,445.056000,648.064026
521.184021,441.152008,648.064026
515.328003,437.247986,653.919983
507.519989,448.959991,648.064026
511.424011,443.104004,648.064026
507.519989,447.007996,646.112000
511.424011,439.200012,642.208008
513.375977,441.152008,640.255981
509.471985,437.247986,644.159973
513.375977,439.200012,644.159973
513.375977,431.391998,644.159973
507.519989,439.200012,644.159973
505.567993,443.104004,648.064026
503.615997,437.247986,650.015991
503.615997,425.536011,653.919983
495.808014,427.488007,646.112000
507.519989,423.584015,651.968018
509.471985,431.391998,653.919983
499.712006,427.488007,644.159973
499.712006,419.679993,659.776001
499.712006,417.727997,653.919983
493.855988,409.920013,651.968018
493.855988,413.824005,657.823975
497.760010,413.824005,651.968018
491.903992,404.063995,648.064026
493.855988,415.776001,663.679993
501.664001,411.872009,669.536011
499.712006,409.920013,661.728027
493.855988,398.208008,669.536011
499.712006,400.160004,667.583984
497.760010,404.063995,667.583984
491.903992,392.351990,675.392029
491.903992,396.256012,679.296021
489.951996,400.160004,679.296021
484.096008,394.303986,683.200012
484.096008,392.351990,687.104004
488.000000,384.544006,685.151978
493.855988,384.544006,681.247986
486.048004,386.496002,691.007996
488.000000,382.592010,692.960022
478.239990,376.735992,696.864014
480.191986,380.640015,691.007996
486.048004,374.783997,689.056030
486.048004,374.783997,691.007996
486.048004,374.783997,691.007996
484.096008,370.880005,692.960022
484.096008,365.023987,691.007996
472.384003,368.928009,692.960022
468.480011,363.071991,696.864014
470.432007,361.119995,706.624023
478.239990,363.071991,694.911987
470.432007,365.023987,702.719971
478.239990,359.167999,708.575989
468.480011,361.119995,710.528015
472.384003,359.167999,708.575989
470.432007,363.071991,712.479980
464.575989,372.832001,710.528015
466.528015,351.359985,712.479980
466.528015,353.312012,720.288025
456.768005,353.312012,716.383972
460.671997,355.264008,706.624023
460.671997,357.216003,716.383972
462.623993,349.407990,708.575989
456.768005,353.312012,714.432007
460.671997,339.648010,714.432007
460.671997,335.743988,720.288025
458.720001,341.600006,720.288025
458.720001,329.888000,724.192017
458.720001,347.455994,722.239990
450.911987,333.791992,724.192017
456.768005,343.552002,728.096008
450.911987,339.648010,730.047974
452.864014,320.127991,732.000000
448.959991,327.936005,730.047974
460.671997,325.984009,730.047974
460.671997,327.936005,733.952026
454.816010,335.743988,726.143982
448.959991,333.791992,726.143982
452.864014,325.984009,730.047974
452.864014,325.984009,735.903992
452.864014,333.791992,728.096008
462.623993,324.032013,743.711975
452.864014,324.032013,733.952026
447.007996,331.839996,743.711975
450.911987,318.175995,741.760010
450.911987,318.175995,745.664001
454.816010,320.127991,739.807983
456.768005,320.127991,745.664001
462.623993,320.127991,743.711975
460.671997,316.223999,733.952026
464.575989,318.175995,737.856018
462.623993,312.320007,753.471985
472.384003,310.368011,755.424011
466.528015,312.320007,753.471985
472.384003,308.415985,753.471985
468.480011,310.368011,759.328003
472.384003,300.608002,755.424011
482.144012,296.704010,761.280029
476.287994,300.608002,759.328003
472.384003,288.895996,761.280029
472.384003,298.656006,769.088013
480.191986,286.944000,772.992004
486.048004,294.752014,774.943970
484.096008,292.799988,774.943970
488.000000,292.799988,772.992004
493.855988,294.752014,774.943970
491.903992,298.656006,767.135986
491.903992,284.992004,772.992004
507.519989,298.656006,772.992004
509.471985,292.799988,771.039978
507.519989,286.944000,772.992004
505.567993,290.847992,778.848022
507.519989,286.944000,776.895996
515.328003,288.895996,782.752014
515.328003,279.135986,776.895996
517.280029,277.183990,788.607971
523.135986,277.183990,782.752014
519.231995,279.135986,790.559998
525.088013,275.231995,794.463989
519.231995,269.376007,784.703979
528.992004,273.279999,782.752014
525.088013,271.328003,786.656006
527.039978,261.567993,788.607971
532.895996,253.759995,784.703979
530.943970,249.856003,790.559998
523.135986,255.712006,788.607971
536.799988,245.951996,788.607971
530.943970,247.904007,790.559998
532.895996,245.951996,782.752014
530.943970,242.048004,790.559998
530.943970,245.951996,788.607971
527.039978,245.951996,784.703979
532.895996,236.192001,788.607971
538.752014,238.143997,780.799988
528.992004,234.240005,780.799988
528.992004,232.287994,786.656006
525.088013,238.143997,794.463989
523.135986,247.904007,790.559998
511.424011,236.192001,784.703979
528.992004,238.143997,788.607971
523.135986,245.951996,776.895996
521.184021,244.000000,776.895996
527.039978,242.048004,769.088013
523.135986,236.192001,769.088013
527.039978,242.048004,763.231995
523.135986,244.000000,757.375977
525.088013,238.143997,763.231995
525.088013,238.143997,763.231995
523.135986,244.000000,757.375977
528.992004,242.048004,753.471985
532.895996,230.335999,755.424011
534.848022,261.567993,753.471985
527.039978,257.664001,763.231995
530.943970,267.424011,767.135986
534.848022,257.664001,759.328003
538.752014,271.328003,757.375977
540.703979,263.519989,757.375977
548.512024,269.376007,755.424011
552.416016,261.567993,759.328003
544.607971,267.424011,753.471985
548.512024,263.519989,755.424011
552.416016,255.712006,747.616028
554.367981,240.095993,753.471985
556.320007,238.143997,759.328003
560.223999,236.192001,759.328003
560.223999,230.335999,757.375977
556.320007,238.143997,763.231995
571.935974,232.287994,759.328003
571.935974,234.240005,753.471985
571.935974,236.192001,755.424011
573.888000,247.904007,761.280029
569.984009,251.807999,755.424011
575.840027,259.615997,759.328003
569.984009,265.471985,753.471985
575.840027,275.231995,755.424011
573.888000,283.040009,757.375977
568.031982,286.944000,759.328003
573.888000,281.088013,745.664001
573.888000,271.328003,733.952026
577.791992,269.376007,747.616028
579.744019,255.712006,747.616028
581.695984,249.856003,741.760010
589.504028,247.904007,753.471985
589.504028,242.048004,753.471985
587.552002,242.048004,759.328003
587.552002,247.904007,759.328003
585.599976,238.143997,757.375977
595.359985,259.615997,757.375977
585.599976,257.664001,757.375977
589.504028,273.279999,751.520020
577.791992,273.279999,745.664001
583.648010,273.279999,735.903992
583.648010,286.944000,730.047974
587.552002,296.704010,716.383972
587.552002,292.799988,718.335999
581.695984,288.895996,714.432007
581.695984,290.847992,712.479980
577.791992,281.088013,706.624023
583.648010,279.135986,716.383972
581.695984,271.328003,704.671997
593.408020,259.615997,706.624023
583.648010,267.424011,716.383972
591.455994,259.615997,716.383972
587.552002,259.615997,714.432007
599.263977,277.183990,724.192017
595.359985,281.088013,720.288025
581.695984,279.135986,712.479980
587.552002,296.704010,706.624023
591.455994,300.608002,702.719971
589.504028,304.511993,683.200012
573.888000,318.175995,691.007996
577.791992,325.984009,689.056030
581.695984,324.032013,689.056030
595.359985,314.272003,679.296021
587.552002,314.272003,679.296021
591.455994,312.320007,677.343994
575.840027,298.656006,683.200012
587.552002,292.799988,679.296021
587.552002,283.040009,685.151978
589.504028,284.992004,687.104004
593.408020,283.040009,681.247986
589.504028,277.183990,689.056030
591.455994,284.992004,685.151978
585.599976,279.135986,683.200012
591.455994,284.992004,681.247986
587.552002,290.847992,683.200012
585.599976,296.704010,679.296021
587.552002,296.704010,679.296021
583.648010,304.511993,681.247986
583.648010,302.559998,677.343994
589.504028,300.608002,675.392029
591.455994,310.368011,677.343994
583.648010,300.608002,685.151978
583.648010,300.608002,683.200012
579.744019,294.752014,681.247986
581.695984,292.799988,687.104004
587.552002,283.040009,681.247986
585.599976,269.376007,679.296021
585.599976,283.040009,677.343994
583.648010,277.183990,687.104004
579.744019,279.135986,673.440002
575.840027,277.183990,673.440002
579.744019,288.895996,671.487976
581.695984,283.040009,667.583984
581.695984,277.183990,665.632019
577.791992,290.847992,661.728027
568.031982,288.895996,648.064026
581.695984,284.992004,655.872009
573.888000,284.992004,663.679993
569.984009,283.040009,663.679993
583.648010,273.279999,659.776001
575.840027,290.847992,659.776001
579.744019,279.135986,667.583984
573.888000,271.328003,671.487976
575.840027,271.328003,663.679993
575.840027,283.040009,673.440002
579.744019,275.231995,671.487976
579.744019,275.231995,667.583984
569.984009,273.279999,667.583984
579.744019,277.183990,667.583984
579.744019,277.183990,661.728027
571.935974,286.944000,653.919983
573.888000,286.944000,648.064026
564.127991,277.183990,651.968018
568.031982,277.183990,646.112000
581.695984,281.088013,640.255981
571.935974,275.231995,642.208008
575.840027,261.567993,638.304016
579.744019,267.424011,657.823975
579.744019,261.567993,648.064026
573.888000,269.376007,653.919983
573.888000,261.567993,651.968018
579.744019,257.664001,661.728027
583.648010,238.143997,661.728027
581.695984,255.712006,651.968018
585.599976,242.048004,651.968018
591.455994,253.759995,657.823975
591.455994,251.807999,653.919983
579.744019,249.856003,648.064026
591.455994,253.759995,661.728027
585.599976,249.856003,661.728027
597.312012,238.143997,655.872009
591.455994,249.856003,659.776001
583.648010,240.095993,651.968018
591.455994,228.384003,663.679993
593.408020,228.384003,663.679993
599.263977,240.095993,655.872009
599.263977,236.192001,659.776001
597.312012,228.384003,663.679993
609.023987,228.384003,665.632019
599.263977,224.479996,659.776001
607.072021,216.671997,655.872009
603.168030,218.623993,655.872009
612.927979,224.479996,651.968018
601.216003,224.479996,653.919983
597.312012,218.623993,651.968018
601.216003,218.623993,653.919983
603.168030,218.623993,644.159973
609.023987,210.815994,651.968018
612.927979,218.623993,638.304016
612.927979,218.623993,640.255981
610.976013,212.768005,640.255981
610.976013,210.815994,630.495972
607.072021,216.671997,632.447998
612.927979,216.671997,628.544006
612.927979,216.671997,634.400024
609.023987,214.720001,630.495972
614.880005,222.528000,628.544006
601.216003,216.671997,632.447998
605.119995,214.720001,632.447998
616.831970,214.720001,620.736023
609.023987,216.671997,618.783997
609.023987,216.671997,624.640015
609.023987,214.720001,622.687988
607.072021,212.768005,618.783997
603.168030,220.576004,616.831970
605.119995,224.479996,614.880005
601.216003,210.815994,612.927979
612.927979,226.432007,609.023987
609.023987,236.192001,610.976013
607.072021,234.240005,603.168030
601.216003,236.192001,595.359985
599.263977,228.384003,593.408020
601.216003,238.143997,593.408020
603.168030,238.143997,585.599976
593.408020,230.335999,581.695984
597.312012,236.192001,583.648010
599.263977,244.000000,573.888000
599.263977,251.807999,573.888000
599.263977,240.095993,569.984009
599.263977,253.759995,568.031982
601.216003,253.759995,569.984009
609.023987,267.424011,569.984009
605.119995,263.519989,564.127991
607.072021,277.183990,569.984009
609.023987,275.231995,564.127991
610.976013,267.424011,566.080017
610.976013,281.088013,562.176025
614.880005,281.088013,560.223999
624.640015,283.040009,556.320007
626.591980,292.799988,546.559998
624.640015,296.704010,550.463989
624.640015,296.704010,556.320007
626.591980,308.415985,560.223999
636.351990,312.320007,560.223999
634.400024,310.368011,556.320007
638.304016,310.368011,548.512024
640.255981,320.127991,556.320007
642.208008,316.223999,556.320007
646.112000,308.415985,556.320007
644.159973,325.984009,554.367981
650.015991,337.696014,544.607971
653.919983,329.888000,552.416016
651.968018,329.888000,542.656006
655.872009,339.648010,544.607971
655.872009,341.600006,542.656006
655.872009,331.839996,540.703979
655.872009,347.455994,532.895996
659.776001,347.455994,538.752014
651.968018,353.312012,527.039978
657.823975,343.552002,521.184021
650.015991,347.455994,532.895996
657.823975,347.455994,527.039978
665.632019,359.167999,521.184021
659.776001,359.167999,521.184021
657.823975,361.119995,511.424011
665.632019,359.167999,513.375977
665.632019,359.167999,513.375977
663.679993,359.167999,513.375977
673.440002,361.119995,515.328003
669.536011,359.167999,521.184021
681.247986,355.264008,519.231995
677.343994,365.023987,525.088013
681.247986,359.167999,525.088013
681.247986,363.071991,521.184021
685.151978,353.312012,527.039978
683.200012,361.119995,530.943970
689.056030,355.264008,530.943970
694.911987,351.359985,532.895996
692.960022,359.167999,530.943970
689.056030,357.216003,536.799988
691.007996,361.119995,536.799988
694.911987,363.071991,523.135986
694.911987,357.216003,521.184021
702.719971,359.167999,515.328003
700.768005,361.119995,525.088013
704.671997,353.312012,528.992004
706.624023,359.167999,525.088013
702.719971,349.407990,517.280029
712.479980,347.455994,525.088013
714.432007,343.552002,517.280029
704.671997,335.743988,519.231995
700.768005,345.503998,519.231995
710.528015,345.503998,523.135986
720.288025,341.600006,523.135986
714.432007,329.888000,519.231995
722.239990,331.839996,525.088013
720.288025,329.888000,519.231995
722.239990,320.127991,519.231995
724.192017,314.272003,525.088013
726.143982,324.032013,523.135986
724.192017,325.984009,525.088013
726.143982,312.320007,525.088013
728.096008,310.368011,530.943970
732.000000,304.511993,536.799988
732.000000,298.656006,532.895996
739.807983,298.656006,536.799988
739.807983,294.752014,540.703979
735.903992,283.040009,536.799988
735.903992,283.040009,538.752014
743.711975,275.231995,540.703979
733.952026,277.183990,534.848022
733.952026,281.088013,530.943970
741.760010,263.519989,527.039978
741.760010,263.519989,532.895996
743.711975,253.759995,530.943970
745.664001,245.951996,534.848022
739.807983,245.951996,528.992004
739.807983,240.095993,532.895996
743.711975,234.240005,536.799988
743.711975,222.528000,528.992004
747.616028,226.432007,530.943970
743.711975,228.384003,528.992004
741.760010,216.671997,534.848022
747.616028,214.720001,530.943970
745.664001,214.720001,534.848022
745.664001,220.576004,523.135986
741.760010,222.528000,530.943970
749.567993,218.623993,532.895996
745.664001,208.863998,523.135986
741.760010,216.671997,527.039978
743.711975,203.007996,525.088013
747.616028,206.912003,515.328003
737.856018,197.151993,517.280029
745.664001,199.104004,511.424011
733.952026,191.296005,513.375977
735.903992,191.296005,511.424011
728.096008,189.343994,509.471985
724.192017,183.488007,507.519989
726.143982,183.488007,517.280029
722.239990,179.584000,521.184021
728.096008,169.824005,511.424011
724.192017,169.824005,517.280029
714.432007,177.632004,503.615997
718.335999,181.535995,513.375977
720.288025,167.871994,505.567993
722.239990,167.871994,517.280029
724.192017,167.871994,521.184021
718.335999,162.016006,507.519989
720.288025,160.063995,513.375977
718.335999,152.255997,513.375977
726.143982,150.304001,517.280029
718.335999,146.399994,517.280029
720.288025,144.447998,525.088013
724.192017,144.447998,528.992004
720.288025,146.399994,523.135986
726.143982,136.639999,528.992004
726.143982,130.783997,532.895996
726.143982,124.928001,532.895996
718.335999,124.928001,534.848022
724.192017,126.879997,542.656006
732.000000,126.879997,540.703979
728.096008,121.024002,536.799988
724.192017,122.975998,538.752014
730.047974,124.928001,532.895996
726.143982,121.024002,528.992004
716.383972,119.071999,523.135986
724.192017,111.264000,528.992004
724.192017,111.264000,527.039978
724.192017,109.311996,525.088013
724.192017,103.456001,528.992004
720.288025,111.264000,519.231995
716.383972,109.311996,525.088013
716.383972,111.264000,536.799988
720.288025,99.552002,530.943970
718.335999,97.599998,528.992004
718.335999,95.648003,527.039978
718.335999,97.599998,528.992004
726.143982,95.648003,517.280029
728.096008,81.984001,525.088013
726.143982,81.984001,523.135986
724.192017,85.888000,517.280029
730.047974,83.935997,519.231995
733.952026,78.080002,515.328003
735.903992,80.031998,513.375977
726.143982,78.080002,509.471985
730.047974,70.272003,495.808014
732.000000,76.127998,491.903992
730.047974,76.127998,491.903992
728.096008,78.080002,482.144012
724.192017,76.127998,468.480011
724.192017,64.416000,454.816010
735.903992,83.935997,435.295990
720.288025,80.031998,419.679993
714.432007,93.695999,419.679993
710.528015,99.552002,411.872009
710.528015,103.456001,400.160004
720.288025,89.792000,382.592010
714.432007,107.360001,380.640015
702.719971,111.264000,363.071991
708.575989,115.167999,370.880005
718.335999,99.552002,353.312012
722.239990,95.648003,345.503998
730.047974,99.552002,347.455994
726.143982,89.792000,351.359985
730.047974,85.888000,351.359985
732.000000,85.888000,357.216003
728.096008,103.456001,357.216003
730.047974,95.648003,351.359985
732.000000,80.031998,365.023987
735.903992,85.888000,351.359985
728.096008,103.456001,347.455994
730.047974,97.599998,351.359985
735.903992,91.744003,351.359985
751.520020,109.311996,335.743988
763.231995,99.552002,327.936005
769.088013,85.888000,320.127991
757.375977,95.648003,325.984009
769.088013,101.503998,335.743988
761.280029,93.695999,341.600006
755.424011,85.888000,351.359985
745.664001,99.552002,365.023987
763.231995,134.688004,357.216003
755.424011,132.735992,351.359985
765.184021,113.216003,345.503998
772.992004,81.984001,333.791992
786.656006,95.648003,327.936005
784.703979,119.071999,320.127991
794.463989,97.599998,316.223999
804.223999,80.031998,320.127991
806.176025,91.744003,320.127991
808.127991,113.216003,325.984009
827.648010,113.216003,320.127991
821.791992,68.320000,325.984009
831.552002,80.031998,327.936005
851.072021,89.792000,331.839996
847.168030,74.176003,331.839996
847.168030,62.464001,337.696014
853.023987,62.464001,337.696014
854.976013,62.464001,339.648010
854.976013,97.599998,351.359985
868.640015,81.984001,353.312012
868.640015,58.560001,351.359985
884.255981,50.751999,355.264008
886.208008,93.695999,351.359985
895.968018,99.552002,357.216003
894.015991,54.655998,355.264008
899.872009,58.560001,365.023987
899.872009,83.935997,370.880005
913.536011,99.552002,378.687988
909.632019,74.176003,386.496002
854.976013,19.520000,415.776001
1016.992004,-1.952000,454.816010
1071.647949,-7.808000,486.048004
1110.687988,76.127998,513.375977
1098.975952,42.944000,534.848022
1069.696045,-42.944000,554.367981
1036.511963,21.472000,585.599976
983.807983,132.735992,614.880005
958.432007,68.320000,642.208008
972.096008,7.808000,644.159973
981.856018,11.712000,646.112000
995.520020,40.992001,642.208008
1016.992004,33.183998,634.400024
1030.656006,3.904000,618.783997
1042.368042,-9.760000,612.927979
1044.319946,11.712000,607.072021
1038.463989,40.992001,599.263977
1040.416016,42.944000,583.648010
1038.463989,25.375999,569.984009
1054.079956,31.232000,558.271973
1054.079956,50.751999,536.799988
1059.936035,60.512001,528.992004
1057.984009,23.424000,523.135986
1056.031982,52.703999,509.471985
1048.223999,83.935997,509.471985
1044.319946,50.751999,488.000000
1056.031982,89.792000,482.144012
1038.463989,62.464001,478.239990
1052.128052,44.896000,478.239990
1054.079956,81.984001,468.480011
1057.984009,85.888000,474.335999
1052.128052,35.136002,484.096008
1052.128052,68.320000,482.144012
1057.984009,91.744003,476.287994
1056.031982,46.848000,482.144012
1061.887939,15.616000,468.480011
1061.887939,31.232000,460.671997
1075.552002,3.904000,466.528015
1063.839966,-17.568001,456.768005
1069.696045,-31.232000,435.295990
1087.264038,-46.848000,413.824005
1114.592041,-76.127998,392.351990
1155.583984,-56.608002,370.880005
1210.239990,-48.799999,345.503998
1303.936035,-76.127998,337.696014
1432.767944,-64.416000,333.791992
1356.640015,124.928001,345.503998
1325.407959,117.120003,384.544006
1440.576050,-132.735992,458.720001
1467.904053,-93.695999,528.992004
1376.160034,91.744003,599.263977
1356.640015,-97.599998,653.919983
1325.407959,-267.424011,720.288025
1192.671997,-95.648003,772.992004
1110.687988,-31.232000,802.271973
1057.984009,-212.768005,812.031982
964.288025,-277.183990,813.984009
874.495972,-185.440002,798.367981
880.351990,-218.623993,753.471985
886.208008,-245.951996,685.151978
860.831970,-210.815994,612.927979
821.791992,-189.343994,527.039978
790.559998,-163.968002,452.864014
757.375977,-128.832001,382.592010
798.367981,-101.503998,310.368011
810.080017,-15.616000,232.287994
796.416016,87.839996,177.632004
825.695984,39.040001,136.639999
856.927979,66.367996,121.024002
888.159973,203.007996,138.591995
946.719971,253.759995,175.679993
1009.184021,228.384003,218.623993
1034.560059,316.223999,284.992004
1046.271973,363.071991,333.791992
1056.031982,265.471985,390.399994
1091.167969,218.623993,452.864014
1157.536011,218.623993,491.903992
1180.959961,203.007996,527.039978
1188.767944,193.248001,558.271973
1194.624023,134.688004,581.695984
1204.384033,97.599998,601.216003
1223.904053,189.343994,603.168030
1214.144043,236.192001,589.504028
1190.719971,158.112000,579.744019
1196.576050,156.160004,564.127991
1173.151978,224.479996,554.367981
1124.352051,214.720001,540.703979
1071.647949,171.776001,530.943970
1038.463989,169.824005,509.471985
995.520020,175.679993,489.951996
966.239990,158.112000,441.152008
944.768005,93.695999,400.160004
921.343994,81.984001,339.648010
899.872009,113.216003,288.895996
880.351990,78.080002,240.095993
847.168030,66.367996,199.104004
827.648010,124.928001,150.304001
845.216003,121.024002,124.928001
862.783997,99.552002,115.167999
876.447998,142.496002,95.648003
884.255981,171.776001,115.167999
894.015991,150.304001,132.735992
915.487976,163.968002,163.968002
933.056030,199.104004,226.432007
950.624023,220.576004,265.471985
958.432007,216.671997,322.079987
976.000000,208.863998,368.928009
983.807983,224.479996,407.967987
1001.375977,244.000000,431.391998
1009.184021,230.335999,443.104004
1018.943970,203.007996,448.959991
1028.703979,210.815994,437.247986
1026.751953,247.904007,409.920013
1026.751953,228.384003,386.496002
1013.088013,214.720001,361.119995
1003.328003,244.000000,341.600006
1003.328003,242.048004,310.368011
987.711975,238.143997,290.847992
997.471985,253.759995,269.376007
989.664001,255.712006,267.424011
974.047974,267.424011,245.951996
966.239990,253.759995,247.904007
977.952026,244.000000,245.951996
979.903992,244.000000,247.904007
981.856018,238.143997,244.000000
981.856018,224.479996,234.240005
993.567993,214.720001,230.335999
999.424011,208.863998,232.287994
995.520020,185.440002,232.287994
997.471985,185.440002,234.240005
1011.135986,191.296005,228.384003
1011.135986,191.296005,222.528000
1024.800049,187.391998,230.335999
1016.992004,187.391998,234.240005
1022.848022,206.912003,244.000000
1020.895996,216.671997,247.904007
1016.992004,224.479996,230.335999
1028.703979,218.623993,230.335999
1020.895996,232.287994,226.432007
1022.848022,218.623993,224.479996
1022.848022,203.007996,220.576004
1036.511963,195.199997,222.528000
1038.463989,193.248001,210.815994
1042.368042,181.535995,206.912003
1052.128052,162.016006,206.912003
1048.223999,162.016006,210.815994
1054.079956,152.255997,214.720001
1067.744019,146.399994,224.479996
1075.552002,136.639999,222.528000
1081.407959,126.879997,232.287994
1081.407959,138.591995,242.048004
1093.119995,134.688004,244.000000
1100.927979,132.735992,247.904007
1102.880005,150.304001,255.712006
1104.832031,156.160004,269.376007
1108.735962,162.016006,273.279999
1124.352051,163.968002,290.847992
1128.255981,179.584000,284.992004
1134.112061,171.776001,302.559998
1085.312012,115.167999,327.936005
1042.368042,-81.984001,527.039978
1026.751953,158.112000,771.039978
1157.536011,284.992004,806.176025
1204.384033,-62.464001,743.711975
1301.984009,25.375999,640.255981
1327.359985,33.183998,573.888000
1319.552002,-48.799999,577.791992
1323.456055,208.863998,595.359985
1346.880005,56.608002,577.791992
1323.456055,7.808000,532.895996
1243.423950,197.151993,462.623993
1182.911987,162.016006,431.391998
1227.807983,167.871994,404.063995
1274.656006,115.167999,361.119995
1268.800049,89.792000,341.600006
1229.760010,201.056000,374.783997
1235.615967,121.024002,406.015991
1264.895996,91.744003,415.776001
1288.319946,154.207993,396.256012
1282.463989,189.343994,396.256012
1266.848022,183.488007,423.584015
1272.703979,245.951996,454.816010
1278.560059,273.279999,480.191986
1251.232056,281.088013,505.567993
1253.183960,294.752014,519.231995
1251.232056,300.608002,528.992004
1247.328003,308.415985,523.135986
1241.472046,281.088013,515.328003
1237.567993,222.528000,525.088013
1239.520020,199.104004,511.424011
1243.423950,191.296005,499.712006
1239.520020,156.160004,486.048004
1231.712036,128.832001,482.144012
1233.663940,115.167999,464.575989
1229.760010,99.552002,458.720001
1223.904053,103.456001,454.816010
1214.144043,99.552002,445.056000
1198.527954,95.648003,437.247986
1202.432007,85.888000,433.343994
1202.432007,85.888000,425.536011
1182.911987,81.984001,413.824005
1179.008057,91.744003,407.967987
1167.296021,113.216003,402.112000
1161.439941,121.024002,388.447998
1153.631958,136.639999,372.832001
1157.536011,142.496002,361.119995
1155.583984,148.352005,349.407990
1149.728027,167.871994,343.552002
1136.063965,183.488007,337.696014
1136.063965,195.199997,333.791992
1141.920044,187.391998,331.839996
1134.112061,183.488007,324.032013
1134.112061,189.343994,320.127991
1120.447998,181.535995,335.743988
1118.495972,160.063995,333.791992
1124.352051,140.544006,335.743988
1124.352051,130.783997,335.743988
1112.640015,109.311996,327.936005
1114.592041,103.456001,331.839996
1102.880005,101.503998,316.223999
1114.592041,99.552002,312.320007
1089.215942,91.744003,302.559998
1097.024048,107.360001,288.895996
1085.312012,111.264000,288.895996
1085.312012,117.120003,283.040009
1095.072021,117.120003,279.135986
1091.167969,138.591995,284.992004
1085.312012,142.496002,300.608002
1081.407959,152.255997,302.559998
1087.264038,167.871994,308.415985
1087.264038,160.063995,312.320007
1081.407959,142.496002,322.079987
1079.456055,146.399994,318.175995
1087.264038,142.496002,324.032013
1075.552002,126.879997,322.079987
1079.456055,126.879997,310.368011
1073.599976,103.456001,308.415985
1069.696045,107.360001,302.559998
1063.839966,103.456001,290.847992
1057.984009,89.792000,284.992004
1054.079956,97.599998,277.183990
1054.079956,99.552002,275.231995
1042.368042,87.839996,275.231995
1054.079956,107.360001,275.231995
1048.223999,93.695999,277.183990
1052.128052,97.599998,284.992004
1054.079956,111.264000,300.608002
1054.079956,101.503998,300.608002
1065.791992,95.648003,314.272003
1071.647949,93.695999,312.320007
1071.647949,89.792000,318.175995
1075.552002,87.839996,318.175995
1059.936035,76.127998,310.368011
1067.744019,72.223999,308.415985
1065.791992,60.512001,310.368011
1050.176025,58.560001,304.511993
1054.079956,52.703999,304.511993
1052.128052,44.896000,306.463989
1046.271973,48.799999,294.752014
1052.128052,42.944000,292.799988
1044.319946,46.848000,294.752014
1056.031982,50.751999,302.559998
1056.031982,46.848000,306.463989
1054.079956,44.896000,318.175995
1044.319946,56.608002,312.320007
1038.463989,54.655998,312.320007
1044.319946,48.799999,316.223999
1040.416016,60.512001,310.368011
1040.416016,48.799999,304.511993
1044.319946,42.944000,294.752014
1040.416016,42.944000,284.992004
1034.560059,35.136002,284.992004
1026.751953,29.280001,288.895996
1030.656006,27.327999,292.799988
1024.800049,15.616000,286.944000
1028.703979,23.424000,290.847992
1032.608032,27.327999,284.992004
1034.560059,29.280001,284.992004
1024.800049,27.327999,290.847992
1016.992004,31.232000,288.895996
1007.231995,29.280001,288.895996
1022.848022,39.040001,294.752014
1015.039978,39.040001,288.895996
1022.848022,21.472000,277.183990
1011.135986,19.520000,284.992004
1009.184021,19.520000,275.231995
1011.135986,17.568001,273.279999
1003.328003,33.183998,273.279999
1018.943970,23.424000,267.424011
1009.184021,21.472000,271.328003
995.520020,33.183998,273.279999
962.335999,46.848000,286.944000
987.711975,152.255997,257.664001
1056.031982,146.399994,236.192001
1114.592041,23.424000,238.143997
1044.319946,46.848000,257.664001
1009.184021,124.928001,265.471985
1007.231995,113.216003,275.231995
1034.560059,72.223999,281.088013
1054.079956,64.416000,273.279999
1050.176025,74.176003,279.135986
1046.271973,23.424000,298.656006
1013.088013,-1.952000,314.272003
1005.280029,-7.808000,320.127991
1007.231995,27.327999,322.079987
1013.088013,74.176003,333.791992
1007.231995,56.608002,337.696014
1028.703979,15.616000,343.552002
1020.895996,40.992001,351.359985
1016.992004,19.520000,359.167999
1009.184021,13.664000,366.976013
1020.895996,60.512001,359.167999
1015.039978,66.367996,351.359985
1011.135986,68.320000,345.503998
1007.231995,58.560001,331.839996
1003.328003,56.608002,343.552002
997.471985,50.751999,335.743988
983.807983,60.512001,333.791992
989.664001,68.320000,329.888000
985.760010,62.464001,322.079987
977.952026,60.512001,312.320007
968.192017,42.944000,314.272003
968.192017,27.327999,314.272003
977.952026,19.520000,306.463989
983.807983,7.808000,296.704010
985.760010,-1.952000,302.559998
981.856018,-15.616000,294.752014
977.952026,-1.952000,292.799988
972.096008,7.808000,286.944000
976.000000,7.808000,283.040009
977.952026,19.520000,283.040009
972.096008,21.472000,273.279999
977.952026,27.327999,281.088013
976.000000,39.040001,279.135986
966.239990,39.040001,271.328003
977.952026,58.560001,273.279999
956.479980,58.560001,269.376007
960.383972,60.512001,273.279999
966.239990,78.080002,275.231995
952.575989,60.512001,271.328003
960.383972,58.560001,275.231995
960.383972,54.655998,273.279999
950.624023,48.799999,269.376007
968.192017,48.799999,261.567993
960.383972,54.655998,251.807999
956.479980,44.896000,257.664001
956.479980,44.896000,251.807999
962.335999,58.560001,240.095993
952.575989,56.608002,244.000000
946.719971,80.031998,230.335999
938.911987,109.311996,240.095993
940.864014,91.744003,244.000000
958.432007,81.984001,244.000000
954.528015,80.031998,242.048004
946.719971,80.031998,247.904007
946.719971,87.839996,247.904007
944.768005,76.127998,242.048004
938.911987,70.272003,240.095993
940.864014,72.223999,228.384003
944.768005,89.792000,218.623993
938.911987,83.935997,220.576004
938.911987,87.839996,206.912003
931.104004,83.935997,206.912003
940.864014,83.935997,203.007996
940.864014,78.080002,201.056000
931.104004,81.984001,204.960007
938.911987,74.176003,216.671997
936.960022,48.799999,206.912003
940.864014,31.232000,212.768005
933.056030,46.848000,206.912003
933.056030,66.367996,208.863998
927.200012,70.272003,199.104004
917.440002,83.935997,204.960007
917.440002,87.839996,183.488007
923.296021,72.223999,185.440002
921.343994,80.031998,177.632004
917.440002,85.888000,181.535995
909.632019,95.648003,175.679993
907.679993,91.744003,177.632004
911.583984,105.407997,160.063995
911.583984,99.552002,150.304001
907.679993,95.648003,142.496002
899.872009,78.080002,122.975998
895.968018,91.744003,122.975998
892.064026,85.888000,105.407997
890.112000,85.888000,91.744003
880.351990,80.031998,95.648003
888.159973,70.272003,85.888000
886.208008,60.512001,78.080002
886.208008,60.512001,81.984001
888.159973,46.848000,78.080002
884.255981,39.040001,70.272003
890.112000,35.136002,80.031998
895.968018,42.944000,72.223999
874.495972,56.608002,78.080002
884.255981,62.464001,72.223999
874.495972,91.744003,68.320000
878.400024,89.792000,68.320000
880.351990,76.127998,74.176003
899.872009,62.464001,78.080002
897.919983,56.608002,85.888000
895.968018,44.896000,99.552002
886.208008,54.655998,95.648003
874.495972,107.360001,76.127998
876.447998,122.975998,66.367996
858.880005,115.167999,56.608002
847.168030,107.360001,44.896000
841.312012,109.311996,29.280001
804.223999,89.792000,9.760000
888.159973,70.272003,11.712000
933.056030,60.512001,7.808000
909.632019,64.416000,9.760000
786.656006,136.639999,-7.808000
728.096008,136.639999,21.472000
854.976013,103.456001,40.992001
901.823975,245.951996,68.320000
946.719971,220.576004,115.167999
942.815979,-11.712000,173.727997
901.823975,48.799999,193.248001
913.536011,214.720001,177.632004
956.479980,224.479996,177.632004
948.671997,169.824005,177.632004
925.247986,76.127998,179.584000
899.872009,163.968002,230.335999
938.911987,392.351990,320.127991
917.440002,642.208008,386.496002
940.864014,720.288025,390.399994
960.383972,425.536011,366.976013
999.424011,68.320000,316.223999
1024.800049,-64.416000,283.040009
1007.231995,29.280001,251.807999
997.471985,183.488007,232.287994
989.664001,271.328003,228.384003
1005.280029,257.664001,228.384003
1028.703979,189.343994,234.240005
1022.848022,113.216003,242.048004
1032.608032,85.888000,242.048004
1024.800049,111.264000,251.807999
1026.751953,134.688004,249.856003
1016.992004,128.832001,275.231995
1026.751953,95.648003,267.424011
1022.848022,46.848000,261.567993
1028.703979,25.375999,271.328003
1040.416016,27.327999,275.231995
1036.511963,40.992001,279.135986
1030.656006,46.848000,281.088013
1030.656006,44.896000,286.944000
1032.608032,46.848000,290.847992
1034.560059,52.703999,277.183990
1038.463989,52.703999,259.615997
1032.608032,35.136002,253.759995
1028.703979,40.992001,251.807999
1016.992004,33.183998,230.335999
1016.992004,39.040001,222.528000
1011.135986,44.896000,208.863998
1003.328003,33.183998,195.199997
1005.280029,13.664000,185.440002
995.520020,-9.760000,179.584000
979.903992,-1.952000,167.871994
977.952026,7.808000,158.112000
966.239990,21.472000,152.255997
962.335999,13.664000,142.496002
974.047974,-13.664000,128.832001
952.575989,-40.992001,117.120003
1005.280029,9.760000,87.839996
1003.328003,1.952000,78.080002
985.760010,-17.568001,56.608002
884.255981,-13.664000,66.367996
919.392029,44.896000,56.608002
899.872009,64.416000,50.751999
894.015991,1.952000,42.944000
909.632019,-76.127998,25.375999
909.632019,-62.464001,3.904000
917.440002,-7.808000,3.904000
936.960022,7.808000,-13.664000
952.575989,15.616000,-17.568001
929.151978,-1.952000,-19.520000
917.440002,-42.944000,-19.520000
917.440002,-31.232000,-13.664000
919.392029,1.952000,-11.712000
933.056030,31.232000,3.904000
917.440002,44.896000,0.000000
915.487976,54.655998,13.664000
907.679993,33.183998,25.375999
913.536011,39.040001,40.992001
905.728027,37.088001,56.608002
913.536011,31.232000,74.176003
917.440002,46.848000,95.648003
923.296021,68.320000,101.503998
921.343994,66.367996,122.975998
933.056030,23.424000,132.735992
935.007996,11.712000,117.120003
946.719971,62.464001,109.311996
944.768005,160.063995,132.735992
954.528015,263.519989,148.352005
954.528015,308.415985,173.727997
950.624023,236.192001,218.623993
960.383972,64.416000,240.095993
970.143982,-121.024002,249.856003
974.047974,-154.207993,236.192001
970.143982,-95.648003,216.671997
968.192017,39.040001,204.960007
977.952026,134.688004,175.679993
968.192017,144.447998,163.968002
977.952026,103.456001,148.352005
983.807983,35.136002,117.120003
979.903992,-27.327999,89.792000
979.903992,-48.799999,66.367996
964.288025,-15.616000,72.223999
966.239990,37.088001,80.031998
956.479980,39.040001,87.839996
954.528015,-1.952000,95.648003
952.575989,-29.280001,113.216003
956.479980,-54.655998,124.928001
946.719971,-50.751999,134.688004
745.664001,9.760000,181.535995
1173.151978,187.391998,60.512001
1030.656006,-11.712000,35.136002
1190.719971,-119.071999,-25.375999
931.104004,-78.080002,54.655998
913.536011,103.456001,87.839996
970.143982,261.567993,109.311996
1003.328003,322.079987,138.591995
1046.271973,267.424011,138.591995
1040.416016,103.456001,146.399994
935.007996,-5.856000,154.207993
954.528015,0.000000,154.207993
987.711975,95.648003,152.255997
993.567993,203.007996,136.639999
1003.328003,249.856003,124.928001
966.239990,236.192001,136.639999
981.856018,160.063995,134.688004
974.047974,85.888000,128.832001
1018.943970,85.888000,115.167999
995.520020,146.399994,109.311996
991.616028,183.488007,109.311996
976.000000,175.679993,111.264000
966.239990,179.584000,97.599998
956.479980,181.535995,54.655998
946.719971,181.535995,27.327999
909.632019,193.248001,-7.808000
935.007996,175.679993,-68.320000
935.007996,175.679993,-103.456001
923.296021,169.824005,-162.016006
872.544006,148.352005,-234.240005
827.648010,119.071999,-284.992004
794.463989,89.792000,-324.032013
798.367981,46.848000,-374.783997
819.840027,33.183998,-390.399994
872.544006,42.944000,-390.399994
915.487976,-27.327999,-357.216003
946.719971,-136.639999,-286.944000
970.143982,-267.424011,-208.863998
983.807983,-197.151993,-138.591995
974.047974,66.367996,-31.232000
989.664001,351.359985,62.464001
964.288025,454.816010,132.735992
987.711975,296.704010,179.584000
1013.088013,44.896000,187.391998
1007.231995,-144.447998,193.248001
1020.895996,-126.879997,156.160004
1003.328003,27.327999,124.928001
1022.848022,224.479996,87.839996
1030.656006,349.407990,56.608002
1046.271973,284.992004,37.088001
1071.647949,187.391998,25.375999
1069.696045,93.695999,19.520000
1079.456055,23.424000,15.616000
1089.215942,37.088001,29.280001
1087.264038,91.744003,31.232000
1077.504028,158.112000,48.799999
1048.223999,212.768005,60.512001
1050.176025,183.488007,58.560001
1036.511963,132.735992,70.272003
1052.128052,107.360001,72.223999
1046.271973,117.120003,68.320000
1038.463989,144.447998,50.751999
1036.511963,171.776001,13.664000
1034.560059,177.632004,-13.664000
1022.848022,128.832001,-58.560001
1030.656006,74.176003,-95.648003
1022.848022,19.520000,-136.639999
1015.039978,7.808000,-169.824005
1005.280029,56.608002,-199.104004
987.711975,165.919998,-232.287994
946.719971,238.143997,-265.471985
874.495972,296.704010,-308.415985
983.807983,318.175995,-415.776001
808.127991,390.399994,-456.768005
665.632019,669.536011,-470.432007
628.544006,1015.039978,-452.864014
706.624023,1139.968018,-411.872009
847.168030,806.176025,-310.368011
862.783997,-54.655998,-224.479996
907.679993,-923.296021,-175.679993
903.776001,-1196.576050,-124.928001
915.487976,-749.567993,-93.695999
974.047974,124.928001,-66.367996
1011.135986,817.888000,-50.751999
1034.560059,933.056030,-39.040001
1050.176025,425.536011,-42.944000
1075.552002,-249.856003,-62.464001
1102.880005,-546.559998,-76.127998
1091.167969,-398.208008,-64.416000
1071.647949,15.616000,-46.848000
1079.456055,425.536011,-46.848000
1067.744019,560.223999,-39.040001
1065.791992,386.496002,-31.232000
1091.167969,50.751999,-50.751999
1098.975952,-224.479996,-64.416000
1091.167969,-279.135986,-70.272003
1069.696045,-111.264000,-76.127998
1073.599976,115.167999,-85.888000
1071.647949,304.511993,-87.839996
1097.024048,366.976013,-107.360001
1110.687988,267.424011,-109.311996
1102.880005,64.416000,-91.744003
1089.215942,-78.080002,-89.792000
1065.791992,-154.207993,-74.176003
1067.744019,-105.407997,-66.367996
1139.968018,-40.992001,-70.272003
1173.151978,-3.904000,-66.367996
1124.352051,-5.856000,-23.424000
1112.640015,27.327999,-5.856000
1061.887939,111.264000,56.608002
1071.647949,185.440002,93.695999
1063.839966,249.856003,113.216003
1065.791992,228.384003,95.648003
1050.176025,218.623993,80.031998
1071.647949,206.912003,48.799999
1085.312012,216.671997,13.664000
1098.975952,206.912003,-21.472000
1079.456055,179.584000,-48.799999
1216.095947,163.968002,-109.311996
1059.936035,91.744003,-126.879997
929.151978,66.367996,-146.399994
878.400024,124.928001,-162.016006
929.151978,173.727997,-230.335999
911.583984,173.727997,-249.856003
1009.184021,162.016006,-308.415985
1089.215942,121.024002,-359.167999
1204.384033,117.120003,-407.967987
1132.160034,99.552002,-406.015991
1032.608032,93.695999,-378.687988
993.567993,115.167999,-357.216003
972.096008,130.783997,-343.552002
950.624023,140.544006,-322.079987
976.000000,173.727997,-312.320007
974.047974,179.584000,-294.752014
981.856018,197.151993,-296.704010
1001.375977,162.016006,-302.559998
1024.800049,132.735992,-318.175995
1015.039978,99.552002,-316.223999
1007.231995,95.648003,-306.463989
989.664001,128.832001,-279.135986
987.711975,142.496002,-284.992004
987.711975,134.688004,-253.759995
993.567993,128.832001,-253.759995
1005.280029,124.928001,-238.143997
987.711975,156.160004,-222.528000
989.664001,226.432007,-206.912003
983.807983,327.936005,-187.391998
991.616028,384.544006,-146.399994
981.856018,333.791992,-107.360001
987.711975,179.584000,-89.792000
1003.328003,17.568001,-68.320000
1024.800049,-40.992001,-58.560001
1044.319946,7.808000,-68.320000
1054.079956,169.824005,-72.223999
1165.343994,320.127991,-134.688004
985.760010,376.735992,-111.264000
1104.832031,286.944000,-183.488007
935.007996,119.071999,-150.304001
966.239990,29.280001,-185.440002
1022.848022,29.280001,-228.384003
1054.079956,89.792000,-267.424011
985.760010,173.727997,-284.992004
995.520020,251.807999,-310.368011
1159.488037,273.279999,-372.832001
1097.024048,249.856003,-359.167999
1083.359985,201.056000,-353.312012
1054.079956,146.399994,-349.407990
1034.560059,115.167999,-339.648010
1038.463989,138.591995,-324.032013
1069.696045,154.207993,-318.175995
1067.744019,140.544006,-327.936005
997.471985,203.007996,-294.752014
954.528015,222.528000,-286.944000
991.616028,165.919998,-302.559998
1003.328003,115.167999,-290.847992
1034.560059,-33.183998,-304.511993
1069.696045,-171.776001,-263.519989
1065.791992,-208.863998,-197.151993
1077.504028,-27.327999,-162.016006
1071.647949,232.287994,-105.407997
1081.407959,536.799988,-46.848000
1057.984009,716.383972,17.568001
1024.800049,687.104004,52.703999
993.567993,376.735992,39.040001
1106.784058,-52.703999,-33.183998
1138.015991,-341.600006,-99.552002
1194.624023,-327.936005,-146.399994
1163.391968,-93.695999,-138.591995
1077.504028,273.279999,-124.928001
1087.264038,560.223999,-117.120003
1095.072021,550.463989,-99.552002
1065.791992,269.376007,-91.744003
1077.504028,-74.176003,-113.216003
1061.887939,-294.752014,-103.456001
1079.456055,-259.615997,-122.975998
1134.112061,-11.712000,-177.632004
1173.151978,228.384003,-224.479996
1163.391968,372.832001,-242.048004
1114.592041,335.743988,-236.192001
1120.447998,259.615997,-247.904007
1059.936035,54.655998,-220.576004
1110.687988,-113.216003,-212.768005
1073.599976,-220.576004,-165.919998
1057.984009,-126.879997,-122.975998
1046.271973,39.040001,-99.552002
1104.832031,165.919998,-109.311996
946.719971,160.063995,-52.703999
1042.368042,111.264000,-89.792000
1067.744019,-70.272003,-95.648003
1034.560059,-199.104004,-109.311996
1065.791992,-171.776001,-167.871994
1052.128052,-50.751999,-193.248001
1079.456055,74.176003,-222.528000
1071.647949,193.248001,-218.623993
1087.264038,199.104004,-204.960007
1093.119995,76.127998,-232.287994
1087.264038,-13.664000,-242.048004
1071.647949,-50.751999,-267.424011
1050.176025,-48.799999,-292.799988
1034.560059,-19.520000,-286.944000
1050.176025,72.223999,-277.183990
1038.463989,152.255997,-253.759995
1046.271973,160.063995,-247.904007
1073.599976,138.591995,-249.856003
1067.744019,103.456001,-240.095993
1098.975952,48.799999,-242.048004
1130.208008,62.464001,-232.287994
1139.968018,80.031998,-242.048004
1157.536011,-21.472000,-228.384003
1149.728027,-212.768005,-169.824005
1138.015991,-281.088013,-128.832001
1130.208008,-140.544006,-64.416000
1128.255981,169.824005,-27.327999
1126.303955,476.287994,15.616000
1153.631958,755.424011,40.992001
1147.776001,1009.184021,31.232000
1085.312012,1044.319946,39.040001
1083.359985,566.080017,25.375999
1130.208008,-173.727997,-7.808000
1161.439941,-681.247986,-23.424000
1229.760010,-759.328003,-58.560001
1116.543945,-507.519989,-42.944000
1147.776001,97.599998,-85.888000
1093.119995,575.840027,-117.120003
1057.984009,692.960022,-162.016006
1054.079956,402.112000,-222.528000
1057.984009,-7.808000,-275.231995
1057.984009,-290.847992,-327.936005
1061.887939,-441.152008,-355.264008
1026.751953,-376.735992,-359.167999
999.424011,-152.255997,-384.544006
987.711975,68.320000,-406.015991
970.143982,193.248001,-406.015991
940.864014,93.695999,-396.256012
942.815979,-113.216003,-402.112000
927.200012,-279.135986,-409.920013
