ACC_X,ACC_Y,ACC_Z
505.567993,454.816010,743.711975
507.519989,441.152008,733.952026
503.615997,450.911987,733.952026
511.424011,443.104004,741.760010
507.519989,445.056000,741.760010
509.471985,448.959991,739.807983
513.375977,452.864014,739.807983
509.471985,445.056000,739.807983
507.519989,448.959991,733.952026
507.519989,443.104004,739.807983
511.424011,447.007996,741.760010
507.519989,447.007996,735.903992
509.471985,452.864014,739.807983
507.519989,458.720001,737.856018
513.375977,454.816010,739.807983
503.615997,454.816010,730.047974
511.424011,462.623993,730.047974
497.760010,462.623993,733.952026
511.424011,462.623993,730.047974
501.664001,454.816010,737.856018
511.424011,450.911987,741.760010
515.328003,450.911987,739.807983
515.328003,450.911987,739.807983
513.375977,448.959991,730.047974
511.424011,456.768005,741.760010
505.567993,454.816010,741.760010
507.519989,454.816010,741.760010
513.375977,462.623993,743.711975
507.519989,448.959991,741.760010
511.424011,452.864014,733.952026
515.328003,462.623993,737.856018
509.471985,466.528015,737.856018
525.088013,456.768005,739.807983
515.328003,456.768005,743.711975
517.280029,458.720001,737.856018
519.231995,450.911987,743.711975
515.328003,462.623993,743.711975
519.231995,462.623993,743.711975
523.135986,456.768005,737.856018
519.231995,458.720001,743.711975
519.231995,452.864014,745.664001
523.135986,458.720001,751.520020
523.135986,458.720001,745.664001
523.135986,466.528015,747.616028
525.088013,458.720001,747.616028
523.135986,466.528015,745.664001
528.992004,468.480011,739.807983
528.992004,452.864014,747.616028
527.039978,448.959991,743.711975
532.895996,462.623993,739.807983
525.088013,460.671997,747.616028
527.039978,456.768005,751.520020
530.943970,462.623993,739.807983
532.895996,452.864014,747.616028
532.895996,458.720001,745.664001
532.895996,456.768005,743.711975
523.135986,462.623993,733.952026
523.135986,454.816010,737.856018
527.039978,470.432007,751.520020
532.895996,466.528015,745.664001
530.943970,462.623993,753.471985
540.703979,456.768005,749.567993
530.943970,452.864014,755.424011
534.848022,466.528015,745.664001
527.039978,452.864014,743.711975
528.992004,460.671997,745.664001
528.992004,458.720001,747.616028
532.895996,460.671997,739.807983
532.895996,470.432007,747.616028
534.848022,456.768005,741.760010
530.943970,452.864014,745.664001
523.135986,462.623993,745.664001
519.231995,456.768005,741.760010
527.039978,452.864014,745.664001
534.848022,460.671997,747.616028
528.992004,454.816010,743.711975
525.088013,450.911987,743.711975
521.184021,454.816010,743.711975
525.088013,445.056000,743.711975
528.992004,450.911987,743.711975
523.135986,460.671997,747.616028
528.992004,452.864014,735.903992
523.135986,458.720001,741.760010
525.088013,450.911987,743.711975
525.088013,452.864014,743.711975
519.231995,454.816010,751.520020
527.039978,458.720001,741.760010
511.424011,458.720001,737.856018
525.088013,450.911987,743.711975
521.184021,454.816010,737.856018
528.992004,458.720001,741.760010
525.088013,452.864014,747.616028
523.135986,454.816010,730.047974
523.135986,452.864014,739.807983
521.184021,458.720001,741.760010
523.135986,448.959991,735.903992
528.992004,447.007996,735.903992
519.231995,447.007996,741.760010
519.231995,452.864014,737.856018
519.231995,452.864014,747.616028
525.088013,447.007996,743.711975
525.088013,452.864014,737.856018
527.039978,447.007996,737.856018
521.184021,445.056000,737.856018
519.231995,441.152008,743.711975
523.135986,447.007996,741.760010
527.039978,439.200012,741.760010
519.231995,448.959991,743.711975
532.895996,450.911987,735.903992
527.039978,450.911987,743.711975
527.039978,452.864014,747.616028
525.088013,452.864014,743.711975
523.135986,448.959991,743.711975
525.088013,450.911987,749.567993
530.943970,452.864014,745.664001
528.992004,445.056000,749.567993
527.039978,447.007996,749.567993
536.799988,448.959991,745.664001
534.848022,443.104004,747.616028
530.943970,441.152008,757.375977
528.992004,443.104004,741.760010
532.895996,437.247986,747.616028
532.895996,437.247986,743.711975
532.895996,441.152008,753.471985
532.895996,439.200012,743.711975
527.039978,445.056000,743.711975
538.752014,450.911987,741.760010
536.799988,433.343994,739.807983
540.703979,433.343994,743.711975
534.848022,443.104004,743.711975
534.848022,445.056000,751.520020
540.703979,437.247986,743.711975
538.752014,437.247986,737.856018
536.799988,437.247986,741.760010
542.656006,439.200012,749.567993
540.703979,429.440002,747.616028
540.703979,431.391998,745.664001
528.992004,433.343994,747.616028
532.895996,435.295990,745.664001
527.039978,435.295990,747.616028
536.799988,441.152008,757.375977
538.752014,431.391998,755.424011
540.703979,423.584015,741.760010
532.895996,423.584015,755.424011
538.752014,423.584015,741.760010
538.752014,429.440002,737.856018
532.895996,429.440002,749.567993
528.992004,437.247986,747.616028
530.943970,433.343994,741.760010
534.848022,439.200012,745.664001
530.943970,429.440002,747.616028
530.943970,439.200012,743.711975
534.848022,425.536011,743.711975
536.799988,431.391998,751.520020
532.895996,429.440002,741.760010
530.943970,421.631989,743.711975
521.184021,431.391998,745.664001
527.039978,429.440002,743.711975
523.135986,431.391998,741.760010
525.088013,439.200012,745.664001
528.992004,421.631989,735.903992
523.135986,433.343994,739.807983
528.992004,429.440002,728.096008
528.992004,429.440002,743.711975
523.135986,437.247986,741.760010
521.184021,427.488007,745.664001
525.088013,425.536011,739.807983
525.088013,433.343994,739.807983
523.135986,429.440002,741.760010
525.088013,419.679993,743.711975
519.231995,431.391998,732.000000
519.231995,431.391998,730.047974
515.328003,421.631989,732.000000
511.424011,427.488007,739.807983
515.328003,423.584015,735.903992
507.519989,431.391998,726.143982
517.280029,429.440002,737.856018
519.231995,431.391998,739.807983
519.231995,427.488007,743.711975
521.184021,421.631989,732.000000
513.375977,427.488007,728.096008
507.519989,423.584015,741.760010
511.424011,423.584015,741.760010
517.280029,423.584015,741.760010
509.471985,423.584015,741.760010
499.712006,413.824005,737.856018
511.424011,423.584015,739.807983
499.712006,421.631989,737.856018
513.375977,419.679993,739.807983
505.567993,425.536011,739.807983
503.615997,423.584015,737.856018
509.471985,421.631989,733.952026
503.615997,415.776001,730.047974
491.903992,425.536011,732.000000
501.664001,417.727997,726.143982
509.471985,421.631989,732.000000
507.519989,425.536011,737.856018
497.760010,419.679993,737.856018
491.903992,423.584015,733.952026
499.712006,427.488007,730.047974
495.808014,417.727997,743.711975
505.567993,417.727997,743.711975
507.519989,421.631989,732.000000
501.664001,417.727997,726.143982
499.712006,415.776001,735.903992
501.664001,431.391998,733.952026
501.664001,417.727997,732.000000
499.712006,425.536011,735.903992
495.808014,427.488007,737.856018
501.664001,423.584015,737.856018
503.615997,423.584015,730.047974
501.664001,425.536011,735.903992
499.712006,421.631989,747.616028
497.760010,425.536011,733.952026
503.615997,421.631989,739.807983
503.615997,425.536011,737.856018
505.567993,423.584015,741.760010
509.471985,425.536011,747.616028
499.712006,419.679993,743.711975
499.712006,419.679993,745.664001
505.567993,421.631989,743.711975
509.471985,417.727997,739.807983
503.615997,419.679993,728.096008
507.519989,423.584015,732.000000
513.375977,421.631989,739.807983
507.519989,417.727997,747.616028
507.519989,417.727997,741.760010
513.375977,423.584015,739.807983
517.280029,425.536011,741.760010
509.471985,419.679993,739.807983
509.471985,425.536011,735.903992
513.375977,409.920013,732.000000
511.424011,419.679993,741.760010
517.280029,415.776001,739.807983
507.519989,419.679993,745.664001
509.471985,421.631989,737.856018
507.519989,423.584015,741.760010
515.328003,419.679993,732.000000
513.375977,417.727997,741.760010
515.328003,423.584015,743.711975
515.328003,415.776001,733.952026
517.280029,413.824005,743.711975
519.231995,417.727997,747.616028
525.088013,421.631989,743.711975
517.280029,417.727997,751.520020
519.231995,417.727997,739.807983
519.231995,413.824005,741.760010
523.135986,421.631989,741.760010
513.375977,419.679993,739.807983
523.135986,421.631989,741.760010
525.088013,421.631989,747.616028
519.231995,413.824005,741.760010
519.231995,421.631989,749.567993
517.280029,419.679993,741.760010
521.184021,406.015991,737.856018
530.943970,415.776001,747.616028
523.135986,423.584015,761.280029
528.992004,417.727997,755.424011
536.799988,421.631989,743.711975
527.039978,409.920013,741.760010
538.752014,415.776001,741.760010
530.943970,415.776001,751.520020
530.943970,409.920013,747.616028
534.848022,413.824005,757.375977
538.752014,417.727997,751.520020
530.943970,409.920013,755.424011
540.703979,415.776001,753.471985
540.703979,409.920013,753.471985
534.848022,413.824005,767.135986
534.848022,423.584015,757.375977
540.703979,427.488007,753.471985
538.752014,413.824005,753.471985
540.703979,419.679993,759.328003
538.752014,415.776001,753.471985
542.656006,423.584015,753.471985
546.559998,423.584015,749.567993
548.512024,413.824005,737.856018
542.656006,413.824005,751.520020
538.752014,419.679993,753.471985
548.512024,423.584015,751.520020
542.656006,413.824005,747.616028
550.463989,417.727997,753.471985
550.463989,409.920013,755.424011
548.512024,427.488007,757.375977
542.656006,419.679993,757.375977
538.752014,409.920013,749.567993
546.559998,425.536011,741.760010
542.656006,419.679993,747.616028
540.703979,413.824005,753.471985
550.463989,413.824005,745.664001
538.752014,415.776001,751.520020
542.656006,419.679993,751.520020
548.512024,429.440002,757.375977
544.607971,415.776001,753.471985
540.703979,429.440002,753.471985
538.752014,415.776001,741.760010
544.607971,425.536011,749.567993
544.607971,423.584015,749.567993
538.752014,425.536011,747.616028
538.752014,425.536011,747.616028
544.607971,423.584015,747.616028
542.656006,421.631989,753.471985
546.559998,425.536011,745.664001
546.559998,421.631989,751.520020
544.607971,425.536011,755.424011
536.799988,421.631989,749.567993
542.656006,431.391998,755.424011
548.512024,429.440002,749.567993
546.559998,413.824005,759.328003
552.416016,425.536011,747.616028
544.607971,421.631989,739.807983
540.703979,425.536011,755.424011
546.559998,429.440002,747.616028
542.656006,439.200012,751.520020
544.607971,429.440002,751.520020
552.416016,427.488007,745.664001
546.559998,435.295990,749.567993
544.607971,439.200012,759.328003
544.607971,443.104004,751.520020
548.512024,431.391998,755.424011
548.512024,433.343994,757.375977
540.703979,433.343994,749.567993
550.463989,431.391998,755.424011
546.559998,439.200012,745.664001
542.656006,431.391998,747.616028
544.607971,433.343994,745.664001
544.607971,417.727997,751.520020
546.559998,429.440002,755.424011
532.895996,433.343994,753.471985
538.752014,425.536011,751.520020
540.703979,433.343994,739.807983
534.848022,431.391998,741.760010
544.607971,437.247986,743.711975
536.799988,441.152008,737.856018
538.752014,439.200012,737.856018
532.895996,435.295990,741.760010
530.943970,435.295990,739.807983
534.848022,439.200012,741.760010
540.703979,437.247986,743.711975
538.752014,443.104004,741.760010
534.848022,441.152008,739.807983
538.752014,437.247986,749.567993
536.799988,437.247986,741.760010
530.943970,429.440002,737.856018
528.992004,431.391998,741.760010
528.992004,431.391998,732.000000
532.895996,437.247986,732.000000
528.992004,441.152008,735.903992
523.135986,441.152008,739.807983
523.135986,443.104004,732.000000
525.088013,437.247986,739.807983
523.135986,447.007996,733.952026
530.943970,441.152008,737.856018
534.848022,447.007996,730.047974
532.895996,447.007996,732.000000
523.135986,437.247986,728.096008
528.992004,443.104004,718.335999
530.943970,441.152008,724.192017
525.088013,443.104004,722.239990
519.231995,437.247986,728.096008
527.039978,437.247986,732.000000
527.039978,443.104004,724.192017
528.992004,445.056000,730.047974
521.184021,448.959991,724.192017
515.328003,448.959991,732.000000
523.135986,447.007996,732.000000
525.088013,433.343994,733.952026
528.992004,435.295990,728.096008
525.088013,437.247986,730.047974
525.088013,443.104004,730.047974
521.184021,437.247986,726.143982
523.135986,443.104004,724.192017
523.135986,443.104004,724.192017
523.135986,433.343994,722.239990
523.135986,437.247986,733.952026
521.184021,437.247986,730.047974
519.231995,435.295990,726.143982
517.280029,437.247986,728.096008
517.280029,441.152008,732.000000
521.184021,445.056000,730.047974
521.184021,443.104004,730.047974
523.135986,443.104004,726.143982
515.328003,439.200012,726.143982
513.375977,439.200012,732.000000
519.231995,435.295990,728.096008
507.519989,439.200012,730.047974
517.280029,441.152008,733.952026
515.328003,427.488007,730.047974
503.615997,419.679993,730.047974
503.615997,435.295990,739.807983
507.519989,435.295990,724.192017
499.712006,435.295990,722.239990
505.567993,431.391998,730.047974
507.519989,439.200012,733.952026
509.471985,441.152008,733.952026
511.424011,437.247986,747.616028
511.424011,437.247986,743.711975
507.519989,433.343994,726.143982
507.519989,435.295990,730.047974
503.615997,437.247986,735.903992
497.760010,427.488007,743.711975
501.664001,431.391998,741.760010
499.712006,437.247986,735.903992
499.712006,425.536011,733.952026
509.471985,437.247986,737.856018
499.712006,435.295990,733.952026
505.567993,437.247986,732.000000
499.712006,435.295990,728.096008
505.567993,429.440002,732.000000
503.615997,429.440002,728.096008
497.760010,425.536011,732.000000
493.855988,435.295990,732.000000
488.000000,433.343994,722.239990
493.855988,441.152008,724.192017
497.760010,433.343994,722.239990
493.855988,435.295990,728.096008
493.855988,437.247986,733.952026
493.855988,433.343994,726.143982
488.000000,431.391998,728.096008
488.000000,419.679993,722.239990
486.048004,427.488007,730.047974
488.000000,439.200012,726.143982
480.191986,429.440002,726.143982
476.287994,427.488007,724.192017
486.048004,429.440002,726.143982
486.048004,439.200012,724.192017
482.144012,447.007996,739.807983
484.096008,429.440002,724.192017
486.048004,435.295990,726.143982
497.760010,435.295990,716.383972
493.855988,431.391998,728.096008
488.000000,433.343994,732.000000
482.144012,437.247986,726.143982
480.191986,439.200012,724.192017
482.144012,433.343994,724.192017
489.951996,435.295990,714.432007
478.239990,439.200012,728.096008
482.144012,437.247986,718.335999
478.239990,431.391998,724.192017
478.239990,441.152008,728.096008
472.384003,439.200012,720.288025
476.287994,439.200012,724.192017
476.287994,443.104004,716.383972
478.239990,431.391998,724.192017
476.287994,429.440002,726.143982
474.335999,429.440002,724.192017
478.239990,433.343994,735.903992
476.287994,431.391998,726.143982
476.287994,433.343994,735.903992
468.480011,425.536011,722.239990
470.432007,429.440002,714.432007
472.384003,425.536011,718.335999
476.287994,441.152008,730.047974
476.287994,433.343994,724.192017
468.480011,429.440002,733.952026
482.144012,421.631989,722.239990
488.000000,431.391998,720.288025
480.191986,425.536011,720.288025
484.096008,431.391998,724.192017
480.191986,431.391998,724.192017
480.191986,435.295990,724.192017
478.239990,435.295990,716.383972
478.239990,425.536011,712.479980
482.144012,435.295990,712.479980
480.191986,431.391998,718.335999
482.144012,425.536011,716.383972
480.191986,425.536011,714.432007
482.144012,423.584015,712.479980
488.000000,415.776001,714.432007
482.144012,425.536011,712.479980
484.096008,425.536011,718.335999
493.855988,421.631989,716.383972
501.664001,407.967987,720.288025
493.855988,415.776001,712.479980
488.000000,419.679993,710.528015
489.951996,415.776001,718.335999
491.903992,419.679993,714.432007
488.000000,423.584015,716.383972
497.760010,417.727997,712.479980
491.903992,421.631989,712.479980
488.000000,417.727997,716.383972
493.855988,415.776001,712.479980
486.048004,423.584015,710.528015
488.000000,415.776001,712.479980
493.855988,421.631989,714.432007
493.855988,421.631989,714.432007
491.903992,421.631989,718.335999
484.096008,425.536011,716.383972
491.903992,427.488007,714.432007
491.903992,427.488007,710.528015
497.760010,421.631989,716.383972
497.760010,421.631989,712.479980
491.903992,419.679993,718.335999
497.760010,417.727997,724.192017
488.000000,425.536011,716.383972
497.760010,421.631989,724.192017
488.000000,415.776001,724.192017
497.760010,417.727997,718.335999
491.903992,417.727997,730.047974
493.855988,417.727997,728.096008
495.808014,417.727997,724.192017
495.808014,415.776001,724.192017
491.903992,415.776001,732.000000
489.951996,413.824005,726.143982
491.903992,413.824005,730.047974
493.855988,415.776001,735.903992
497.760010,411.872009,728.096008
501.664001,409.920013,733.952026
497.760010,404.063995,733.952026
497.760010,419.679993,735.903992
497.760010,413.824005,735.903992
491.903992,413.824005,737.856018
489.951996,417.727997,728.096008
495.808014,411.872009,728.096008
497.760010,406.015991,726.143982
491.903992,415.776001,724.192017
493.855988,406.015991,728.096008
493.855988,411.872009,728.096008
497.760010,409.920013,726.143982
495.808014,406.015991,730.047974
501.664001,406.015991,732.000000
491.903992,404.063995,730.047974
495.808014,402.112000,739.807983
497.760010,404.063995,728.096008
501.664001,406.015991,726.143982
503.615997,406.015991,735.903992
509.471985,417.727997,739.807983
499.712006,415.776001,747.616028
505.567993,413.824005,741.760010
497.760010,409.920013,743.711975
503.615997,421.631989,735.903992
503.615997,409.920013,735.903992
501.664001,407.967987,741.760010
507.519989,409.920013,737.856018
503.615997,415.776001,737.856018
509.471985,415.776001,733.952026
505.567993,419.679993,741.760010
501.664001,425.536011,732.000000
503.615997,423.584015,733.952026
503.615997,431.391998,743.711975
499.712006,431.391998,728.096008
509.471985,421.631989,735.903992
501.664001,425.536011,745.664001
505.567993,435.295990,735.903992
499.712006,431.391998,739.807983
511.424011,431.391998,739.807983
507.519989,427.488007,737.856018
507.519989,425.536011,741.760010
495.808014,427.488007,739.807983
499.712006,431.391998,728.096008
503.615997,427.488007,733.952026
503.615997,435.295990,743.711975
499.712006,443.104004,751.520020
495.808014,439.200012,733.952026
501.664001,441.152008,739.807983
505.567993,448.959991,743.711975
499.712006,447.007996,743.711975
505.567993,443.104004,733.952026
505.567993,450.911987,743.711975
503.615997,445.056000,737.856018
499.712006,441.152008,747.616028
509.471985,447.007996,735.903992
501.664001,439.200012,741.760010
501.664001,441.152008,733.952026
505.567993,441.152008,743.711975
497.760010,441.152008,743.711975
493.855988,441.152008,743.711975
503.615997,454.816010,737.856018
505.567993,454.816010,751.520020
497.760010,458.720001,743.711975
497.760010,462.623993,739.807983
505.567993,458.720001,743.711975
497.760010,458.720001,741.760010
493.855988,460.671997,735.903992
491.903992,454.816010,737.856018
491.903992,458.720001,733.952026
491.903992,468.480011,730.047974
497.760010,456.768005,728.096008
491.903992,454.816010,732.000000
491.903992,454.816010,726.143982
497.760010,458.720001,735.903992
486.048004,462.623993,730.047974
486.048004,460.671997,726.143982
491.903992,456.768005,726.143982
489.951996,452.864014,728.096008
493.855988,462.623993,732.000000
488.000000,462.623993,730.047974
488.000000,454.816010,722.239990
488.000000,452.864014,726.143982
488.000000,456.768005,728.096008
488.000000,456.768005,728.096008
488.000000,466.528015,722.239990
491.903992,452.864014,714.432007
491.903992,464.575989,714.432007
491.903992,460.671997,722.239990
501.664001,458.720001,718.335999
495.808014,456.768005,718.335999
493.855988,468.480011,728.096008
493.855988,456.768005,722.239990
493.855988,460.671997,720.288025
501.664001,460.671997,726.143982
499.712006,456.768005,720.288025
501.664001,452.864014,714.432007
503.615997,450.911987,714.432007
505.567993,454.816010,728.096008
503.615997,448.959991,718.335999
499.712006,456.768005,722.239990
501.664001,462.623993,722.239990
513.375977,460.671997,732.000000
515.328003,466.528015,722.239990
507.519989,460.671997,726.143982
507.519989,470.432007,726.143982
519.231995,462.623993,732.000000
511.424011,470.432007,733.952026
519.231995,464.575989,726.143982
517.280029,466.528015,732.000000
519.231995,464.575989,732.000000
515.328003,468.480011,737.856018
530.943970,468.480011,733.952026
527.039978,462.623993,733.952026
525.088013,466.528015,732.000000
519.231995,460.671997,735.903992
521.184021,470.432007,739.807983
536.799988,466.528015,733.952026
523.135986,458.720001,737.856018
530.943970,456.768005,733.952026
528.992004,462.623993,728.096008
528.992004,460.671997,739.807983
530.943970,468.480011,728.096008
536.799988,468.480011,732.000000
532.895996,474.335999,735.903992
527.039978,470.432007,743.711975
538.752014,464.575989,730.047974
527.039978,468.480011,739.807983
530.943970,468.480011,732.000000
532.895996,466.528015,739.807983
530.943970,464.575989,732.000000
534.848022,472.384003,733.952026
530.943970,474.335999,732.000000
528.992004,468.480011,732.000000
536.799988,470.432007,733.952026
538.752014,464.575989,726.143982
536.799988,466.528015,726.143982
536.799988,468.480011,730.047974
534.848022,472.384003,728.096008
536.799988,468.480011,728.096008
540.703979,470.432007,726.143982
536.799988,472.384003,726.143982
528.992004,474.335999,728.096008
528.992004,484.096008,718.335999
530.943970,480.191986,718.335999
530.943970,484.096008,716.383972
525.088013,484.096008,724.192017
527.039978,476.287994,718.335999
525.088013,472.384003,714.432007
534.848022,468.480011,716.383972
538.752014,476.287994,720.288025
528.992004,472.384003,718.335999
530.943970,476.287994,714.432007
519.231995,476.287994,714.432007
528.992004,484.096008,712.479980
530.943970,478.239990,710.528015
530.943970,476.287994,716.383972
528.992004,478.239990,716.383972
528.992004,482.144012,720.288025
528.992004,476.287994,714.432007
528.992004,476.287994,716.383972
528.992004,482.144012,716.383972
528.992004,484.096008,714.432007
525.088013,484.096008,720.288025
527.039978,489.951996,722.239990
525.088013,476.287994,724.192017
528.992004,482.144012,714.432007
525.088013,480.191986,716.383972
517.280029,474.335999,710.528015
515.328003,482.144012,712.479980
519.231995,489.951996,712.479980
521.184021,489.951996,714.432007
517.280029,488.000000,720.288025
523.135986,493.855988,714.432007
525.088013,495.808014,710.528015
519.231995,493.855988,710.528015
521.184021,488.000000,714.432007
509.471985,493.855988,716.383972
521.184021,493.855988,706.624023
523.135986,491.903992,710.528015
527.039978,495.808014,710.528015
525.088013,484.096008,712.479980
519.231995,491.903992,712.479980
528.992004,491.903992,710.528015
523.135986,488.000000,706.624023
528.992004,497.760010,710.528015
532.895996,491.903992,710.528015
527.039978,491.903992,710.528015
523.135986,497.760010,708.575989
525.088013,503.615997,706.624023
519.231995,499.712006,702.719971
521.184021,501.664001,702.719971
525.088013,493.855988,708.575989
528.992004,493.855988,700.768005
525.088013,493.855988,708.575989
536.799988,493.855988,698.815979
519.231995,493.855988,708.575989
530.943970,491.903992,702.719971
528.992004,489.951996,702.719971
530.943970,495.808014,704.671997
527.039978,488.000000,702.719971
530.943970,495.808014,700.768005
528.992004,495.808014,702.719971
530.943970,499.712006,700.768005
530.943970,488.000000,696.864014
536.799988,484.096008,706.624023
528.992004,495.808014,702.719971
530.943970,495.808014,702.719971
532.895996,491.903992,710.528015
540.703979,493.855988,706.624023
534.848022,497.760010,692.960022
534.848022,488.000000,696.864014
536.799988,489.951996,700.768005
540.703979,484.096008,696.864014
534.848022,491.903992,696.864014
540.703979,484.096008,704.671997
538.752014,488.000000,710.528015
540.703979,491.903992,702.719971
532.895996,484.096008,696.864014
544.607971,493.855988,704.671997
546.559998,489.951996,702.719971
538.752014,480.191986,708.575989
544.607971,476.287994,716.383972
544.607971,480.191986,708.575989
542.656006,484.096008,708.575989
544.607971,489.951996,700.768005
542.656006,484.096008,704.671997
546.559998,486.048004,698.815979
550.463989,488.000000,702.719971
544.607971,491.903992,712.479980
542.656006,488.000000,710.528015
544.607971,482.144012,698.815979
546.559998,480.191986,704.671997
540.703979,488.000000,712.479980
542.656006,484.096008,706.624023
550.463989,476.287994,712.479980
550.463989,476.287994,712.479980
542.656006,468.480011,712.479980
546.559998,472.384003,708.575989
554.367981,472.384003,710.528015
556.320007,476.287994,712.479980
552.416016,460.671997,710.528015
544.607971,474.335999,708.575989
546.559998,476.287994,704.671997
550.463989,474.335999,710.528015
552.416016,470.432007,714.432007
550.463989,462.623993,700.768005
546.559998,464.575989,694.911987
552.416016,476.287994,706.624023
564.127991,472.384003,702.719971
548.512024,472.384003,704.671997
550.463989,476.287994,710.528015
546.559998,474.335999,700.768005
548.512024,464.575989,698.815979
552.416016,468.480011,712.479980
546.559998,470.432007,702.719971
546.559998,468.480011,718.335999
546.559998,464.575989,712.479980
542.656006,474.335999,702.719971
544.607971,466.528015,712.479980
550.463989,466.528015,708.575989
550.463989,466.528015,710.528015
552.416016,466.528015,712.479980
542.656006,468.480011,716.383972
552.416016,462.623993,706.624023
546.559998,470.432007,710.528015
544.607971,472.384003,708.575989
546.559998,468.480011,706.624023
542.656006,454.816010,716.383972
552.416016,462.623993,716.383972
548.512024,454.816010,714.432007
550.463989,456.768005,718.335999
546.559998,462.623993,714.432007
552.416016,456.768005,716.383972
548.512024,454.816010,716.383972
538.752014,456.768005,722.239990
552.416016,456.768005,720.288025
554.367981,460.671997,722.239990
546.559998,462.623993,718.335999
546.559998,447.007996,722.239990
542.656006,452.864014,722.239990
554.367981,452.864014,722.239990
538.752014,443.104004,722.239990
542.656006,454.816010,722.239990
556.320007,452.864014,730.047974
554.367981,447.007996,733.952026
556.320007,441.152008,743.711975
554.367981,445.056000,724.192017
554.367981,447.007996,728.096008
552.416016,454.816010,732.000000
550.463989,445.056000,730.047974
548.512024,452.864014,724.192017
552.416016,452.864014,728.096008
542.656006,441.152008,732.000000
546.559998,441.152008,732.000000
546.559998,445.056000,726.143982
550.463989,452.864014,724.192017
550.463989,443.104004,722.239990
546.559998,439.200012,732.000000
550.463989,437.247986,728.096008
548.512024,435.295990,728.096008
544.607971,439.200012,728.096008
538.752014,439.200012,726.143982
546.559998,431.391998,735.903992
544.607971,435.295990,724.192017
542.656006,429.440002,726.143982
542.656006,433.343994,726.143982
542.656006,421.631989,728.096008
552.416016,427.488007,720.288025
552.416016,421.631989,730.047974
550.463989,429.440002,726.143982
548.512024,429.440002,726.143982
550.463989,433.343994,728.096008
548.512024,439.200012,724.192017
548.512024,429.440002,726.143982
542.656006,429.440002,726.143982
538.752014,421.631989,720.288025
538.752014,423.584015,720.288025
542.656006,427.488007,726.143982
534.848022,431.391998,714.432007
540.703979,429.440002,724.192017
530.943970,419.679993,718.335999
538.752014,429.440002,726.143982
538.752014,427.488007,728.096008
550.463989,435.295990,724.192017
548.512024,429.440002,712.479980
552.416016,423.584015,726.143982
550.463989,421.631989,737.856018
546.559998,421.631989,728.096008
546.559998,421.631989,732.000000
546.559998,421.631989,728.096008
548.512024,435.295990,733.952026
556.320007,421.631989,718.335999
550.463989,435.295990,730.047974
550.463989,431.391998,730.047974
552.416016,429.440002,728.096008
550.463989,431.391998,728.096008
546.559998,433.343994,726.143982
560.223999,427.488007,724.192017
560.223999,437.247986,735.903992
556.320007,437.247986,733.952026
554.367981,435.295990,722.239990
552.416016,421.631989,728.096008
558.271973,433.343994,728.096008
558.271973,423.584015,728.096008
554.367981,431.391998,730.047974
562.176025,425.536011,728.096008
556.320007,431.391998,728.096008
558.271973,429.440002,732.000000
564.127991,431.391998,737.856018
566.080017,423.584015,735.903992
560.223999,429.440002,743.711975
568.031982,431.391998,728.096008
571.935974,421.631989,722.239990
568.031982,427.488007,730.047974
568.031982,425.536011,724.192017
571.935974,423.584015,737.856018
566.080017,421.631989,739.807983
566.080017,413.824005,730.047974
571.935974,421.631989,739.807983
571.935974,415.776001,732.000000
575.840027,406.015991,741.760010
579.744019,406.015991,741.760010
581.695984,411.872009,739.807983
569.984009,411.872009,733.952026
579.744019,402.112000,726.143982
577.791992,421.631989,728.096008
579.744019,413.824005,735.903992
581.695984,411.872009,741.760010
573.888000,404.063995,735.903992
575.840027,407.967987,733.952026
585.599976,409.920013,741.760010
591.455994,407.967987,741.760010
585.599976,409.920013,739.807983
583.648010,400.160004,741.760010
583.648010,407.967987,741.760010
583.648010,406.015991,743.711975
581.695984,409.920013,743.711975
591.455994,396.256012,751.520020
585.599976,407.967987,747.616028
583.648010,407.967987,753.471985
583.648010,406.015991,749.567993
591.455994,400.160004,751.520020
587.552002,404.063995,753.471985
581.695984,402.112000,757.375977
585.599976,402.112000,753.471985
585.599976,402.112000,753.471985
581.695984,398.208008,757.375977
583.648010,406.015991,755.424011
591.455994,406.015991,753.471985
589.504028,402.112000,751.520020
585.599976,411.872009,757.375977
589.504028,407.967987,753.471985
577.791992,402.112000,751.520020
585.599976,407.967987,753.471985
585.599976,407.967987,745.664001
585.599976,407.967987,753.471985
589.504028,402.112000,745.664001
585.599976,398.208008,745.664001
581.695984,406.015991,759.328003
581.695984,406.015991,759.328003
581.695984,407.967987,757.375977
577.791992,409.920013,759.328003
573.888000,407.967987,767.135986
577.791992,409.920013,759.328003
583.648010,411.872009,757.375977
577.791992,409.920013,759.328003
581.695984,404.063995,759.328003
577.791992,400.160004,755.424011
587.552002,406.015991,753.471985
581.695984,407.967987,751.520020
587.552002,404.063995,753.471985
585.599976,396.256012,751.520020
573.888000,400.160004,755.424011
583.648010,404.063995,751.520020
579.744019,400.160004,759.328003
583.648010,404.063995,749.567993
575.840027,398.208008,753.471985
591.455994,394.303986,753.471985
579.744019,406.015991,755.424011
577.791992,404.063995,751.520020
587.552002,406.015991,753.471985
587.552002,406.015991,759.328003
581.695984,415.776001,751.520020
587.552002,406.015991,751.520020
579.744019,406.015991,751.520020
583.648010,394.303986,755.424011
587.552002,406.015991,759.328003
585.599976,409.920013,757.375977
579.744019,407.967987,757.375977
587.552002,402.112000,751.520020
587.552002,411.872009,753.471985
579.744019,406.015991,751.520020
585.599976,406.015991,757.375977
585.599976,407.967987,755.424011
587.552002,406.015991,759.328003
587.552002,415.776001,749.567993
585.599976,413.824005,755.424011
583.648010,413.824005,757.375977
583.648010,411.872009,755.424011
579.744019,406.015991,751.520020
591.455994,411.872009,757.375977
585.599976,411.872009,755.424011
595.359985,413.824005,755.424011
585.599976,409.920013,755.424011
589.504028,406.015991,757.375977
589.504028,413.824005,755.424011
589.504028,415.776001,755.424011
581.695984,415.776001,751.520020
587.552002,423.584015,759.328003
579.744019,415.776001,741.760010
585.599976,404.063995,751.520020
595.359985,406.015991,745.664001
587.552002,413.824005,749.567993
597.312012,409.920013,749.567993
595.359985,413.824005,763.231995
593.408020,423.584015,757.375977
593.408020,415.776001,749.567993
589.504028,425.536011,759.328003
595.359985,419.679993,759.328003
593.408020,423.584015,753.471985
589.504028,415.776001,755.424011
593.408020,419.679993,755.424011
599.263977,417.727997,751.520020
599.263977,419.679993,755.424011
597.312012,425.536011,749.567993
595.359985,415.776001,757.375977
593.408020,417.727997,751.520020
599.263977,419.679993,751.520020
585.599976,425.536011,759.328003
591.455994,417.727997,757.375977
597.312012,419.679993,763.231995
593.408020,417.727997,753.471985
593.408020,409.920013,747.616028
599.263977,417.727997,749.567993
593.408020,421.631989,747.616028
591.455994,421.631989,749.567993
593.408020,419.679993,747.616028
595.359985,427.488007,741.760010
593.408020,425.536011,751.520020
599.263977,419.679993,753.471985
589.504028,415.776001,755.424011
585.599976,423.584015,749.567993
587.552002,417.727997,745.664001
591.455994,433.343994,743.711975
589.504028,427.488007,743.711975
585.599976,421.631989,743.711975
587.552002,421.631989,747.616028
591.455994,421.631989,743.711975
591.455994,419.679993,743.711975
579.744019,417.727997,741.760010
579.744019,413.824005,741.760010
569.984009,423.584015,747.616028
573.888000,421.631989,733.952026
579.744019,423.584015,741.760010
577.791992,429.440002,747.616028
575.840027,419.679993,728.096008
573.888000,427.488007,730.047974
568.031982,421.631989,724.192017
566.080017,417.727997,726.143982
573.888000,421.631989,733.952026
573.888000,433.343994,730.047974
575.840027,431.391998,732.000000
562.176025,419.679993,737.856018
568.031982,421.631989,728.096008
575.840027,427.488007,724.192017
568.031982,413.824005,720.288025
569.984009,407.967987,728.096008
568.031982,419.679993,724.192017
566.080017,419.679993,730.047974
568.031982,407.967987,726.143982
564.127991,417.727997,724.192017
564.127991,406.015991,732.000000
564.127991,413.824005,724.192017
566.080017,413.824005,728.096008
554.367981,417.727997,724.192017
558.271973,413.824005,724.192017
556.320007,415.776001,720.288025
562.176025,419.679993,724.192017
560.223999,411.872009,722.239990
560.223999,413.824005,724.192017
556.320007,402.112000,722.239990
556.320007,402.112000,728.096008
558.271973,409.920013,716.383972
562.176025,404.063995,722.239990
560.223999,402.112000,728.096008
558.271973,411.872009,732.000000
558.271973,415.776001,718.335999
562.176025,406.015991,728.096008
568.031982,407.967987,726.143982
560.223999,404.063995,728.096008
562.176025,394.303986,728.096008
564.127991,400.160004,735.903992
564.127991,398.208008,728.096008
560.223999,390.399994,718.335999
554.367981,392.351990,732.000000
554.367981,392.351990,733.952026
558.271973,392.351990,724.192017
560.223999,390.399994,724.192017
554.367981,382.592010,728.096008
556.320007,390.399994,716.383972
550.463989,392.351990,714.432007
552.416016,392.351990,726.143982
558.271973,380.640015,726.143982
546.559998,390.399994,728.096008
554.367981,388.447998,724.192017
546.559998,392.351990,726.143982
560.223999,384.544006,735.903992
558.271973,382.592010,735.903992
560.223999,370.880005,732.000000
562.176025,376.735992,726.143982
554.367981,374.783997,728.096008
560.223999,376.735992,724.192017
556.320007,376.735992,733.952026
550.463989,368.928009,726.143982
552.416016,363.071991,730.047974
550.463989,374.783997,735.903992
550.463989,366.976013,728.096008
552.416016,366.976013,722.239990
564.127991,361.119995,735.903992
552.416016,359.167999,732.000000
552.416016,363.071991,724.192017
550.463989,366.976013,728.096008
546.559998,368.928009,722.239990
554.367981,361.119995,724.192017
554.367981,361.119995,726.143982
544.607971,355.264008,728.096008
544.607971,359.167999,728.096008
544.607971,361.119995,741.760010
546.559998,359.167999,730.047974
546.559998,365.023987,730.047974
542.656006,355.264008,728.096008
540.703979,365.023987,737.856018
540.703979,353.312012,730.047974
530.943970,368.928009,732.000000
540.703979,357.216003,728.096008
544.607971,347.455994,728.096008
540.703979,355.264008,730.047974
534.848022,355.264008,726.143982
534.848022,351.359985,730.047974
540.703979,359.167999,732.000000
530.943970,359.167999,718.335999
534.848022,359.167999,733.952026
530.943970,365.023987,739.807983
540.703979,363.071991,735.903992
527.039978,361.119995,726.143982
532.895996,359.167999,733.952026
530.943970,347.455994,732.000000
528.992004,355.264008,733.952026
527.039978,353.312012,730.047974
536.799988,361.119995,745.664001
538.752014,361.119995,739.807983
532.895996,355.264008,733.952026
536.799988,359.167999,743.711975
525.088013,363.071991,735.903992
527.039978,365.023987,730.047974
532.895996,361.119995,735.903992
523.135986,355.264008,733.952026
528.992004,361.119995,732.000000
527.039978,357.216003,735.903992
532.895996,357.216003,735.903992
527.039978,353.312012,737.856018
527.039978,351.359985,737.856018
532.895996,349.407990,730.047974
534.848022,359.167999,732.000000
528.992004,361.119995,730.047974
515.328003,359.167999,728.096008
523.135986,361.119995,730.047974
519.231995,363.071991,728.096008
525.088013,359.167999,735.903992
525.088013,357.216003,718.335999
527.039978,361.119995,732.000000
523.135986,361.119995,733.952026
511.424011,366.976013,730.047974
521.184021,359.167999,745.664001
511.424011,361.119995,733.952026
509.471985,366.976013,728.096008
513.375977,366.976013,726.143982
511.424011,366.976013,726.143982
505.567993,366.976013,726.143982
517.280029,368.928009,714.432007
507.519989,376.735992,724.192017
509.471985,372.832001,714.432007
509.471985,372.832001,718.335999
499.712006,370.880005,726.143982
499.712006,370.880005,728.096008
499.712006,370.880005,722.239990
505.567993,366.976013,718.335999
499.712006,366.976013,716.383972
495.808014,366.976013,702.719971
501.664001,370.880005,708.575989
495.808014,368.928009,722.239990
491.903992,366.976013,714.432007
491.903992,370.880005,716.383972
495.808014,378.687988,712.479980
491.903992,374.783997,700.768005
491.903992,366.976013,708.575989
499.712006,370.880005,706.624023
493.855988,366.976013,708.575989
488.000000,376.735992,704.671997
501.664001,380.640015,700.768005
501.664001,374.783997,712.479980
495.808014,366.976013,714.432007
497.760010,372.832001,708.575989
488.000000,363.071991,708.575989
499.712006,370.880005,708.575989
497.760010,372.832001,710.528015
499.712006,368.928009,708.575989
499.712006,365.023987,714.432007
499.712006,365.023987,712.479980
495.808014,365.023987,710.528015
501.664001,365.023987,710.528015
503.615997,372.832001,714.432007
505.567993,368.928009,708.575989
503.615997,370.880005,708.575989
513.375977,365.023987,708.575989
503.615997,374.783997,706.624023
507.519989,361.119995,710.528015
501.664001,368.928009,710.528015
503.615997,366.976013,716.383972
507.519989,363.071991,710.528015
511.424011,366.976013,712.479980
503.615997,363.071991,712.479980
507.519989,363.071991,710.528015
507.519989,374.783997,718.335999
509.471985,363.071991,712.479980
515.328003,370.880005,720.288025
515.328003,366.976013,712.479980
517.280029,365.023987,706.624023
515.328003,368.928009,712.479980
517.280029,363.071991,708.575989
517.280029,365.023987,716.383972
517.280029,357.216003,716.383972
505.567993,365.023987,718.335999
515.328003,363.071991,716.383972
513.375977,372.832001,714.432007
521.184021,370.880005,720.288025
515.328003,368.928009,710.528015
519.231995,376.735992,706.624023
528.992004,374.783997,728.096008
523.135986,374.783997,726.143982
527.039978,368.928009,722.239990
523.135986,363.071991,724.192017
527.039978,372.832001,728.096008
527.039978,372.832001,728.096008
532.895996,374.783997,712.479980
534.848022,368.928009,710.528015
538.752014,372.832001,726.143982
532.895996,372.832001,733.952026
536.799988,370.880005,732.000000
536.799988,380.640015,728.096008
540.703979,374.783997,724.192017
532.895996,370.880005,722.239990
534.848022,370.880005,722.239990
546.559998,374.783997,718.335999
542.656006,382.592010,714.432007
546.559998,384.544006,720.288025
538.752014,392.351990,722.239990
546.559998,390.399994,720.288025
538.752014,386.496002,714.432007
538.752014,382.592010,722.239990
540.703979,390.399994,722.239990
538.752014,382.592010,714.432007
536.799988,388.447998,720.288025
544.607971,378.687988,726.143982
550.463989,380.640015,722.239990
540.703979,388.447998,726.143982
548.512024,386.496002,722.239990
536.799988,392.351990,720.288025
540.703979,390.399994,728.096008
542.656006,396.256012,728.096008
548.512024,392.351990,720.288025
550.463989,392.351990,722.239990
552.416016,400.160004,720.288025
552.416016,394.303986,714.432007
556.320007,388.447998,722.239990
552.416016,380.640015,726.143982
556.320007,398.208008,718.335999
556.320007,398.208008,728.096008
554.367981,406.015991,726.143982
556.320007,406.015991,728.096008
554.367981,396.256012,720.288025
564.127991,400.160004,720.288025
564.127991,413.824005,730.047974
556.320007,406.015991,726.143982
550.463989,404.063995,728.096008
554.367981,404.063995,722.239990
554.367981,413.824005,726.143982
554.367981,413.824005,726.143982
558.271973,411.872009,724.192017
556.320007,406.015991,728.096008
552.416016,409.920013,728.096008
546.559998,411.872009,726.143982
550.463989,413.824005,718.335999
548.512024,407.967987,716.383972
552.416016,409.920013,716.383972
550.463989,419.679993,710.528015
548.512024,419.679993,706.624023
544.607971,423.584015,720.288025
548.512024,415.776001,722.239990
548.512024,421.631989,724.192017
548.512024,413.824005,714.432007
556.320007,427.488007,718.335999
550.463989,421.631989,718.335999
554.367981,425.536011,706.624023
552.416016,427.488007,714.432007
550.463989,421.631989,714.432007
546.559998,439.200012,702.719971
546.559998,429.440002,714.432007
554.367981,435.295990,710.528015
554.367981,439.200012,710.528015
554.367981,439.200012,714.432007
556.320007,429.440002,710.528015
556.320007,427.488007,706.624023
552.416016,439.200012,708.575989
552.416016,435.295990,710.528015
554.367981,439.200012,710.528015
556.320007,441.152008,714.432007
554.367981,433.343994,710.528015
556.320007,433.343994,702.719971
546.559998,439.200012,714.432007
560.223999,439.200012,716.383972
556.320007,437.247986,708.575989
554.367981,439.200012,710.528015
564.127991,439.200012,714.432007
560.223999,441.152008,712.479980
558.271973,437.247986,708.575989
566.080017,439.200012,716.383972
568.031982,443.104004,708.575989
564.127991,452.864014,722.239990
564.127991,441.152008,718.335999
568.031982,445.056000,722.239990
571.935974,441.152008,720.288025
571.935974,443.104004,724.192017
569.984009,439.200012,726.143982
579.744019,433.343994,726.143982
573.888000,439.200012,726.143982
569.984009,443.104004,720.288025
577.791992,443.104004,735.903992
577.791992,437.247986,737.856018
575.840027,441.152008,732.000000
575.840027,441.152008,732.000000
579.744019,439.200012,733.952026
571.935974,439.200012,743.711975
581.695984,447.007996,735.903992
581.695984,437.247986,728.096008
585.599976,443.104004,724.192017
581.695984,431.391998,726.143982
587.552002,429.440002,724.192017
587.552002,437.247986,722.239990
587.552002,441.152008,716.383972
573.888000,443.104004,714.432007
569.984009,443.104004,708.575989
583.648010,448.959991,702.719971
575.840027,448.959991,702.719971
558.271973,450.911987,692.960022
575.840027,456.768005,694.911987
573.888000,454.816010,683.200012
568.031982,448.959991,683.200012
564.127991,452.864014,683.200012
562.176025,448.959991,675.392029
564.127991,454.816010,673.440002
556.320007,447.007996,681.247986
562.176025,456.768005,671.487976
566.080017,454.816010,667.583984
566.080017,452.864014,679.296021
568.031982,448.959991,685.151978
558.271973,458.720001,683.200012
564.127991,458.720001,687.104004
564.127991,448.959991,692.960022
564.127991,462.623993,687.104004
569.984009,464.575989,694.911987
562.176025,470.432007,689.056030
568.031982,470.432007,692.960022
573.888000,464.575989,694.911987
583.648010,454.816010,694.911987
575.840027,460.671997,698.815979
569.984009,468.480011,708.575989
571.935974,456.768005,691.007996
579.744019,462.623993,700.768005
569.984009,458.720001,694.911987
568.031982,456.768005,698.815979
569.984009,454.816010,691.007996
577.791992,464.575989,689.056030
573.888000,462.623993,692.960022
577.791992,452.864014,700.768005
581.695984,458.720001,694.911987
585.599976,460.671997,683.200012
587.552002,462.623993,696.864014
581.695984,466.528015,696.864014
585.599976,470.432007,708.575989
579.744019,458.720001,694.911987
591.455994,462.623993,702.719971
585.599976,466.528015,698.815979
577.791992,468.480011,704.671997
587.552002,462.623993,708.575989
589.504028,454.816010,706.624023
597.312012,454.816010,716.383972
595.359985,458.720001,714.432007
593.408020,458.720001,716.383972
599.263977,448.959991,720.288025
597.312012,456.768005,718.335999
593.408020,452.864014,716.383972
591.455994,452.864014,712.479980
597.312012,454.816010,712.479980
597.312012,448.959991,706.624023
609.023987,448.959991,708.575989
599.263977,452.864014,704.671997
603.168030,466.528015,712.479980
599.263977,454.816010,702.719971
597.312012,448.959991,704.671997
603.168030,458.720001,691.007996
605.119995,466.528015,712.479980
605.119995,454.816010,712.479980
605.119995,454.816010,718.335999
607.072021,454.816010,712.479980
601.216003,450.911987,718.335999
607.072021,447.007996,728.096008
607.072021,450.911987,728.096008
605.119995,458.720001,726.143982
610.976013,452.864014,724.192017
603.168030,447.007996,730.047974
607.072021,447.007996,739.807983
610.976013,452.864014,737.856018
618.783997,452.864014,743.711975
614.880005,458.720001,728.096008
609.023987,454.816010,726.143982
605.119995,458.720001,730.047974
607.072021,454.816010,720.288025
607.072021,462.623993,714.432007
605.119995,468.480011,714.432007
601.216003,462.623993,710.528015
601.216003,454.816010,710.528015
597.312012,458.720001,710.528015
593.408020,460.671997,691.007996
597.312012,462.623993,692.960022
603.168030,460.671997,683.200012
599.263977,454.816010,679.296021
599.263977,454.816010,700.768005
595.359985,448.959991,694.911987
603.168030,448.959991,702.719971
607.072021,450.911987,700.768005
607.072021,441.152008,698.815979
605.119995,460.671997,704.671997
605.119995,448.959991,716.383972
607.072021,466.528015,714.432007
603.168030,464.575989,714.432007
605.119995,468.480011,712.479980
607.072021,474.335999,710.528015
610.976013,478.239990,714.432007
595.359985,468.480011,704.671997
601.216003,476.287994,708.575989
601.216003,478.239990,710.528015
601.216003,474.335999,708.575989
591.455994,474.335999,698.815979
593.408020,462.623993,694.911987
595.359985,462.623993,696.864014
597.312012,466.528015,687.104004
595.359985,454.816010,687.104004
591.455994,452.864014,692.960022
593.408020,452.864014,685.151978
589.504028,456.768005,692.960022
589.504028,452.864014,685.151978
591.455994,458.720001,687.104004
591.455994,460.671997,689.056030
603.168030,464.575989,692.960022
599.263977,472.384003,694.911987
603.168030,474.335999,696.864014
595.359985,474.335999,704.671997
607.072021,478.239990,702.719971
607.072021,478.239990,700.768005
601.216003,474.335999,710.528015
607.072021,476.287994,720.288025
612.927979,470.432007,718.335999
607.072021,466.528015,718.335999
607.072021,466.528015,712.479980
614.880005,462.623993,716.383972
616.831970,462.623993,720.288025
614.880005,466.528015,716.383972
624.640015,452.864014,712.479980
612.927979,448.959991,708.575989
614.880005,448.959991,702.719971
610.976013,452.864014,706.624023
618.783997,452.864014,706.624023
620.736023,462.623993,708.575989
609.023987,458.720001,704.671997
610.976013,454.816010,708.575989
610.976013,456.768005,708.575989
610.976013,454.816010,710.528015
618.783997,452.864014,704.671997
612.927979,450.911987,716.383972
609.023987,460.671997,716.383972
607.072021,456.768005,712.479980
603.168030,450.911987,722.239990
610.976013,450.911987,724.192017
614.880005,450.911987,728.096008
618.783997,445.056000,724.192017
610.976013,441.152008,730.047974
610.976013,437.247986,728.096008
605.119995,445.056000,722.239990
605.119995,448.959991,718.335999
605.119995,447.007996,712.479980
597.312012,450.911987,708.575989
599.263977,445.056000,708.575989
589.504028,439.200012,710.528015
595.359985,437.247986,704.671997
593.408020,437.247986,698.815979
595.359985,450.911987,691.007996
587.552002,447.007996,687.104004
591.455994,443.104004,696.864014
589.504028,448.959991,704.671997
589.504028,443.104004,704.671997
587.552002,441.152008,692.960022
581.695984,437.247986,696.864014
585.599976,454.816010,704.671997
585.599976,447.007996,702.719971
587.552002,437.247986,708.575989
585.599976,439.200012,710.528015
593.408020,431.391998,708.575989
589.504028,439.200012,716.383972
585.599976,433.343994,714.432007
591.455994,439.200012,716.383972
589.504028,439.200012,710.528015
591.455994,441.152008,706.624023
587.552002,445.056000,714.432007
581.695984,439.200012,712.479980
591.455994,441.152008,704.671997
585.599976,433.343994,708.575989
583.648010,447.007996,700.768005
599.263977,437.247986,696.864014
593.408020,437.247986,696.864014
589.504028,443.104004,700.768005
595.359985,450.911987,708.575989
599.263977,443.104004,710.528015
593.408020,439.200012,714.432007
603.168030,433.343994,714.432007
607.072021,448.959991,714.432007
603.168030,435.295990,714.432007
607.072021,443.104004,724.192017
610.976013,443.104004,722.239990
609.023987,437.247986,726.143982
609.023987,439.200012,732.000000
607.072021,447.007996,732.000000
605.119995,441.152008,732.000000
607.072021,445.056000,733.952026
610.976013,439.200012,726.143982
612.927979,443.104004,728.096008
603.168030,447.007996,728.096008
614.880005,441.152008,728.096008
610.976013,439.200012,724.192017
605.119995,447.007996,732.000000
605.119995,454.816010,722.239990
607.072021,441.152008,722.239990
601.216003,448.959991,720.288025
612.927979,450.911987,716.383972
599.263977,445.056000,710.528015
603.168030,437.247986,712.479980
609.023987,447.007996,728.096008
607.072021,441.152008,722.239990
607.072021,435.295990,718.335999
605.119995,435.295990,726.143982
603.168030,441.152008,722.239990
607.072021,435.295990,724.192017
599.263977,431.391998,728.096008
599.263977,441.152008,732.000000
610.976013,441.152008,728.096008
605.119995,441.152008,732.000000
603.168030,441.152008,728.096008
607.072021,450.911987,728.096008
605.119995,433.343994,730.047974
614.880005,441.152008,728.096008
609.023987,445.056000,728.096008
607.072021,441.152008,739.807983
605.119995,441.152008,733.952026
605.119995,443.104004,724.192017
599.263977,439.200012,735.903992
595.359985,445.056000,722.239990
597.312012,439.200012,728.096008
589.504028,439.200012,720.288025
601.216003,433.343994,726.143982
597.312012,435.295990,724.192017
589.504028,443.104004,726.143982
589.504028,439.200012,716.383972
597.312012,441.152008,732.000000
593.408020,435.295990,722.239990
593.408020,429.440002,732.000000
587.552002,435.295990,730.047974
593.408020,435.295990,726.143982
589.504028,429.440002,720.288025
585.599976,441.152008,730.047974
585.599976,447.007996,728.096008
581.695984,437.247986,728.096008
585.599976,437.247986,732.000000
577.791992,437.247986,730.047974
581.695984,431.391998,735.903992
581.695984,443.104004,739.807983
573.888000,441.152008,728.096008
577.791992,437.247986,720.288025
577.791992,435.295990,716.383972
575.840027,437.247986,724.192017
575.840027,437.247986,720.288025
560.223999,429.440002,720.288025
554.367981,437.247986,710.528015
564.127991,439.200012,716.383972
558.271973,429.440002,712.479980
564.127991,439.200012,708.575989
564.127991,437.247986,712.479980
554.367981,439.200012,718.335999
556.320007,441.152008,714.432007
556.320007,439.200012,716.383972
558.271973,441.152008,716.383972
560.223999,441.152008,712.479980
554.367981,439.200012,714.432007
560.223999,439.200012,720.288025
558.271973,439.200012,714.432007
554.367981,439.200012,718.335999
554.367981,447.007996,712.479980
556.320007,447.007996,714.432007
560.223999,441.152008,718.335999
564.127991,433.343994,720.288025
550.463989,447.007996,718.335999
550.463989,443.104004,712.479980
556.320007,435.295990,708.575989
558.271973,439.200012,720.288025
554.367981,439.200012,716.383972
548.512024,437.247986,716.383972
558.271973,439.200012,702.719971
550.463989,445.056000,712.479980
550.463989,437.247986,704.671997
554.367981,427.488007,710.528015
542.656006,433.343994,704.671997
552.416016,443.104004,704.671997
558.271973,427.488007,710.528015
558.271973,431.391998,708.575989
558.271973,429.440002,710.528015
554.367981,427.488007,708.575989
554.367981,419.679993,716.383972
558.271973,427.488007,710.528015
554.367981,413.824005,706.624023
562.176025,423.584015,708.575989
569.984009,411.872009,716.383972
566.080017,402.112000,716.383972
569.984009,417.727997,710.528015
569.984009,413.824005,714.432007
577.791992,411.872009,708.575989
579.744019,413.824005,716.383972
577.791992,411.872009,720.288025
581.695984,423.584015,710.528015
593.408020,421.631989,712.479980
591.455994,413.824005,720.288025
589.504028,427.488007,728.096008
589.504028,415.776001,718.335999
609.023987,421.631989,728.096008
603.168030,409.920013,730.047974
601.216003,417.727997,720.288025
597.312012,415.776001,733.952026
607.072021,409.920013,735.903992
607.072021,409.920013,730.047974
607.072021,407.967987,728.096008
605.119995,390.399994,730.047974
605.119995,406.015991,735.903992
607.072021,415.776001,728.096008
610.976013,402.112000,733.952026
610.976013,396.256012,730.047974
614.880005,406.015991,726.143982
610.976013,417.727997,733.952026
612.927979,400.160004,733.952026
620.736023,398.208008,739.807983
610.976013,404.063995,737.856018
609.023987,411.872009,726.143982
603.168030,413.824005,722.239990
618.783997,406.015991,730.047974
616.831970,398.208008,733.952026
620.736023,411.872009,730.047974
616.831970,406.015991,726.143982
607.072021,406.015991,718.335999
612.927979,400.160004,739.807983
610.976013,404.063995,728.096008
610.976013,406.015991,733.952026
607.072021,407.967987,737.856018
609.023987,394.303986,737.856018
607.072021,406.015991,741.760010
607.072021,409.920013,728.096008
607.072021,398.208008,732.000000
609.023987,406.015991,747.616028
610.976013,404.063995,733.952026
603.168030,398.208008,737.856018
607.072021,409.920013,733.952026
595.359985,406.015991,735.903992
599.263977,407.967987,730.047974
597.312012,413.824005,726.143982
599.263977,411.872009,722.239990
593.408020,413.824005,722.239990
591.455994,406.015991,730.047974
587.552002,406.015991,728.096008
577.791992,415.776001,733.952026
581.695984,409.920013,726.143982
581.695984,406.015991,728.096008
579.744019,402.112000,718.335999
575.840027,402.112000,728.096008
581.695984,406.015991,722.239990
573.888000,402.112000,724.192017
575.840027,394.303986,712.479980
577.791992,406.015991,714.432007
575.840027,402.112000,718.335999
571.935974,402.112000,718.335999
562.176025,409.920013,718.335999
564.127991,409.920013,714.432007
554.367981,413.824005,718.335999
568.031982,409.920013,720.288025
562.176025,419.679993,716.383972
560.223999,419.679993,710.528015
560.223999,419.679993,724.192017
562.176025,421.631989,716.383972
550.463989,409.920013,718.335999
550.463989,425.536011,728.096008
550.463989,419.679993,722.239990
552.416016,411.872009,726.143982
550.463989,406.015991,728.096008
554.367981,411.872009,724.192017
554.367981,413.824005,726.143982
544.607971,409.920013,730.047974
552.416016,409.920013,735.903992
552.416016,423.584015,735.903992
552.416016,417.727997,732.000000
554.367981,417.727997,743.711975
546.559998,417.727997,749.567993
552.416016,421.631989,761.280029
554.367981,421.631989,769.088013
560.223999,425.536011,761.280029
554.367981,431.391998,772.992004
554.367981,431.391998,771.039978
556.320007,427.488007,774.943970
544.607971,423.584015,771.039978
530.943970,441.152008,767.135986
538.752014,429.440002,755.424011
534.848022,431.391998,749.567993
536.799988,439.200012,737.856018
536.799988,429.440002,726.143982
525.088013,421.631989,716.383972
511.424011,425.536011,706.624023
511.424011,425.536011,700.768005
511.424011,427.488007,687.104004
511.424011,429.440002,675.392029
509.471985,415.776001,669.536011
499.712006,427.488007,661.728027
499.712006,421.631989,650.015991
501.664001,427.488007,657.823975
495.808014,427.488007,651.968018
497.760010,421.631989,650.015991
491.903992,419.679993,650.015991
495.808014,427.488007,648.064026
495.808014,427.488007,651.968018
499.712006,429.440002,655.872009
503.615997,427.488007,657.823975
495.808014,421.631989,655.872009
511.424011,437.247986,661.728027
507.519989,425.536011,659.776001
503.615997,421.631989,667.583984
507.519989,427.488007,673.440002
509.471985,425.536011,683.200012
511.424011,413.824005,689.056030
523.135986,413.824005,694.911987
507.519989,419.679993,700.768005
517.280029,419.679993,700.768005
521.184021,413.824005,698.815979
523.135986,411.872009,712.479980
523.135986,413.824005,712.479980
525.088013,421.631989,716.383972
530.943970,427.488007,718.335999
530.943970,423.584015,716.383972
527.039978,427.488007,722.239990
528.992004,429.440002,730.047974
532.895996,423.584015,724.192017
536.799988,427.488007,724.192017
536.799988,439.200012,726.143982
532.895996,439.200012,722.239990
538.752014,431.391998,726.143982
546.559998,431.391998,733.952026
538.752014,439.200012,726.143982
544.607971,437.247986,724.192017
548.512024,423.584015,728.096008
542.656006,429.440002,726.143982
552.416016,431.391998,714.432007
546.559998,421.631989,710.528015
544.607971,431.391998,714.432007
548.512024,421.631989,722.239990
554.367981,417.727997,724.192017
552.416016,427.488007,710.528015
556.320007,427.488007,724.192017
554.367981,409.920013,714.432007
556.320007,423.584015,716.383972
550.463989,427.488007,726.143982
562.176025,419.679993,716.383972
564.127991,421.631989,722.239990
562.176025,419.679993,730.047974
558.271973,406.015991,728.096008
564.127991,423.584015,730.047974
566.080017,423.584015,735.903992
569.984009,419.679993,733.952026
579.744019,417.727997,749.567993
571.935974,423.584015,747.616028
577.791992,411.872009,743.711975
581.695984,409.920013,749.567993
579.744019,409.920013,749.567993
573.888000,407.967987,757.375977
573.888000,419.679993,767.135986
577.791992,413.824005,767.135986
573.888000,421.631989,759.328003
571.935974,413.824005,761.280029
573.888000,413.824005,761.280029
577.791992,413.824005,761.280029
575.840027,415.776001,767.135986
575.840027,415.776001,771.039978
577.791992,417.727997,769.088013
579.744019,423.584015,772.992004
569.984009,427.488007,769.088013
573.888000,417.727997,776.895996
568.031982,423.584015,778.848022
571.935974,413.824005,772.992004
568.031982,413.824005,782.752014
562.176025,409.920013,776.895996
562.176025,419.679993,776.895996
562.176025,409.920013,780.799988
568.031982,417.727997,784.703979
554.367981,402.112000,782.752014
566.080017,413.824005,790.559998
560.223999,419.679993,778.848022
568.031982,409.920013,774.943970
564.127991,407.967987,784.703979
560.223999,415.776001,772.992004
556.320007,411.872009,790.559998
558.271973,407.967987,776.895996
550.463989,415.776001,780.799988
556.320007,411.872009,790.559998
550.463989,415.776001,778.848022
538.752014,411.872009,772.992004
540.703979,411.872009,780.799988
538.752014,415.776001,776.895996
546.559998,409.920013,771.039978
546.559998,402.112000,778.848022
538.752014,423.584015,782.752014
546.559998,409.920013,772.992004
542.656006,411.872009,772.992004
528.992004,417.727997,784.703979
552.416016,411.872009,794.463989
573.888000,413.824005,798.367981
562.176025,419.679993,790.559998
530.943970,419.679993,806.176025
544.607971,402.112000,817.888000
532.895996,400.160004,813.984009
548.512024,396.256012,823.744019
542.656006,365.023987,829.599976
560.223999,361.119995,831.552002
560.223999,368.928009,821.791992
552.416016,380.640015,829.599976
542.656006,374.783997,833.504028
579.744019,384.544006,835.455994
560.223999,400.160004,831.552002
552.416016,413.824005,829.599976
546.559998,419.679993,825.695984
554.367981,421.631989,808.127991
560.223999,425.536011,810.080017
554.367981,415.776001,806.176025
544.607971,407.967987,790.559998
530.943970,423.584015,786.656006
544.607971,417.727997,782.752014
540.703979,398.208008,778.848022
544.607971,392.351990,774.943970
564.127991,329.888000,765.184021
605.119995,-132.735992,788.607971
603.168030,-201.056000,784.703979
638.304016,-199.104004,784.703979
614.880005,-154.207993,802.271973
626.591980,-119.071999,815.935974
601.216003,-183.488007,819.840027
618.783997,-316.223999,817.888000
642.208008,-456.768005,808.127991
659.776001,-577.791992,798.367981
683.200012,-626.591980,796.416016
663.679993,-609.023987,794.463989
585.599976,-273.279999,798.367981
489.951996,275.231995,823.744019
474.335999,605.119995,835.455994
478.239990,651.968018,798.367981
435.295990,716.383972,771.039978
480.191986,909.632019,796.416016
488.000000,1036.511963,819.840027
493.855988,1024.800049,802.271973
495.808014,985.760010,765.184021
472.384003,1126.303955,772.992004
-74.176003,3015.840088,716.383972
979.903992,2914.335938,745.664001
439.200012,345.503998,735.903992
730.047974,-1143.871948,718.335999
540.703979,386.496002,665.632019
624.640015,1766.560059,644.159973
651.968018,1011.135986,687.104004
573.888000,-208.863998,730.047974
546.559998,42.944000,692.960022
538.752014,1116.543945,665.632019
564.127991,1018.943970,689.056030
581.695984,138.591995,710.528015
523.135986,72.223999,691.007996
527.039978,757.375977,653.919983
532.895996,870.591980,648.064026
552.416016,306.463989,675.392029
525.088013,173.727997,667.583984
532.895996,577.791992,655.872009
536.799988,712.479980,644.159973
542.656006,386.496002,659.776001
538.752014,216.671997,659.776001
544.607971,415.776001,657.823975
528.992004,530.943970,650.015991
552.416016,366.976013,667.583984
534.848022,263.519989,685.151978
653.919983,374.783997,692.960022
552.416016,411.872009,683.200012
419.679993,378.687988,681.247986
622.687988,368.928009,700.768005
548.512024,402.112000,700.768005
568.031982,347.455994,706.624023
571.935974,267.424011,739.807983
599.263977,283.040009,778.848022
601.216003,404.063995,800.320007
610.976013,447.007996,829.599976
581.695984,359.167999,835.455994
593.408020,331.839996,851.072021
620.736023,439.200012,860.831970
638.304016,493.855988,868.640015
605.119995,464.575989,870.591980
587.552002,429.440002,884.255981
589.504028,462.623993,894.015991
605.119995,511.424011,895.968018
603.168030,532.895996,878.400024
618.783997,480.191986,884.255981
601.216003,448.959991,878.400024
607.072021,488.000000,890.112000
595.359985,507.519989,884.255981
585.599976,486.048004,870.591980
599.263977,435.295990,862.783997
591.455994,390.399994,843.263977
609.023987,404.063995,849.119995
614.880005,390.399994,835.455994
607.072021,339.648010,825.695984
618.783997,300.608002,815.935974
591.455994,322.079987,815.935974
566.080017,366.976013,819.840027
659.776001,353.312012,825.695984
638.304016,279.135986,839.359985
675.392029,228.384003,862.783997
624.640015,306.463989,878.400024
577.791992,409.920013,890.112000
562.176025,474.335999,909.632019
542.656006,452.864014,905.728027
568.031982,437.247986,915.487976
650.015991,445.056000,917.440002
376.735992,462.623993,907.679993
657.823975,488.000000,927.200012
566.080017,513.375977,919.392029
696.864014,404.063995,911.583984
661.728027,271.328003,897.919983
683.200012,312.320007,923.296021
671.487976,493.855988,925.247986
616.831970,585.599976,940.864014
581.695984,530.943970,933.056030
581.695984,448.959991,931.104004
540.703979,474.335999,919.392029
528.992004,583.648010,901.823975
507.519989,630.495972,874.495972
486.048004,562.176025,856.927979
454.816010,466.528015,823.744019
421.631989,443.104004,776.895996
390.399994,466.528015,755.424011
636.351990,495.808014,755.424011
940.864014,460.671997,737.856018
772.992004,302.559998,696.864014
388.447998,189.343994,683.200012
279.135986,398.208008,718.335999
702.719971,753.471985,737.856018
431.391998,696.864014,651.968018
441.152008,177.632004,628.544006
390.399994,72.223999,644.159973
476.287994,540.703979,650.015991
396.256012,759.328003,603.168030
486.048004,404.063995,589.504028
495.808014,119.071999,622.687988
628.544006,247.904007,667.583984
626.591980,525.088013,671.487976
562.176025,503.615997,673.440002
515.328003,353.312012,706.624023
523.135986,417.727997,722.239990
460.671997,591.455994,720.288025
447.007996,609.023987,689.056030
513.375977,433.343994,677.343994
363.071991,357.216003,677.343994
554.367981,396.256012,687.104004
542.656006,439.200012,700.768005
554.367981,447.007996,739.807983
552.416016,458.720001,776.895996
564.127991,474.335999,782.752014
523.135986,505.567993,784.703979
507.519989,511.424011,780.799988
458.720001,484.096008,778.848022
427.488007,447.007996,733.952026
415.776001,474.335999,712.479980
406.015991,464.575989,704.671997
378.687988,407.967987,681.247986
380.640015,406.015991,665.632019
402.112000,425.536011,651.968018
421.631989,427.488007,650.015991
417.727997,394.303986,636.351990
417.727997,396.256012,638.304016
421.631989,398.208008,632.447998
417.727997,415.776001,630.495972
421.631989,423.584015,626.591980
431.391998,415.776001,620.736023
433.343994,427.488007,628.544006
435.295990,427.488007,622.687988
421.631989,425.536011,612.927979
447.007996,429.440002,620.736023
443.104004,431.391998,612.927979
427.488007,423.584015,597.312012
421.631989,423.584015,595.359985
464.575989,421.631989,591.455994
431.391998,415.776001,597.312012
390.399994,407.967987,601.216003
423.584015,413.824005,605.119995
431.391998,411.872009,599.263977
394.303986,407.967987,591.455994
400.160004,402.112000,583.648010
415.776001,409.920013,577.791992
413.824005,390.399994,579.744019
427.488007,347.455994,575.840027
421.631989,343.552002,587.552002
427.488007,366.976013,577.791992
431.391998,384.544006,589.504028
423.584015,392.351990,583.648010
427.488007,386.496002,581.695984
411.872009,384.544006,587.552002
425.536011,384.544006,585.599976
421.631989,390.399994,583.648010
421.631989,404.063995,587.552002
421.631989,411.872009,581.695984
423.584015,402.112000,581.695984
427.488007,396.256012,585.599976
417.727997,411.872009,585.599976
415.776001,404.063995,589.504028
423.584015,406.015991,593.408020
411.872009,411.872009,591.455994
415.776001,411.872009,605.119995
413.824005,406.015991,585.599976
409.920013,407.967987,595.359985
417.727997,415.776001,603.168030
427.488007,421.631989,603.168030
427.488007,411.872009,610.976013
425.536011,425.536011,603.168030
419.679993,421.631989,614.880005
427.488007,431.391998,620.736023
427.488007,429.440002,626.591980
431.391998,431.391998,628.544006
423.584015,433.343994,638.304016
415.776001,441.152008,642.208008
419.679993,423.584015,659.776001
423.584015,433.343994,655.872009
429.440002,425.536011,650.015991
429.440002,429.440002,655.872009
425.536011,437.247986,665.632019
431.391998,437.247986,677.343994
431.391998,443.104004,677.343994
431.391998,431.391998,677.343994
439.200012,435.295990,683.200012
435.295990,439.200012,689.056030
435.295990,439.200012,691.007996
429.440002,439.200012,691.007996
425.536011,456.768005,691.007996
429.440002,454.816010,694.911987
417.727997,433.343994,700.768005
435.295990,443.104004,700.768005
429.440002,443.104004,700.768005
421.631989,445.056000,698.815979
431.391998,429.440002,702.719971
429.440002,425.536011,704.671997
437.247986,429.440002,698.815979
452.864014,425.536011,712.479980
470.432007,409.920013,712.479980
470.432007,411.872009,714.432007
466.528015,411.872009,732.000000
460.671997,406.015991,733.952026
456.768005,421.631989,745.664001
460.671997,421.631989,753.471985
460.671997,409.920013,749.567993
460.671997,423.584015,757.375977
448.959991,425.536011,749.567993
448.959991,423.584015,751.520020
447.007996,419.679993,753.471985
454.816010,413.824005,741.760010
450.911987,411.872009,741.760010
450.911987,396.256012,735.903992
466.528015,392.351990,728.096008
462.623993,386.496002,728.096008
464.575989,374.783997,728.096008
468.480011,384.544006,716.383972
472.384003,376.735992,720.288025
472.384003,368.928009,722.239990
478.239990,359.167999,722.239990
472.384003,374.783997,743.711975
464.575989,376.735992,741.760010
456.768005,376.735992,747.616028
464.575989,388.447998,759.328003
466.528015,390.399994,745.664001
464.575989,388.447998,755.424011
470.432007,392.351990,755.424011
478.239990,396.256012,763.231995
466.528015,398.208008,759.328003
474.335999,390.399994,755.424011
474.335999,390.399994,755.424011
489.951996,374.783997,751.520020
474.335999,380.640015,759.328003
484.096008,376.735992,761.280029
480.191986,368.928009,761.280029
484.096008,357.216003,759.328003
480.191986,351.359985,765.184021
472.384003,353.312012,771.039978
478.239990,343.552002,769.088013
486.048004,339.648010,767.135986
480.191986,339.648010,761.280029
480.191986,335.743988,761.280029
476.287994,339.648010,769.088013
484.096008,331.839996,769.088013
478.239990,341.600006,757.375977
474.335999,335.743988,763.231995
472.384003,357.216003,767.135986
470.432007,343.552002,763.231995
470.432007,357.216003,757.375977
470.432007,347.455994,761.280029
468.480011,343.552002,761.280029
468.480011,349.407990,763.231995
468.480011,341.600006,759.328003
462.623993,347.455994,755.424011
468.480011,345.503998,755.424011
462.623993,331.839996,759.328003
462.623993,331.839996,759.328003
470.432007,337.696014,771.039978
462.623993,327.936005,774.943970
472.384003,312.320007,769.088013
470.432007,314.272003,778.848022
468.480011,316.223999,761.280029
478.239990,318.175995,771.039978
478.239990,304.511993,769.088013
468.480011,308.415985,765.184021
478.239990,308.415985,765.184021
468.480011,312.320007,769.088013
478.239990,308.415985,769.088013
478.239990,312.320007,774.943970
468.480011,310.368011,771.039978
474.335999,316.223999,774.943970
484.096008,310.368011,774.943970
484.096008,306.463989,769.088013
482.144012,310.368011,774.943970
482.144012,316.223999,765.184021
470.432007,314.272003,771.039978
470.432007,316.223999,765.184021
468.480011,324.032013,771.039978
474.335999,312.320007,782.752014
460.671997,308.415985,771.039978
462.623993,306.463989,771.039978
460.671997,302.559998,774.943970
454.816010,294.752014,778.848022
466.528015,294.752014,776.895996
462.623993,288.895996,786.656006
454.816010,294.752014,776.895996
456.768005,298.656006,772.992004
454.816010,286.944000,778.848022
445.056000,288.895996,774.943970
443.104004,288.895996,778.848022
447.007996,298.656006,780.799988
447.007996,298.656006,782.752014
439.200012,292.799988,778.848022
433.343994,304.511993,778.848022
437.247986,288.895996,774.943970
437.247986,294.752014,774.943970
435.295990,284.992004,782.752014
425.536011,283.040009,774.943970
433.343994,273.279999,765.184021
429.440002,283.040009,771.039978
435.295990,275.231995,771.039978
439.200012,271.328003,772.992004
435.295990,281.088013,765.184021
421.631989,283.040009,765.184021
421.631989,286.944000,761.280029
407.967987,284.992004,759.328003
409.920013,290.847992,765.184021
394.303986,284.992004,767.135986
398.208008,288.895996,763.231995
400.160004,279.135986,763.231995
406.015991,273.279999,759.328003
398.208008,275.231995,763.231995
394.303986,277.183990,765.184021
400.160004,269.376007,761.280029
396.256012,259.615997,757.375977
394.303986,277.183990,759.328003
398.208008,277.183990,751.520020
396.256012,277.183990,751.520020
396.256012,277.183990,753.471985
392.351990,271.328003,757.375977
386.496002,277.183990,749.567993
384.544006,273.279999,755.424011
380.640015,273.279999,753.471985
388.447998,267.424011,749.567993
394.303986,271.328003,761.280029
392.351990,283.040009,761.280029
382.592010,284.992004,769.088013
382.592010,284.992004,765.184021
384.544006,286.944000,778.848022
382.592010,292.799988,771.039978
390.399994,294.752014,771.039978
388.447998,296.704010,771.039978
384.544006,306.463989,755.424011
382.592010,310.368011,755.424011
380.640015,318.175995,751.520020
380.640015,312.320007,747.616028
380.640015,308.415985,737.856018
376.735992,310.368011,735.903992
372.832001,312.320007,739.807983
361.119995,314.272003,726.143982
366.976013,318.175995,724.192017
372.832001,304.511993,728.096008
370.880005,302.559998,710.528015
365.023987,300.608002,706.624023
363.071991,302.559998,716.383972
359.167999,306.463989,710.528015
359.167999,296.704010,696.864014
357.216003,296.704010,702.719971
365.023987,300.608002,696.864014
355.264008,292.799988,683.200012
357.216003,298.656006,691.007996
355.264008,306.463989,683.200012
349.407990,298.656006,685.151978
357.216003,312.320007,679.296021
353.312012,312.320007,681.247986
347.455994,300.608002,679.296021
355.264008,312.320007,679.296021
353.312012,312.320007,683.200012
353.312012,300.608002,683.200012
357.216003,310.368011,685.151978
355.264008,316.223999,677.343994
351.359985,308.415985,675.392029
353.312012,318.175995,673.440002
357.216003,308.415985,675.392029
357.216003,322.079987,667.583984
355.264008,320.127991,679.296021
353.312012,322.079987,671.487976
349.407990,312.320007,673.440002
355.264008,310.368011,681.247986
355.264008,306.463989,683.200012
357.216003,312.320007,675.392029
351.359985,306.463989,687.104004
368.928009,310.368011,696.864014
376.735992,320.127991,694.911987
380.640015,312.320007,700.768005
374.783997,302.559998,712.479980
372.832001,318.175995,708.575989
378.687988,322.079987,716.383972
376.735992,320.127991,726.143982
384.544006,322.079987,722.239990
378.687988,325.984009,728.096008
386.496002,333.791992,733.952026
384.544006,333.791992,730.047974
388.447998,333.791992,737.856018
386.496002,349.407990,743.711975
388.447998,345.503998,733.952026
400.160004,341.600006,739.807983
390.399994,343.552002,735.903992
400.160004,345.503998,739.807983
394.303986,343.552002,733.952026
382.592010,333.791992,728.096008
396.256012,333.791992,733.952026
388.447998,333.791992,724.192017
386.496002,314.272003,726.143982
390.399994,318.175995,716.383972
382.592010,329.888000,716.383972
386.496002,314.272003,726.143982
380.640015,327.936005,712.479980
386.496002,320.127991,710.528015
384.544006,329.888000,706.624023
398.208008,314.272003,702.719971
384.544006,325.984009,700.768005
384.544006,322.079987,702.719971
388.447998,324.032013,696.864014
382.592010,333.791992,700.768005
382.592010,333.791992,698.815979
388.447998,327.936005,704.671997
388.447998,337.696014,706.624023
392.351990,329.888000,712.479980
386.496002,329.888000,710.528015
396.256012,341.600006,702.719971
396.256012,324.032013,698.815979
400.160004,339.648010,706.624023
404.063995,325.984009,712.479980
409.920013,322.079987,714.432007
402.112000,325.984009,712.479980
407.967987,324.032013,702.719971
407.967987,329.888000,706.624023
407.967987,325.984009,704.671997
406.015991,329.888000,712.479980
402.112000,329.888000,700.768005
400.160004,327.936005,700.768005
390.399994,324.032013,696.864014
392.351990,329.888000,683.200012
398.208008,316.223999,679.296021
392.351990,329.888000,679.296021
380.640015,335.743988,667.583984
376.735992,333.791992,671.487976
376.735992,331.839996,655.872009
370.880005,341.600006,657.823975
359.167999,345.503998,640.255981
361.119995,351.359985,650.015991
351.359985,349.407990,646.112000
349.407990,347.455994,642.208008
333.791992,351.359985,636.351990
335.743988,357.216003,632.447998
331.839996,357.216003,624.640015
327.936005,353.312012,618.783997
318.175995,361.119995,620.736023
316.223999,343.552002,618.783997
308.415985,361.119995,610.976013
310.368011,343.552002,614.880005
306.463989,347.455994,610.976013
304.511993,341.600006,609.023987
304.511993,351.359985,605.119995
302.559998,353.312012,607.072021
292.799988,345.503998,605.119995
284.992004,343.552002,599.263977
290.847992,341.600006,591.455994
281.088013,343.552002,595.359985
284.992004,343.552002,591.455994
286.944000,343.552002,595.359985
273.279999,341.600006,597.312012
273.279999,347.455994,581.695984
283.040009,345.503998,585.599976
273.279999,345.503998,585.599976
275.231995,341.600006,577.791992
273.279999,333.791992,583.648010
269.376007,345.503998,579.744019
267.424011,337.696014,575.840027
267.424011,337.696014,581.695984
265.471985,331.839996,587.552002
265.471985,335.743988,585.599976
269.376007,337.696014,581.695984
283.040009,337.696014,581.695984
286.944000,331.839996,585.599976
283.040009,341.600006,583.648010
281.088013,339.648010,585.599976
283.040009,339.648010,595.359985
290.847992,343.552002,593.408020
284.992004,343.552002,591.455994
294.752014,339.648010,599.263977
292.799988,337.696014,601.216003
294.752014,339.648010,599.263977
298.656006,341.600006,601.216003
308.415985,341.600006,603.168030
310.368011,349.407990,612.927979
308.415985,339.648010,609.023987
312.320007,341.600006,607.072021
314.272003,337.696014,614.880005
318.175995,329.888000,616.831970
322.079987,341.600006,630.495972
324.032013,341.600006,624.640015
325.984009,331.839996,618.783997
327.936005,339.648010,618.783997
329.888000,339.648010,618.783997
335.743988,339.648010,626.591980
335.743988,333.791992,620.736023
333.791992,337.696014,620.736023
345.503998,341.600006,626.591980
341.600006,331.839996,626.591980
345.503998,341.600006,622.687988
359.167999,331.839996,626.591980
351.359985,318.175995,624.640015
347.455994,327.936005,628.544006
355.264008,324.032013,628.544006
363.071991,324.032013,624.640015
363.071991,320.127991,624.640015
363.071991,322.079987,620.736023
355.264008,324.032013,628.544006
365.023987,316.223999,624.640015
368.928009,322.079987,630.495972
376.735992,314.272003,616.831970
365.023987,314.272003,630.495972
368.928009,312.320007,634.400024
366.976013,312.320007,632.447998
380.640015,312.320007,638.304016
366.976013,298.656006,634.400024
368.928009,300.608002,628.544006
378.687988,302.559998,626.591980
386.496002,298.656006,628.544006
396.256012,296.704010,626.591980
390.399994,296.704010,634.400024
390.399994,294.752014,634.400024
396.256012,284.992004,636.351990
400.160004,286.944000,634.400024
411.872009,298.656006,634.400024
417.727997,284.992004,626.591980
411.872009,290.847992,632.447998
417.727997,284.992004,636.351990
421.631989,290.847992,640.255981
425.536011,279.135986,644.159973
435.295990,284.992004,648.064026
431.391998,294.752014,650.015991
437.247986,290.847992,651.968018
445.056000,292.799988,648.064026
443.104004,290.847992,648.064026
448.959991,294.752014,648.064026
445.056000,298.656006,657.823975
458.720001,286.944000,665.632019
462.623993,294.752014,661.728027
468.480011,296.704010,661.728027
476.287994,290.847992,659.776001
472.384003,294.752014,667.583984
480.191986,290.847992,665.632019
484.096008,292.799988,667.583984
497.760010,294.752014,671.487976
505.567993,300.608002,659.776001
513.375977,288.895996,667.583984
517.280029,281.088013,675.392029
517.280029,283.040009,671.487976
521.184021,283.040009,663.679993
536.799988,283.040009,673.440002
550.463989,284.992004,671.487976
556.320007,283.040009,675.392029
558.271973,273.279999,677.343994
564.127991,271.328003,687.104004
571.935974,273.279999,679.296021
581.695984,271.328003,692.960022
591.455994,269.376007,691.007996
597.312012,277.183990,691.007996
609.023987,267.424011,691.007996
616.831970,273.279999,696.864014
618.783997,279.135986,696.864014
624.640015,279.135986,696.864014
632.447998,279.135986,706.624023
648.064026,269.376007,704.671997
661.728027,273.279999,708.575989
669.536011,273.279999,712.479980
677.343994,279.135986,710.528015
689.056030,273.279999,708.575989
700.768005,281.088013,706.624023
708.575989,284.992004,714.432007
712.479980,284.992004,718.335999
724.192017,279.135986,728.096008
724.192017,277.183990,728.096008
730.047974,277.183990,718.335999
739.807983,286.944000,724.192017
743.711975,281.088013,726.143982
751.520020,283.040009,720.288025
757.375977,277.183990,718.335999
765.184021,283.040009,714.432007
772.992004,281.088013,720.288025
774.943970,281.088013,728.096008
776.895996,290.847992,726.143982
780.799988,288.895996,733.952026
788.607971,290.847992,737.856018
794.463989,300.608002,749.567993
810.080017,304.511993,753.471985
808.127991,290.847992,757.375977
815.935974,298.656006,767.135986
821.791992,298.656006,769.088013
821.791992,300.608002,778.848022
819.840027,302.559998,774.943970
821.791992,300.608002,786.656006
837.408020,304.511993,790.559998
837.408020,300.608002,790.559998
837.408020,306.463989,792.512024
845.216003,304.511993,808.127991
843.263977,304.511993,800.320007
851.072021,318.175995,813.984009
854.976013,306.463989,817.888000
856.927979,314.272003,827.648010
868.640015,304.511993,827.648010
858.880005,298.656006,831.552002
868.640015,310.368011,825.695984
874.495972,312.320007,831.552002
868.640015,308.415985,833.504028
874.495972,314.272003,845.216003
866.687988,312.320007,847.168030
876.447998,314.272003,835.455994
878.400024,312.320007,831.552002
878.400024,314.272003,841.312012
882.304016,322.079987,835.455994
880.351990,316.223999,833.504028
878.400024,318.175995,831.552002
874.495972,320.127991,829.599976
880.351990,312.320007,815.935974
870.591980,320.127991,825.695984
874.495972,314.272003,819.840027
876.447998,322.079987,821.791992
870.591980,322.079987,812.031982
872.544006,318.175995,800.320007
866.687988,314.272003,810.080017
874.495972,316.223999,800.320007
864.736023,329.888000,786.656006
854.976013,324.032013,772.992004
860.831970,324.032013,774.943970
858.880005,331.839996,778.848022
856.927979,339.648010,774.943970
843.263977,339.648010,761.280029
845.216003,331.839996,749.567993
839.359985,329.888000,749.567993
845.216003,341.600006,749.567993
837.408020,333.791992,739.807983
841.312012,335.743988,733.952026
831.552002,331.839996,730.047974
827.648010,316.223999,732.000000
833.504028,322.079987,722.239990
833.504028,314.272003,722.239990
825.695984,312.320007,724.192017
821.791992,312.320007,714.432007
821.791992,312.320007,712.479980
817.888000,300.608002,710.528015
815.935974,314.272003,716.383972
808.127991,322.079987,712.479980
800.320007,320.127991,706.624023
792.512024,325.984009,706.624023
790.559998,325.984009,702.719971
790.559998,324.032013,700.768005
782.752014,325.984009,691.007996
780.799988,320.127991,689.056030
776.895996,325.984009,681.247986
778.848022,320.127991,681.247986
782.752014,318.175995,675.392029
776.895996,318.175995,663.679993
774.943970,306.463989,671.487976
767.135986,302.559998,661.728027
771.039978,292.799988,663.679993
772.992004,286.944000,661.728027
769.088013,279.135986,648.064026
771.039978,269.376007,657.823975
763.231995,281.088013,651.968018
765.184021,283.040009,642.208008
774.943970,271.328003,653.919983
769.088013,271.328003,655.872009
763.231995,269.376007,650.015991
755.424011,275.231995,644.159973
755.424011,277.183990,650.015991
765.184021,283.040009,657.823975
763.231995,273.279999,650.015991
757.375977,273.279999,644.159973
759.328003,265.471985,640.255981
759.328003,279.135986,650.015991
751.520020,273.279999,659.776001
755.424011,263.519989,653.919983
761.280029,257.664001,646.112000
757.375977,249.856003,651.968018
763.231995,249.856003,650.015991
759.328003,242.048004,650.015991
749.567993,238.143997,651.968018
749.567993,232.287994,651.968018
755.424011,244.000000,657.823975
747.616028,242.048004,657.823975
755.424011,234.240005,655.872009
757.375977,230.335999,659.776001
755.424011,232.287994,651.968018
749.567993,228.384003,651.968018
759.328003,232.287994,671.487976
757.375977,224.479996,679.296021
759.328003,222.528000,669.536011
757.375977,224.479996,671.487976
753.471985,228.384003,677.343994
753.471985,232.287994,671.487976
749.567993,232.287994,673.440002
745.664001,236.192001,669.536011
745.664001,230.335999,665.632019
751.520020,224.479996,665.632019
753.471985,228.384003,669.536011
753.471985,216.671997,663.679993
749.567993,216.671997,659.776001
751.520020,203.007996,659.776001
757.375977,204.960007,657.823975
749.567993,195.199997,655.872009
753.471985,189.343994,646.112000
751.520020,181.535995,648.064026
745.664001,185.440002,642.208008
761.280029,181.535995,650.015991
749.567993,171.776001,650.015991
745.664001,173.727997,640.255981
749.567993,167.871994,644.159973
751.520020,167.871994,644.159973
743.711975,156.160004,636.351990
755.424011,158.112000,634.400024
749.567993,152.255997,626.591980
745.664001,158.112000,620.736023
741.760010,152.255997,616.831970
747.616028,160.063995,624.640015
749.567993,160.063995,624.640015
747.616028,158.112000,618.783997
759.328003,150.304001,622.687988
755.424011,144.447998,614.880005
747.616028,148.352005,614.880005
743.711975,144.447998,609.023987
749.567993,140.544006,612.927979
745.664001,136.639999,605.119995
753.471985,124.928001,610.976013
755.424011,132.735992,618.783997
755.424011,121.024002,610.976013
759.328003,124.928001,618.783997
753.471985,134.688004,605.119995
757.375977,121.024002,609.023987
753.471985,122.975998,618.783997
753.471985,117.120003,616.831970
763.231995,117.120003,620.736023
753.471985,113.216003,622.687988
741.760010,117.120003,624.640015
759.328003,119.071999,630.495972
753.471985,115.167999,628.544006
763.231995,117.120003,624.640015
759.328003,126.879997,634.400024
761.280029,119.071999,630.495972
763.231995,122.975998,630.495972
761.280029,124.928001,624.640015
755.424011,134.688004,618.783997
759.328003,136.639999,620.736023
757.375977,134.688004,616.831970
763.231995,122.975998,618.783997
765.184021,122.975998,616.831970
767.135986,126.879997,609.023987
759.328003,126.879997,605.119995
755.424011,119.071999,605.119995
747.616028,113.216003,607.072021
749.567993,109.311996,589.504028
751.520020,113.216003,593.408020
755.424011,111.264000,585.599976
749.567993,103.456001,597.312012
743.711975,103.456001,589.504028
753.471985,93.695999,585.599976
749.567993,95.648003,591.455994
745.664001,93.695999,573.888000
745.664001,91.744003,587.552002
741.760010,87.839996,585.599976
745.664001,78.080002,593.408020
741.760010,89.792000,597.312012
751.520020,89.792000,597.312012
751.520020,95.648003,591.455994
751.520020,99.552002,593.408020
755.424011,103.456001,599.263977
755.424011,97.599998,605.119995
753.471985,101.503998,601.216003
759.328003,109.311996,603.168030
759.328003,109.311996,603.168030
763.231995,107.360001,605.119995
772.992004,111.264000,605.119995
761.280029,115.167999,610.976013
767.135986,115.167999,610.976013
765.184021,111.264000,610.976013
755.424011,122.975998,605.119995
763.231995,119.071999,605.119995
757.375977,117.120003,601.216003
757.375977,109.311996,605.119995
759.328003,107.360001,609.023987
747.616028,103.456001,620.736023
747.616028,111.264000,618.783997
755.424011,87.839996,605.119995
747.616028,87.839996,605.119995
753.471985,78.080002,603.168030
751.520020,78.080002,603.168030
759.328003,66.367996,607.072021
757.375977,66.367996,605.119995
757.375977,70.272003,595.359985
767.135986,70.272003,597.312012
772.992004,62.464001,605.119995
763.231995,62.464001,599.263977
757.375977,66.367996,601.216003
765.184021,78.080002,607.072021
774.943970,66.367996,605.119995
780.799988,56.608002,607.072021
784.703979,66.367996,603.168030
792.512024,66.367996,603.168030
798.367981,66.367996,597.312012
802.271973,58.560001,599.263977
802.271973,70.272003,599.263977
808.127991,70.272003,593.408020
815.935974,56.608002,595.359985
819.840027,64.416000,601.216003
829.599976,64.416000,587.552002
833.504028,56.608002,593.408020
831.552002,54.655998,603.168030
835.455994,46.848000,595.359985
845.216003,42.944000,599.263977
853.023987,33.183998,607.072021
854.976013,19.520000,610.976013
860.831970,13.664000,609.023987
866.687988,11.712000,612.927979
882.304016,5.856000,620.736023
882.304016,-21.472000,628.544006
886.208008,-13.664000,616.831970
894.015991,-17.568001,624.640015
874.495972,64.416000,630.495972
878.400024,156.160004,636.351990
884.255981,105.407997,646.112000
899.872009,-13.664000,650.015991
905.728027,-19.520000,651.968018
915.487976,46.848000,657.823975
919.392029,64.416000,667.583984
919.392029,33.183998,677.343994
925.247986,11.712000,687.104004
933.056030,35.136002,683.200012
942.815979,50.751999,685.151978
942.815979,46.848000,698.815979
948.671997,58.560001,714.432007
954.528015,42.944000,720.288025
962.335999,42.944000,730.047974
970.143982,50.751999,722.239990
962.335999,48.799999,733.952026
977.952026,48.799999,745.664001
976.000000,31.232000,749.567993
983.807983,27.327999,751.520020
985.760010,33.183998,755.424011
981.856018,23.424000,757.375977
991.616028,25.375999,763.231995
991.616028,23.424000,772.992004
997.471985,27.327999,765.184021
993.567993,21.472000,786.656006
985.760010,27.327999,788.607971
987.711975,17.568001,784.703979
995.520020,29.280001,772.992004
995.520020,33.183998,784.703979
999.424011,29.280001,800.320007
1005.280029,29.280001,802.271973
993.567993,31.232000,794.463989
995.520020,25.375999,784.703979
987.711975,29.280001,790.559998
991.616028,27.327999,782.752014
991.616028,31.232000,780.799988
991.616028,23.424000,784.703979
981.856018,23.424000,774.943970
964.288025,31.232000,772.992004
970.143982,37.088001,769.088013
968.192017,52.703999,763.231995
962.335999,48.799999,763.231995
974.047974,40.992001,751.520020
970.143982,37.088001,749.567993
962.335999,50.751999,739.807983
962.335999,48.799999,732.000000
962.335999,37.088001,728.096008
948.671997,42.944000,720.288025
948.671997,39.040001,716.383972
933.056030,52.703999,708.575989
933.056030,46.848000,718.335999
925.247986,25.375999,700.768005
911.583984,23.424000,698.815979
909.632019,31.232000,685.151978
894.015991,37.088001,683.200012
907.679993,19.520000,673.440002
895.968018,13.664000,659.776001
890.112000,31.232000,648.064026
888.159973,39.040001,638.304016
886.208008,40.992001,616.831970
884.255981,40.992001,607.072021
870.591980,50.751999,601.216003
870.591980,64.416000,589.504028
860.831970,78.080002,591.455994
851.072021,74.176003,577.791992
853.023987,74.176003,575.840027
851.072021,91.744003,558.271973
853.023987,91.744003,560.223999
843.263977,76.127998,562.176025
847.168030,81.984001,554.367981
843.263977,85.888000,564.127991
847.168030,87.839996,564.127991
841.312012,87.839996,566.080017
835.455994,97.599998,564.127991
831.552002,103.456001,562.176025
823.744019,113.216003,558.271973
825.695984,121.024002,548.512024
821.791992,115.167999,544.607971
810.080017,122.975998,554.367981
813.984009,124.928001,546.559998
806.176025,122.975998,534.848022
808.127991,117.120003,532.895996
813.984009,126.879997,532.895996
810.080017,113.216003,534.848022
812.031982,113.216003,540.703979
806.176025,119.071999,534.848022
800.320007,119.071999,540.703979
802.271973,119.071999,550.463989
790.559998,124.928001,550.463989
788.607971,122.975998,548.512024
788.607971,126.879997,548.512024
790.559998,138.591995,546.559998
784.703979,150.304001,556.320007
782.752014,142.496002,548.512024
776.895996,136.639999,538.752014
784.703979,136.639999,546.559998
790.559998,140.544006,540.703979
788.607971,146.399994,538.752014
784.703979,150.304001,530.943970
778.848022,158.112000,534.848022
772.992004,142.496002,542.656006
771.039978,148.352005,534.848022
767.135986,154.207993,536.799988
761.280029,154.207993,517.280029
761.280029,148.352005,525.088013
767.135986,142.496002,513.375977
763.231995,146.399994,511.424011
763.231995,140.544006,515.328003
763.231995,134.688004,509.471985
759.328003,138.591995,513.375977
767.135986,128.832001,505.567993
755.424011,128.832001,505.567993
759.328003,134.688004,513.375977
761.280029,132.735992,501.664001
751.520020,124.928001,505.567993
759.328003,140.544006,513.375977
757.375977,132.735992,503.615997
753.471985,134.688004,511.424011
763.231995,130.783997,505.567993
759.328003,121.024002,509.471985
759.328003,134.688004,513.375977
761.280029,117.120003,517.280029
757.375977,128.832001,525.088013
765.184021,115.167999,523.135986
765.184021,119.071999,511.424011
765.184021,115.167999,499.712006
774.943970,124.928001,513.375977
774.943970,124.928001,521.184021
769.088013,119.071999,515.328003
769.088013,126.879997,517.280029
772.992004,119.071999,511.424011
778.848022,124.928001,513.375977
771.039978,124.928001,505.567993
767.135986,128.832001,509.471985
772.992004,117.120003,503.615997
772.992004,111.264000,499.712006
784.703979,117.120003,491.903992
784.703979,121.024002,493.855988
778.848022,121.024002,491.903992
784.703979,121.024002,491.903992
784.703979,117.120003,493.855988
784.703979,109.311996,484.096008
788.607971,109.311996,488.000000
792.512024,103.456001,472.384003
790.559998,103.456001,484.096008
790.559998,105.407997,482.144012
794.463989,103.456001,478.239990
790.559998,109.311996,470.432007
800.320007,107.360001,466.528015
796.416016,99.552002,464.575989
806.176025,105.407997,462.623993
808.127991,103.456001,448.959991
812.031982,105.407997,454.816010
819.840027,111.264000,441.152008
819.840027,117.120003,445.056000
841.312012,126.879997,433.343994
839.359985,117.120003,439.200012
835.455994,117.120003,441.152008
851.072021,117.120003,454.816010
851.072021,126.879997,448.959991
856.927979,126.879997,456.768005
866.687988,126.879997,460.671997
870.591980,121.024002,466.528015
874.495972,124.928001,472.384003
882.304016,124.928001,470.432007
878.400024,128.832001,472.384003
897.919983,142.496002,486.048004
905.728027,130.783997,486.048004
911.583984,130.783997,495.808014
913.536011,128.832001,505.567993
919.392029,134.688004,515.328003
913.536011,122.975998,517.280029
913.536011,134.688004,523.135986
913.536011,122.975998,525.088013
929.151978,119.071999,536.799988
915.487976,126.879997,536.799988
927.200012,128.832001,532.895996
929.151978,134.688004,538.752014
929.151978,130.783997,544.607971
931.104004,119.071999,552.416016
944.768005,119.071999,562.176025
944.768005,124.928001,564.127991
942.815979,121.024002,550.463989
948.671997,124.928001,560.223999
950.624023,132.735992,552.416016
948.671997,142.496002,552.416016
940.864014,144.447998,550.463989
948.671997,146.399994,548.512024
942.815979,140.544006,550.463989
940.864014,142.496002,536.799988
938.911987,146.399994,519.231995
933.056030,140.544006,525.088013
936.960022,140.544006,517.280029
933.056030,142.496002,511.424011
940.864014,142.496002,511.424011
940.864014,138.591995,509.471985
942.815979,148.352005,515.328003
935.007996,144.447998,509.471985
935.007996,138.591995,499.712006
933.056030,142.496002,507.519989
938.911987,132.735992,505.567993
925.247986,136.639999,499.712006
927.200012,148.352005,495.808014
917.440002,144.447998,501.664001
919.392029,144.447998,497.760010
921.343994,150.304001,495.808014
921.343994,150.304001,495.808014
913.536011,144.447998,495.808014
909.632019,152.255997,497.760010
903.776001,165.919998,493.855988
895.968018,173.727997,486.048004
888.159973,160.063995,482.144012
895.968018,165.919998,476.287994
886.208008,158.112000,476.287994
886.208008,140.544006,476.287994
886.208008,136.639999,470.432007
880.351990,132.735992,464.575989
866.687988,128.832001,466.528015
878.400024,119.071999,454.816010
870.591980,115.167999,447.007996
882.304016,113.216003,441.152008
876.447998,97.599998,447.007996
866.687988,97.599998,437.247986
837.408020,89.792000,431.391998
810.080017,111.264000,423.584015
796.416016,113.216003,407.967987
825.695984,95.648003,400.160004
831.552002,66.367996,392.351990
841.312012,50.751999,384.544006
853.023987,70.272003,376.735992
868.640015,64.416000,386.496002
903.776001,60.512001,411.872009
958.432007,60.512001,433.343994
1026.751953,68.320000,452.864014
1005.280029,124.928001,478.239990
956.479980,140.544006,488.000000
970.143982,113.216003,513.375977
964.288025,136.639999,523.135986
933.056030,199.104004,534.848022
888.159973,179.584000,540.703979
894.015991,113.216003,550.463989
892.064026,124.928001,564.127991
868.640015,150.304001,560.223999
835.455994,115.167999,571.935974
823.744019,95.648003,577.791992
800.320007,119.071999,583.648010
759.328003,113.216003,562.176025
741.760010,99.552002,542.656006
704.671997,91.744003,532.895996
687.104004,85.888000,509.471985
671.487976,87.839996,495.808014
671.487976,83.935997,464.575989
679.296021,85.888000,450.911987
671.487976,95.648003,429.440002
675.392029,119.071999,402.112000
661.728027,150.304001,368.928009
663.679993,158.112000,341.600006
657.823975,163.968002,316.223999
648.064026,185.440002,296.704010
644.159973,199.104004,261.567993
650.015991,208.863998,247.904007
650.015991,212.768005,220.576004
644.159973,214.720001,195.199997
659.776001,214.720001,189.343994
663.679993,195.199997,171.776001
663.679993,199.104004,148.352005
663.679993,195.199997,140.544006
661.728027,197.151993,136.639999
667.583984,208.863998,134.688004
677.343994,195.199997,124.928001
683.200012,185.440002,113.216003
685.151978,187.391998,107.360001
694.911987,193.248001,83.935997
685.151978,183.488007,72.223999
679.296021,183.488007,56.608002
677.343994,187.391998,56.608002
679.296021,175.679993,50.751999
685.151978,169.824005,50.751999
679.296021,175.679993,42.944000
677.343994,183.488007,48.799999
679.296021,193.248001,48.799999
687.104004,185.440002,42.944000
687.104004,160.063995,37.088001
679.296021,169.824005,44.896000
691.007996,179.584000,37.088001
679.296021,173.727997,44.896000
681.247986,175.679993,52.703999
689.056030,173.727997,42.944000
698.815979,165.919998,52.703999
624.640015,142.496002,56.608002
829.599976,128.832001,72.223999
569.984009,146.399994,58.560001
642.208008,292.799988,64.416000
626.591980,378.687988,60.512001
644.159973,353.312012,40.992001
638.304016,316.223999,25.375999
691.007996,322.079987,21.472000
698.815979,335.743988,13.664000
722.239990,335.743988,29.280001
743.711975,306.463989,25.375999
759.328003,271.328003,29.280001
763.231995,275.231995,29.280001
737.856018,271.328003,39.040001
730.047974,232.287994,42.944000
710.528015,191.296005,23.424000
720.288025,216.671997,33.183998
728.096008,251.807999,29.280001
728.096008,247.904007,25.375999
759.328003,203.007996,25.375999
763.231995,181.535995,25.375999
772.992004,203.007996,19.520000
767.135986,204.960007,35.136002
774.943970,201.056000,31.232000
776.895996,203.007996,25.375999
776.895996,201.056000,31.232000
780.799988,183.488007,46.848000
794.463989,177.632004,50.751999
802.271973,175.679993,48.799999
794.463989,193.248001,56.608002
792.512024,199.104004,64.416000
792.512024,160.063995,72.223999
800.320007,142.496002,76.127998
851.072021,128.832001,76.127998
870.591980,132.735992,66.367996
806.176025,130.783997,54.655998
714.432007,91.744003,78.080002
765.184021,179.584000,115.167999
823.744019,247.904007,173.727997
786.656006,206.912003,204.960007
767.135986,204.960007,212.768005
796.416016,253.759995,216.671997
817.888000,232.287994,181.535995
860.831970,203.007996,156.160004
888.159973,253.759995,113.216003
878.400024,308.415985,87.839996
835.455994,300.608002,95.648003
839.359985,359.167999,87.839996
958.432007,374.783997,80.031998
917.440002,263.519989,74.176003
938.911987,230.335999,83.935997
1075.552002,335.743988,103.456001
977.952026,390.399994,101.503998
985.760010,320.127991,138.591995
954.528015,158.112000,162.016006
876.447998,103.456001,193.248001
946.719971,292.799988,220.576004
1116.543945,121.024002,234.240005
1165.343994,-142.496002,240.095993
1249.280029,-193.248001,249.856003
1155.583984,74.176003,234.240005
942.815979,612.927979,224.479996
938.911987,372.832001,226.432007
733.952026,-46.848000,249.856003
1095.072021,7.808000,273.279999
966.239990,279.135986,273.279999
1054.079956,429.440002,283.040009
1138.015991,31.232000,306.463989
1118.495972,-169.824005,312.320007
1098.975952,42.944000,327.936005
1093.119995,204.960007,333.791992
1163.391968,-37.088001,357.216003
1212.192017,-255.712006,365.023987
1182.911987,-148.352005,376.735992
1016.992004,189.343994,365.023987
1056.031982,318.175995,372.832001
1065.791992,122.975998,378.687988
1073.599976,37.088001,380.640015
1057.984009,146.399994,388.447998
1116.543945,95.648003,370.880005
1108.735962,-210.815994,378.687988
1294.176025,-353.312012,392.351990
1167.296021,-378.687988,402.112000
1085.312012,-199.104004,404.063995
1067.744019,283.040009,415.776001
1159.488037,259.615997,394.303986
1221.952026,136.639999,400.160004
1253.183960,-204.960007,417.727997
989.664001,-409.920013,458.720001
1009.184021,-486.048004,488.000000
1368.352051,-739.807983,484.096008
1339.072021,-712.479980,509.471985
1403.488037,-255.712006,554.367981
505.567993,400.160004,1007.231995
796.416016,1643.583984,1450.336060
1163.391968,312.320007,1223.904053
1223.904053,-1157.536011,944.768005
1477.663940,-1659.199951,1013.088013
1413.248047,-2010.560059,1237.567993
1475.712036,-2418.528076,1241.472046
1475.712036,-1916.864014,1221.952026
1286.368042,-327.936005,1083.359985
1520.608032,29.280001,888.159973
1528.416016,-884.255981,730.047974
1563.552002,-956.479980,661.728027
1216.095947,-374.783997,618.783997
997.471985,148.352005,482.144012
938.911987,251.807999,306.463989
997.471985,134.688004,142.496002
1085.312012,115.167999,50.751999
1114.592041,-1.952000,42.944000
1114.592041,66.367996,87.839996
1151.680054,325.984009,122.975998
1155.583984,74.176003,156.160004
1157.536011,-117.120003,208.863998
1118.495972,-19.520000,218.623993
1075.552002,7.808000,242.048004
1065.791992,-9.760000,281.088013
1075.552002,21.472000,298.656006
1038.463989,121.024002,300.608002
1030.656006,136.639999,318.175995
1046.271973,173.727997,322.079987
1087.264038,310.368011,288.895996
1083.359985,331.839996,257.664001
1079.456055,191.296005,210.815994
1155.583984,-7.808000,160.063995
1050.176025,-93.695999,115.167999
1015.039978,-25.375999,42.944000
954.528015,103.456001,-19.520000
1005.280029,253.759995,-68.320000
983.807983,366.976013,-81.984001
1048.223999,388.447998,-87.839996
1112.640015,242.048004,-80.031998
1114.592041,13.664000,-74.176003
1083.359985,-193.248001,-50.751999
1034.560059,-273.279999,-46.848000
997.471985,-206.912003,-46.848000
981.856018,-48.799999,-72.223999
964.288025,89.792000,-95.648003
972.096008,122.975998,-91.744003
983.807983,66.367996,-89.792000
993.567993,-1.952000,-81.984001
1005.280029,62.464001,-50.751999
1005.280029,245.951996,-17.568001
1020.895996,409.920013,25.375999
1032.608032,380.640015,42.944000
1018.943970,134.688004,60.512001
1122.400024,-244.000000,37.088001
1257.088013,-443.104004,13.664000
1138.015991,-437.247986,-21.472000
1020.895996,-417.727997,-50.751999
925.247986,-308.415985,-62.464001
938.911987,78.080002,-70.272003
1009.184021,464.575989,-101.503998
1063.839966,443.104004,-111.264000
1073.599976,97.599998,-97.599998
1149.728027,-302.559998,-93.695999
1124.352051,-587.552002,-83.935997
1093.119995,-749.567993,-89.792000
1104.832031,-591.455994,-97.599998
1081.407959,-259.615997,-124.928001
1052.128052,50.751999,-152.255997
1015.039978,228.384003,-191.296005
995.520020,234.240005,-228.384003
976.000000,154.207993,-281.088013
1003.328003,13.664000,-327.936005
1032.608032,-130.783997,-353.312012
1022.848022,-257.664001,-365.023987
1013.088013,-21.472000,-357.216003
1015.039978,583.648010,-271.328003
1030.656006,862.783997,-189.343994
1085.312012,698.815979,-128.832001
1161.439941,181.535995,-117.120003
1157.536011,-478.239990,-107.360001
1130.208008,-1052.128052,-89.792000
1110.687988,-1487.423950,-17.568001
1020.895996,-1067.744019,37.088001
1040.416016,27.327999,33.183998
1102.880005,954.528015,1.952000
1179.008057,1190.719971,-9.760000
1194.624023,702.719971,-35.136002
1245.375977,-314.272003,-74.176003
1321.504028,-1329.312012,-93.695999
1317.599976,-1676.767944,-74.176003
1288.319946,-1151.680054,-80.031998
1220.000000,-130.783997,-119.071999
1196.576050,653.919983,-156.160004
1138.015991,732.000000,-173.727997
1104.832031,325.984009,-214.720001
1077.504028,-277.183990,-259.615997
1077.504028,-692.960022,-273.279999
1104.832031,-618.783997,-308.415985
1145.823975,-171.776001,-341.600006
1143.871948,595.359985,-302.559998
1093.119995,1243.423950,-210.815994
1009.184021,1173.151978,-130.783997
1114.592041,259.615997,-162.016006
1225.855957,-1180.959961,-206.912003
1298.079956,-2363.872070,-201.056000
1038.463989,-2080.832031,-160.063995
997.471985,-298.656006,-185.440002
983.807983,1438.624023,-224.479996
1106.784058,1961.760010,-275.231995
1077.504028,1216.095947,-310.368011
1098.975952,-294.752014,-363.071991
1266.848022,-1626.015991,-421.631989
1348.832031,-2014.463989,-452.864014
1303.936035,-1296.128052,-472.384003
1331.264038,-124.928001,-564.127991
1231.712036,929.151978,-628.544006
1319.552002,2156.959961,-585.599976
954.528015,2949.471924,-458.720001
776.895996,2352.159912,-425.536011
765.184021,445.056000,-392.351990
1071.647949,-1653.343994,-359.167999
1270.751953,-3002.176025,-296.704010
1262.943970,-2623.488037,-281.088013
1071.647949,-901.823975,-238.143997
1136.063965,936.960022,-284.992004
1229.760010,1916.864014,-286.944000
1391.776001,2008.608032,-312.320007
1385.920044,1428.864014,-316.223999
1344.927979,173.727997,-320.127991
1374.208008,-1385.920044,-279.135986
1354.687988,-2318.976074,-97.599998
1169.248047,-1645.536011,99.552002
1100.927979,68.320000,193.248001
1163.391968,1235.615967,214.720001
1253.183960,1235.615967,189.343994
1668.959961,888.159973,93.695999
972.096008,839.359985,218.623993
1098.975952,819.840027,124.928001
1270.751953,411.872009,-13.664000
1268.800049,27.327999,1.952000
1407.391968,-122.975998,25.375999
1282.463989,-398.208008,197.151993
1231.712036,-306.463989,327.936005
1134.112061,365.023987,384.544006
1161.439941,1007.231995,357.216003
1206.336060,1206.336060,279.135986
1280.511963,860.831970,152.255997
1362.495972,204.960007,31.232000
1325.407959,-470.432007,-11.712000
1173.151978,-616.831970,-25.375999
1262.943970,-171.776001,-105.407997
1202.432007,450.911987,-119.071999
1452.287964,886.208008,-234.240005
1385.920044,962.335999,-226.432007
1530.368042,681.247986,-302.559998
1446.432007,193.248001,-304.511993
1415.199951,-224.479996,-308.415985
1385.920044,-525.088013,-242.048004
1341.024048,-554.367981,-132.735992
1303.936035,-210.815994,-39.040001
1220.000000,378.687988,62.464001
1194.624023,880.351990,113.216003
1325.407959,1132.160034,93.695999
1167.296021,1243.423950,91.744003
1042.368042,823.744019,60.512001
1077.504028,-109.311996,-7.808000
1143.871948,-765.184021,-70.272003
1163.391968,-687.104004,-150.304001
1251.232056,-140.544006,-236.192001
1227.807983,480.191986,-304.511993
1214.144043,876.447998,-345.503998
1229.760010,837.408020,-363.071991
1216.095947,406.015991,-394.303986
1223.904053,-109.311996,-415.776001
1221.952026,-341.600006,-417.727997
1179.008057,-238.143997,-429.440002
1182.911987,115.167999,-441.152008
1132.160034,402.112000,-441.152008
1042.368042,515.328003,-462.623993
1056.031982,456.768005,-503.615997
1040.416016,283.040009,-497.760010
1059.936035,56.608002,-501.664001
1161.439941,-199.104004,-503.615997
1274.656006,-372.832001,-493.855988
1307.839966,-351.359985,-478.239990
1300.031982,-27.327999,-443.104004
1214.144043,349.407990,-361.119995
1214.144043,673.440002,-236.192001
1255.135986,862.783997,-91.744003
1284.416016,587.552002,-15.616000
1315.647949,-37.088001,23.424000
1294.176025,-568.031982,39.040001
1311.744019,-640.255981,39.040001
1317.599976,-267.424011,40.992001
1288.319946,163.968002,29.280001
1276.608032,484.096008,-1.952000
1276.608032,472.384003,-27.327999
1292.223999,146.399994,-56.608002
1317.599976,-240.095993,-111.264000
1223.904053,-519.231995,-134.688004
1040.416016,-515.328003,-93.695999
1670.911987,-757.375977,472.384003
2693.760010,-1499.135986,2410.719971
2767.936035,-1300.031982,3287.167969
2970.944092,-743.711975,3203.231934
3011.936035,-191.296005,2684.000000
2680.095947,-68.320000,1602.592041
1952.000000,331.839996,421.631989
1545.984009,374.783997,-279.135986
1260.991943,169.824005,-614.880005
1223.904053,-74.176003,-733.952026
1089.215942,-427.488007,-345.503998
1309.791992,-324.032013,-25.375999
1208.287964,277.183990,-173.727997
1126.303955,782.752014,-650.015991
1022.848022,913.536011,-894.015991
952.575989,872.544006,-981.856018
901.823975,739.807983,-1032.608032
954.528015,5.856000,-238.143997
1809.504028,-1229.760010,1819.264038
2188.191895,-1657.248047,2654.719971
2115.968018,-1044.319946,1936.384033
1760.703979,-11.712000,659.776001
1333.215942,759.328003,-384.544006
915.487976,1479.615967,-1360.543945
571.935974,1912.959961,-1842.687988
657.823975,1940.287964,-1750.943970
894.015991,1881.728027,-1501.088013
1177.056030,1264.895996,-355.264008
1616.255981,193.248001,1085.312012
1579.167969,-1001.375977,1462.047974
1653.343994,-2248.704102,1430.816040
1631.871948,-2051.552002,1376.160034
1298.079956,-1547.936035,411.872009
851.072021,-390.399994,-669.536011
447.007996,269.376007,-1221.952026
636.351990,593.408020,-1528.416016
938.911987,624.640015,-1385.920044
970.143982,542.656006,-753.471985
1059.936035,415.776001,-339.648010
1089.215942,448.959991,-456.768005
1054.079956,575.840027,-544.607971
972.096008,761.280029,-503.615997
997.471985,935.007996,-651.968018
933.056030,1153.631958,-628.544006
376.735992,1198.527954,-134.688004
815.935974,897.919983,64.416000
1067.744019,532.895996,103.456001
1327.359985,162.016006,-99.552002
1216.095947,-78.080002,-273.279999
1059.936035,-9.760000,-290.847992
1229.760010,-74.176003,-189.343994
1214.144043,-247.904007,-81.984001
1122.400024,-163.968002,-21.472000
1155.583984,13.664000,-128.832001
741.760010,80.031998,-216.671997
550.463989,234.240005,-425.536011
833.504028,251.807999,-710.528015
802.271973,212.768005,-714.432007
911.583984,238.143997,-564.127991
1028.703979,183.488007,-466.528015
964.288025,81.984001,-357.216003
903.776001,-236.192001,-341.600006
888.159973,-792.512024,-409.920013
876.447998,-1069.696045,-488.000000
792.512024,-819.840027,-542.656006
728.096008,-421.631989,-517.280029
765.184021,56.608002,-409.920013
894.015991,265.471985,-298.656006
999.424011,306.463989,-238.143997
1036.511963,277.183990,-193.248001
1110.687988,253.759995,-230.335999
1089.215942,242.048004,-265.471985
1114.592041,224.479996,-251.807999
1171.199951,236.192001,-249.856003
1216.095947,158.112000,-236.192001
1235.615967,70.272003,-230.335999
1159.488037,50.751999,-279.135986
1091.167969,109.311996,-361.119995
993.567993,195.199997,-409.920013
944.768005,275.231995,-435.295990
917.440002,267.424011,-429.440002
911.583984,-23.424000,-353.312012
892.064026,-423.584015,-275.231995
864.736023,-569.984009,-232.287994
882.304016,-363.071991,-242.048004
913.536011,-138.591995,-242.048004
962.335999,-40.992001,-179.584000
1028.703979,-74.176003,-95.648003
1079.456055,-101.503998,-68.320000
1118.495972,-105.407997,-101.503998
1108.735962,-87.839996,-158.112000
1075.552002,-97.599998,-214.720001
1046.271973,-27.327999,-242.048004
1018.943970,52.703999,-261.567993
993.567993,197.151993,-255.712006
1003.328003,331.839996,-244.000000
1061.887939,421.631989,-255.712006
972.096008,532.895996,-224.479996
938.911987,609.023987,-232.287994
870.591980,663.679993,-251.807999
858.880005,667.583984,-281.088013
897.919983,566.080017,-253.759995
1020.895996,378.687988,-232.287994
1130.208008,191.296005,-201.056000
1200.479980,72.223999,-175.679993
1175.104004,-210.815994,-138.591995
1190.719971,-612.927979,-195.199997
1147.776001,-841.312012,-329.888000
1038.463989,-732.000000,-489.951996
940.864014,-388.447998,-595.359985
895.968018,-35.136002,-566.080017
862.783997,148.352005,-466.528015
843.263977,251.807999,-368.928009
940.864014,199.104004,-335.743988
962.335999,-21.472000,-361.119995
1042.368042,-146.399994,-382.592010
983.807983,-128.832001,-341.600006
851.072021,-150.304001,-322.079987
874.495972,-115.167999,-380.640015
915.487976,-23.424000,-372.832001
950.624023,-80.031998,-337.696014
1009.184021,-152.255997,-314.272003
1067.744019,-175.679993,-273.279999
1112.640015,-165.919998,-244.000000
1093.119995,-128.832001,-251.807999
1089.215942,-89.792000,-281.088013
1122.400024,-97.599998,-267.424011
1141.920044,-87.839996,-259.615997
1130.208008,-48.799999,-259.615997
1108.735962,-46.848000,-279.135986
1108.735962,-37.088001,-327.936005
1098.975952,-33.183998,-359.167999
1042.368042,-11.712000,-366.976013
1003.328003,42.944000,-357.216003
993.567993,70.272003,-324.032013
1048.223999,60.512001,-271.328003
1116.543945,39.040001,-201.056000
1180.959961,31.232000,-163.968002
1192.671997,31.232000,-134.688004
1169.248047,56.608002,-128.832001
1153.631958,62.464001,-142.496002
1120.447998,62.464001,-167.871994
1175.104004,70.272003,-214.720001
1097.024048,72.223999,-210.815994
1126.303955,23.424000,-236.192001
1110.687988,48.799999,-257.664001
1104.832031,58.560001,-263.519989
1106.784058,33.183998,-277.183990
1106.784058,23.424000,-281.088013
1130.208008,46.848000,-281.088013
1136.063965,40.992001,-277.183990
1132.160034,35.136002,-265.471985
1116.543945,44.896000,-269.376007
1118.495972,48.799999,-288.895996
1126.303955,48.799999,-290.847992
1124.352051,35.136002,-286.944000
1126.303955,15.616000,-269.376007
1108.735962,23.424000,-284.992004
1106.784058,3.904000,-298.656006
1102.880005,3.904000,-298.656006
1093.119995,3.904000,-314.272003
1089.215942,7.808000,-329.888000
1091.167969,9.760000,-349.407990
1075.552002,15.616000,-361.119995
1069.696045,17.568001,-382.592010
1059.936035,19.520000,-396.256012
1050.176025,27.327999,-388.447998
1063.839966,31.232000,-392.351990
1056.031982,39.040001,-392.351990
1063.839966,44.896000,-398.208008
1059.936035,40.992001,-407.967987
1059.936035,46.848000,-402.112000
1063.839966,33.183998,-402.112000
1057.984009,42.944000,-398.208008
1063.839966,42.944000,-406.015991
1057.984009,46.848000,-415.776001
1056.031982,52.703999,-411.872009
1057.984009,58.560001,-409.920013
1050.176025,62.464001,-425.536011
1044.319946,74.176003,-431.391998
1036.511963,81.984001,-445.056000
1038.463989,99.552002,-445.056000
1038.463989,107.360001,-445.056000
1048.223999,105.407997,-443.104004
1052.128052,91.744003,-439.200012
1052.128052,97.599998,-439.200012
1044.319946,91.744003,-443.104004
1050.176025,89.792000,-448.959991
1054.079956,74.176003,-443.104004
1052.128052,93.695999,-445.056000
1054.079956,80.031998,-431.391998
1050.176025,80.031998,-435.295990
1056.031982,87.839996,-427.488007
1050.176025,87.839996,-456.768005
1042.368042,87.839996,-447.007996
1040.416016,81.984001,-448.959991
1026.751953,93.695999,-464.575989
1030.656006,113.216003,-468.480011
1022.848022,109.311996,-468.480011
1024.800049,122.975998,-458.720001
1026.751953,124.928001,-462.623993
1022.848022,109.311996,-464.575989
1020.895996,115.167999,-458.720001
1026.751953,113.216003,-456.768005
1026.751953,111.264000,-458.720001
1024.800049,97.599998,-468.480011
1024.800049,97.599998,-472.384003
1036.511963,101.503998,-470.432007
1040.416016,97.599998,-464.575989
1036.511963,103.456001,-470.432007
1034.560059,105.407997,-458.720001
1034.560059,124.928001,-468.480011
1032.608032,117.120003,-466.528015
1032.608032,126.879997,-464.575989
1040.416016,113.216003,-462.623993
1030.656006,99.552002,-464.575989
1024.800049,115.167999,-462.623993
1028.703979,109.311996,-474.335999
1022.848022,117.120003,-474.335999
1030.656006,109.311996,-468.480011
1034.560059,95.648003,-468.480011
1030.656006,101.503998,-466.528015
1042.368042,103.456001,-454.816010
1036.511963,95.648003,-454.816010
1040.416016,76.127998,-447.007996
1030.656006,85.888000,-443.104004
1032.608032,85.888000,-445.056000
1032.608032,95.648003,-445.056000
1036.511963,85.888000,-445.056000
1030.656006,78.080002,-450.911987
1028.703979,78.080002,-448.959991
1026.751953,70.272003,-458.720001
1020.895996,68.320000,-462.623993
1011.135986,80.031998,-458.720001
1005.280029,85.888000,-450.911987
1007.231995,83.935997,-450.911987
1001.375977,74.176003,-450.911987
995.520020,68.320000,-454.816010
989.664001,80.031998,-454.816010
989.664001,68.320000,-462.623993
976.000000,62.464001,-460.671997
989.664001,68.320000,-460.671997
972.096008,60.512001,-472.384003
968.192017,66.367996,-474.335999
960.383972,46.848000,-472.384003
956.479980,29.280001,-476.287994
948.671997,-5.856000,-488.000000
936.960022,-35.136002,-493.855988
936.960022,-31.232000,-507.519989
935.007996,-13.664000,-499.712006
946.719971,11.712000,-489.951996
952.575989,11.712000,-482.144012
946.719971,23.424000,-482.144012
942.815979,35.136002,-489.951996
936.960022,48.799999,-497.760010
929.151978,33.183998,-499.712006
917.440002,31.232000,-499.712006
921.343994,21.472000,-497.760010
921.343994,37.088001,-493.855988
933.056030,15.616000,-497.760010
921.343994,1.952000,-497.760010
927.200012,25.375999,-501.664001
927.200012,27.327999,-509.471985
917.440002,40.992001,-507.519989
931.104004,19.520000,-509.471985
919.392029,27.327999,-507.519989
923.296021,29.280001,-493.855988
917.440002,23.424000,-505.567993
925.247986,9.760000,-497.760010
921.343994,-5.856000,-507.519989
925.247986,-1.952000,-507.519989
913.536011,13.664000,-497.760010
923.296021,23.424000,-501.664001
921.343994,23.424000,-493.855988
929.151978,7.808000,-491.903992
929.151978,11.712000,-493.855988
919.392029,29.280001,-491.903992
931.104004,29.280001,-495.808014
938.911987,23.424000,-478.239990
944.768005,19.520000,-470.432007
942.815979,33.183998,-480.191986
935.007996,23.424000,-484.096008
938.911987,19.520000,-480.191986
933.056030,31.232000,-480.191986
933.056030,31.232000,-486.048004
940.864014,39.040001,-493.855988
942.815979,23.424000,-486.048004
950.624023,19.520000,-460.671997
950.624023,29.280001,-468.480011
946.719971,11.712000,-476.287994
942.815979,13.664000,-474.335999
940.864014,19.520000,-493.855988
933.056030,50.751999,-486.048004
936.960022,64.416000,-491.903992
933.056030,60.512001,-495.808014
952.575989,56.608002,-488.000000
954.528015,21.472000,-482.144012
964.288025,15.616000,-474.335999
981.856018,7.808000,-472.384003
977.952026,27.327999,-474.335999
979.903992,44.896000,-470.432007
966.239990,62.464001,-478.239990
958.432007,70.272003,-488.000000
962.335999,76.127998,-501.664001
948.671997,70.272003,-507.519989
960.383972,52.703999,-497.760010
970.143982,52.703999,-497.760010
976.000000,52.703999,-486.048004
989.664001,44.896000,-478.239990
997.471985,46.848000,-474.335999
983.807983,68.320000,-468.480011
993.567993,72.223999,-480.191986
989.664001,68.320000,-482.144012
989.664001,78.080002,-491.903992
995.520020,70.272003,-493.855988
987.711975,81.984001,-484.096008
989.664001,80.031998,-480.191986
974.047974,91.744003,-482.144012
974.047974,111.264000,-497.760010
970.143982,107.360001,-489.951996
976.000000,95.648003,-491.903992
991.616028,99.552002,-491.903992
991.616028,91.744003,-478.239990
997.471985,76.127998,-470.432007
995.520020,64.416000,-466.528015
1005.280029,56.608002,-478.239990
1007.231995,62.464001,-480.191986
1003.328003,78.080002,-486.048004
997.471985,89.792000,-470.432007
1013.088013,87.839996,-466.528015
1003.328003,81.984001,-476.287994
1001.375977,89.792000,-474.335999
997.471985,97.599998,-474.335999
1007.231995,89.792000,-482.144012
999.424011,97.599998,-482.144012
1001.375977,101.503998,-491.903992
999.424011,109.311996,-474.335999
1003.328003,113.216003,-474.335999
1003.328003,107.360001,-462.623993
995.520020,115.167999,-472.384003
997.471985,107.360001,-470.432007
991.616028,111.264000,-474.335999
997.471985,97.599998,-462.623993
991.616028,101.503998,-460.671997
991.616028,99.552002,-460.671997
1005.280029,101.503998,-445.056000
995.520020,109.311996,-443.104004
989.664001,101.503998,-454.816010
989.664001,109.311996,-452.864014
993.567993,111.264000,-458.720001
985.760010,115.167999,-450.911987
985.760010,115.167999,-443.104004
981.856018,109.311996,-445.056000
979.903992,89.792000,-450.911987
974.047974,95.648003,-468.480011
976.000000,95.648003,-460.671997
960.383972,89.792000,-458.720001
960.383972,105.407997,-452.864014
972.096008,95.648003,-445.056000
966.239990,93.695999,-443.104004
960.383972,95.648003,-435.295990
968.192017,87.839996,-447.007996
956.479980,87.839996,-452.864014
958.432007,80.031998,-468.480011
948.671997,83.935997,-468.480011
950.624023,85.888000,-468.480011
944.768005,95.648003,-460.671997
944.768005,89.792000,-460.671997
942.815979,87.839996,-458.720001
940.864014,70.272003,-464.575989
938.911987,72.223999,-452.864014
929.151978,83.935997,-466.528015
931.104004,64.416000,-480.191986
913.536011,50.751999,-472.384003
921.343994,54.655998,-470.432007
915.487976,52.703999,-472.384003
911.583984,68.320000,-476.287994
907.679993,60.512001,-470.432007
905.728027,56.608002,-486.048004
901.823975,44.896000,-482.144012
905.728027,56.608002,-484.096008
899.872009,60.512001,-484.096008
897.919983,66.367996,-478.239990
899.872009,48.799999,-484.096008
899.872009,56.608002,-484.096008
892.064026,60.512001,-478.239990
892.064026,68.320000,-466.528015
888.159973,50.751999,-470.432007
884.255981,44.896000,-478.239990
888.159973,42.944000,-478.239990
