ACC_X,ACC_Y,ACC_Z,Time
-582.641602,860.137939,30.944824,0.000133
-593.444824,860.504150,34.698486,0.000891
-587.493896,859.313965,34.057617,0.001654
-591.430664,856.292725,34.149170,0.002396
-583.740234,852.081299,34.149170,0.003137
-583.190918,857.574463,37.628174,0.003878
-579.437256,852.539062,31.127930,0.004628
-580.444336,861.328125,35.980225,0.005370
-583.648682,851.257324,33.966064,0.006111
-585.388184,854.003906,30.487061,0.006852
-580.078125,852.081299,34.423828,0.007604
-593.170166,853.179932,41.290283,0.008345
-585.571289,845.306396,36.987305,0.009086
-597.564697,847.045898,38.269043,0.009826
-596.832275,845.764160,31.677246,0.010577
-596.557617,836.334229,33.599854,0.011318
-594.085693,842.559814,35.247803,0.012059
-585.937500,843.933105,25.543213,0.012800
-593.444824,831.115723,32.958984,0.013551
-588.043213,832.031250,30.944824,0.014291
-592.712402,829.376221,38.909912,0.015032
-582.641602,834.228516,39.825439,0.015772
-587.493896,831.573486,40.191650,0.016523
-591.430664,838.989258,40.283203,0.017264
-599.395752,835.968018,38.543701,0.018004
-606.994629,842.285156,48.706055,0.018745
-606.719971,849.609375,45.501709,0.019486
-610.565186,853.454590,27.832031,0.020218
-604.431152,844.390869,28.472900,0.020950
-616.333008,853.912354,24.353027,0.021681
-613.677979,849.609375,28.106689,0.022433
-610.198975,848.876953,46.417236,0.023174
-609.191895,863.800049,30.029297,0.023915
-599.487305,855.285645,21.697998,0.024655
-600.219727,872.497559,22.155762,0.025406
-595.825195,867.187500,29.296875,0.026147
-601.318359,860.687256,50.628662,0.026887
-605.072021,858.764648,60.974121,0.027628
-603.973389,865.356445,61.706543,0.028368
-599.670410,869.384766,58.502197,0.029100
-611.480713,866.088867,62.988281,0.029831
-620.086670,864.074707,67.474365,0.030562
-626.312256,860.504150,65.734863,0.031313
-627.593994,858.947754,64.453125,0.032053
-638.214111,848.968506,63.079834,0.032792
-634.918213,850.067139,49.438477,0.033531
-632.904053,850.524902,52.093506,0.034280
-631.530762,852.813721,59.967041,0.035020
-618.896484,851.531982,57.312012,0.035760
-603.149414,856.750488,62.805176,0.036500
-595.367432,887.329102,66.101074,0.037248
-596.282959,865.081787,70.129395,0.037988
-589.141846,869.934082,69.946289,0.038727
-584.838867,873.962402,73.699951,0.039466
-569.915771,866.729736,86.517334,0.040214
-566.711426,883.575439,77.819824,0.040953
-564.147949,885.223389,83.129883,0.041692
-567.443848,875.793457,95.672607,0.042431
-568.725586,875.244141,98.327637,0.043179
-574.951172,878.906250,95.581055,0.043918
-580.810547,918.823242,59.051514,0.044657
-590.972900,919.555664,66.650391,0.045396
-616.333008,900.604248,110.778809,0.046144
-634.552002,903.900146,93.475342,0.046883
-605.346680,900.787354,78.094482,0.047622
-602.508545,885.040283,54.107666,0.048360
-605.072021,894.195557,41.839600,0.049112
-578.155518,907.104492,25.451660,0.049851
-573.028564,892.272949,62.713623,0.050592
-608.642578,888.244629,74.523926,0.051332
-572.479248,888.336182,69.946289,0.052082
-569.458008,898.773193,56.579590,0.052821
-568.634033,883.941650,59.051514,0.053560
-553.344727,877.075195,68.206787,0.054299
-541.625977,892.364502,72.143555,0.055048
-562.500000,902.252197,79.101562,0.055787
-554.626465,896.301270,96.038818,0.056526
-559.753418,904.724121,101.898193,0.057265
-583.648682,908.660889,117.187500,0.058015
-544.372559,909.393311,116.363525,0.058754
-538.146973,914.062500,111.785889,0.059493
-525.329590,937.042236,99.700928,0.060232
-499.511719,924.407959,103.363037,0.061012
-493.377686,934.020996,125.701904,0.061775
-493.469238,961.853027,119.934082,0.062524
-489.807129,1000.946045,125.335693,0.063264
-502.532959,998.931885,165.802002,0.064036
-500.610352,974.121094,246.093750,0.064778
-501.068115,1002.868652,203.796387,0.065517
-456.481934,1018.249512,182.830811,0.066256
-416.748047,1012.573242,181.457520,0.067007
-430.023193,1000.579834,225.677490,0.067747
-574.859619,956.542969,294.158936,0.068486
-521.575928,978.515625,313.659668,0.069225
-447.326660,991.333008,314.392090,0.069974
-538.055420,1032.806396,264.678955,0.070713
-516.632080,1049.652100,191.162109,0.071453
-482.574463,1034.545898,164.428711,0.072290
-469.024658,1023.834229,94.482422,0.073043
-443.847656,1000.213623,72.967529,0.073782
-434.143066,952.148438,84.960938,0.074522
-428.100586,925.964355,73.425293,0.075262
-432.495117,920.928955,82.946777,0.076039
-461.791992,920.379639,81.848145,0.076782
-498.596191,944.732666,98.876953,0.077523
-525.604248,959.655762,135.498047,0.078265
-556.732178,986.755371,153.717041,0.079006
-591.430664,1010.650635,209.564209,0.079746
-608.093262,1013.763428,223.571777,0.080487
-623.199463,1007.354736,230.072021,0.081228
-616.149902,1016.143799,215.057373,0.081969
-598.297119,1014.587402,210.937500,0.082710
-626.953125,1011.291504,215.057373,0.083451
-629.516602,1003.326416,208.648682,0.084204
-601.135254,1009.643555,196.929932,0.084945
-609.741211,1009.643555,207.092285,0.085686
-610.748291,1023.925781,223.571777,0.086427
-654.785156,1032.623291,224.395752,0.087177
-661.926270,1031.799316,239.685059,0.087918
-680.603027,1034.088135,269.805908,0.088659
-688.842773,1046.081543,262.298584,0.089400
-675.659180,1056.793213,261.749268,0.090150
-279.968262,1017.242432,265.228271,0.090891
393.951416,1037.017822,27.191162,0.091632
-114.074707,1174.255371,-67.382812,0.092372
-216.796875,1077.850342,31.219482,0.093112
-598.571777,993.530273,140.167236,0.093852
-242.980957,996.368408,275.115967,0.094592
-350.646973,984.924316,388.732910,0.095333
-447.052002,992.889404,416.290283,0.096073
-467.559814,1040.405273,440.277100,0.096804
-430.389404,1064.392090,433.685303,0.097535
-483.764648,1121.795654,444.946289,0.098266
-525.878906,1127.014160,430.480957,0.098997
-493.927002,1128.936768,428.100586,0.099745
-469.940186,1132.690430,443.939209,0.100478
-468.750000,1132.232666,436.981201,0.101209
-463.348389,1127.197266,415.924072,0.101940
-434.234619,1113.647461,457.672119,0.102681
-442.474365,1106.048584,472.320557,0.103413
-468.292236,1069.061279,488.250732,0.104144
-469.848633,1069.061279,487.060547,0.104874
-486.968994,1053.222656,507.659912,0.105615
-526.245117,1077.392578,517.272949,0.106347
-519.561768,1063.385010,532.928467,0.107078
-517.364502,1066.772461,497.314453,0.107809
-514.892578,1088.745117,466.644287,0.108550
-585.571289,1035.278320,407.958984,0.109282
-798.522949,996.368408,361.450195,0.110014
-765.289307,974.029541,383.331299,0.110745
-661.285400,970.092773,381.317139,0.111501
-588.043213,1000.122070,361.724854,0.112241
-630.706787,989.410400,325.653076,0.112981
-636.566162,979.614258,308.898926,0.113721
-851.074219,921.936035,325.836182,0.114470
-1104.766846,965.789795,164.337158,0.115210
-817.474365,1001.678467,105.926514,0.115950
-802.276611,1026.306152,148.590088,0.116689
-794.128418,969.909668,277.130127,0.117436
-834.228516,958.282471,316.314697,0.118192
-819.213867,959.106445,320.617676,0.118934
-778.564453,944.274902,328.399658,0.119676
-707.061768,952.331543,338.928223,0.120430
-706.054688,959.381104,305.236816,0.121171
-705.780029,957.824707,268.981934,0.121913
-616.699219,877.075195,263.763428,0.122653
-993.988037,835.601807,242.980957,0.123404
-1380.615234,734.252930,179.077148,0.124144
-1378.143311,690.765381,96.038818,0.124885
-1416.412354,693.420410,6.683350,0.125626
-1468.048096,751.281738,-38.177490,0.126380
-1351.226807,781.951904,2.563477,0.127122
-1307.373047,787.445068,65.277100,0.127862
-1161.346436,800.720215,82.672119,0.128602
-1023.651123,795.318604,134.674072,0.129352
-880.096436,807.586670,135.498047,0.130093
-851.898193,799.255371,140.075684,0.130833
-802.551270,757.690430,135.681152,0.131574
-640.136719,759.704590,99.609375,0.132324
-721.984863,738.372803,22.979736,0.133065
-732.696533,736.175537,-121.948242,0.133805
-605.255127,778.381348,-187.133789,0.134545
-772.613525,793.579102,-165.802002,0.135295
-676.391602,808.593750,-119.476318,0.136036
-752.746582,774.536133,-57.128906,0.136776
-722.351074,773.345947,8.789062,0.137516
-636.566162,751.922607,28.381348,0.138266
-637.939453,764.556885,68.756104,0.139007
-515.716553,766.845703,74.249268,0.139748
-569.458008,744.873047,82.580566,0.140489
-604.888916,758.972168,131.744385,0.141239
-562.225342,773.803711,162.506104,0.142056
-650.115967,760.253906,154.357910,0.142797
-599.121094,770.507812,140.350342,0.143538
-586.853027,782.501221,115.264893,0.144290
-502.899170,791.381836,124.237061,0.145030
-543.182373,774.719238,157.287598,0.145771
-565.887451,758.789062,160.491943,0.146511
-533.477783,772.247314,189.697266,0.147262
-504.547119,789.459229,215.423584,0.148002
-452.636719,798.065186,254.150391,0.148743
-466.918945,827.178955,288.024902,0.149483
-351.287842,756.500244,286.285400,0.150232
-132.476807,750.915527,274.200439,0.150973
-171.020508,708.160400,283.721924,0.151713
-238.586426,703.125000,271.087646,0.152453
-197.296143,720.794678,237.030029,0.153203
-310.455322,697.082520,199.218750,0.153944
-224.578857,710.174561,181.823730,0.154685
-253.784180,687.103271,173.492432,0.155425
-207.824707,684.997559,166.259766,0.156175
-217.803955,623.291016,172.393799,0.156916
-323.547363,603.332520,185.485840,0.157657
-222.015381,614.410400,215.057373,0.158398
-250.579834,604.064941,195.922852,0.159149
-275.939941,608.825684,178.344727,0.159892
-137.054443,619.354248,197.204590,0.160632
-113.525391,620.361328,175.231934,0.161373
-125.610352,634.185791,139.709473,0.162123
-174.774170,576.782227,180.633545,0.162863
-285.186768,586.761475,171.203613,0.163604
-144.744873,618.164062,179.718018,0.164345
-190.612793,616.699219,201.599121,0.165121
-201.965332,665.771484,252.685547,0.165895
-256.256104,654.144287,236.663818,0.166645
-244.537354,674.194336,235.382080,0.167410
-261.749268,668.609619,252.136230,0.168151
-375.366211,637.390137,253.784180,0.168891
-361.450195,661.926270,236.389160,0.169630
-318.786621,654.876709,232.269287,0.170381
-334.350586,641.052246,236.480713,0.171122
-313.842773,648.376465,275.573730,0.171862
-275.573730,647.918701,283.355713,0.172633
-274.291992,649.749756,306.518555,0.173404
-256.256104,677.856445,322.998047,0.174154
-275.939941,662.017822,326.293945,0.174920
-277.587891,632.629395,327.484131,0.175662
-341.308594,561.126709,330.230713,0.176402
-561.035156,597.656250,321.624756,0.177142
-572.845459,590.057373,308.898926,0.177896
-550.231934,577.056885,298.095703,0.178638
-589.324951,560.394287,301.116943,0.179378
-592.620850,572.113037,288.574219,0.180118
-548.400879,592.803955,288.940430,0.180868
-576.049805,613.861084,295.623779,0.181609
-567.626953,660.095215,324.554443,0.182393
-532.928467,670.532227,353.485107,0.183145
-559.478760,673.461914,391.754150,0.183911
-578.430176,672.546387,391.204834,0.184655
-455.749512,743.957520,388.458252,0.185396
-1094.970703,355.773926,326.202393,0.186159
-881.469727,613.220215,236.938477,0.186899
-581.359863,675.018311,201.232910,0.187643
-615.325928,690.399170,220.092773,0.188406
-598.754883,682.342529,275.482178,0.189195
-574.035645,678.131104,309.448242,0.189957
-483.489990,755.676270,352.935791,0.190706
-515.350342,815.917969,418.395996,0.191475
-511.962891,887.878418,487.976074,0.192209
-471.496582,890.625000,511.413574,0.192940
-444.213867,934.753418,528.625488,0.193671
-442.657471,925.323486,575.592041,0.194407
-481.201172,958.007812,599.945068,0.195148
-454.925537,1231.933594,610.015869,0.195889
-827.728271,841.461182,663.574219,0.196630
-930.084229,656.066895,601.501465,0.197360
-501.708984,947.113037,610.290527,0.198091
-759.063721,872.680664,635.925293,0.198822
-792.022705,1054.138184,651.214600,0.199553
-635.101318,1050.109863,678.588867,0.200285
-308.898926,1198.425293,701.934814,0.201016
-238.311768,1435.272217,724.639893,0.201747
-1195.312500,121.490479,832.397461,0.202477
-1297.668457,838.531494,568.450928,0.203210
-695.159912,486.328125,601.135254,0.203953
-526.977539,1038.482666,519.927979,0.204693
-575.866699,941.070557,575.042725,0.205433
-481.384277,963.043213,613.403320,0.206169
-524.322510,1005.706787,674.652100,0.206900
-593.994141,1029.235840,707.794189,0.207630
-448.974609,1178.833008,768.310547,0.208361
-219.818115,1227.996826,830.932617,0.209093
-244.812012,1355.438232,873.962402,0.209833
-680.511475,845.306396,955.535889,0.210572
-1005.249023,267.517090,957.916260,0.211312
-541.625977,1134.887695,823.150635,0.212050
-500.793457,1054.229736,855.010986,0.212900
586.578369,259.552002,1024.566650,0.213642
-128.723145,882.659912,897.399902,0.214382
-523.590088,1518.310547,886.138916,0.215127
-178.894043,1223.327637,997.558594,0.215859
-89.447021,1077.758789,1033.813477,0.216590
-600.677490,256.622314,988.952637,0.217321
-831.207275,799.438477,675.384521,0.218079
-283.447266,1011.932373,601.043701,0.218819
-193.725586,645.263672,578.338623,0.219559
-484.863281,655.151367,563.507080,0.220299
-547.943115,879.089355,528.533936,0.221049
-537.597656,986.480713,604.522705,0.221789
-513.427734,1053.405762,638.031006,0.222529
-269.348145,1030.517578,746.520996,0.223269
-342.132568,1027.130127,860.961914,0.224019
-290.313721,1386.291504,894.836426,0.224760
86.059570,722.442627,1013.580322,0.225500
938.873291,601.776123,1040.496826,0.226240
310.089111,1194.122314,1058.898926,0.226991
-72.326660,818.206787,1021.087646,0.227731
-168.731689,826.263428,900.512695,0.228470
-170.104980,985.198975,807.037354,0.229210
-946.838379,975.677490,808.044434,0.229959
-785.064697,851.898193,796.966553,0.230699
-895.111084,911.224365,828.186035,0.231439
-633.636475,1042.053223,838.806152,0.232192
-365.753174,1083.892822,851.806641,0.232962
85.144043,1249.694824,869.567871,0.233727
114.257812,644.256592,888.885498,0.234473
69.396973,797.790527,729.400635,0.235213
169.464111,1076.019287,660.552979,0.235980
-485.687256,1097.534180,670.074463,0.236733
-728.668213,1033.996582,660.278320,0.237473
-1597.869873,888.610840,621.368408,0.238225
-931.823730,987.213135,577.331543,0.238966
486.236572,-322.448730,664.489746,0.239711
-584.747314,862.518311,631.530762,0.240474
-1019.348145,1063.293457,629.699707,0.241219
233.184814,1150.817871,282.623291,0.242021
378.845215,1029.144287,256.256104,0.242767
-410.797119,909.576416,340.393066,0.243499
-992.889404,829.467773,494.018555,0.244229
-790.832520,755.584717,466.735840,0.244959
-749.725342,816.101074,530.364990,0.245704
-1009.002686,721.618652,601.593018,0.246435
-948.211670,632.354736,632.171631,0.247165
-732.971191,697.631836,620.727539,0.247898
-557.464600,763.183594,638.854980,0.248631
-520.660400,739.105225,657.165527,0.249362
-433.319092,731.414795,655.975342,0.250093
-504.455566,696.258545,656.341553,0.250823
-513.244629,686.462402,668.151855,0.251556
-462.799072,655.609131,661.102295,0.252307
-444.854736,650.573730,651.672363,0.253046
-515.899658,625.762939,661.651611,0.253786
-503.540039,612.213135,685.272217,0.254525
-482.208252,617.065430,677.398682,0.255265
-495.208740,574.584961,665.863037,0.256005
-504.821777,534.942627,681.243896,0.256745
-334.442139,575.317383,665.405273,0.257484
-371.704102,599.487305,635.650635,0.258223
-431.121826,598.297119,662.200928,0.258963
-361.724854,595.092773,647.918701,0.259702
-344.329834,597.656250,623.748779,0.260453
-419.403076,601.043701,616.699219,0.261194
-374.725342,577.331543,597.106934,0.261933
-353.302002,605.255127,581.909180,0.262672
-412.353516,623.107910,579.620361,0.263412
-396.606445,614.685059,546.112061,0.264159
-366.027832,626.586914,537.872314,0.264914
-357.055664,608.459473,536.041260,0.265655
-387.634277,586.944580,530.731201,0.266392
-392.578125,592.987061,525.604248,0.267123
-410.614014,558.563232,546.203613,0.267864
-439.819336,542.633057,574.584961,0.268595
-433.410645,510.681152,569.641113,0.269330
-415.832520,541.534424,518.005371,0.270071
-425.720215,471.038818,497.406006,0.270811
-423.980713,435.791016,495.574951,0.271551
-352.478027,509.948730,485.046387,0.272290
-379.119873,523.590088,461.975098,0.273027
-427.917480,560.577393,449.981689,0.273764
-392.578125,544.372559,461.334229,0.274515
-361.999512,545.104980,491.271973,0.275256
-394.683838,538.696289,464.263916,0.275995
-393.402100,534.027100,421.783447,0.276735
-381.591797,543.914795,412.811279,0.277474
-433.319092,562.042236,417.297363,0.278214
-441.650391,558.746338,416.107178,0.278951
-423.156738,545.745850,423.339844,0.279688
-423.980713,535.858154,452.911377,0.280424
-420.684814,515.533447,458.038330,0.281173
-419.586182,497.406006,448.699951,0.281920
-401.367188,488.250732,466.735840,0.282658
-401.916504,499.694824,517.089844,0.283494
-411.346436,504.272461,577.239990,0.284261
-403.472900,500.152588,573.120117,0.285010
-381.317139,498.504639,574.218750,0.285761
-389.648438,478.820801,605.621338,0.286502
-402.923584,483.215332,606.719971,0.287255
-400.726318,499.877930,601.501465,0.287995
-406.127930,503.723145,612.030029,0.288734
-425.903320,528.259277,614.135742,0.289472
-434.143066,538.879395,623.107910,0.290223
-448.150635,523.773193,633.544922,0.290962
-464.904785,517.913818,647.827148,0.291701
-461.608887,498.138428,661.376953,0.292440
-453.918457,509.490967,667.510986,0.293189
-454.559326,491.088867,662.658691,0.293927
-446.319580,486.328125,660.369873,0.294666
-427.917480,462.615967,665.130615,0.295405
-425.262451,452.270508,672.088623,0.296154
-425.628662,451.354980,678.131104,0.296893
-431.945801,460.784912,676.849365,0.297633
-427.642822,448.516846,684.173584,0.298371
-415.100098,437.347412,683.807373,0.299138
-395.507812,416.107178,693.603516,0.299891
-393.585205,392.303467,689.758301,0.300632
-384.429932,391.754150,688.934326,0.301370
-359.436035,401.458740,647.369385,0.302118
-368.316650,417.663574,651.763916,0.302877
-407.226562,403.015137,642.059326,0.303626
-421.325684,378.753662,637.390137,0.304391
-405.303955,387.908936,634.918213,0.305139
-388.641357,399.719238,639.038086,0.305879
-390.930176,390.380859,643.798828,0.306618
-258.087158,450.805664,575.317383,0.307401
-126.800537,415.283203,590.606689,0.308152
-518.829346,372.802734,678.863525,0.308926
-398.437500,371.704102,638.854980,0.309704
-311.645508,368.774414,617.248535,0.310444
-387.817383,373.718262,638.122559,0.311183
-388.275146,358.337402,633.361816,0.311923
-341.857910,353.668213,601.043701,0.312661
-364.471436,334.899902,613.403320,0.313398
-439.361572,322.723389,601.959229,0.314134
-412.628174,317.779541,582.824707,0.314871
-369.873047,314.758301,561.950684,0.315615
-375.823975,310.363770,545.013428,0.316356
-399.627686,254.150391,515.167236,0.317096
-1028.228760,201.232910,408.599854,0.317835
-987.396240,246.643066,412.719727,0.318574
-691.040039,232.086182,477.722168,0.319314
-973.114014,209.838867,455.566406,0.320055
-944.274902,240.051270,437.438965,0.320794
-841.094971,241.241455,451.995850,0.321533
-898.773193,235.015869,459.594727,0.322273
-872.131348,259.460449,446.411133,0.323012
-835.144043,272.735596,428.283691,0.323752
-840.179443,268.524170,432.586670,0.324504
-772.705078,272.827148,451.812744,0.325247
-733.795166,269.805908,463.531494,0.325987
-710.449219,270.446777,461.975098,0.326725
-651.214600,275.939941,483.947754,0.327465
-594.543457,263.671875,494.476318,0.328222
-590.423584,213.958740,538.787842,0.328966
-557.739258,218.353271,545.654297,0.329705
-482.574463,261.840820,527.252197,0.330461
-499.511719,279.418945,516.632080,0.331200
-477.081299,273.742676,524.414062,0.331942
-474.334717,257.537842,534.851074,0.332689
-463.073730,242.340088,539.154053,0.333463
-446.228027,232.727051,534.942627,0.334205
-434.600830,215.240479,553.070068,0.334942
-446.594238,200.134277,564.880371,0.335712
-449.523926,203.247070,562.683105,0.336444
-458.129883,211.669922,562.500000,0.337175
-491.271973,221.923828,542.541504,0.337906
-501.434326,219.818115,544.464111,0.338635
-501.342773,218.719482,543.640137,0.339373
-520.385742,220.092773,540.985107,0.340110
-559.570312,208.740234,529.724121,0.340864
-571.563721,202.697754,537.780762,0.341604
-592.529297,209.197998,531.463623,0.342345
-621.917725,205.902100,532.653809,0.343086
-631.713867,216.613770,537.506104,0.343827
-635.742188,223.114014,540.344238,0.344563
-652.130127,238.952637,538.604736,0.345294
-647.460938,237.030029,550.140381,0.346025
-633.361816,237.304688,564.239502,0.346755
-607.086182,245.361328,597.106934,0.347489
-589.324951,256.072998,626.678467,0.348229
-559.661865,263.671875,650.756836,0.348968
-542.816162,263.854980,663.391113,0.349707
-535.858154,270.355225,671.905518,0.350446
-534.027100,274.475098,687.835693,0.351185
-546.295166,275.573730,684.082031,0.351925
-553.070068,275.115967,678.588867,0.352664
-569.091797,276.580811,682.891846,0.353414
-582.092285,281.341553,677.307129,0.354243
-585.388184,302.673340,677.764893,0.354985
-591.979980,281.799316,678.771973,0.355725
-589.508057,292.694092,689.300537,0.356479
-581.359863,290.405273,691.589355,0.357219
-585.021973,297.363281,698.638916,0.357959
-578.521729,286.651611,698.455811,0.358698
-577.880859,291.778564,699.371338,0.359448
-572.113037,288.665771,698.455811,0.360188
-569.824219,282.897949,682.159424,0.360927
-565.612793,284.545898,684.814453,0.361666
-572.937012,274.291992,672.912598,0.362413
-570.831299,280.517578,672.363281,0.363150
-567.352295,268.432617,669.525146,0.363900
-555.084229,271.179199,668.243408,0.364668
-560.394287,278.869629,676.025391,0.365411
-550.415039,273.284912,677.581787,0.366151
-554.901123,275.848389,683.074951,0.366890
-539.703369,274.017334,686.096191,0.367629
-552.795410,276.855469,688.110352,0.368369
-540.161133,282.073975,685.913086,0.369108
-538.787842,293.792725,680.236816,0.369848
-537.322998,291.320801,691.497803,0.370586
-538.238525,293.609619,694.885254,0.371323
-531.646729,299.743652,694.152832,0.372065
-528.808594,304.595947,704.406738,0.372806
-533.843994,303.588867,701.660156,0.373546
-530.822754,321.899414,712.280273,0.374302
-525.054932,319.702148,721.069336,0.375083
-518.554688,323.364258,730.590820,0.375831
-517.272949,330.688477,735.992432,0.376596
-515.808105,330.413818,757.690430,0.377336
-511.505127,322.540283,748.718262,0.378076
-511.596680,310.913086,754.852295,0.378823
-511.779785,330.780029,764.648438,0.379597
-507.385254,337.554932,765.106201,0.380345
-503.906250,334.808350,776.367188,0.381108
-501.708984,332.977295,777.465820,0.381855
-501.617432,341.125488,777.099609,0.382594
-496.948242,335.266113,781.036377,0.383334
-488.067627,330.688477,792.205811,0.384073
-486.877441,342.864990,797.424316,0.384812
-488.616943,338.745117,804.016113,0.385550
-484.313965,338.195801,799.255371,0.386289
-481.384277,332.702637,790.557861,0.387029
-477.355957,337.280273,785.339355,0.387790
-477.630615,327.392578,789.642334,0.388529
-475.524902,323.455811,794.403076,0.389269
-470.123291,330.596924,790.100098,0.390009
-479.370117,321.899414,779.388428,0.390750
-486.053467,317.596436,769.317627,0.391489
-483.215332,305.603027,764.465332,0.392229
-483.306885,310.913086,755.859375,0.392967
-485.321045,306.060791,757.049561,0.393707
-481.109619,297.454834,759.887695,0.394446
-481.018066,300.018311,764.739990,0.395184
-468.933105,300.109863,764.373779,0.395923
-468.109131,302.673340,762.817383,0.396661
-463.165283,307.525635,763.732910,0.397432
-456.481934,306.152344,768.951416,0.398204
-456.756592,308.258057,767.578125,0.398942
-459.777832,311.004639,774.261475,0.399707
-464.630127,307.525635,770.507812,0.400449
-464.263916,303.863525,765.930176,0.401189
-460.968018,305.419922,778.930664,0.401930
-466.552734,303.405762,769.226074,0.402681
-468.750000,316.131592,774.169922,0.403422
-472.869873,313.659668,783.233643,0.404162
-482.116699,308.990479,775.909424,0.404902
-488.250732,319.335938,780.853271,0.405643
-488.983154,319.702148,779.388428,0.406374
-488.342285,314.025879,777.923584,0.407105
-490.814209,319.061279,787.902832,0.407835
-487.243652,318.603516,792.114258,0.408608
-487.976074,316.223145,785.247803,0.409347
-483.764648,312.011719,793.579102,0.410087
-498.596191,314.575195,799.713135,0.410827
-492.919922,315.948486,790.100098,0.411576
-494.934082,322.814941,803.100586,0.412316
-492.553711,304.321289,773.712158,0.413127
-485.870361,306.152344,771.972656,0.413895
-488.433838,302.947998,770.874023,0.414645
-479.370117,311.462402,773.986816,0.415386
-473.876953,308.074951,776.916504,0.416158
-475.982666,299.560547,793.121338,0.416900
-467.559814,301.116943,776.092529,0.417646
-460.693359,309.997559,777.008057,0.418388
-465.454102,312.835693,792.297363,0.419139
-460.693359,305.511475,771.148682,0.419879
-460.144043,306.884766,763.549805,0.420638
-465.545654,305.145264,750.000000,0.421379
-466.186523,307.250977,771.148682,0.422130
-462.158203,302.947998,780.212402,0.422870
-462.341309,310.089111,782.043457,0.423610
-465.820312,317.413330,778.472900,0.424350
-460.784912,318.420410,778.839111,0.425100
-468.566895,316.223145,787.170410,0.425937
-474.884033,302.398682,786.254883,0.426679
-473.968506,307.159424,792.022705,0.427419
-475.982666,311.096191,792.205811,0.428162
-489.532471,310.913086,782.867432,0.428893
-482.757568,307.525635,786.895752,0.429623
-486.328125,296.264648,773.895264,0.430354
-484.497070,301.391602,782.318115,0.431112
-479.461670,299.468994,776.458740,0.431852
-477.447510,292.419434,774.993896,0.432593
-477.355957,282.806396,751.464844,0.433333
-475.799561,294.982910,762.817383,0.434083
-482.757568,289.581299,758.880615,0.434823
-480.560303,292.602539,763.092041,0.435562
-479.278564,289.306641,761.810303,0.436302
-486.602783,279.327393,753.387451,0.437051
-484.405518,278.228760,744.873047,0.437792
-483.306885,271.362305,756.042480,0.438532
-477.996826,273.559570,752.746582,0.439271
-477.172852,278.686523,748.535156,0.440012
-467.285156,261.566162,751.831055,0.440742
-470.489502,284.362793,750.274658,0.441473
-448.242188,283.813477,747.894287,0.442203
-464.630127,279.418945,746.063232,0.442959
-461.059570,280.151367,745.513916,0.443705
-452.453613,287.567139,745.513916,0.444463
-454.925537,294.433594,748.443604,0.445217
-448.242188,295.166016,750.091553,0.445967
-449.798584,294.982910,756.042480,0.446706
-453.094482,289.031982,759.613037,0.447446
-453.643799,290.771484,757.781982,0.448186
-445.953369,302.124023,759.063721,0.448926
-442.565918,293.151855,773.162842,0.449665
-456.024170,311.737061,767.761230,0.450432
-456.756592,313.568115,768.402100,0.451185
-455.749512,314.758301,767.303467,0.451936
-464.172363,311.279297,751.464844,0.452689
-462.341309,307.708740,776.000977,0.453428
-463.439941,324.737549,782.226562,0.454189
-463.897705,320.251465,786.163330,0.454928
-464.630127,318.237305,787.170410,0.455667
-464.355469,324.371338,786.987305,0.456406
-473.052979,321.990967,783.233643,0.457157
-463.165283,324.737549,793.579102,0.457896
-464.630127,328.491211,790.466309,0.458634
-464.172363,327.575684,790.740967,0.459373
-462.982178,328.125000,790.191650,0.460110
-460.327148,327.209473,785.339355,0.460840
-464.996338,334.259033,792.846680,0.461571
-457.763672,338.928223,786.254883,0.462316
-457.489014,338.012695,790.100098,0.463081
-460.327148,339.477539,788.085938,0.463821
-461.608887,345.611572,787.719727,0.464582
-463.897705,348.632812,794.128418,0.465325
-466.827393,357.788086,795.959473,0.466077
-464.630127,346.893311,799.713135,0.466818
-466.278076,354.400635,801.727295,0.467558
-466.735840,353.668213,798.522949,0.468298
-465.545654,360.168457,802.551270,0.469067
-467.102051,359.161377,799.896240,0.469826
-472.503662,355.407715,803.741455,0.470587
-460.510254,335.174561,800.170898,0.471347
-468.109131,353.210449,796.508789,0.472145
-461.883545,348.632812,796.234131,0.472906
-455.474854,349.548340,796.966553,0.473649
-459.411621,347.625732,794.403076,0.474389
-462.615967,346.801758,793.579102,0.475159
-459.045410,344.238281,774.078369,0.475924
-461.975098,342.407227,796.783447,0.476664
-463.256836,338.287354,793.670654,0.477404
-463.989258,338.745117,796.417236,0.478145
-469.757080,339.569092,782.684326,0.478876
-467.468262,330.139160,787.628174,0.479606
-468.200684,334.533691,792.114258,0.480337
-463.989258,325.653076,783.691406,0.481098
-473.052979,319.793701,779.113770,0.481837
-476.165771,326.202393,776.000977,0.482575
-477.081299,345.062256,776.000977,0.483313
-477.630615,324.096680,772.705078,0.484058
-447.235107,324.279785,758.148193,0.484794
-454.925537,316.864014,769.683838,0.485546
-463.165283,317.504883,767.028809,0.486288
-462.341309,324.920654,762.268066,0.487020
-456.298828,310.638428,761.077881,0.487760
-462.799072,327.484131,752.655029,0.488492
-459.869385,339.660645,769.134521,0.489236
-464.355469,339.019775,769.042969,0.489966
-462.890625,346.527100,780.120850,0.490696
-485.961914,349.731445,784.790039,0.491426
-468.841553,359.344482,788.909912,0.492162
-470.672607,374.816895,800.354004,0.492893
-473.968506,385.070801,812.164307,0.493623
-476.440430,394.958496,814.910889,0.494353
-478.454590,404.479980,817.474365,0.495091
-483.489990,408.782959,824.249268,0.495822
-487.518311,424.530029,826.263428,0.496636
-486.145020,431.762695,833.496094,0.497379
-511.230469,438.262939,840.545654,0.498158
-495.391846,452.087402,848.785400,0.498905
-493.194580,455.291748,855.377197,0.499677
-495.758057,465.087891,869.110107,0.500430
-509.582520,489.440918,869.201660,0.501229
-509.216309,470.306396,860.595703,0.501991
-515.075684,470.306396,890.350342,0.502764
-516.357422,464.355469,875.701904,0.503559
-514.251709,468.109131,865.997314,0.504307
-513.519287,464.996338,860.778809,0.505103
-511.596680,466.644287,847.412109,0.505885
-505.828857,464.355469,847.686768,0.506630
-501.159668,458.679199,839.630127,0.507407
-487.976074,458.038330,836.242676,0.508166
-492.645264,453.826904,824.066162,0.508914
-484.588623,450.897217,826.446533,0.509708
-489.257812,440.277100,814.361572,0.510439
-483.489990,436.614990,810.333252,0.511187
-488.983154,437.164307,813.995361,0.511917
-490.264893,435.607910,813.354492,0.512647
-490.173340,428.375244,816.284180,0.513378
-493.835449,430.297852,824.066162,0.514118
-506.927490,419.860840,820.312500,0.514849
-504.821777,430.389404,826.904297,0.515598
-502.716064,423.156738,829.010010,0.516338
-503.356934,414.550781,824.432373,0.517102
-509.490967,414.459229,798.431396,0.517842
-502.716064,402.008057,820.770264,0.518573
-500.427246,407.684326,812.622070,0.519303
-497.039795,398.712158,813.812256,0.520075
-494.384766,393.127441,795.043945,0.520806
-491.271973,387.725830,802.276611,0.521536
-498.962402,384.521484,794.403076,0.522266
-493.469238,379.852295,791.748047,0.523034
-496.124268,377.288818,791.931152,0.523777
-492.919922,364.379883,787.261963,0.524516
-491.638184,369.049072,781.219482,0.525271
-498.687744,365.478516,781.036377,0.526003
-494.934082,361.907959,782.775879,0.526733
-491.821289,362.731934,783.233643,0.527464
-496.398926,353.210449,782.501221,0.528194
-499.145508,346.343994,786.895752,0.528957
-500.793457,348.999023,778.656006,0.529698
-500.976562,344.146729,782.501221,0.530438
-499.969482,347.076416,777.740479,0.531193
-504.730225,345.794678,778.015137,0.531929
-507.476807,338.104248,780.944824,0.532659
-500.061035,339.569092,770.050049,0.533389
-502.807617,340.026855,777.099609,0.534128
-504.730225,337.829590,771.423340,0.534882
-500.793457,340.850830,771.697998,0.535628
-497.131348,340.942383,773.620605,0.536368
-498.596191,331.237793,784.332275,0.537108
-497.222900,336.364746,779.113770,0.537848
-501.892090,333.801270,776.550293,0.538608
-501.800537,324.829102,767.211914,0.539350
-503.814697,326.568604,765.014648,0.540106
-501.159668,324.462891,764.831543,0.540847
-501.892090,323.547363,763.641357,0.541587
-503.906250,328.674316,768.676758,0.542327
-499.877930,328.033447,765.014648,0.543080
-497.314453,322.357178,773.071289,0.543821
-493.377686,324.920654,781.127930,0.544561
-491.180420,328.491211,778.106689,0.545300
-487.243652,332.977295,777.557373,0.546032
-494.567871,337.829590,784.240723,0.546763
-492.462158,341.766357,783.966064,0.547493
-490.814209,333.984375,781.768799,0.548224
-493.286133,329.681396,786.895752,0.548960
-495.483398,336.730957,779.663086,0.549712
-501.068115,331.329346,782.043457,0.550454
-499.328613,333.435059,788.909912,0.551194
-502.349854,331.878662,782.867432,0.551939
-497.955322,333.984375,788.085938,0.552671
-495.300293,341.674805,777.465820,0.553401
-490.539551,335.723877,777.740479,0.554132
-492.645264,338.562012,782.226562,0.554872
-493.286133,338.012695,755.035400,0.555612
-490.905762,331.878662,774.627686,0.556352
-492.828369,336.364746,772.705078,0.557091
-496.215820,326.751709,777.832031,0.557833
-488.067627,328.125000,765.747070,0.558564
-484.039307,326.568604,771.789551,0.559294
-483.306885,331.878662,771.972656,0.560024
-491.363525,324.554443,778.015137,0.560775
-492.187500,332.153320,774.627686,0.561515
-486.968994,322.448730,771.331787,0.562255
-490.356445,325.561523,771.514893,0.562994
-483.673096,337.738037,779.479980,0.563744
-478.729248,337.463379,775.360107,0.564502
-477.081299,335.266113,776.458740,0.565243
-483.856201,333.343506,776.092529,0.565983
-483.306885,337.097168,775.817871,0.566735
-486.968994,334.716797,780.853271,0.567566
-487.701416,343.780518,781.127930,0.568307
-471.313477,332.061768,781.951904,0.569047
-487.609863,328.765869,781.127930,0.569800
-491.729736,335.723877,784.881592,0.570540
-491.638184,344.696045,785.064697,0.571280
-487.335205,357.147217,783.050537,0.572019
-483.856201,353.393555,784.423828,0.572759
-485.870361,349.822998,781.768799,0.573490
-487.335205,347.625732,788.543701,0.574220
-485.778809,346.618652,789.276123,0.574951
-487.518311,346.343994,792.114258,0.575704
-492.095947,352.020264,787.994385,0.576442
-483.856201,353.393555,780.303955,0.577181
-483.947754,357.513428,783.691406,0.577919
-484.863281,356.048584,779.296875,0.578668
-486.511230,357.788086,789.367676,0.579406
-487.060547,361.358643,779.663086,0.580145
-487.060547,358.062744,783.142090,0.580884
-490.356445,362.548828,788.543701,0.581633
-486.694336,351.654053,795.135498,0.582372
-481.018066,363.098145,787.811279,0.583110
-487.884521,367.858887,791.198730,0.583849
-489.532471,365.844727,797.607422,0.584589
-491.821289,368.225098,798.248291,0.585320
-490.264893,362.823486,799.163818,0.586051
-478.912354,363.555908,795.959473,0.586814
-485.870361,372.161865,792.205811,0.587598
-486.785889,368.682861,802.368164,0.588389
-486.968994,367.492676,806.945801,0.589132
-485.778809,363.830566,800.354004,0.589873
-488.067627,372.436523,775.451660,0.590635
-487.243652,361.999512,793.029785,0.591376
-482.940674,367.858887,797.790527,0.592115
-483.947754,359.344482,798.797607,0.592894
-480.651855,359.710693,794.952393,0.593652
-480.560303,367.401123,789.459229,0.594400
-483.032227,366.027832,796.051025,0.595158
-481.567383,363.189697,798.522949,0.595898
-480.102539,356.414795,793.579102,0.596637
-482.940674,364.746094,794.036865,0.597376
-476.715088,364.288330,800.354004,0.598114
-479.187012,362.091064,795.410156,0.598893
-478.637695,368.133545,797.790527,0.599634
-478.179932,365.478516,801.177979,0.600373
-480.743408,368.225098,801.544189,0.601111
-480.651855,366.760254,802.368164,0.601857
-472.778320,373.260498,806.488037,0.602619
-470.031738,367.950439,805.389404,0.603361
-472.137451,367.858887,804.565430,0.604119
-473.968506,368.865967,805.664062,0.604868
-477.172852,366.760254,802.001953,0.605601
-473.693848,365.936279,805.114746,0.606335
-471.313477,368.408203,808.502197,0.607084
-468.475342,361.450195,801.635742,0.607855
-468.841553,364.929199,793.304443,0.608595
-473.419189,359.893799,801.452637,0.609335
-482.666016,360.992432,801.635742,0.610074
-480.377197,362.182617,795.318604,0.610844
-478.454590,362.457275,794.036865,0.611584
-478.546143,357.971191,793.395996,0.612344
-478.271484,355.499268,796.234131,0.613091
-475.708008,360.626221,797.149658,0.613845
-478.088379,357.513428,800.445557,0.614585
-476.074219,350.738525,784.515381,0.615325
-482.025146,354.400635,788.909912,0.616065
-477.722168,357.604980,791.381836,0.616815
-482.299805,353.668213,793.212891,0.617555
-480.194092,355.682373,793.029785,0.618295
-476.623535,374.633789,802.276611,0.619035
-472.595215,351.745605,802.825928,0.619775
-476.715088,354.949951,798.156738,0.620505
-482.757568,360.900879,799.346924,0.621235
-478.729248,353.393555,801.544189,0.621965
-479.736328,372.894287,793.029785,0.622719
-475.067139,352.386475,792.205811,0.623459
-480.834961,358.795166,798.889160,0.624197
-477.447510,353.027344,792.938232,0.624936
-484.863281,359.527588,801.635742,0.625685
-480.834961,361.907959,793.395996,0.626424
-481.018066,351.928711,789.367676,0.627163
-484.222412,357.513428,797.973633,0.627901
-480.010986,360.443115,795.776367,0.628647
-477.905273,358.337402,796.417236,0.629384
-482.757568,361.816406,797.790527,0.630126
-472.869873,351.837158,800.537109,0.630882
-473.144531,353.210449,805.480957,0.631613
-473.968506,353.393555,791.198730,0.632343
-473.602295,357.513428,813.537598,0.633074
-486.419678,355.773926,800.079346,0.633809
-478.363037,361.175537,794.769287,0.634540
-483.306885,366.027832,802.276611,0.635271
-481.109619,363.555908,797.882080,0.636001
-482.482910,361.633301,799.621582,0.636732
-489.440918,367.126465,802.917480,0.637463
-469.665527,365.844727,803.558350,0.638275
-487.243652,371.795654,807.678223,0.639023
-493.652344,374.359131,814.086914,0.639762
-493.560791,352.294922,810.607910,0.640494
-488.891602,371.520996,806.488037,0.641224
-475.067139,368.865967,804.565430,0.641955
-498.779297,368.041992,802.642822,0.642732
-494.476318,376.007080,800.720215,0.643494
-497.680664,371.887207,806.121826,0.644236
-492.279053,375.915527,806.854248,0.644976
-497.863770,377.014160,804.107666,0.645736
-495.208740,383.148193,810.150146,0.646478
-487.976074,357.238770,798.522949,0.647219
-490.997314,376.281738,801.361084,0.647959
-494.110107,368.682861,804.107666,0.648699
-491.546631,359.985352,799.804688,0.649438
-496.124268,366.394043,803.192139,0.650178
-500.244141,369.140625,798.065186,0.650919
-498.138428,363.555908,800.628662,0.651666
-493.377686,372.070312,799.896240,0.652397
-496.582031,363.189697,819.946289,0.653127
-505.371094,359.069824,799.621582,0.653858
-495.758057,359.985352,797.882080,0.654597
-491.363525,359.344482,804.473877,0.655336
-501.068115,359.985352,794.036865,0.656075
-496.948242,359.619141,787.994385,0.656813
-487.701416,358.062744,794.677734,0.657561
-489.074707,357.879639,794.311523,0.658297
-493.286133,363.281250,794.586182,0.659060
-489.074707,358.703613,786.712646,0.659837
-486.053467,357.055664,791.290283,0.660623
-487.518311,352.935791,791.198730,0.661371
-494.567871,355.865479,789.916992,0.662111
-489.624023,353.210449,789.825439,0.662850
-492.279053,356.140137,781.494141,0.663608
-490.814209,357.604980,791.656494,0.664348
-494.750977,354.125977,788.360596,0.665115
-485.687256,350.646973,790.466309,0.665866
-487.976074,351.013184,787.811279,0.666606
-486.236572,351.104736,792.755127,0.667346
-488.525391,343.963623,792.938232,0.668086
-486.511230,353.668213,793.670654,0.668837
-484.039307,345.794678,786.163330,0.669600
-483.947754,340.301514,782.684326,0.670347
-490.631104,341.491699,783.782959,0.671106
-483.398438,346.984863,780.029297,0.671874
-477.722168,349.822998,783.508301,0.672615
-483.947754,354.766846,787.353516,0.673354
-484.222412,356.506348,780.395508,0.674094
-489.715576,340.301514,779.205322,0.674873
-485.321045,334.899902,776.367188,0.675614
-488.525391,336.730957,779.663086,0.676354
-482.666016,332.611084,775.268555,0.677094
-487.152100,344.879150,779.388428,0.677834
-487.976074,345.336914,781.219482,0.678565
-478.179932,338.928223,783.233643,0.679295
-482.116699,342.132568,779.571533,0.680025
-485.504150,336.639404,782.409668,0.680789
-482.940674,336.181641,784.973145,0.681534
-479.919434,336.639404,787.445068,0.682274
-482.208252,336.364746,775.451660,0.683015
-488.525391,347.534180,777.191162,0.683789
-493.103027,341.125488,786.895752,0.684530
-487.701416,340.393066,777.465820,0.685288
-487.609863,339.660645,779.754639,0.686030
-479.919434,348.266602,782.775879,0.686782
-477.264404,348.266602,784.240723,0.687522
-481.658936,346.618652,798.248291,0.688262
-490.905762,350.646973,790.832520,0.689001
-484.130859,351.379395,782.226562,0.689750
-485.961914,356.231689,792.663574,0.690491
-487.335205,352.020264,792.663574,0.691240
-486.785889,349.548340,792.755127,0.691993
-496.765137,357.788086,789.276123,0.692733
-492.828369,352.752686,798.797607,0.693472
-490.814209,367.767334,798.339844,0.694212
-486.785889,360.992432,799.804688,0.694960
-489.349365,367.858887,774.444580,0.695701
-486.053467,364.288330,788.726807,0.696441
-479.919434,359.161377,794.311523,0.697213
-485.687256,360.534668,789.459229,0.697951
-486.511230,359.161377,794.586182,0.698681
-483.856201,360.260010,789.733887,0.699412
-479.095459,360.076904,790.740967,0.700142
-481.292725,365.570068,792.480469,0.700879
-481.567383,366.668701,796.691895,0.701619
-485.504150,359.344482,792.663574,0.702358
-486.053467,360.260010,794.952393,0.703098
-488.983154,360.717773,817.840576,0.703834
-483.856201,355.865479,799.713135,0.704565
-477.355957,358.520508,792.022705,0.705295
-482.666016,366.210938,793.487549,0.706026
-484.771729,358.703613,794.952393,0.706762
-492.370605,374.359131,793.121338,0.707521
-491.088867,359.710693,792.205811,0.708261
-487.609863,354.217529,788.543701,0.709001
-495.941162,352.661133,789.367676,0.709855
-493.927002,357.971191,791.748047,0.710595
-487.152100,353.485107,786.621094,0.711354
-492.095947,353.942871,787.078857,0.712097
-490.722656,354.034424,792.388916,0.712853
-490.722656,359.893799,792.022705,0.713606
-488.525391,359.344482,793.487549,0.714348
-484.771729,358.703613,794.311523,0.715088
-491.363525,361.907959,790.924072,0.715840
-491.546631,365.570068,795.227051,0.716580
-489.532471,361.633301,796.508789,0.717320
-492.279053,364.562988,798.431396,0.718060
-489.440918,373.077393,796.783447,0.718809
-494.384766,371.795654,797.515869,0.719549
-481.292725,382.415771,802.368164,0.720288
-495.208740,371.795654,799.621582,0.721028
-494.934082,375.091553,791.473389,0.721768
-494.476318,375.732422,796.508789,0.722498
-490.264893,373.718262,796.875000,0.723228
-486.602783,373.168945,796.508789,0.723958
-490.539551,368.408203,792.205811,0.724712
-487.976074,376.922607,799.621582,0.725451
-494.750977,380.035400,794.036865,0.726190
-488.525391,374.359131,785.888672,0.726928
-494.110107,376.373291,793.579102,0.727715
-489.715576,369.873047,789.367676,0.728476
-486.877441,361.816406,785.705566,0.729284
-495.208740,358.245850,793.395996,0.730069
-488.708496,368.865967,796.325684,0.730846
-485.046387,359.619141,797.790527,0.731608
-488.616943,359.619141,793.029785,0.732365
-486.236572,361.999512,798.156738,0.733110
-490.631104,347.808838,787.445068,0.733849
-487.884521,359.527588,788.818359,0.734623
-488.067627,361.541748,791.015625,0.735380
-486.053467,360.626221,792.297363,0.736156
-486.053467,354.949951,793.853760,0.736916
-488.433838,354.583740,785.980225,0.737657
-489.807129,363.098145,792.663574,0.738397
-483.764648,354.766846,784.332275,0.739155
-485.870361,356.140137,793.853760,0.739895
-481.933594,354.034424,786.254883,0.740635
-488.250732,358.154297,784.698486,0.741375
-491.546631,358.428955,792.022705,0.742125
-485.504150,354.217529,786.071777,0.742865
-484.405518,354.675293,789.001465,0.743605
-495.849609,364.471436,790.283203,0.744345
-490.905762,363.464355,797.698975,0.745088
-495.666504,355.407715,790.008545,0.745819
-494.750977,355.682373,792.663574,0.746567
-492.370605,356.323242,795.318604,0.747300
-496.673584,350.646973,793.945312,0.748056
-491.363525,359.436035,786.163330,0.748795
-483.673096,357.879639,786.254883,0.749534
-494.659424,353.027344,786.987305,0.750272
-469.757080,356.689453,785.247803,0.751021
-492.553711,348.175049,785.980225,0.751760
-492.828369,358.154297,792.297363,0.752498
-489.807129,361.175537,787.078857,0.753261
-481.658936,361.541748,782.501221,0.754016
-485.595703,357.788086,786.712646,0.754755
-490.722656,352.386475,787.902832,0.755494
-486.236572,352.203369,780.395508,0.756232
-485.504150,357.971191,789.733887,0.756993
-486.968994,354.583740,785.156250,0.757756
-485.778809,370.422363,785.430908,0.758497
-486.145020,350.738525,782.501221,0.759237
-486.602783,352.752686,784.240723,0.759977
-481.933594,344.787598,785.156250,0.760716
-478.820801,352.020264,789.642334,0.761456
-474.426270,355.224609,789.916992,0.762207
-487.518311,354.309082,785.064697,0.762938
-492.462158,367.034912,790.557861,0.763687
-484.680176,362.091064,802.368164,0.764419
-487.609863,367.126465,791.656494,0.765167
-487.609863,363.647461,784.698486,0.765907
-483.581543,358.612061,790.008545,0.766647
-484.863281,361.541748,785.064697,0.767387
-482.208252,360.626221,791.198730,0.768124
-481.842041,366.302490,799.621582,0.768855
-488.250732,360.168457,793.395996,0.769586
-487.609863,363.647461,786.529541,0.770315
-483.856201,359.710693,797.515869,0.771045
-484.497070,355.773926,788.909912,0.771776
-482.574463,348.907471,784.973145,0.772533
-477.722168,354.217529,781.402588,0.773273
-477.264404,358.154297,778.106689,0.774028
-474.517822,365.478516,786.987305,0.774765
-483.673096,351.562500,786.529541,0.775501
-478.912354,358.428955,790.832520,0.776243
-481.018066,362.548828,787.078857,0.777001
-478.546143,359.893799,785.888672,0.777732
-480.194092,354.949951,786.346436,0.778462
-475.250244,361.999512,791.015625,0.779193
-477.172852,364.654541,786.254883,0.779934
-479.644775,359.527588,793.029785,0.780748
-485.870361,359.069824,792.388916,0.781479
-483.581543,363.006592,793.212891,0.782209
-482.940674,361.175537,797.424316,0.782959
-481.018066,365.753174,792.297363,0.783689
-476.715088,364.013672,792.755127,0.784420
-475.433350,362.091064,792.480469,0.785150
-478.912354,365.844727,796.417236,0.785904
-479.827881,371.520996,794.586182,0.786644
-478.820801,367.675781,792.205811,0.787388
-480.377197,376.190186,798.248291,0.788130
-479.095459,378.387451,790.740967,0.788882
-483.764648,378.387451,801.910400,0.789622
-484.863281,380.950928,804.107666,0.790362
-479.278564,387.451172,800.720215,0.791102
-482.482910,384.429932,808.959961,0.791851
-484.771729,389.556885,800.994873,0.792592
-478.637695,388.732910,799.987793,0.793331
-480.743408,385.437012,799.713135,0.794071
-485.504150,382.873535,797.882080,0.794811
-488.159180,391.387939,798.339844,0.795541
-483.947754,379.669189,800.354004,0.796271
-482.849121,383.789062,803.649902,0.797000
-484.588623,383.148193,797.058105,0.797753
-487.518311,378.295898,800.354004,0.798491
-476.898193,377.380371,807.128906,0.799229
-484.313965,368.957520,803.833008,0.799968
-480.468750,377.105713,797.515869,0.800713
-488.891602,395.690918,794.128418,0.801484
-486.328125,378.936768,796.417236,0.802240
-490.539551,377.197266,800.262451,0.803000
-491.546631,370.971680,802.551270,0.803768
-492.645264,370.513916,797.241211,0.804508
-493.743896,373.443604,799.438477,0.805248
-492.828369,372.619629,785.064697,0.805988
-489.990234,373.443604,797.882080,0.806756
-488.159180,372.253418,804.656982,0.807524
-482.116699,379.760742,796.325684,0.808276
-487.243652,372.711182,806.762695,0.809024
-491.180420,379.943848,809.509277,0.809773
-491.363525,382.049561,800.445557,0.810513
-495.208740,375.274658,800.903320,0.811253
-486.328125,378.936768,792.297363,0.812006
-489.349365,373.626709,798.889160,0.812747
-483.123779,378.021240,796.875000,0.813487
-481.750488,372.436523,791.015625,0.814227
-481.384277,376.007080,797.515869,0.814967
-481.475830,370.056152,789.459229,0.815707
-478.179932,375.732422,791.107178,0.816446
-484.313965,373.809814,813.720703,0.817205
-476.715088,373.809814,793.579102,0.817953
-476.806641,377.655029,788.909912,0.818685
-482.391357,373.992920,796.325684,0.819415
-484.313965,371.887207,788.360596,0.820146
-488.342285,368.408203,794.769287,0.820887
-489.074707,363.281250,796.966553,0.821627
-484.313965,362.823486,791.381836,0.822366
-485.046387,363.098145,803.924561,0.823106
-493.927002,368.682861,795.867920,0.823846
-488.433838,361.541748,792.297363,0.824586
-486.145020,358.795166,791.748047,0.825326
-489.715576,362.365723,793.395996,0.826066
-483.673096,368.408203,796.966553,0.826806
-489.349365,362.274170,794.769287,0.827546
-487.060547,363.098145,791.748047,0.828286
-488.250732,366.394043,794.128418,0.829025
-486.145020,361.450195,796.966553,0.829768
-482.116699,352.844238,790.466309,0.830498
-490.905762,357.604980,789.916992,0.831229
-486.511230,360.443115,790.100098,0.831959
-485.870361,357.696533,788.909912,0.832709
-485.137939,353.759766,790.100098,0.833450
-482.849121,356.048584,792.480469,0.834190
-480.926514,360.260010,796.417236,0.834930
-481.842041,357.971191,789.825439,0.835673
-484.130859,362.274170,787.261963,0.836404
-486.602783,360.900879,792.388916,0.837134
-482.208252,358.062744,801.727295,0.837865
-490.722656,348.358154,795.227051,0.838611
-492.919922,351.470947,787.445068,0.839349
-494.293213,354.949951,786.529541,0.840088
-490.264893,358.428955,781.402588,0.840826
-495.300293,351.104736,782.775879,0.841565
-489.440918,346.160889,782.135010,0.842304
-482.299805,345.977783,787.811279,0.843043
-492.462158,342.498779,788.085938,0.843781
-480.377197,350.372314,791.290283,0.844519
-474.243164,349.639893,785.614014,0.845258
-483.581543,363.555908,776.641846,0.845997
-486.328125,364.196777,789.276123,0.846736
-482.849121,360.168457,785.980225,0.847488
-482.666016,358.978271,790.740967,0.848228
-482.299805,373.992920,791.931152,0.848966
-496.124268,354.309082,785.614014,0.849705
-496.124268,364.013672,791.473389,0.850456
-499.969482,365.661621,796.600342,0.851298
-498.229980,365.936279,790.191650,0.852039
-479.827881,368.682861,798.065186,0.852779
-489.349365,370.422363,799.621582,0.853532
-485.687256,373.809814,800.811768,0.854272
-491.363525,371.887207,805.023193,0.855011
-488.159180,375.091553,800.811768,0.855751
-498.138428,367.309570,800.262451,0.856527
-493.927002,370.147705,792.205811,0.857280
-490.539551,369.598389,784.149170,0.858039
-486.419678,370.788574,789.184570,0.858780
-499.145508,369.689941,788.269043,0.859531
-493.103027,366.210938,786.254883,0.860271
-487.152100,365.203857,786.163330,0.861011
-491.088867,374.084473,795.318604,0.861750
-494.110107,368.041992,789.550781,0.862500
-488.067627,366.485596,787.994385,0.863240
-493.560791,366.027832,789.093018,0.863980
-483.215332,354.583740,784.332275,0.864719
-493.560791,363.647461,782.867432,0.865459
-495.574951,357.696533,782.775879,0.866190
-496.307373,362.457275,777.832031,0.866920
-495.483398,353.942871,776.184082,0.867651
-488.616943,364.654541,780.578613,0.868403
-487.884521,361.633301,777.923584,0.869142
-513.977051,361.358643,778.564453,0.869881
-487.884521,364.929199,782.592773,0.870620
-489.257812,365.112305,778.289795,0.871365
-491.912842,366.302490,781.402588,0.872101
-509.674072,366.668701,787.353516,0.872874
-487.701416,365.570068,776.458740,0.873634
-497.589111,367.767334,786.529541,0.874395
-490.539551,349.639893,791.198730,0.875138
-496.673584,353.851318,786.804199,0.875878
-495.941162,365.295410,775.177002,0.876618
-495.941162,371.520996,779.754639,0.877358
-499.877930,370.422363,795.043945,0.878098
-496.398926,369.415283,798.248291,0.878861
-495.025635,372.436523,796.417236,0.879617
-497.222900,370.422363,798.065186,0.880365
-506.469727,371.429443,789.733887,0.881125
-503.997803,371.337891,789.916992,0.881866
-504.364014,363.555908,789.093018,0.882628
-511.688232,360.076904,786.712646,0.883369
-499.420166,362.274170,791.748047,0.884109
-509.033203,361.358643,790.283203,0.884849
-507.476807,357.421875,775.817871,0.885599
-493.194580,368.682861,776.275635,0.886339
-494.110107,355.407715,781.494141,0.887079
-486.602783,353.942871,781.036377,0.887839
-494.567871,374.267578,778.472900,0.888593
-494.018555,353.851318,778.656006,0.889328
-471.588135,347.808838,782.867432,0.890058
-495.117188,352.935791,770.507812,0.890788
-496.032715,352.020264,774.627686,0.891545
-494.842529,350.097656,778.381348,0.892286
-499.420166,348.999023,777.008057,0.893027
-494.659424,354.766846,777.557373,0.893767
-491.271973,350.463867,783.508301,0.894517
-487.152100,355.041504,780.212402,0.895258
-490.173340,360.443115,781.860352,0.895998
-485.778809,354.675293,789.550781,0.896738
-493.743896,359.161377,784.423828,0.897488
-495.666504,362.365723,781.585693,0.898228
-492.553711,372.161865,789.459229,0.898969
-490.997314,367.218018,797.058105,0.899710
-493.652344,366.851807,783.233643,0.900484
-490.447998,366.210938,789.093018,0.901231
-492.645264,365.295410,799.163818,0.902009
-494.110107,367.584229,805.297852,0.902754
-488.983154,365.020752,806.030273,0.903507
-494.842529,367.858887,799.530029,0.904248
-480.560303,371.154785,796.875000,0.904989
-492.370605,369.506836,798.156738,0.905730
-489.532471,364.379883,801.727295,0.906471
-492.370605,360.900879,787.994385,0.907202
-491.088867,360.809326,790.008545,0.907932
-487.792969,353.027344,785.980225,0.908662
-499.145508,353.302002,786.529541,0.909404
-491.546631,356.781006,789.733887,0.910134
-485.595703,356.140137,792.297363,0.910865
-487.884521,355.407715,790.374756,0.911595
-488.616943,358.154297,792.297363,0.912349
-482.940674,353.210449,793.121338,0.913089
-490.631104,356.597900,788.543701,0.913828
-491.546631,349.273682,788.543701,0.914567
-485.229492,345.062256,781.036377,0.915315
-488.433838,342.864990,785.064697,0.916061
-488.891602,348.632812,784.332275,0.916801
-478.729248,341.125488,775.360107,0.917540
-482.208252,338.104248,772.430420,0.918325
-488.342285,341.033936,779.296875,0.919066
-481.567383,341.949463,785.522461,0.919805
-480.285645,344.329834,776.824951,0.920545
-480.102539,346.160889,785.522461,0.921281
-485.137939,336.822510,781.402588,0.922018
-481.842041,343.414307,789.093018,0.922841
-470.123291,343.872070,784.790039,0.923619
-482.299805,344.787598,783.508301,0.924353
-478.637695,352.661133,783.416748,0.925083
-480.102539,352.478027,789.825439,0.925844
-483.489990,345.794678,780.944824,0.926599
-488.159180,348.907471,790.008545,0.927330
-482.116699,360.534668,793.670654,0.928060
-487.243652,360.809326,791.931152,0.928791
-484.954834,350.280762,789.276123,0.929533
-476.989746,354.400635,793.029785,0.930265
-484.130859,349.731445,787.628174,0.930995
-488.250732,346.527100,793.853760,0.931726
-488.433838,354.949951,793.579102,0.932473
-483.673096,351.562500,794.494629,0.933203
-482.391357,354.766846,788.269043,0.933934
-485.870361,359.893799,786.529541,0.934664
-484.954834,351.013184,793.029785,0.935425
-480.743408,352.478027,785.797119,0.936166
-486.602783,360.076904,780.029297,0.936904
-482.208252,354.400635,786.987305,0.937643
-478.912354,354.858398,783.233643,0.938393
-481.567383,351.470947,783.325195,0.939132
-481.933594,346.252441,786.712646,0.939871
-471.038818,346.710205,783.416748,0.940610
-480.010986,356.597900,789.184570,0.941350
-473.968506,356.964111,788.909912,0.942081
-480.743408,352.203369,788.269043,0.942840
-483.856201,351.745605,792.388916,0.943589
-482.208252,352.294922,783.691406,0.944377
-478.363037,353.118896,791.564941,0.945137
-480.010986,357.696533,791.290283,0.945879
-485.778809,362.823486,786.254883,0.946622
-484.039307,360.443115,789.733887,0.947363
-488.067627,360.443115,789.642334,0.948103
-481.842041,361.816406,794.586182,0.948843
-483.489990,364.288330,800.628662,0.949583
-481.018066,350.463867,790.557861,0.950337
-484.039307,352.935791,781.860352,0.951077
-479.003906,357.147217,792.388916,0.951818
-481.658936,358.978271,796.966553,0.952558
-480.468750,352.752686,793.121338,0.953300
-483.215332,358.612061,797.058105,0.954030
-474.975586,353.576660,793.487549,0.954760
-477.630615,358.886719,794.403076,0.955491
-480.010986,360.717773,790.924072,0.956246
-482.391357,367.675781,789.001465,0.956991
-487.426758,357.696533,788.269043,0.957731
-482.757568,351.928711,782.043457,0.958471
-491.271973,358.520508,782.409668,0.959239
-484.497070,357.330322,787.445068,0.960010
-486.602783,370.880127,792.572021,0.960763
-488.250732,358.062744,793.579102,0.961511
-486.877441,358.245850,793.762207,0.962270
-486.328125,366.485596,792.114258,0.963012
-482.116699,357.147217,791.931152,0.963753
-483.123779,357.788086,794.403076,0.964495
-480.010986,364.013672,800.628662,0.965255
-484.497070,363.189697,796.417236,0.965999
-482.940674,365.295410,792.755127,0.966740
-484.954834,363.555908,791.290283,0.967492
-484.313965,366.943359,793.670654,0.968233
-482.299805,367.309570,791.931152,0.968973
-485.595703,377.380371,796.875000,0.969714
-485.778809,371.246338,796.417236,0.970465
-483.673096,376.281738,800.445557,0.971208
-479.461670,385.070801,795.227051,0.971949
-479.461670,388.183594,799.530029,0.972690
-484.680176,390.014648,802.276611,0.973430
-489.074707,386.077881,808.044434,0.974160
-482.299805,386.444092,809.234619,0.974891
-485.870361,392.486572,808.593750,0.975621
-483.032227,391.571045,809.509277,0.976378
-483.673096,388.641357,805.206299,0.977120
-483.856201,388.366699,806.579590,0.977878
-491.821289,391.021729,803.375244,0.978620
-481.475830,390.655518,801.727295,0.979375
-484.497070,393.218994,804.382324,0.980117
-486.602783,390.838623,796.875000,0.980857
-482.757568,394.500732,807.495117,0.981598
-487.518311,387.359619,817.382812,0.982347
-487.884521,390.289307,799.255371,0.983088
-486.785889,390.014648,803.649902,0.983829
-491.455078,385.345459,803.466797,0.984570
-491.912842,376.831055,787.811279,0.985310
-485.137939,385.437012,800.079346,0.986040
-492.462158,380.493164,798.156738,0.986771
-495.574951,376.190186,791.748047,0.987501
-495.483398,378.021240,797.149658,0.988245
-494.384766,374.084473,790.374756,0.988976
-496.398926,373.718262,792.022705,0.989706
-488.159180,373.077393,792.114258,0.990437
-488.067627,362.915039,780.578613,0.991188
-495.483398,363.647461,783.599854,0.991930
-488.067627,368.408203,786.987305,0.992671
-492.095947,357.055664,782.501221,0.993543
-489.715576,355.865479,785.614014,0.994298
-492.095947,357.879639,780.120850,0.995039
-488.983154,353.118896,777.099609,0.995780
-494.384766,355.041504,774.261475,0.996521
-493.011475,345.794678,777.008057,0.997261
-486.328125,353.485107,777.923584,0.997992
-489.257812,351.837158,777.282715,0.998722
-493.927002,328.582764,777.832031,0.999453
-494.567871,353.210449,785.247803,1.000206
-498.413086,344.238281,773.712158,1.000945
-498.779297,337.188721,792.938232,1.001684
-500.701904,338.195801,773.529053,1.002424
-491.180420,343.872070,771.972656,1.003172
-494.110107,341.033936,773.895264,1.003911
-503.906250,337.829590,779.205322,1.004650
-507.385254,345.153809,767.852783,1.005389
-503.997803,339.843750,773.162842,1.006137
-502.990723,345.520020,776.092529,1.006877
-503.631592,348.632812,777.557373,1.007615
-503.906250,358.245850,774.078369,1.008354
-503.356934,352.935791,775.360107,1.009103
-507.568359,355.224609,776.092529,1.009848
-508.392334,354.766846,777.832031,1.010586
-509.399414,356.140137,786.163330,1.011348
-508.209229,356.597900,787.445068,1.012099
-510.131836,371.795654,788.543701,1.012837
-510.955811,366.394043,790.100098,1.013574
-509.765625,368.408203,790.008545,1.014346
-511.047363,376.831055,792.846680,1.015096
-512.145996,376.647949,792.205811,1.015845
-510.955811,379.486084,792.388916,1.016593
-510.589600,373.992920,790.832520,1.017358
-510.955811,381.042480,786.895752,1.018119
-509.124756,380.310059,796.417236,1.018881
-503.906250,379.028320,793.579102,1.019637
-506.286621,385.162354,793.579102,1.020432
-504.364014,372.161865,792.114258,1.021197
-507.385254,382.873535,783.874512,1.021952
-510.131836,375.457764,788.726807,1.022697
-516.448975,373.992920,792.938232,1.023460
-517.272949,373.626709,793.121338,1.024193
-513.519287,387.451172,797.058105,1.024923
-510.314941,377.563477,794.952393,1.025654
-503.356934,382.232666,796.875000,1.026413
-506.011963,384.979248,796.875000,1.027154
-508.392334,381.408691,792.205811,1.027894
-507.934570,380.859375,791.931152,1.028635
-499.511719,381.408691,790.649414,1.029397
-501.068115,378.479004,788.726807,1.030178
-501.708984,354.675293,790.649414,1.030932
-496.398926,361.724854,780.944824,1.031692
-492.095947,369.689941,784.881592,1.032460
-486.785889,373.168945,785.156250,1.033201
-491.363525,373.077393,781.127930,1.033942
-494.659424,376.556396,788.177490,1.034682
-496.032715,368.774414,790.466309,1.035429
-497.680664,367.218018,784.973145,1.036169
-495.300293,364.196777,792.755127,1.036910
-498.046875,361.083984,791.839600,1.037650
-492.828369,363.098145,788.177490,1.038390
-487.701416,361.724854,786.529541,1.039120
-502.532959,355.316162,787.536621,1.039884
-497.406006,356.506348,777.557373,1.040671
-495.208740,372.253418,787.811279,1.041436
-490.997314,352.478027,788.177490,1.042190
-491.821289,358.154297,787.902832,1.042953
-493.469238,358.795166,778.747559,1.043723
-492.645264,360.351562,782.043457,1.044483
-497.680664,355.682373,780.303955,1.045242
-485.595703,360.168457,784.515381,1.046004
-489.257812,354.766846,776.367188,1.046762
-486.877441,358.612061,782.226562,1.047500
-485.229492,359.161377,790.466309,1.048231
-488.616943,352.478027,790.191650,1.048962
-491.912842,356.231689,782.043457,1.049700
-483.032227,357.696533,780.029297,1.050446
-482.116699,360.443115,779.113770,1.051187
-485.321045,358.612061,791.656494,1.051928
-487.243652,359.069824,786.254883,1.052669
-485.046387,331.054688,783.599854,1.053409
-472.229004,360.351562,788.177490,1.054150
-476.531982,360.900879,787.536621,1.054890
-474.151611,359.710693,779.113770,1.055630
-477.722168,360.443115,782.867432,1.056371
-473.785400,365.661621,785.247803,1.057111
-472.412109,360.626221,791.290283,1.057852
-473.052979,362.091064,791.839600,1.058590
-471.038818,359.893799,785.064697,1.059320
-472.778320,359.436035,783.416748,1.060051
-470.397949,361.816406,781.127930,1.060792
-476.348877,360.534668,792.114258,1.061570
-473.144531,364.379883,789.093018,1.062315
-474.060059,356.597900,795.318604,1.063054
-472.320557,367.218018,795.959473,1.063812
-475.616455,370.056152,788.085938,1.064678
-482.116699,370.056152,796.691895,1.065440
-478.271484,369.689941,792.938232,1.066179
-474.884033,368.957520,795.684814,1.066918
-472.320557,369.598389,784.057617,1.067668
-484.954834,374.084473,792.846680,1.068405
-476.440430,369.140625,791.564941,1.069141
-473.052979,372.344971,788.360596,1.069877
-477.447510,378.570557,791.107178,1.070627
-486.785889,367.309570,795.410156,1.071360
-486.968994,370.330811,798.248291,1.072091
-492.736816,373.443604,787.994385,1.072821
-482.666016,355.316162,800.445557,1.073565
-486.328125,364.196777,792.205811,1.074296
-488.800049,366.119385,793.853760,1.075026
-482.208252,374.267578,793.945312,1.075756
-485.504150,367.218018,788.452148,1.076504
-486.602783,352.752686,786.804199,1.077234
-484.405518,360.076904,790.283203,1.077965
-486.785889,360.260010,786.254883,1.078695
-486.785889,361.907959,782.409668,1.079434
-491.180420,356.872559,779.479980,1.080165
-489.440918,357.604980,770.050049,1.080896
-486.694336,353.485107,782.135010,1.081626
-484.771729,352.020264,772.338867,1.082365
-489.257812,353.942871,771.057129,1.083096
-488.067627,355.682373,780.670166,1.083826
-485.961914,354.492188,773.712158,1.084556
-482.391357,353.485107,774.719238,1.085333
-487.609863,350.555420,775.726318,1.086090
-489.898682,354.125977,779.571533,1.086852
-487.335205,348.999023,786.254883,1.087597
-484.039307,352.020264,779.296875,1.088337
-491.363525,342.407227,777.374268,1.089077
-486.419678,348.907471,785.614014,1.089817
-486.602783,355.224609,780.120850,1.090580
-487.243652,353.576660,776.367188,1.091339
-488.891602,330.963135,779.296875,1.092082
-486.785889,348.815918,774.169922,1.092822
-469.482422,343.872070,776.733398,1.093572
-488.433838,349.548340,771.697998,1.094316
-482.208252,348.449707,779.937744,1.095056
-484.497070,349.822998,785.705566,1.095796
-478.271484,346.160889,779.113770,1.096547
-479.736328,343.688965,775.085449,1.097288
-479.827881,346.343994,779.296875,1.098028
-479.095459,344.146729,781.219482,1.098769
-487.518311,339.752197,774.353027,1.099509
-484.222412,343.505859,781.219482,1.100240
-486.694336,335.632324,795.593262,1.100988
-486.236572,335.449219,780.761719,1.101721
-478.179932,335.998535,774.169922,1.102481
-474.700928,339.752197,774.261475,1.103222
-478.546143,335.449219,780.487061,1.103998
-484.405518,335.632324,774.261475,1.104750
-483.856201,331.787109,780.761719,1.105519
-481.658936,339.935303,783.142090,1.106265
-472.961426,338.745117,786.346436,1.107006
-472.045898,332.611084,781.951904,1.107746
-474.334717,337.554932,784.790039,1.108503
-474.792480,351.287842,776.824951,1.109243
-475.250244,332.611084,774.261475,1.109984
-477.264404,326.202393,779.205322,1.110725
-473.419189,327.209473,770.874023,1.111477
-476.989746,327.301025,776.458740,1.112218
-481.658936,326.934814,779.937744,1.112958
-477.081299,321.258545,772.613525,1.113698
-473.327637,327.758789,772.613525,1.114437
-468.017578,327.758789,774.902344,1.115167
-473.876953,319.061279,784.790039,1.115897
-473.602295,317.413330,768.127441,1.116627
-467.376709,319.793701,771.057129,1.117382
-477.447510,312.194824,767.852783,1.118123
-471.313477,319.427490,770.233154,1.118864
-475.799561,316.131592,769.683838,1.119605
-476.989746,307.342529,768.859863,1.120355
-478.820801,309.265137,763.000488,1.121096
-476.348877,307.525635,768.768311,1.121915
-480.926514,307.250977,772.064209,1.122658
-479.553223,303.497314,769.592285,1.123398
-475.616455,304.229736,761.169434,1.124138
-480.743408,292.602539,763.275146,1.124879
-477.905273,284.454346,772.888184,1.125633
-480.102539,286.468506,766.479492,1.126374
-478.271484,277.221680,761.352539,1.127114
-477.081299,276.123047,752.105713,1.127855
-488.250732,273.834229,756.958008,1.128604
-478.179932,260.559082,754.577637,1.129335
-473.693848,274.749756,763.641357,1.130065
-473.785400,270.538330,760.986328,1.130795
-469.573975,268.341064,765.838623,1.131538
-464.996338,273.742676,767.211914,1.132269
-457.855225,267.517090,762.268066,1.132999
-457.122803,269.439697,757.415771,1.133729
-455.657959,279.785156,754.760742,1.134459
-454.010010,275.207520,753.295898,1.135296
-462.615967,270.721436,761.169434,1.136037
-455.017090,274.475098,759.063721,1.136777
-460.052490,269.348145,756.500244,1.137518
-445.770264,266.784668,758.697510,1.138258
-449.066162,269.805908,768.127441,1.138999
-441.101074,274.658203,765.014648,1.139739
-439.727783,283.355713,771.331787,1.140479
-440.551758,278.137207,796.142578,1.141210
-435.424805,284.088135,778.747559,1.141940
-432.037354,282.531738,786.346436,1.142670
-435.058594,297.180176,793.945312,1.143400
-442.382812,292.419434,802.917480,1.144152
-443.939209,289.306641,796.875000,1.144883
-446.777344,290.954590,803.283691,1.145614
-450.073242,288.665771,802.368164,1.146344
-455.108643,288.391113,804.931641,1.147100
-448.150635,291.870117,806.854248,1.147839
-442.840576,295.440674,807.952881,1.148578
-443.298340,284.271240,803.924561,1.149317
-436.248779,279.876709,807.861328,1.150065
-427.825928,282.165527,807.495117,1.150804
-419.219971,281.341553,811.157227,1.151543
-411.254883,276.214600,811.981201,1.152282
-415.100098,274.200439,808.044434,1.153030
-416.473389,272.094727,799.896240,1.153770
-412.719727,263.031006,801.177979,1.154509
-415.649414,260.833740,796.691895,1.155248
-419.128418,278.320312,786.254883,1.155994
-416.381836,246.002197,792.388916,1.156769
-416.015625,249.389648,786.987305,1.157529
-411.529541,245.452881,787.170410,1.158313
-406.494141,239.959717,792.663574,1.159053
-403.106689,240.783691,787.902832,1.159793
-402.465820,234.649658,786.621094,1.160533
-399.078369,239.868164,778.198242,1.161280
-399.078369,234.375000,771.240234,1.162020
-405.853271,241.149902,769.226074,1.162785
-395.690918,244.354248,761.260986,1.163527
-393.218994,241.333008,753.753662,1.164280
-393.218994,242.340088,735.626221,1.165023
-402.008057,237.854004,738.189697,1.165763
-395.141602,242.706299,743.499756,1.166504
-383.972168,245.910645,767.852783,1.167256
-366.760254,235.290527,753.112793,1.167997
-361.724854,239.776611,764.831543,1.168737
-348.449707,239.776611,759.979248,1.169478
-336.273193,251.037598,759.979248,1.170217
-328.582764,261.199951,752.929688,1.170948
-327.758789,261.016846,754.577637,1.171695
-314.941406,270.172119,765.747070,1.172449
-302.490234,270.629883,761.901855,1.173191
-300.018311,288.574219,764.648438,1.173932
-270.172119,262.664795,746.887207,1.174673
-306.335449,268.432617,796.691895,1.175414
-247.192383,344.146729,798.339844,1.176154
-254.333496,304.138184,738.647461,1.176895
-264.770508,298.553467,773.895264,1.177635
-226.501465,291.137695,806.854248,1.178375
-247.741699,325.836182,756.866455,1.179158
-245.178223,330.780029,765.747070,1.179910
-221.374512,317.596436,767.852783,1.180659
-232.452393,325.653076,753.570557,1.181428
-262.207031,329.864502,756.500244,1.182169
-233.184814,324.005127,765.014648,1.182909
-270.629883,317.596436,770.233154,1.183649
-242.156982,334.075928,763.916016,1.184400
-277.770996,358.062744,776.641846,1.185140
-274.200439,360.626221,789.733887,1.185881
-274.383545,357.147217,798.065186,1.186621
-311.004639,353.393555,835.144043,1.187365
-295.349121,380.035400,828.643799,1.188095
-335.174561,380.767822,848.327637,1.188825
-349.639893,385.528564,852.081299,1.189555
-331.970215,404.937744,852.996826,1.190309
-379.119873,414.550781,848.693848,1.191083
-353.210449,413.360596,848.693848,1.191828
-363.098145,410.064697,856.201172,1.192569
-343.872070,430.114746,853.088379,1.193327
-328.125000,429.840088,881.286621,1.194068
-363.922119,433.959961,856.750488,1.194808
-339.569092,453.918457,845.764160,1.195549
-346.801758,454.101562,849.700928,1.196298
-342.407227,450.073242,853.088379,1.197039
-346.527100,444.488525,839.263916,1.197780
-375.823975,447.967529,840.637207,1.198523
-375.823975,458.679199,827.911377,1.199279
-383.239746,466.369629,832.489014,1.200020
-394.866943,466.278076,823.791504,1.200760
-388.916016,476.348877,837.707520,1.201500
-407.867432,472.229004,846.954346,1.202252
-401.367188,467.285156,846.862793,1.202997
-408.599854,476.165771,864.440918,1.203739
-414.184570,489.074707,859.130859,1.204480
-414.001465,498.229980,867.736816,1.205228
-423.156738,489.440918,862.976074,1.205969
-438.995361,483.215332,867.462158,1.206796
-450.439453,474.700928,878.540039,1.207537
-459.960938,475.250244,887.695312,1.208280
-456.207275,477.172852,872.039795,1.209011
-459.228516,481.109619,864.807129,1.209741
-461.975098,479.278564,869.384766,1.210471
-458.679199,477.355957,864.532471,1.211214
-458.862305,481.384277,874.786377,1.211944
-456.481934,474.517822,864.349365,1.212674
-456.481934,472.320557,863.250732,1.213404
-444.946289,462.158203,856.750488,1.214155
-454.376221,458.953857,846.954346,1.214892
-442.291260,462.615967,833.038330,1.215629
-444.488525,441.375732,800.537109,1.216375
-450.256348,429.107666,804.016113,1.217129
-454.101562,424.255371,790.191650,1.217860
-453.918457,428.009033,788.635254,1.218590
-462.524414,415.466309,778.106689,1.219320
-463.806152,415.374756,777.648926,1.220061
-469.757080,421.691895,783.782959,1.220792
-470.672607,423.065186,789.367676,1.221522
-486.328125,425.170898,793.762207,1.222253
-494.293213,422.149658,803.558350,1.222994
-503.540039,426.086426,815.002441,1.223725
-513.885498,426.727295,798.431396,1.224455
-521.484375,427.276611,794.403076,1.225185
-522.674561,429.656982,797.790527,1.225941
-524.230957,427.001953,780.944824,1.226691
-516.448975,425.354004,780.212402,1.227461
-511.962891,424.163818,781.677246,1.228214
-508.575439,428.649902,757.965088,1.228999
-502.441406,420.684814,771.697998,1.229741
-497.406006,423.889160,763.275146,1.230482
-478.179932,423.614502,768.035889,1.231223
-467.193604,431.304932,767.486572,1.231966
-460.693359,423.156738,764.007568,1.232708
-461.334229,430.297852,772.247314,1.233468
-474.060059,422.790527,759.704590,1.234248
-450.988770,428.192139,763.458252,1.234996
-471.221924,439.453125,793.579102,1.235755
-464.904785,451.354980,796.417236,1.236498
-462.524414,456.024170,821.411133,1.237239
-474.060059,457.214355,828.643799,1.237979
-503.448486,446.685791,856.658936,1.238719
-520.843506,441.833496,868.743896,1.239459
-531.005859,447.326660,861.968994,1.240200
-533.111572,453.094482,861.785889,1.240956
-530.456543,462.158203,875.061035,1.241754
-527.893066,473.693848,872.589111,1.242573
-530.548096,474.334717,856.842041,1.243336
-532.836914,477.539062,819.122314,1.244122
-522.583008,480.377197,814.361572,1.244887
-498.687744,483.673096,803.009033,1.245719
-489.074707,507.476807,805.206299,1.246484
-453.918457,496.856689,806.304932,1.247237
-422.515869,480.834961,813.720703,1.248027
-419.952393,478.454590,802.276611,1.248792
-425.628662,477.996826,798.431396,1.249585
-401.092529,480.010986,778.472900,1.250377
-430.206299,482.940674,769.958496,1.251129
-433.776855,485.870361,774.810791,1.251896
-438.537598,472.961426,807.037354,1.252642
-339.294434,531.463623,799.896240,1.253383
-395.874023,532.104492,1002.502441,1.254123
-346.984863,545.928955,1125.274658,1.254864
-206.268311,595.916748,1179.107666,1.255606
-107.849121,516.540527,1091.949463,1.256347
-304.595947,481.201172,1023.010254,1.257088
-391.937256,416.473389,916.076660,1.257829
-280.242920,448.699951,837.707520,1.258575
-377.655029,502.624512,763.916016,1.259305
-385.894775,608.367920,733.428955,1.260036
-291.503906,622.192383,743.041992,1.260766
-344.604492,574.768066,788.543701,1.261538
-354.125977,447.235107,920.928955,1.262278
-252.136230,420.318604,937.683105,1.263017
-312.744141,459.320068,953.155518,1.263756
-266.418457,467.468262,1016.967773,1.264504
-130.004883,528.900146,1013.305664,1.265241
-201.416016,529.541016,1003.784180,1.265977
-220.001221,544.097900,1031.982422,1.266746
-254.791260,540.527344,1019.256592,1.267486
-280.242920,488.708496,1022.369385,1.268219
-281.616211,454.559326,1025.665283,1.268953
-368.774414,438.812256,1012.939453,1.269689
-349.731445,423.889160,990.325928,1.270423
-323.822021,412.445068,996.002197,1.271162
-311.004639,403.015137,977.508545,1.271942
-249.298096,413.726807,953.521729,1.272688
-229.980469,418.853760,936.401367,1.273421
-212.951660,419.311523,935.852051,1.274154
-223.114014,388.366699,928.710938,1.274887
-208.648682,389.648438,935.119629,1.275633
-216.888428,362.731934,911.499023,1.276366
-244.262695,351.654053,900.970459,1.277231
-236.297607,342.407227,868.652344,1.277967
-261.108398,350.738525,869.659424,1.278715
-252.044678,337.463379,858.215332,1.279449
-243.530273,332.977295,854.644775,1.280182
-242.156982,330.596924,846.496582,1.280914
-216.522217,313.385010,865.356445,1.281677
-219.818115,315.399170,868.011475,1.282422
-230.987549,307.342529,849.975586,1.283165
-240.509033,302.032471,830.566406,1.283910
-227.233887,298.919678,842.285156,1.284654
-232.086182,292.053223,820.953369,1.285388
-243.255615,290.954590,801.727295,1.286122
-248.199463,269.165039,786.346436,1.286855
-244.354248,262.390137,771.057129,1.287613
-268.890381,231.628418,749.084473,1.288375
-264.312744,225.402832,744.415283,1.289120
-253.143311,224.761963,741.027832,1.289863
-252.685547,233.551025,737.823486,1.290618
-232.635498,236.114502,725.830078,1.291362
-233.093262,229.064941,722.351074,1.292106
-214.233398,242.889404,728.302002,1.292850
-212.677002,244.445801,720.977783,1.293603
-210.479736,244.354248,713.928223,1.294347
-201.324463,242.340088,709.075928,1.295090
-198.211670,223.022461,698.913574,1.295839
-187.683105,247.283936,706.787109,1.296602
-186.950684,249.847412,697.082520,1.297383
-181.091309,257.171631,697.906494,1.298134
-174.407959,253.234863,700.378418,1.298878
-180.633545,260.101318,677.581787,1.299642
-177.154541,259.643555,670.532227,1.300386
-184.844971,268.707275,661.102295,1.301130
-181.549072,274.841309,667.419434,1.301875
-182.830811,284.088135,675.384521,1.302629
-188.598633,288.024902,674.194336,1.303373
-178.619385,296.356201,675.109863,1.304117
-178.894043,298.736572,679.779053,1.304861
-181.365967,279.327393,701.568604,1.305605
-180.084229,269.165039,690.765381,1.306338
-208.923340,291.320801,673.278809,1.307072
-231.536865,280.426025,671.539307,1.307828
-239.135742,277.496338,689.666748,1.308582
-283.905029,261.016846,697.906494,1.309326
-301.116943,266.235352,725.921631,1.310070
-301.116943,274.658203,727.752686,1.310814
-317.596436,271.179199,739.196777,1.311567
-317.962646,274.658203,764.465332,1.312311
-296.630859,282.989502,756.866455,1.313055
-301.391602,290.313721,763.183594,1.313807
-313.751221,297.088623,767.944336,1.314556
-292.144775,285.919189,764.923096,1.315290
-308.624268,281.158447,795.043945,1.316023
-301.757812,274.658203,767.395020,1.316757
-321.075439,274.200439,757.598877,1.317538
-310.729980,258.636475,743.865967,1.318300
-308.807373,258.270264,739.013672,1.319050
-310.180664,253.143311,733.520508,1.319821
-301.208496,268.524170,731.231689,1.320568
-280.609131,265.502930,729.583740,1.321312
-285.278320,254.608154,730.224609,1.322055
-275.299072,261.108398,730.499268,1.322818
-279.968262,270.080566,739.562988,1.323562
-288.848877,273.468018,755.676270,1.324306
-279.968262,271.728516,754.302979,1.325050
-298.095703,296.447754,755.859375,1.325801
-295.349121,297.180176,760.620117,1.326535
-294.799805,307.708740,761.993408,1.327268
-308.166504,307.983398,767.944336,1.328001
-299.194336,303.863525,771.697998,1.328737
-308.715820,310.180664,774.719238,1.329481
-317.687988,315.490723,772.064209,1.330225
-276.580811,323.181152,778.472900,1.330968
-280.242920,329.223633,777.282715,1.331712
-267.150879,334.991455,782.958984,1.332464
-253.875732,355.407715,778.198242,1.333208
-260.742188,353.942871,772.521973,1.333951
-244.354248,343.048096,769.317627,1.334695
-248.474121,329.315186,760.803223,1.335448
-260.559082,345.611572,760.620117,1.336192
-276.397705,350.372314,736.450195,1.336936
-283.538818,345.611572,734.436035,1.337680
-277.130127,333.801270,743.865967,1.338423
-273.834229,366.577148,751.556396,1.339157
-263.763428,356.781006,755.859375,1.339890
-265.136719,363.922119,751.647949,1.340624
-265.228271,360.992432,772.247314,1.341388
-263.122559,366.943359,747.985840,1.342132
-257.537842,364.746094,728.118896,1.342875
-251.770020,361.724854,728.576660,1.343618
-246.917725,374.359131,729.583740,1.344371
-243.072510,375.549316,722.351074,1.345115
-247.375488,383.697510,704.498291,1.345858
-240.234375,383.422852,697.540283,1.346646
-246.185303,387.817383,692.321777,1.347382
-255.249023,382.324219,695.068359,1.348115
-242.248535,384.613037,694.793701,1.348986
-259.368896,384.796143,698.364258,1.349776
-242.065430,374.725342,686.370850,1.350544
-243.988037,370.513916,701.934814,1.351306
-258.819580,369.689941,694.976807,1.352066
-246.368408,370.422363,700.469971,1.352861
-256.256104,380.676270,701.477051,1.353626
-241.241455,382.690430,694.427490,1.354383
-237.487793,388.732910,702.117920,1.355130
-247.100830,392.120361,691.589355,1.355896
-245.910645,392.944336,705.963135,1.356667
-257.812500,398.712158,702.117920,1.357413
-236.846924,397.613525,701.843262,1.358156
-238.677979,395.050049,708.068848,1.358913
-250.396729,400.085449,699.920654,1.359657
-244.812012,399.078369,698.181152,1.360400
-232.086182,381.958008,696.807861,1.361163
-247.375488,395.690918,697.082520,1.361909
-250.396729,393.585205,695.709229,1.362652
-246.826172,393.585205,688.385010,1.363391
-261.840820,396.881104,688.110352,1.364126
-246.002197,377.288818,706.787109,1.364860
-257.995605,396.148682,703.308105,1.365593
-267.333984,394.042969,703.857422,1.366326
-260.559082,393.493652,690.307617,1.367060
-276.306152,391.113281,699.005127,1.367794
-280.975342,387.817383,689.575195,1.368526
-268.798828,394.226074,684.539795,1.369260
-290.496826,384.521484,676.300049,1.370005
-296.722412,386.535645,671.997070,1.370785
-291.046143,393.493652,669.525146,1.371559
-304.595947,395.050049,674.926758,1.372307
-291.229248,402.832031,679.321289,1.373052
-305.511475,382.873535,680.145264,1.373796
-306.518555,376.464844,675.018311,1.374540
-294.250488,381.408691,673.736572,1.375283
-309.356689,390.289307,661.285400,1.376027
-304.595947,392.761230,660.095215,1.376771
-316.406250,401.092529,659.454346,1.377543
-314.483643,389.099121,650.482178,1.378299
-307.617188,391.113281,654.968262,1.379065
-320.526123,380.035400,647.277832,1.379814
-319.152832,377.014160,645.080566,1.380559
-321.075439,380.218506,647.369385,1.381302
-322.174072,372.436523,631.622314,1.382047
-323.455811,363.647461,628.326416,1.382791
-322.448730,362.274170,627.136230,1.383534
-322.631836,368.316650,613.769531,1.384278
-325.012207,373.718262,588.134766,1.385024
-322.357178,380.950928,612.121582,1.385770
-325.103760,383.789062,603.881836,1.386514
-334.625244,381.317139,596.191406,1.387259
-330.688477,378.112793,597.473145,1.387998
-332.702637,372.894287,590.881348,1.388732
-348.449707,377.929688,593.261719,1.389465
-342.407227,354.949951,571.746826,1.390199
-341.766357,380.310059,574.401855,1.390942
-347.167969,393.493652,566.528320,1.391686
-342.315674,389.648438,565.063477,1.392430
-337.554932,384.887695,567.169189,1.393173
-345.611572,380.126953,546.478271,1.393917
-346.984863,378.295898,544.921875,1.394661
-347.900391,376.190186,535.583496,1.395404
-343.322754,388.275146,532.104492,1.396148
-351.562500,387.542725,522.308350,1.396902
-353.393555,385.711670,509.948730,1.397646
-373.352051,389.099121,504.272461,1.398390
-365.936279,393.859863,481.567383,1.399133
-368.316650,400.909424,483.764648,1.399877
-370.697021,403.106689,487.518311,1.400611
-366.210938,406.951904,479.461670,1.401345
-360.534668,396.057129,488.159180,1.402078
-369.232178,400.451660,503.082275,1.402811
-343.414307,411.529541,507.385254,1.403577
-347.351074,420.684814,500.061035,1.404321
-340.209961,428.558350,506.286621,1.405065
-319.152832,440.826416,506.835938,1.405808
-315.124512,454.284668,505.004883,1.406551
-321.166992,462.341309,508.392334,1.407285
-315.490723,470.031738,499.969482,1.408018
-312.652588,468.750000,494.201660,1.408751
-321.990967,487.060547,490.905762,1.409505
-318.420410,496.856689,491.271973,1.410249
-316.589355,511.230469,496.398926,1.410993
-324.371338,514.892578,491.729736,1.411737
-322.448730,525.695801,502.166748,1.412490
-323.364258,539.154053,508.392334,1.413234
-317.413330,542.724609,517.639160,1.413978
-341.857910,562.042236,529.357910,1.414722
-350.555420,553.436279,544.372559,1.415475
-361.541748,553.802490,564.697266,1.416218
-370.697021,564.239502,571.563721,1.416980
-380.767822,565.338135,575.134277,1.417742
-393.218994,588.134766,578.247070,1.418487
-393.676758,599.121094,565.338135,1.419275
-414.184570,600.219727,568.450928,1.420135
-417.480469,603.057861,572.570801,1.420936
-440.734863,591.979980,573.211670,1.421700
-443.115234,601.135254,577.789307,1.422461
-445.953369,615.417480,589.416504,1.423227
-457.855225,631.439209,586.853027,1.424021
-458.679199,646.545410,592.803955,1.424783
-467.102051,655.059814,603.332520,1.425556
-471.221924,654.876709,599.487305,1.426318
-476.898193,651.855469,598.480225,1.427094
-495.208740,656.982422,599.761963,1.427831
-502.075195,674.743652,588.867188,1.428565
-500.793457,681.152344,595.642090,1.429299
-505.554199,696.441650,593.353271,1.430067
-496.948242,712.280273,597.381592,1.430812
-504.272461,716.033936,600.036621,1.431555
-497.589111,729.583740,609.100342,1.432299
-492.004395,728.485107,606.536865,1.433058
-493.652344,732.788086,605.712891,1.433801
-493.835449,747.253418,613.952637,1.434545
-492.736816,755.493164,631.805420,1.435288
-494.842529,773.071289,611.663818,1.436041
-490.081787,770.690918,609.283447,1.436784
-492.004395,777.465820,611.206055,1.437527
-499.969482,777.099609,613.769531,1.438271
-500.061035,768.676758,612.304688,1.439013
-500.610352,779.754639,601.501465,1.439747
-498.504639,782.867432,606.536865,1.440480
-486.968994,798.339844,603.881836,1.441213
-483.673096,802.734375,611.022949,1.441999
-472.869873,809.234619,594.085693,1.442758
-464.172363,799.804688,610.748291,1.443541
-457.580566,801.544189,604.522705,1.444288
-447.509766,799.438477,598.388672,1.445053
-444.854736,807.128906,594.177246,1.445797
-440.643311,812.622070,585.113525,1.446541
-430.206299,812.713623,572.021484,1.447356
-423.339844,815.277100,563.690186,1.448133
-424.987793,804.382324,569.274902,1.448903
-416.290283,814.178467,565.795898,1.449652
-403.656006,814.178467,567.993164,1.450396
-400.817871,818.847656,570.831299,1.451140
-398.437500,823.425293,580.627441,1.451884
-398.345947,827.178955,577.148438,1.452634
-394.500732,844.116211,583.282471,1.453399
-383.148193,834.228516,592.987061,1.454143
-385.894775,836.425781,597.930908,1.454887
-388.732910,843.566895,600.311279,1.455647
-389.007568,825.805664,599.578857,1.456402
-389.099121,822.235107,590.423584,1.457148
-389.648438,824.066162,592.620850,1.457893
-396.057129,818.298340,595.733643,1.458637
-386.260986,810.974121,566.711426,1.459393
-381.225586,809.875488,583.007812,1.460138
-375.915527,809.600830,579.986572,1.460882
-363.739014,821.136475,571.929932,1.461626
-367.584229,824.981689,574.584961,1.462369
-358.337402,821.960449,568.359375,1.463102
-350.555420,827.728271,573.944092,1.463863
-343.048096,832.763672,574.951172,1.464608
-341.308594,832.763672,586.120605,1.465363
-334.350586,848.052979,587.402344,1.466104
-334.991455,859.588623,596.282959,1.466837
-334.625244,860.595703,601.043701,1.467571
-330.688477,864.257812,612.121582,1.468328
-329.681396,863.616943,616.882324,1.469072
-342.315674,856.201172,624.572754,1.469815
-341.033936,868.103027,632.537842,1.470559
-336.273193,876.434326,636.383057,1.471302
-334.716797,875.610352,655.517578,1.472035
-322.906494,871.948242,676.757812,1.472769
-316.680908,889.160156,685.821533,1.473503
-317.596436,894.012451,700.836182,1.474249
-301.940918,893.737793,706.604004,1.474983
-301.483154,880.279541,707.611084,1.475717
-302.764893,872.863770,702.575684,1.476450
-306.976318,865.173340,683.898926,1.477194
-316.772461,857.482910,654.602051,1.477937
-305.419922,854.278564,657.073975,1.478680
-307.891846,836.883545,627.227783,1.479424
-295.074463,832.763672,605.987549,1.480200
-279.785156,823.974609,605.072021,1.480944
-275.665283,826.080322,610.565186,1.481688
-271.179199,818.389893,614.318848,1.482432
-246.185303,835.968018,622.192383,1.483168
-239.685059,826.721191,629.150391,1.483902
-228.240967,837.615967,636.566162,1.484662
-216.613770,830.017090,648.284912,1.485406
-212.677002,826.263428,651.123047,1.486159
-204.620361,827.087402,656.250000,1.486903
-210.845947,821.136475,652.679443,1.487647
-202.789307,821.319580,649.383545,1.488391
-203.155518,802.001953,646.636963,1.489144
-204.528809,807.861328,655.059814,1.489889
-198.669434,799.072266,650.756836,1.490632
-199.768066,805.114746,656.341553,1.491458
-198.486328,789.184570,661.285400,1.492203
-190.887451,783.691406,661.285400,1.492937
-187.683105,782.684326,661.376953,1.493670
-186.218262,783.142090,663.024902,1.494403
-186.492920,784.240723,662.567139,1.495181
-184.936523,779.205322,662.750244,1.495926
-180.725098,791.564941,651.763916,1.496670
-185.852051,768.402100,649.383545,1.497413
-186.950684,764.282227,646.179199,1.498166
-186.126709,758.514404,639.495850,1.498910
-183.013916,757.049561,644.348145,1.499654
-182.006836,752.380371,645.812988,1.500397
-169.555664,779.479980,651.123047,1.501140
-169.464111,778.198242,642.700195,1.501873
-166.351318,773.803711,640.686035,1.502607
-154.907227,775.909424,653.961182,1.503340
-157.104492,784.973145,644.622803,1.504097
-141.448975,789.001465,653.503418,1.504841
-133.758545,792.205811,645.080566,1.505584
-143.829346,794.677734,637.573242,1.506328
-144.561768,797.241211,635.650635,1.507080
-138.336182,778.198242,632.354736,1.507824
-147.766113,790.100098,632.354736,1.508568
-145.751953,799.346924,611.846924,1.509312
-150.970459,803.375244,601.959229,1.510065
-143.554688,810.516357,606.719971,1.510810
-143.371582,803.375244,606.719971,1.511554
-137.786865,810.516357,594.543457,1.512300
-139.526367,804.016113,602.416992,1.513063
-140.899658,808.319092,601.318359,1.513815
-133.209229,804.840088,595.550537,1.514569
-132.476807,821.136475,602.233887,1.515313
-128.448486,833.587646,605.987549,1.516075
-137.878418,826.995850,599.578857,1.516819
-137.878418,831.756592,596.008301,1.517563
-137.512207,834.777832,593.994141,1.518313
-146.026611,839.263916,594.543457,1.519091
-153.076172,850.708008,592.254639,1.519843
-143.096924,883.941650,600.036621,1.520611
-158.569336,875.427246,597.106934,1.521360
-152.069092,890.075684,609.924316,1.522120
-157.745361,889.343262,640.228271,1.522864
-165.252686,904.174805,637.481689,1.523608
-169.097900,904.724121,657.440186,1.524352
-181.549072,910.583496,667.327881,1.525104
-188.049316,923.309326,676.849365,1.525848
-192.260742,931.182861,681.793213,1.526592
-198.944092,929.809570,675.659180,1.527336
-206.359863,936.492920,681.518555,1.528080
-213.043213,945.007324,692.047119,1.528816
-222.839355,930.541992,681.518555,1.529550
-234.741211,924.407959,686.004639,1.530283
-228.790283,925.048828,682.067871,1.531044
-236.389160,927.886963,672.546387,1.531788
-239.959717,925.598145,664.947510,1.532531
-225.494385,923.217773,655.151367,1.533274
-227.416992,914.520264,652.954102,1.534027
-223.205566,920.837402,646.545410,1.534771
-212.127686,913.330078,642.333984,1.535515
-210.205078,916.351318,642.974854,1.536258
-209.106445,921.386719,642.059326,1.537011
-197.021484,920.745850,648.376465,1.537754
-210.205078,919.372559,650.299072,1.538498
-212.310791,920.104980,654.418945,1.539241
-228.973389,915.527344,649.566650,1.539984
-227.783203,923.583984,662.750244,1.540717
-229.705811,918.457031,673.553467,1.541450
-245.635986,920.562744,681.884766,1.542184
-250.488281,920.013428,674.835205,1.542949
-241.882324,916.625977,666.229248,1.543693
-244.354248,918.273926,674.102783,1.544436
-245.452881,901.519775,665.039062,1.545180
-244.628906,901.245117,658.721924,1.545923
-239.501953,889.617920,658.172607,1.546656
-234.649658,890.808105,650.207520,1.547389
-229.248047,889.160156,645.263672,1.548122
-220.458984,884.582520,616.333008,1.548875
-213.409424,874.694824,630.157471,1.549617
-214.324951,865.447998,618.164062,1.550359
-220.642090,859.039307,611.480713,1.551101
-213.134766,850.982666,607.910156,1.551852
-206.542969,855.834961,587.036133,1.552594
-211.944580,836.791992,608.367920,1.553336
-206.542969,841.827393,606.994629,1.554079
-205.627441,838.897705,604.431152,1.554822
-202.972412,838.623047,610.748291,1.555565
-197.479248,842.834473,611.297607,1.556307
-189.880371,840.179443,612.670898,1.557049
-187.133789,850.433350,619.445801,1.557791
-183.471680,855.834961,622.924805,1.558533
-173.583984,853.454590,627.685547,1.559275
-172.485352,861.328125,638.763428,1.560018
-173.400879,861.877441,633.819580,1.560761
-179.809570,868.927002,630.706787,1.561503
-170.196533,874.145508,638.214111,1.562246
-166.076660,871.215820,631.530762,1.563070
-159.484863,884.857178,638.946533,1.563814
-164.520264,880.920410,645.629883,1.564577
-157.104492,884.490967,657.897949,1.565321
-144.378662,881.469727,663.116455,1.566065
-142.547607,890.075684,665.130615,1.566822
-135.406494,903.442383,657.714844,1.567566
-138.610840,902.984619,657.348633,1.568309
-125.152588,905.273438,659.912109,1.569052
-128.173828,903.533936,653.137207,1.569805
-129.638672,891.448975,649.108887,1.570549
-116.546631,902.801514,649.017334,1.571294
-111.694336,914.062500,665.313721,1.572027
-101.989746,919.281006,652.587891,1.572780
-104.644775,918.914795,658.447266,1.573514
-86.242676,926.513672,664.855957,1.574305
-78.002930,929.626465,671.630859,1.575071
-81.573486,952.056885,675.842285,1.575868
-66.101074,962.036133,687.194824,1.576629
-65.643311,961.578369,692.138672,1.577389
-65.826416,976.867676,693.695068,1.578153
-57.495117,983.276367,708.892822,1.578844
-60.516357,988.861084,714.202881,1.579610
-57.128906,991.882324,712.005615,1.580375
-58.227539,990.966797,718.414307,1.581135
-44.769287,1001.861572,723.632812,1.581910
-47.607422,1009.185791,720.245361,1.582647
-45.227051,1005.432129,721.527100,1.583380
-43.029785,1014.678955,729.400635,1.584113
-38.543701,1007.812500,725.555420,1.584889
-34.057617,1011.291504,726.562500,1.585652
-35.705566,1007.629395,730.682373,1.586441
-33.508301,998.382568,736.907959,1.587195
-30.853271,1007.354736,733.062744,1.587962
-20.416260,988.677979,727.478027,1.588706
-10.986328,961.669922,722.717285,1.589450
-8.697510,980.346680,711.273193,1.590193
-9.521484,970.367432,705.505371,1.590946
-7.415771,973.388672,698.181152,1.591689
-10.711670,965.698242,696.441650,1.592432
-6.317139,953.979492,689.392090,1.593236
-6.042480,942.810059,686.187744,1.593989
-10.253906,950.134277,684.997559,1.594757
-13.458252,936.584473,681.701660,1.595506
-17.395020,923.583984,674.377441,1.596251
-25.634766,915.435791,668.701172,1.596995
-31.036377,902.709961,657.806396,1.597739
-42.388916,898.773193,632.995605,1.598483
-34.606934,896.575928,660.186768,1.599235
-39.276123,881.011963,653.045654,1.599981
-39.001465,876.434326,638.946533,1.600726
-53.924561,859.313965,637.207031,1.601470
-44.586182,851.806641,633.361816,1.602209
-36.437988,853.363037,640.960693,1.602943
-31.127930,861.328125,638.580322,1.603676
-37.170410,844.573975,638.763428,1.604409
-27.740479,839.538574,640.960693,1.605147
-27.374268,832.397461,639.404297,1.605891
-23.529053,826.995850,637.939453,1.606635
-27.099609,800.811768,637.573242,1.607410
-38.269043,804.656982,629.516602,1.608160
-49.438477,808.776855,617.889404,1.608906
-55.572510,814.727783,611.480713,1.609650
-60.791016,812.530518,603.607178,1.610394
-74.707031,805.297852,595.275879,1.611137
-71.319580,804.290771,592.987061,1.611881
-71.685791,811.614990,586.303711,1.612624
-74.615479,807.403564,578.063965,1.613368
-71.960449,804.931641,563.232422,1.614107
-70.129395,810.241699,572.937012,1.614840
-78.002930,805.206299,573.760986,1.615574
-91.186523,804.656982,564.147949,1.616307
-87.615967,813.079834,554.260254,1.617045
-94.940186,814.819336,554.626465,1.617789
-94.757080,824.890137,549.316406,1.618532
-98.602295,821.868896,526.336670,1.619275
-57.952881,821.685791,505.371094,1.620024
-30.212402,825.347900,478.088379,1.620758
-20.416260,820.129395,461.791992,1.621491
-5.767822,815.826416,437.713623,1.622224
6.042480,840.179443,419.860840,1.622960
0.183105,824.890137,421.325684,1.623703
4.760742,837.890625,422.424316,1.624446
14.648438,844.207764,422.790527,1.625188
-8.331299,866.912842,430.847168,1.625931
-23.254395,878.356934,478.729248,1.626665
-66.375732,897.949219,507.293701,1.627398
-112.152100,901.794434,541.900635,1.628131
-142.913818,907.012939,559.753418,1.628865
-168.365479,913.879395,577.606201,1.629632
-183.563232,911.590576,584.655762,1.630374
-213.592529,913.238525,589.508057,1.631115
-233.276367,929.718018,611.846924,1.631886
-237.396240,938.507080,616.149902,1.632631
-244.812012,948.394775,621.459961,1.633374
-258.270264,946.105957,631.256104,1.634117
-259.826660,942.901611,634.826660,1.634860
-265.594482,954.345703,636.566162,1.635689
-265.228271,946.929932,627.593994,1.636433
-267.700195,950.408936,618.072510,1.637176
-264.404297,944.824219,608.917236,1.637914
-269.256592,940.063477,590.057373,1.638648
-258.087158,934.387207,571.380615,1.639381
-242.889404,929.809570,546.478271,1.640114
-229.522705,933.471680,534.118652,1.640852
-226.593018,922.851562,512.420654,1.641595
-231.536865,914.520264,500.793457,1.642339
-235.382080,901.519775,490.814209,1.643082
-236.022949,908.843994,494.293213,1.643826
-238.403320,903.717041,471.954346,1.644569
-251.770020,902.160645,504.730225,1.645312
-261.383057,907.653809,516.815186,1.646056
-285.278320,895.568848,511.413574,1.646811
-295.257568,901.245117,527.709961,1.647555
-306.793213,902.343750,540.161133,1.648298
-317.230225,892.547607,536.041260,1.649041
-312.377930,887.145996,532.836914,1.649785
-323.547363,894.561768,536.590576,1.650518
-326.660156,885.406494,525.787354,1.651251
-328.033447,881.652832,508.758545,1.651985
-333.709717,873.413086,489.715576,1.652718
-328.399658,880.828857,474.426270,1.653484
-322.814941,880.828857,477.722168,1.654227
-320.251465,879.638672,460.144043,1.654969
-329.223633,873.687744,465.454102,1.655711
-325.012207,874.237061,447.601318,1.656477
-330.688477,883.941650,441.284180,1.657228
-341.308594,884.399414,444.030762,1.658009
-355.407715,887.145996,444.396973,1.658756
-356.414795,888.336182,448.425293,1.659501
-372.894287,893.371582,453.094482,1.660245
-370.788574,893.280029,448.608398,1.660989
-381.134033,888.793945,467.376709,1.661748
-386.169434,893.463135,469.665527,1.662496
-376.373291,902.343750,475.158691,1.663273
-368.499756,895.843506,472.595215,1.664027
-364.105225,904.724121,471.496582,1.664856
-357.604980,908.294678,478.912354,1.665608
-359.069824,910.217285,471.588135,1.666351
-357.696533,912.780762,481.842041,1.667094
-349.731445,911.499023,468.475342,1.667849
-347.717285,899.322510,466.918945,1.668593
-345.977783,895.843506,465.820312,1.669336
-351.379395,903.442383,457.489014,1.670080
-346.069336,904.174805,451.263428,1.670826
-341.125488,908.935547,448.791504,1.671559
-340.209961,904.449463,451.812744,1.672292
-331.512451,913.604736,449.523926,1.673028
-327.941895,912.139893,448.516846,1.673792
-313.568115,916.717529,449.707031,1.674536
-301.483154,921.569824,452.087402,1.675279
-302.307129,936.492920,457.489014,1.676022
-294.158936,946.655273,475.433350,1.676775
-279.144287,952.331543,485.321045,1.677519
-291.320801,946.380615,496.398926,1.678262
-288.848877,958.831787,501.617432,1.679005
-281.890869,975.585938,512.512207,1.679757
-280.151367,984.283447,517.639160,1.680501
-275.299072,991.607666,523.681641,1.681244
-283.355713,1008.819580,540.618896,1.681987
-284.362793,1002.502441,543.090820,1.682730
-272.277832,1003.967285,551.879883,1.683463
-269.073486,998.016357,569.091797,1.684205
-259.918213,1003.601074,566.711426,1.684938
-254.608154,1005.157471,570.648193,1.685695
-245.452881,999.389648,563.323975,1.686438
-234.832764,1002.777100,558.837891,1.687182
-231.994629,990.325928,547.210693,1.687925
-218.627930,991.424561,548.583984,1.688669
-223.846436,971.740723,533.843994,1.689412
-215.240479,960.571289,519.470215,1.690155
-202.972412,956.634521,506.652832,1.690899
-202.423096,951.873779,492.370605,1.691635
-198.577881,944.000244,489.074707,1.692368
-186.401367,959.197998,489.074707,1.693109
-189.514160,923.492432,489.440918,1.693843
-178.710938,899.322510,515.258789,1.694598
-168.640137,886.688232,488.891602,1.695341
-174.865723,876.983643,487.609863,1.696084
-151.245117,882.751465,488.525391,1.696827
-160.491943,867.187500,476.623535,1.697579
-169.189453,866.363525,476.623535,1.698322
-150.329590,848.785400,482.849121,1.699065
-158.843994,829.284668,477.539062,1.699808
-164.154053,832.946777,472.503662,1.700550
-156.738281,847.869873,466.003418,1.701283
-157.653809,852.355957,471.496582,1.702016
-146.118164,852.081299,468.383789,1.702749
-143.829346,842.559814,470.214844,1.703494
-138.244629,828.918457,467.926025,1.704237
-141.540527,823.791504,464.813232,1.704980
-138.793945,820.129395,492.004395,1.705723
-122.314453,803.833008,472.686768,1.706602
-131.652832,798.339844,465.728760,1.707346
-126.068115,793.395996,462.982178,1.708089
-119.110107,793.029785,460.144043,1.708833
-117.187500,779.571533,458.953857,1.709628
-122.039795,763.916016,453.735352,1.710372
-119.293213,757.781982,450.347900,1.711116
-109.588623,780.578613,449.890137,1.711859
-115.631104,780.853271,443.756104,1.712612
-94.665527,773.071289,442.016602,1.713355
-95.764160,770.507812,444.763184,1.714098
-97.778320,769.317627,441.558838,1.714842
-82.305908,773.895264,444.763184,1.715584
-83.679199,763.916016,438.812256,1.716318
-74.707031,773.345947,445.220947,1.717051
-64.361572,774.261475,442.657471,1.717785
-56.396484,797.149658,447.967529,1.718541
-42.205811,790.100098,453.826904,1.719285
-33.691406,793.945312,486.968994,1.720028
-39.459229,801.452637,481.658936,1.720771
-33.233643,819.488525,492.187500,1.721523
-23.986816,835.876465,504.638672,1.722266
-25.634766,860.778809,504.089355,1.723009
-30.853271,873.596191,535.034180,1.723752
-36.621094,891.448975,525.054932,1.724505
-42.388916,909.667969,524.780273,1.725248
-56.579590,928.985596,524.688721,1.725991
-62.805176,876.708984,549.774170,1.726734
-34.515381,877.990723,554.809570,1.727476
-38.360596,876.617432,533.020020,1.728210
-66.833496,881.652832,537.231445,1.728949
15.655518,870.666504,529.632568,1.729689
-34.790039,859.222412,514.160156,1.730495
-40.924072,851.623535,511.596680,1.731247
14.739990,833.770752,517.272949,1.731991
-49.530029,844.848633,511.230469,1.732735
-31.402588,849.975586,502.716064,1.733489
-28.930664,854.553223,508.300781,1.734233
-66.284180,843.750000,507.934570,1.735004
-44.036865,845.489502,514.160156,1.735759
-73.699951,841.827393,513.702393,1.736541
-44.403076,862.976074,505.828857,1.737291
-48.339844,867.187500,507.934570,1.738035
-45.410156,863.250732,502.532959,1.738778
-29.296875,868.743896,505.279541,1.739537
-29.937744,882.934570,490.081787,1.740280
-38.360596,892.272949,490.722656,1.741023
-28.106689,871.490479,493.103027,1.741766
-32.592773,855.926514,505.920410,1.742518
-16.662598,858.215332,500.427246,1.743262
-22.064209,831.939697,491.546631,1.744007
-19.409180,800.994873,483.306885,1.744751
3.845215,803.283691,466.552734,1.745494
-19.500732,803.741455,458.038330,1.746227
-7.324219,789.459229,454.925537,1.746960
1.922607,789.093018,452.545166,1.747693
-30.853271,799.896240,460.327148,1.748450
-24.902344,793.029785,438.262939,1.749195
-31.951904,791.198730,437.438965,1.749938
-39.093018,777.740479,424.163818,1.750681
-37.628174,792.663574,398.712158,1.751461
-54.199219,768.035889,411.895752,1.752206
-37.261963,763.641357,405.761719,1.752950
-29.846191,750.183105,391.021729,1.753696
-34.515381,758.239746,390.380859,1.754440
-17.852783,765.014648,393.951416,1.755183
-22.338867,765.380859,382.141113,1.755926
-24.536133,763.549805,381.774902,1.756670
-11.169434,769.409180,374.359131,1.757424
-14.373779,766.754150,370.513916,1.758168
-19.500732,769.134521,362.915039,1.758912
-13.183594,763.458252,359.069824,1.759655
-12.359619,766.479492,329.223633,1.760397
-9.979248,773.620605,333.984375,1.761131
-3.753662,754.760742,338.836670,1.761864
0.366211,776.733398,335.266113,1.762597
-8.239746,774.627686,349.182129,1.763361
19.226074,780.578613,352.386475,1.764096
9.704590,789.276123,363.647461,1.764830
8.514404,791.381836,400.634766,1.765586
20.050049,793.304443,419.769287,1.766330
30.670166,796.325684,452.270508,1.767073
41.656494,796.875000,461.700439,1.767816
45.501709,808.959961,479.187012,1.768560
45.318604,799.713135,481.750488,1.769303
48.980713,791.748047,483.673096,1.770046
49.987793,792.663574,486.785889,1.770789
56.945801,786.895752,486.968994,1.771530
60.333252,799.804688,475.250244,1.772263
67.474365,792.938232,465.270996,1.772997
53.833008,793.670654,459.686279,1.773731
62.072754,787.170410,453.369141,1.774473
63.629150,783.966064,452.636719,1.775219
53.466797,836.791992,442.016602,1.775963
59.417725,858.398438,428.009033,1.776707
37.261963,784.881592,462.341309,1.777450
84.136963,789.276123,483.673096,1.778194
77.453613,825.805664,462.707520,1.778937
58.959961,848.785400,476.623535,1.779762
91.735840,821.960449,491.180420,1.780518
90.362549,824.615479,498.779297,1.781262
75.256348,867.462158,497.039795,1.782006
93.933105,882.385254,492.187500,1.782749
47.698975,862.518311,518.188477,1.783522
47.607422,863.800049,514.434814,1.784266
42.297363,876.892090,520.111084,1.785010
24.627686,902.435303,530.364990,1.785753
33.966064,908.477783,540.435791,1.786496
20.416260,899.688721,537.872314,1.787239
12.908936,908.294678,532.745361,1.787982
10.894775,901.428223,539.886475,1.788730
-13.458252,897.125244,548.950195,1.789484
-23.254395,891.448975,542.816162,1.790228
-41.656494,885.681152,543.640137,1.790971
-35.522461,888.519287,537.231445,1.791714
-35.064697,892.456055,521.942139,1.792467
-32.226562,890.716553,507.751465,1.793210
-41.473389,872.039795,489.624023,1.793953
-37.078857,856.933594,462.066650,1.794697
-46.966553,861.511230,451.538086,1.795439
-27.648926,860.229492,445.495605,1.796173
-18.585205,855.926514,434.234619,1.796906
-22.705078,837.432861,414.916992,1.797649
-13.549805,839.813232,394.042969,1.798439
-2.563477,851.074219,388.641357,1.799190
-19.042969,848.510742,370.697021,1.799941
-17.395020,841.461182,350.921631,1.800706
-29.663086,829.650879,344.696045,1.801477
-36.437988,833.496094,339.019775,1.802246
-29.571533,836.059570,337.829590,1.803003
-26.275635,839.904785,339.019775,1.803748
-26.092529,858.581543,328.582764,1.804504
-28.381348,857.391357,341.033936,1.805247
-32.775879,845.581055,344.512939,1.806027
-24.169922,846.862793,358.612061,1.806779
-28.472900,835.327148,365.020752,1.807571
-24.719238,839.996338,384.887695,1.808323
0.274658,842.285156,405.212402,1.809066
2.838135,855.285645,411.895752,1.809810
2.288818,865.356445,411.621094,1.810568
22.064209,873.504639,412.445068,1.811311
13.000488,878.448486,412.261963,1.812054
2.838135,862.884521,403.015137,1.812796
-13.916016,852.996826,408.233643,1.813549
-24.993896,841.278076,409.423828,1.814292
-35.614014,827.545166,391.937256,1.815035
10.162354,884.216309,381.500244,1.815805
9.979248,933.288574,392.028809,1.816553
43.579102,983.184814,430.572510,1.817296
59.234619,980.895996,445.587158,1.818039
37.811279,1024.108887,451.995850,1.818816
43.029785,1059.539795,463.073730,1.819566
-9.155273,1082.794189,482.574463,1.820311
-31.768799,1089.569092,482.391357,1.821053
-63.446045,1090.393066,500.335693,1.821816
-95.855713,1124.633789,513.885498,1.822559
-86.700439,1214.355469,554.351807,1.823333
-145.019531,1238.342285,674.102783,1.824078
-15.838623,1243.011475,900.421143,1.824834
50.445557,1214.263916,944.549561,1.825579
5.035400,1207.305908,1001.495361,1.826322
-8.239746,1169.036865,996.459961,1.827065
44.494629,1157.226562,976.501465,1.827808
25.085449,1148.437500,921.661377,1.828541
33.966064,1167.846680,878.540039,1.829274
131.378174,1218.750000,755.676270,1.830008
146.759033,1234.130859,667.327881,1.830756
108.581543,1183.502197,624.298096,1.831491
117.553711,1123.718262,552.062988,1.832224
103.820801,1116.302490,529.357910,1.832958
68.023682,1048.004150,501.342773,1.833779
59.967041,993.164062,479.919434,1.834517
41.198730,970.367432,473.785400,1.835250
27.923584,942.169189,449.981689,1.836009
36.437988,928.710938,423.980713,1.836752
3.845215,906.463623,412.628174,1.837495
-2.380371,895.843506,410.980225,1.838238
6.225586,885.314941,413.177490,1.838990
8.972168,881.652832,447.692871,1.839735
22.979736,888.793945,459.503174,1.840478
41.381836,905.364990,464.813232,1.841221
47.607422,901.611328,451.995850,1.841965
73.608398,904.998779,449.615479,1.842698
68.298340,890.533447,420.959473,1.843432
67.657471,897.033691,400.177002,1.844176
64.361572,872.589111,360.992432,1.844930
52.093506,870.666504,343.597412,1.845673
47.973633,898.223877,312.652588,1.846415
35.247803,909.484863,285.369873,1.847158
20.233154,899.597168,258.819580,1.847910
8.514404,888.153076,250.488281,1.848653
5.035400,839.630127,259.735107,1.849418
9.429932,828.094482,274.932861,1.850182
11.901855,818.756104,277.679443,1.850979
-8.056641,810.058594,277.404785,1.851739
2.105713,781.494141,281.341553,1.852498
-0.183105,766.754150,293.792725,1.853259
6.042480,738.281250,288.848877,1.854209
-5.767822,719.787598,289.398193,1.854959
-6.591797,668.151855,314.117432,1.855702
0.366211,644.165039,311.370850,1.856444
-5.950928,618.438721,311.462402,1.857200
-7.965088,610.839844,317.687988,1.857934
-8.422852,617.065430,315.307617,1.858666
-29.846191,646.820068,258.819580,1.859399
-88.714600,565.612793,360.443115,1.860186
173.034668,621.826172,254.150391,1.860932
4.486084,702.392578,194.824219,1.861674
-77.819824,658.996582,269.348145,1.862430
30.029297,680.603027,221.099854,1.863172
27.557373,678.955078,201.599121,1.863915
5.035400,690.307617,214.782715,1.864652
-1.464844,743.041992,192.535400,1.865395
64.727783,974.304199,72.235107,1.866137
9.063721,991.516113,37.445068,1.866880
-42.938232,930.358887,102.355957,1.867622
49.621582,794.769287,213.317871,1.868358
56.213379,789.916992,198.211670,1.869091
-18.493652,861.236572,131.011963,1.869824
-21.606445,881.195068,119.293213,1.870557
47.241211,824.798584,172.943115,1.871319
21.423340,889.526367,144.744873,1.872072
27.465820,950.317383,55.938721,1.872853
-29.388428,960.113525,80.017090,1.873606
23.529053,894.104004,183.929443,1.874352
36.895752,865.997314,183.746338,1.875096
-17.761230,882.934570,157.379150,1.875839
-29.846191,903.533936,181.823730,1.876583
21.789551,893.554688,194.183350,1.877346
-51.269531,861.602783,238.220215,1.878098
-169.097900,887.603760,242.065430,1.878868
-201.782227,912.048340,227.966309,1.879618
-305.419922,958.007812,234.649658,1.880338
-352.203369,945.007324,258.270264,1.881085
-379.577637,941.986084,278.137207,1.881828
-398.529053,923.400879,284.820557,1.882571
-397.705078,927.886963,278.320312,1.883324
-382.415771,947.387695,279.876709,1.884067
-343.963623,955.078125,283.172607,1.884810
-286.743164,955.352783,278.411865,1.885553
-255.065918,966.156006,274.017334,1.886296
-213.867188,970.733643,280.059814,1.887030
-153.808594,1012.207031,282.806396,1.887763
-149.963379,1065.490723,302.124023,1.888496
-121.765137,1040.496826,292.510986,1.889255
-69.488525,1022.186279,295.257568,1.889998
-112.884521,963.134766,319.335938,1.890742
-106.658936,965.057373,304.321289,1.891486
-62.988281,1029.235840,257.537842,1.892241
-92.651367,1018.615723,267.974854,1.892985
-36.804199,1026.672363,266.601562,1.893728
-40.832520,1016.876221,263.031006,1.894471
-88.531494,1018.249512,274.017334,1.895224
-92.285156,1014.678955,262.023926,1.895968
-114.715576,1015.686035,271.545410,1.896711
-136.413574,1010.925293,268.890381,1.897455
-121.398926,1021.636963,261.108398,1.898198
-153.808594,1016.784668,269.805908,1.898931
-147.125244,983.825684,301.574707,1.899664
-97.961426,990.966797,305.145264,1.900397
-116.271973,992.706299,287.567139,1.901151
-63.446045,1000.854492,254.791260,1.901914
-67.382812,985.565186,228.973389,1.902658
-95.306396,994.079590,224.578857,1.903401
-62.530518,999.114990,211.944580,1.904153
-95.306396,990.600586,215.881348,1.904896
-88.989258,989.501953,211.029053,1.905639
-80.474854,975.036621,220.825195,1.906382
-92.468262,951.782227,215.698242,1.907126
-87.524414,937.408447,211.395264,1.907860
-66.558838,927.795410,217.620850,1.908594
-56.213379,930.999756,217.346191,1.909327
-40.649414,938.964844,217.071533,1.910071
-25.451660,928.894043,219.177246,1.910804
-18.676758,923.583984,206.634521,1.911537
3.479004,930.084229,202.606201,1.912270
9.704590,915.710449,194.274902,1.913026
9.521484,901.062012,203.887939,1.913769
4.394531,900.604248,217.071533,1.914512
0.549316,896.301270,191.253662,1.915255
5.676270,898.132324,186.859131,1.915999
15.563965,856.658936,199.035645,1.916742
9.063721,832.305908,227.783203,1.917484
6.225586,833.404541,196.105957,1.918227
-3.936768,856.384277,170.196533,1.918970
3.112793,847.686768,156.280518,1.919713
0.457764,809.967041,181.091309,1.920456
9.979248,812.255859,185.760498,1.921199
4.669189,797.882080,161.132812,1.921936
0.000000,818.756104,156.646729,1.922669
0.732422,806.488037,155.456543,1.923402
-11.352539,777.923584,141.082764,1.924135
14.373779,740.386963,170.379639,1.924923
-8.789062,713.104248,131.011963,1.925695
-2.563477,734.893799,119.201660,1.926459
-55.206299,709.167480,83.770752,1.927358
-64.727783,697.265625,72.326660,1.928120
-16.571045,697.357178,68.572998,1.928883
-59.143066,699.371338,53.100586,1.929645
-68.481445,710.815430,0.274658,1.930402
-33.874512,725.646973,18.859863,1.931150
-20.233154,694.152832,29.388428,1.931895
-32.043457,717.498779,8.972168,1.932639
-20.599365,773.895264,-69.122314,1.933380
11.352539,790.191650,-117.553711,1.934114
154.266357,826.995850,-179.443359,1.934848
148.132324,912.139893,-283.538818,1.935582
-138.610840,867.828369,-305.053711,1.936334
-205.902100,891.265869,-359.802246,1.937079
-57.220459,900.878906,-427.185059,1.937823
15.472412,941.345215,-440.643311,1.938566
-132.751465,923.858643,-492.370605,1.939311
-223.114014,940.429688,-533.935547,1.940055
-10.437012,985.015869,-597.930908,1.940798
-34.240723,1002.685547,-647.644043,1.941541
-217.163086,1030.517578,-683.441162,1.942284
-178.344727,1098.724365,-742.584229,1.943027
-38.269043,1081.695557,-768.585205,1.943771
-187.316895,998.474121,-623.840332,1.944514
280.700684,895.660400,-587.951660,1.945258
-184.661865,1184.417725,-579.803467,1.946034
-22.064209,1192.749023,-628.143311,1.946794
70.678711,1229.003906,-632.904053,1.947544
-189.056396,1151.824951,-604.156494,1.948345
-98.144531,1311.767578,-607.543945,1.949095
60.607910,1325.042725,-594.177246,1.949839
-116.546631,1342.346191,-553.344727,1.950582
-101.165771,1380.249023,-471.588135,1.951336
-40.100098,1348.937988,-429.473877,1.952080
30.120850,1378.692627,-399.353027,1.952830
45.135498,1384.643555,-329.589844,1.953590
-79.284668,1347.106934,-284.545898,1.954366
-209.655762,1341.156006,-171.478271,1.955141
-286.285400,1291.168213,-77.636719,1.955906
-320.526123,1219.665527,-13.366699,1.956652
-10.711670,683.441162,53.924561,1.957396
-220.733643,1510.620117,262.023926,1.958139
-148.315430,1062.469482,386.901855,1.958881
713.104248,1391.510010,406.768799,1.959625
79.833984,1243.652344,427.093506,1.960368
-256.988525,1075.744629,442.291260,1.961105
252.319336,1272.766113,410.430908,1.961839
-128.265381,1363.220215,417.572021,1.962579
61.340332,1220.397949,408.874512,1.963313
330.871582,1374.755859,351.654053,1.964049
-248.382568,1320.556641,347.991943,1.964784
227.691650,1378.601074,334.991455,1.965538
200.592041,1318.084717,363.830566,1.966282
388.549805,1335.845947,394.683838,1.967026
451.080322,1505.035400,411.804199,1.967768
221.466064,1544.311523,441.833496,1.968512
362.365723,1585.327148,455.657959,1.969255
329.498291,1583.953857,458.862305,1.969998
80.474854,1270.843506,613.128662,1.970742
-922.760010,1223.419189,1544.769287,1.971485
-1117.034912,968.536377,1476.562500,1.972241
406.860352,1540.557861,1018.524170,1.972985
1076.751709,1730.895996,749.633789,1.973728
392.395020,1802.398682,950.775146,1.974472
-978.424072,1546.966553,1156.402588,1.975273
-614.868164,1633.392334,1108.154297,1.976049
197.387695,2088.958740,970.458984,1.976813
2999.908447,2163.391113,1050.476074,1.977600
823.516846,1794.158936,954.803467,1.978360
-786.254883,1626.617432,915.985107,1.979124
-1204.193115,1633.392334,856.475830,1.979893
-1101.470947,1497.344971,676.757812,1.980664
-948.944092,1438.659668,490.997314,1.981400
-153.167725,1401.214600,380.859375,1.982134
313.934326,1454.498291,252.777100,1.982867
365.936279,1424.560547,211.486816,1.983614
-337.921143,1365.966797,55.114746,1.984348
-581.909180,1362.854004,-69.671631,1.985081
-846.405029,1345.916748,-83.221436,1.985815
-770.233154,1290.435791,-43.945312,1.986571
-46.325684,1274.963379,0.549316,1.987387
72.692871,1123.901367,88.165283,1.988148
-32.867432,1023.651123,136.596680,1.988889
-51.177979,1134.429932,62.622070,1.989641
173.217773,1397.644043,-69.488525,1.990420
602.508545,1356.445312,-149.780273,1.991222
-133.392334,1159.149170,-159.210205,1.992038
-661.285400,1044.342041,-202.697754,1.992796
-741.302490,971.832275,-217.620850,1.993552
-739.837646,977.416992,-226.318359,1.994335
-669.250488,1003.326416,-236.114502,1.995099
-530.364990,1060.546875,-237.762451,1.995878
-146.209717,1090.484619,-242.980957,1.996633
21.331787,1071.441650,-285.644531,1.997436
-191.802979,989.593506,-357.513428,1.998306
-405.578613,972.839355,-376.007080,1.999093
-201.599121,949.951172,-420.959473,1.999846
92.468262,921.752930,-506.195068,2.000703
9.979248,873.229980,-496.215820,2.001462
-631.988525,886.322021,-398.895264,2.002206
-273.742676,871.673584,-151.885986,2.002978
-12.817383,908.294678,-100.616455,2.003726
86.151123,979.339600,-118.743896,2.004470
-113.250732,922.393799,-173.950195,2.005213
-401.458740,893.188477,-224.212646,2.005969
-324.462891,848.052979,-349.456787,2.006713
-265.411377,830.932617,-469.390869,2.007457
-280.517578,788.360596,-545.013428,2.008200
-442.382812,757.141113,-613.861084,2.009008
-458.312988,706.787109,-700.103760,2.009753
-331.054688,726.013184,-711.730957,2.010496
-22.338867,783.508301,-735.992432,2.011239
151.153564,847.412109,-781.219482,2.011994
139.068604,815.185547,-817.474365,2.012737
-50.262451,759.338379,-923.400879,2.013480
-118.286133,770.965576,-836.059570,2.014223
751.831055,724.548340,-468.475342,2.014958
557.098389,728.668213,-222.473145,2.015692
-716.766357,849.609375,-191.711426,2.016425
-847.595215,888.793945,-202.239990,2.017158
-525.878906,1097.717285,-287.750244,2.017913
464.538574,1185.699463,-354.034424,2.018679
513.244629,1221.954346,-467.010498,2.019430
139.160156,1071.350098,-539.245605,2.020207
-131.835938,1037.200928,-603.973389,2.020978
-1196.319580,990.600586,-527.069092,2.021722
-1469.421387,844.299316,-48.797607,2.022465
-156.463623,978.881836,8.148193,2.023238
776.733398,1307.281494,-46.051025,2.024020
335.174561,1263.061523,-158.569336,2.024788
-168.914795,1173.339844,-258.728027,2.025550
-785.430908,1201.904297,-362.915039,2.026311
1418.975830,1117.858887,-56.488037,2.027115
2233.886719,1347.015381,1312.316895,2.027891
2999.908447,2985.534668,2999.908447,2.028677
2999.908447,2999.908447,2999.908447,2.029451
2999.908447,2999.908447,1865.478516,2.030216
-1046.539307,1487.731934,-3000.000000,2.030974
-1660.858154,1374.298096,-3000.000000,2.031722
-680.053711,-244.720459,-2020.111084,2.032491
-628.417969,28.564453,-1816.680908,2.033237
-771.697998,-49.346924,-1685.852051,2.033980
-1015.869141,283.081055,-774.627686,2.034724
-490.173340,845.947266,963.134766,2.035464
-99.700928,1825.836182,2999.908447,2.036198
157.196045,1871.337891,2995.056152,2.036932
181.549072,1549.072266,196.105957,2.037665
-736.450195,1158.416748,-638.305664,2.038402
-1212.341309,641.876221,-806.762695,2.039137
-1215.454102,649.200439,-837.341309,2.039871
-434.600830,705.139160,-740.295410,2.040604
383.422852,812.072754,-836.608887,2.041356
62.347412,889.709473,-327.392578,2.042099
-274.108887,859.954834,-136.322021,2.042843
-255.432129,854.095459,-259.552002,2.043586
-169.372559,890.625000,-171.112061,2.044329
-224.304199,937.225342,131.103516,2.045072
-135.314941,954.711914,-45.776367,2.045815
-9.155273,916.534424,-294.616699,2.046558
-48.522949,833.587646,-635.650635,2.047301
-230.163574,816.558838,-703.033447,2.048047
-356.781006,858.123779,-538.787842,2.048781
-339.477539,897.949219,-220.458984,2.049514
-262.573242,961.761475,-151.062012,2.050247
-228.515625,955.902100,-191.345215,2.051016
-228.240967,951.782227,-184.570312,2.051760
-182.281494,943.725586,-226.226807,2.052503
-190.521240,924.774170,-313.751221,2.053246
-225.585938,897.766113,-330.413818,2.054000
-267.883301,894.378662,-331.878662,2.054743
-385.437012,904.815674,-316.589355,2.055486
-446.960449,961.120605,-220.458984,2.056229
-399.810791,988.403320,-128.906250,2.056972
-103.729248,984.466553,-101.898193,2.057706
47.790527,984.832764,-153.625488,2.058438
202.148438,962.860107,-215.332031,2.059172
201.416016,893.188477,-396.606445,2.059924
118.011475,851.348877,-458.129883,2.060658
-22.338867,871.582031,-419.128418,2.061391
-81.390381,978.515625,-217.346191,2.062124
-81.115723,1056.243896,-109.863281,2.062881
-5.126953,1107.879639,11.535645,2.063624
-2.288818,1091.308594,-129.547119,2.064367
-56.488037,1025.665283,-218.078613,2.065110
-119.476318,978.698730,-320.434570,2.065863
-183.837891,996.917725,-328.308105,2.066606
-151.794434,1041.778564,-222.473145,2.067349
-78.643799,1070.709229,-40.832520,2.068093
-20.416260,1101.837158,-31.219482,2.068934
-77.819824,1076.934814,-123.046875,2.069678
-109.680176,1060.546875,-202.880859,2.070422
-123.138428,1040.954590,-238.586426,2.071165
-113.616943,1067.413330,-221.557617,2.071918
-84.320068,1067.230225,-181.640625,2.072662
-59.326172,1079.315186,-137.054443,2.073405
-75.805664,1102.844238,-96.221924,2.074148
-107.574463,1107.696533,-102.264404,2.074901
-121.032715,1097.442627,-181.549072,2.075645
-135.681152,1074.462891,-212.585449,2.076388
-95.123291,1062.469482,-221.649170,2.077131
-57.037354,1066.223145,-165.985107,2.077884
12.817383,1108.245850,-136.688232,2.078628
54.840088,1146.697998,-117.370605,2.079371
58.135986,1114.013672,-142.730713,2.080114
16.387939,1061.187744,-213.043213,2.080867
-4.211426,1049.468994,-226.776123,2.081611
-19.683838,1095.245361,-192.626953,2.082354
-13.641357,1125.183105,-102.264404,2.083097
-30.395508,1124.267578,-75.439453,2.083850
-94.024658,1105.407715,-112.701416,2.084659
-140.899658,1077.941895,-133.758545,2.085407
-141.906738,1078.033447,-138.977051,2.086151
-125.793457,1072.906494,-139.892578,2.086893
-109.588623,1065.216064,-147.033691,2.087637
