ACC_X,ACC_Y,ACC_Z,Time
-480.560303,545.654297,673.736572,0.000379
-477.996826,548.858643,673.645020,0.002335
-475.158691,549.774170,670.898438,0.004278
-476.440430,547.576904,665.954590,0.006194
-480.560303,559.753418,673.553467,0.008150
-479.644775,554.260254,666.320801,0.010077
-478.820801,552.246094,674.377441,0.011984
-477.264404,554.351807,680.145264,0.013919
-477.081299,562.591553,685.272217,0.015827
-486.236572,554.534912,677.581787,0.017733
-479.370117,553.161621,676.025391,0.019666
-478.546143,554.992676,674.377441,0.021572
-477.539062,554.077148,676.666260,0.023498
-490.264893,553.161621,668.243408,0.025422
-487.609863,548.583984,667.327881,0.026543
-484.588623,538.421631,666.778564,0.027655
-480.743408,549.865723,667.785645,0.028781
-479.095459,539.062500,667.419434,0.029894
-484.680176,536.315918,663.391113,0.031022
-481.750488,542.724609,667.785645,0.032134
-493.103027,550.323486,661.193848,0.033246
-483.856201,536.132812,661.834717,0.034372
-486.419678,542.816162,664.398193,0.035485
-486.785889,545.013428,667.419434,0.036599
-489.807129,537.689209,675.292969,0.037758
-487.335205,535.858154,661.926270,0.038871
-489.898682,532.196045,667.785645,0.039983
-491.638184,535.858154,667.327881,0.041095
-494.110107,540.527344,667.236328,0.042206
-493.560791,537.597656,663.208008,0.043331
-492.462158,538.787842,655.883789,0.044444
-492.095947,548.034668,662.200928,0.045556
-500.976562,541.717529,667.144775,0.046683
-492.187500,538.787842,661.193848,0.047797
-494.934082,541.534424,660.919189,0.048905
-506.286621,539.428711,662.750244,0.050017
-501.068115,543.640137,660.644531,0.051129
-493.743896,539.886475,663.116455,0.052247
-497.406006,541.625977,666.595459,0.053343
-502.716064,533.935547,666.046143,0.054439
-496.124268,543.640137,653.137207,0.055573
-500.061035,541.351318,658.355713,0.056688
-509.490967,545.196533,672.637939,0.057800
-503.814697,547.027588,665.313721,0.058927
-504.821777,540.069580,673.736572,0.060039
-506.469727,544.281006,673.187256,0.061151
-501.617432,540.435791,673.461914,0.062263
-500.061035,544.464111,671.081543,0.063438
-502.349854,541.809082,661.010742,0.064587
-503.448486,517.822266,660.369873,0.065710
-506.744385,539.978027,672.637939,0.066867
-507.385254,544.281006,666.778564,0.067981
-503.631592,545.471191,668.334961,0.069093
-498.504639,544.555664,664.947510,0.070221
-502.441406,540.985107,665.405273,0.071333
-495.758057,541.900635,671.081543,0.072444
-495.208740,543.914795,667.602539,0.073555
-496.490479,540.527344,663.757324,0.074666
-503.906250,553.436279,664.031982,0.075793
-496.856689,543.731689,661.560059,0.076982
-494.750977,545.288086,667.510986,0.078130
-471.862793,543.365479,669.342041,0.079266
-491.821289,545.471191,669.433594,0.080445
-488.159180,551.422119,669.250488,0.081585
-490.356445,552.520752,666.870117,0.082794
-497.039795,545.288086,666.595459,0.083936
-489.257812,546.203613,670.257568,0.085075
-476.165771,554.534912,673.736572,0.086229
-498.504639,555.358887,674.011230,0.087330
-496.582031,557.189941,668.060303,0.088427
-500.976562,554.718018,669.250488,0.089564
-506.561279,553.253174,669.158936,0.090677
-496.582031,547.668457,670.715332,0.091789
-497.497559,550.415039,669.616699,0.092905
-499.877930,555.450439,667.694092,0.094019
-506.286621,553.253174,665.679932,0.095149
-493.286133,551.513672,668.884277,0.096261
-497.772217,553.802490,671.081543,0.097369
-499.053955,554.077148,674.285889,0.098496
-498.504639,550.048828,666.870117,0.099465
-502.441406,552.154541,665.039062,0.100205
-505.554199,548.126221,675.292969,0.100956
-498.413086,554.260254,672.821045,0.101697
-497.039795,558.105469,670.532227,0.102438
-506.835938,548.492432,672.180176,0.103180
-500.427246,549.316406,671.997070,0.103925
-501.983643,550.964355,663.391113,0.104656
-502.624512,550.872803,673.736572,0.105387
-505.096436,548.492432,664.215088,0.106117
-502.258301,545.288086,674.377441,0.106855
-506.103516,544.281006,670.257568,0.107596
-501.434326,547.485352,663.848877,0.108335
-508.300781,540.069580,666.137695,0.109074
-506.286621,541.625977,668.243408,0.109811
-508.850098,542.083740,665.954590,0.110551
-503.814697,544.738770,662.841797,0.111396
-503.082275,549.316406,665.222168,0.112137
-501.708984,538.055420,663.757324,0.112883
-503.265381,544.372559,663.024902,0.113615
-503.631592,535.400391,660.552979,0.114345
-502.716064,551.422119,670.623779,0.115076
-506.469727,540.893555,670.532227,0.115831
-506.011963,543.731689,664.306641,0.116571
-507.476807,549.316406,666.503906,0.117311
-505.645752,555.633545,665.496826,0.118050
-506.744385,545.745850,670.989990,0.118799
-514.617920,550.689697,664.031982,0.119539
-508.941650,551.239014,665.222168,0.120279
-505.096436,550.140381,670.898438,0.121018
-507.110596,552.703857,668.701172,0.121768
-513.519287,553.070068,667.510986,0.122507
-515.808105,546.203613,670.898438,0.123246
-509.948730,549.499512,661.285400,0.123985
-507.843018,554.992676,662.200928,0.124734
-513.061523,546.936035,665.588379,0.125474
-518.005371,553.894043,662.841797,0.126213
-517.822266,553.527832,663.299561,0.126952
-516.723633,550.506592,669.982910,0.127699
-513.702393,543.457031,671.447754,0.128436
-519.378662,536.773682,672.637939,0.129172
-517.089844,546.112061,670.532227,0.129923
-510.864258,546.752930,668.243408,0.130679
-509.674072,545.837402,665.771484,0.131420
-512.237549,547.027588,666.687012,0.132160
-518.188477,531.829834,660.278320,0.132900
-511.871338,539.886475,665.679932,0.133650
-516.448975,544.006348,659.454346,0.134390
-514.984131,562.408447,657.165527,0.135130
-512.420654,535.217285,656.524658,0.135870
-512.145996,531.738281,661.285400,0.136620
-509.674072,538.146973,641.235352,0.137361
-512.786865,537.872314,659.729004,0.138102
-512.878418,536.773682,663.574219,0.138842
-509.124756,537.322998,661.193848,0.139592
-515.075684,534.576416,660.827637,0.140333
-511.230469,529.907227,662.475586,0.141074
-517.272949,528.900146,658.721924,0.141814
-507.934570,540.985107,663.574219,0.142564
-509.765625,541.900635,658.996582,0.143304
-512.237549,537.597656,663.391113,0.144044
-510.131836,543.365479,660.003662,0.144784
-514.251709,542.633057,663.848877,0.145535
-511.596680,544.281006,662.384033,0.146276
-511.138916,538.787842,667.144775,0.147017
-507.751465,548.950195,663.208008,0.147757
-513.885498,542.358398,664.764404,0.148512
-514.434814,544.372559,664.215088,0.149253
-510.223389,547.027588,661.926270,0.149994
-512.512207,548.492432,668.701172,0.150734
-512.695312,547.851562,667.144775,0.151485
-511.505127,550.964355,670.074463,0.152230
-512.237549,545.745850,669.250488,0.152971
-510.406494,547.485352,672.180176,0.153711
-508.026123,548.767090,674.652100,0.154462
-507.385254,546.386719,671.813965,0.155202
-506.195068,552.154541,673.736572,0.155943
-508.392334,542.907715,667.144775,0.156683
-504.180908,547.760010,674.560547,0.157433
-509.490967,550.506592,682.708740,0.158174
-505.371094,555.633545,678.863525,0.158914
-502.349854,541.076660,680.511475,0.159654
-503.906250,545.013428,666.046143,0.160404
-512.969971,540.618896,664.215088,0.161145
-506.561279,546.112061,669.525146,0.161886
-508.300781,545.654297,663.299561,0.162627
-509.490967,546.203613,667.785645,0.163376
-506.744385,542.907715,667.327881,0.164117
-516.357422,544.372559,670.166016,0.164858
-507.202148,542.358398,668.518066,0.165598
-502.899170,540.802002,675.292969,0.166348
-507.385254,543.182373,668.975830,0.167089
-504.364014,538.604736,665.679932,0.167829
-496.032715,539.428711,660.919189,0.168570
-500.976562,536.407471,671.630859,0.169321
-497.680664,536.956787,663.574219,0.170062
-489.990234,539.978027,665.130615,0.170803
-501.617432,536.132812,670.715332,0.171544
-501.983643,536.407471,660.369873,0.172294
-505.279541,541.625977,668.518066,0.173034
-498.138428,560.852051,665.496826,0.173775
-499.511719,537.963867,659.179688,0.174515
-501.068115,536.682129,665.405273,0.175265
-496.490479,533.111572,665.222168,0.176006
-499.877930,527.618408,671.447754,0.176746
-501.159668,536.407471,662.658691,0.177486
-493.560791,537.139893,664.764404,0.178236
-497.497559,528.167725,667.602539,0.178976
-497.497559,523.498535,665.588379,0.179722
-498.321533,528.991699,666.595459,0.180465
-496.307373,528.808594,663.940430,0.181224
-497.039795,530.914307,669.708252,0.182044
-492.919922,528.442383,662.017822,0.182799
-495.117188,526.977539,666.229248,0.183564
-493.469238,525.695801,668.518066,0.184330
-495.849609,528.808594,668.151855,0.185072
-497.131348,530.456543,664.947510,0.185808
-490.722656,527.709961,665.588379,0.186539
-484.039307,529.815674,667.419434,0.187309
-489.807129,524.047852,666.229248,0.188051
-485.412598,531.372070,664.672852,0.188792
-493.743896,534.942627,664.581299,0.189532
-488.250732,528.900146,668.334961,0.190296
-482.574463,526.062012,666.595459,0.191058
-486.785889,530.822754,667.236328,0.191810
-486.053467,530.914307,664.215088,0.192558
-496.032715,529.907227,666.412354,0.193328
-486.511230,533.569336,673.461914,0.194071
-485.046387,536.773682,673.828125,0.194811
-488.616943,529.266357,661.102295,0.195551
-485.870361,529.357910,671.356201,0.196304
-485.778809,524.505615,674.377441,0.197044
-484.313965,529.632568,669.067383,0.197784
-484.588623,531.555176,666.046143,0.198525
-489.898682,531.829834,671.173096,0.199279
-485.595703,530.364990,669.708252,0.200019
-483.306885,527.618408,664.947510,0.200760
-485.137939,526.519775,666.046143,0.201500
-481.109619,522.033691,667.144775,0.202249
-480.651855,534.576416,662.567139,0.202990
-485.046387,533.203125,664.855957,0.203731
-486.511230,534.301758,659.637451,0.204481
-480.194092,531.646729,667.510986,0.205255
-480.377197,532.928467,665.130615,0.206011
-477.905273,530.548096,665.954590,0.206761
-476.623535,526.977539,665.313721,0.207501
-481.292725,535.766602,662.200928,0.208267
-486.145020,534.118652,666.870117,0.209017
-485.137939,545.562744,672.729492,0.209783
-484.039307,545.104980,673.736572,0.210534
-486.785889,533.294678,670.166016,0.211309
-482.116699,539.154053,676.300049,0.212060
-480.285645,542.633057,662.292480,0.212801
-475.067139,541.442871,665.496826,0.213542
-479.187012,519.744873,660.827637,0.214284
-483.398438,537.506104,665.313721,0.215026
-477.630615,538.604736,665.954590,0.215767
-482.116699,543.914795,701.660156,0.216507
-479.003906,545.104980,677.673340,0.217265
-480.651855,551.879883,667.144775,0.218005
-486.328125,555.816650,671.722412,0.218747
-479.095459,550.231934,668.792725,0.219492
-483.398438,547.302246,675.018311,0.220234
-490.173340,543.182373,667.144775,0.220974
-486.053467,553.710938,659.454346,0.221714
-489.624023,543.548584,664.947510,0.222455
-486.694336,537.963867,663.208008,0.223196
-479.644775,546.752930,668.518066,0.223937
-483.123779,547.576904,674.285889,0.224677
-482.025146,550.323486,666.320801,0.225429
-487.152100,555.633545,674.468994,0.226173
-483.123779,530.639648,669.799805,0.226914
-488.708496,550.781250,665.679932,0.227654
-484.771729,545.928955,670.806885,0.228404
-488.159180,549.499512,663.299561,0.229146
-482.940674,551.605225,662.750244,0.229886
-480.926514,548.309326,670.349121,0.230627
-486.145020,550.140381,669.799805,0.231375
-489.990234,555.358887,670.898438,0.232116
-492.919922,557.922363,670.166016,0.232858
-490.447998,539.520264,669.982910,0.233599
-491.180420,554.718018,663.757324,0.234340
-489.990234,549.591064,665.954590,0.235080
-494.293213,550.048828,663.574219,0.235821
-496.398926,546.844482,661.834717,0.236561
-491.638184,551.879883,668.609619,0.237301
-487.060547,551.696777,669.616699,0.238053
-495.941162,551.788330,665.222168,0.238793
-492.095947,558.197021,669.891357,0.239534
-502.349854,547.851562,671.905518,0.240274
-496.398926,550.048828,669.982910,0.241025
-495.117188,552.703857,670.074463,0.241766
-498.321533,552.062988,671.081543,0.242507
-494.750977,558.105469,667.877197,0.243248
-504.455566,553.070068,671.264648,0.243997
-506.286621,552.612305,666.778564,0.244738
-498.687744,551.696777,662.475586,0.245478
-504.089355,550.048828,665.313721,0.246218
-496.582031,557.189941,672.729492,0.246968
-497.314453,554.626465,662.841797,0.247709
-500.976562,559.020996,662.475586,0.248449
-498.687744,555.358887,667.327881,0.249189
-501.617432,552.612305,667.877197,0.249941
-501.525879,558.746338,670.257568,0.250681
-499.145508,550.048828,665.954590,0.251421
-508.666992,549.682617,669.525146,0.252162
-512.786865,555.175781,667.968750,0.252911
-507.293701,545.471191,658.447266,0.253737
-502.990723,557.189941,667.419434,0.254478
-509.216309,553.894043,670.440674,0.255220
-499.877930,564.514160,675.201416,0.255960
-499.877930,554.626465,665.496826,0.256701
-506.744385,553.985596,675.384521,0.257441
-514.068604,558.654785,664.581299,0.258192
-507.202148,553.985596,665.588379,0.258933
-512.969971,560.668945,671.447754,0.259673
-510.772705,554.718018,675.567627,0.260414
-513.153076,552.520752,677.215576,0.261154
-505.737305,557.189941,665.771484,0.261895
-505.554199,560.577393,675.384521,0.262635
-508.666992,564.239502,671.447754,0.263375
-504.913330,561.401367,671.722412,0.264115
-503.906250,564.788818,662.933350,0.264855
-506.561279,565.612793,671.997070,0.265596
-512.420654,562.225342,671.722412,0.266336
-507.385254,565.246582,668.701172,0.267085
-508.666992,563.781738,673.004150,0.267826
-509.857178,563.598633,677.124023,0.268566
-505.096436,566.711426,667.236328,0.269306
-508.666992,562.683105,675.109863,0.270049
-511.230469,563.415527,677.673340,0.270793
-509.216309,561.401367,671.356201,0.271532
-508.666992,563.507080,668.884277,0.272271
-516.174316,560.668945,670.715332,0.273010
-510.040283,565.612793,674.560547,0.273759
-511.596680,557.464600,668.426514,0.274498
-510.406494,561.767578,667.144775,0.275252
-509.216309,567.169189,665.863037,0.276023
-506.103516,561.950684,665.496826,0.276815
-513.519287,554.351807,671.630859,0.277578
-507.110596,552.520752,670.257568,0.278320
-507.476807,554.718018,670.623779,0.279091
-504.913330,560.852051,673.645020,0.279830
-506.195068,557.464600,672.912598,0.280569
-504.638672,561.676025,671.081543,0.281307
-511.871338,566.711426,677.398682,0.282053
-511.230469,557.373047,673.461914,0.282792
-511.047363,553.894043,664.947510,0.283530
-512.512207,559.478760,676.300049,0.284277
-508.392334,552.246094,666.961670,0.285057
-501.800537,555.175781,670.440674,0.285817
-502.532959,561.767578,667.327881,0.286564
-505.828857,546.569824,664.489746,0.287304
-511.688232,550.048828,675.292969,0.288063
-505.096436,555.999756,673.095703,0.288800
-505.187988,560.028076,686.462402,0.289537
-508.117676,557.647705,671.173096,0.290300
-505.004883,547.760010,671.356201,0.291044
-507.385254,548.583984,676.116943,0.291783
-506.744385,549.957275,672.637939,0.292522
-502.349854,550.323486,670.440674,0.293260
-506.011963,553.344727,669.158936,0.293999
-502.990723,550.048828,664.306641,0.294738
-503.631592,551.513672,678.680420,0.295477
-505.462646,546.936035,664.672852,0.296216
-506.195068,548.675537,672.271729,0.296976
-503.906250,543.090820,672.363281,0.297715
-504.272461,546.386719,667.419434,0.298454
-506.195068,547.485352,671.722412,0.299195
-506.835938,548.675537,673.278809,0.299934
-507.843018,538.696289,666.961670,0.300673
-506.927490,542.724609,669.982910,0.301411
-507.019043,545.379639,668.975830,0.302150
-505.828857,554.901123,668.060303,0.302898
-505.554199,549.591064,670.166016,0.303689
-510.406494,548.217773,670.532227,0.304441
-510.223389,544.097900,670.806885,0.305201
-506.835938,552.337646,670.074463,0.305941
-501.892090,553.253174,669.799805,0.306681
-499.145508,545.104980,669.891357,0.307428
-508.117676,547.760010,663.482666,0.308184
-507.659912,538.421631,660.095215,0.308928
-497.131348,543.640137,669.067383,0.309726
-499.877930,541.625977,669.891357,0.310501
-494.293213,539.245605,664.764404,0.311269
-510.864258,538.421631,659.271240,0.312058
-501.892090,543.273926,663.848877,0.312852
-500.061035,543.640137,667.694092,0.313617
-500.885010,557.830811,665.588379,0.314374
-500.518799,544.555664,660.644531,0.315113
-498.779297,540.802002,664.031982,0.315846
-503.631592,541.076660,668.426514,0.316641
-499.694824,536.590576,663.665771,0.317396
-495.849609,538.513184,665.771484,0.318142
-499.511719,539.245605,661.193848,0.318892
-497.863770,541.625977,658.630371,0.319641
-501.708984,542.541504,662.841797,0.320386
-497.863770,542.907715,668.518066,0.321130
-501.342773,538.421631,669.158936,0.321875
-501.159668,548.217773,660.186768,0.322619
-498.229980,543.365479,666.778564,0.323362
-494.934082,534.118652,665.496826,0.324152
-503.448486,534.393311,664.581299,0.325005
-491.363525,541.717529,666.137695,0.325750
-498.596191,537.780762,668.334961,0.326492
-494.934082,522.857666,671.081543,0.327235
-498.138428,545.562744,668.334961,0.327989
-473.968506,543.914795,662.017822,0.328732
-492.919922,538.055420,664.489746,0.329474
-493.560791,543.640137,673.461914,0.330217
-493.835449,544.372559,666.961670,0.330960
-489.532471,544.281006,674.468994,0.331698
-469.665527,546.661377,669.158936,0.332431
-489.807129,542.999268,671.539307,0.333164
-492.095947,543.182373,663.940430,0.333957
-489.624023,545.288086,667.053223,0.334706
-491.271973,544.555664,670.166016,0.335450
-489.532471,544.921875,671.630859,0.336195
-486.968994,549.407959,673.004150,0.336953
-490.997314,550.231934,665.405273,0.337698
-493.194580,544.372559,670.806885,0.338437
-495.666504,535.675049,668.243408,0.339171
-487.426758,538.970947,675.201416,0.339838
-487.152100,533.752441,672.088623,0.340604
-486.053467,539.154053,664.398193,0.341350
-490.905762,533.843994,661.468506,0.342094
-486.694336,541.717529,661.193848,0.342849
-482.849121,540.252686,664.398193,0.343593
-488.433838,536.682129,668.701172,0.344338
-487.701416,537.963867,665.954590,0.345104
-483.032227,546.569824,670.623779,0.345891
-491.455078,534.393311,666.503906,0.346668
-486.145020,537.231445,669.616699,0.347418
-493.927002,536.773682,661.468506,0.348162
-488.800049,529.266357,658.905029,0.348927
-483.306885,531.555176,664.947510,0.349671
-484.405518,529.174805,661.285400,0.350504
-497.131348,538.970947,660.278320,0.351318
-489.074707,533.294678,662.292480,0.352074
-495.574951,529.174805,660.736084,0.352819
-489.166260,533.569336,663.299561,0.353563
-513.977051,527.709961,665.679932,0.354307
-490.814209,536.590576,657.806396,0.355052
-491.180420,534.759521,664.215088,0.355797
-498.138428,529.174805,662.109375,0.356541
-487.060547,521.301270,664.398193,0.357284
-487.884521,523.315430,672.363281,0.358027
-490.264893,533.020020,664.123535,0.358779
-498.229980,538.238525,666.687012,0.359513
-498.138428,531.372070,662.109375,0.360247
-497.772217,530.731201,665.405273,0.360984
-515.075684,538.055420,668.609619,0.361718
-494.934082,539.337158,667.968750,0.362483
-493.103027,533.294678,664.764404,0.363228
-494.110107,539.886475,666.320801,0.363973
-495.849609,528.991699,665.039062,0.364717
-511.230469,539.520264,667.236328,0.365471
-497.589111,541.534424,667.968750,0.366216
-505.004883,529.724121,662.384033,0.366960
-500.061035,529.724121,664.215088,0.367703
-501.434326,532.562256,667.968750,0.368457
-503.173828,526.336670,670.806885,0.369217
-506.652832,532.836914,668.701172,0.369966
-502.990723,531.463623,663.757324,0.370714
-496.215820,530.181885,665.313721,0.371458
-497.222900,532.562256,668.975830,0.372202
-500.701904,525.695801,669.616699,0.372946
-503.723145,519.378662,661.651611,0.373690
-506.286621,526.336670,669.158936,0.374484
-499.603271,523.498535,661.834717,0.375231
-500.793457,531.280518,672.180176,0.375975
-500.061035,530.364990,665.313721,0.376710
-497.589111,533.386230,667.419434,0.377444
-502.258301,530.822754,665.863037,0.378177
-500.976562,531.555176,662.109375,0.378910
-504.364014,529.998779,671.447754,0.379645
-504.089355,528.533936,672.821045,0.380379
-500.976562,534.210205,665.679932,0.381112
-499.511719,538.970947,666.687012,0.381846
-507.843018,532.470703,665.039062,0.382583
-500.793457,543.365479,667.877197,0.383317
-502.624512,540.344238,670.623779,0.384051
-503.631592,535.217285,670.623779,0.384784
-507.843018,543.731689,675.476074,0.385521
-501.251221,538.696289,670.349121,0.386265
-501.708984,537.597656,665.679932,0.387009
-499.603271,546.295166,675.842285,0.387753
-500.793457,539.703369,673.645020,0.388506
-502.349854,542.358398,664.764404,0.389250
-504.089355,538.330078,668.060303,0.389995
-502.716064,537.963867,667.968750,0.390739
-496.948242,539.337158,675.567627,0.391483
-500.976562,538.330078,677.764893,0.392227
-500.061035,542.816162,674.560547,0.392987
-497.955322,539.245605,669.708252,0.393732
-497.863770,546.203613,666.595459,0.394486
-495.391846,542.999268,663.757324,0.395283
-497.772217,541.442871,666.229248,0.396123
-494.018555,544.189453,673.736572,0.396869
-497.131348,539.428711,663.024902,0.397643
-500.701904,545.654297,659.271240,0.398392
-500.518799,545.379639,669.982910,0.399136
-500.427246,543.365479,664.947510,0.399880
-494.750977,536.773682,673.370361,0.400637
-494.293213,542.358398,678.955078,0.401381
-492.553711,551.788330,680.145264,0.402125
-494.567871,539.611816,673.187256,0.402869
-500.793457,538.513184,665.130615,0.403542
-497.497559,550.964355,672.454834,0.404287
-489.166260,545.013428,676.391602,0.405031
-492.828369,545.471191,668.518066,0.405775
-492.370605,547.393799,666.320801,0.406519
-492.095947,548.309326,669.982910,0.407252
-494.567871,546.844482,678.863525,0.407985
-491.271973,547.302246,676.025391,0.408718
-488.525391,547.302246,677.490234,0.409478
-486.785889,553.619385,672.912598,0.410222
-495.941162,548.034668,673.278809,0.410966
-493.377686,544.097900,674.926758,0.411710
-490.997314,545.379639,671.813965,0.412464
-492.736816,547.668457,669.799805,0.413221
-493.927002,543.457031,662.384033,0.413968
-490.264893,548.126221,670.715332,0.414712
-498.413086,542.907715,666.870117,0.415467
-470.031738,552.429199,671.447754,0.416214
-488.983154,554.809570,672.454834,0.416977
-490.173340,550.598145,672.729492,0.417728
-484.039307,553.344727,675.750732,0.418505
-490.264893,550.140381,672.729492,0.419256
-489.349365,553.802490,668.792725,0.420000
-488.616943,552.703857,670.257568,0.420780
-485.778809,545.837402,678.680420,0.421541
-501.983643,544.372559,671.539307,0.422285
-490.631104,549.407959,665.954590,0.423030
-490.539551,549.865723,669.067383,0.423774
-490.356445,552.795410,669.708252,0.424578
-489.807129,556.549072,672.088623,0.425355
-499.603271,550.323486,667.144775,0.426108
-513.885498,560.852051,674.102783,0.426853
-496.582031,561.767578,677.581787,0.427592
-495.025635,560.302734,678.680420,0.428331
-494.201660,560.668945,672.912598,0.429070
-495.025635,561.218262,674.011230,0.429807
-496.582031,557.373047,668.884277,0.430543
-502.807617,550.598145,665.039062,0.431280
-493.927002,554.077148,668.426514,0.432047
-503.631592,545.288086,665.954590,0.432795
-501.800537,551.422119,663.757324,0.433538
-500.335693,549.591064,663.208008,0.434286
-495.574951,548.400879,672.454834,0.435027
-496.215820,553.619385,672.271729,0.435768
-496.856689,551.605225,671.997070,0.436509
-500.427246,547.119141,667.327881,0.437250
-498.687744,554.443359,674.011230,0.437990
-501.708984,547.027588,668.792725,0.438731
-497.589111,549.133301,671.173096,0.439472
-501.892090,547.576904,666.687012,0.440212
-505.371094,537.963867,664.764404,0.440971
-505.096436,543.273926,663.574219,0.441712
-506.195068,542.175293,663.299561,0.442452
-506.927490,545.013428,665.313721,0.443193
-505.004883,548.767090,664.947510,0.443934
-507.385254,538.787842,659.454346,0.444674
-501.800537,541.717529,663.391113,0.445417
-504.547119,554.077148,662.017822,0.446159
-503.265381,550.048828,662.841797,0.446912
-503.265381,553.161621,668.518066,0.447653
-504.638672,547.485352,661.193848,0.448394
-498.870850,547.119141,670.257568,0.449135
-501.434326,550.140381,663.299561,0.449886
-502.166748,555.725098,662.200928,0.450627
-498.138428,546.661377,656.616211,0.451368
-502.990723,549.041748,669.158936,0.452109
-502.166748,557.098389,669.891357,0.452858
-494.384766,548.858643,672.271729,0.453599
-499.603271,548.126221,663.848877,0.454339
-504.638672,548.400879,665.130615,0.455080
-502.532959,555.358887,667.236328,0.455821
-501.342773,555.725098,668.426514,0.456561
-501.983643,557.830811,673.187256,0.457301
-502.349854,550.140381,666.687012,0.458041
-504.547119,547.943115,664.215088,0.458782
-506.103516,554.077148,667.327881,0.459522
-500.152588,553.802490,671.905518,0.460263
-499.328613,553.619385,665.496826,0.461003
-505.554199,557.006836,666.137695,0.461752
-502.624512,550.048828,669.158936,0.462493
-500.701904,549.682617,661.560059,0.463233
-499.786377,543.457031,667.419434,0.463973
-499.603271,550.415039,664.947510,0.464722
-495.574951,553.070068,668.426514,0.465463
-495.666504,548.583984,671.081543,0.466203
-498.687744,556.915283,672.546387,0.466944
-495.117188,561.035156,669.067383,0.467805
-496.215820,548.309326,664.947510,0.468546
-495.208740,556.823730,667.510986,0.469287
-499.237061,555.908203,665.679932,0.470027
-499.786377,548.583984,669.158936,0.470777
-494.293213,551.879883,668.060303,0.471517
-496.398926,550.689697,670.989990,0.472260
-494.293213,552.062988,672.180176,0.473002
-493.103027,555.541992,664.031982,0.473757
-497.955322,555.999756,670.349121,0.474500
-499.877930,559.936523,671.539307,0.475242
-502.349854,555.084229,669.525146,0.475984
-501.251221,553.436279,670.898438,0.476725
-494.750977,554.534912,673.370361,0.477465
-500.244141,554.077148,675.109863,0.478205
-498.413086,546.020508,670.989990,0.478946
-501.434326,552.337646,664.581299,0.479690
-500.518799,556.823730,667.236328,0.480431
-498.504639,566.436768,677.307129,0.481172
-497.131348,559.570312,668.426514,0.481913
-506.011963,550.689697,672.546387,0.482678
-502.166748,567.169189,671.264648,0.483420
-500.061035,559.204102,671.722412,0.484160
-500.061035,561.035156,666.503906,0.484901
-498.687744,557.647705,679.779053,0.485642
-495.391846,556.091309,668.975830,0.486383
-499.053955,560.577393,673.461914,0.487125
-503.265381,562.408447,675.933838,0.487865
-496.765137,560.485840,666.870117,0.488672
-495.941162,559.204102,671.264648,0.489426
-504.364014,564.514160,673.278809,0.490174
-506.835938,564.971924,667.602539,0.490915
-502.990723,564.147949,670.898438,0.491684
-492.370605,565.704346,676.757812,0.492427
-497.955322,561.767578,673.553467,0.493163
-491.455078,568.817139,675.292969,0.493909
-495.758057,559.112549,663.574219,0.494690
-499.053955,559.204102,673.095703,0.495440
-496.398926,559.020996,675.201416,0.496190
-495.666504,563.598633,678.588867,0.496936
-503.082275,555.084229,675.292969,0.497693
-499.145508,554.534912,671.539307,0.498433
-499.328613,561.309814,674.835205,0.499171
-499.786377,558.013916,677.490234,0.499910
-496.856689,557.464600,676.208496,0.500657
-498.779297,555.358887,671.081543,0.501396
-503.906250,554.351807,668.609619,0.502135
-497.497559,549.316406,673.095703,0.502873
-497.589111,552.612305,665.679932,0.503624
-487.518311,554.260254,671.813965,0.504364
-496.124268,548.767090,675.018311,0.505106
-498.504639,553.527832,671.722412,0.505845
-492.828369,553.527832,669.525146,0.506593
-497.406006,547.760010,665.863037,0.507337
-497.039795,551.788330,666.961670,0.508094
-493.927002,546.569824,668.243408,0.508848
-493.377686,548.583984,668.518066,0.509585
-497.863770,550.506592,665.130615,0.510321
-496.307373,552.337646,670.806885,0.511057
-498.046875,556.457520,665.863037,0.511814
-505.737305,543.731689,671.539307,0.512563
-493.469238,538.970947,665.863037,0.513310
-501.251221,544.189453,670.715332,0.514060
-496.673584,553.344727,668.151855,0.514816
-498.229980,547.027588,674.652100,0.515553
-496.032715,544.372559,668.884277,0.516289
-497.314453,539.245605,671.539307,0.517037
-496.948242,541.717529,657.440186,0.517784
-488.616943,546.295166,660.369873,0.518484
-491.912842,547.119141,662.384033,0.519224
-495.483398,543.273926,665.039062,0.519963
-493.927002,535.400391,668.334961,0.520702
-492.919922,546.295166,662.017822,0.521441
-492.004395,549.499512,663.665771,0.522180
-496.856689,551.055908,666.412354,0.522920
-496.398926,547.668457,661.010742,0.523659
-492.919922,540.893555,668.792725,0.524398
-495.025635,538.513184,664.581299,0.525137
-492.736816,544.464111,671.997070,0.525876
-497.955322,538.879395,670.166016,0.526647
-497.222900,550.323486,670.074463,0.527395
-493.927002,546.203613,668.792725,0.528134
-500.061035,543.457031,670.440674,0.528873
-500.244141,547.302246,669.067383,0.529612
-497.314453,546.936035,666.595459,0.530352
-499.237061,545.745850,668.426514,0.531091
-499.603271,539.062500,663.208008,0.531830
-497.772217,544.647217,671.722412,0.532569
-500.885010,542.358398,667.053223,0.533310
-494.201660,537.872314,663.574219,0.534049
-500.518799,546.569824,663.024902,0.534800
-495.758057,539.794922,665.222168,0.535541
-494.384766,534.301758,667.785645,0.536280
-495.758057,533.935547,665.588379,0.537019
-494.659424,538.055420,669.525146,0.537758
-497.955322,540.710449,661.926270,0.538583
-500.152588,533.935547,667.236328,0.539340
-495.666504,531.829834,662.567139,0.540079
-493.286133,537.597656,671.356201,0.540818
-495.758057,536.041260,669.250488,0.541557
-497.772217,535.491943,669.891357,0.542306
-494.110107,538.330078,666.595459,0.543045
-497.131348,539.794922,674.926758,0.543784
-502.258301,538.513184,672.180176,0.544523
-497.680664,538.330078,669.799805,0.545260
-496.673584,532.562256,668.518066,0.545997
-490.539551,534.667969,669.067383,0.546733
-490.722656,517.364502,669.158936,0.547480
-497.589111,537.872314,672.912598,0.548238
-500.152588,539.428711,664.581299,0.548987
-495.574951,536.499023,663.940430,0.549736
-495.666504,532.470703,670.898438,0.550342
-497.680664,536.499023,671.264648,0.551100
-488.342285,532.745361,662.933350,0.551847
-490.356445,532.104492,666.595459,0.552594
-493.835449,529.357910,670.806885,0.553342
-495.941162,529.907227,678.680420,0.554091
-492.462158,532.196045,667.419434,0.554831
-486.145020,528.350830,663.665771,0.555582
-492.095947,533.843994,664.306641,0.556332
-494.384766,532.745361,669.342041,0.557079
-486.602783,540.527344,673.004150,0.557830
-492.370605,520.568848,664.398193,0.558579
-486.877441,531.463623,665.405273,0.559348
-491.821289,538.879395,668.701172,0.560089
-487.060547,535.308838,668.426514,0.560828
-490.447998,531.555176,670.989990,0.561566
-488.342285,537.048340,667.053223,0.562313
-493.743896,533.294678,676.849365,0.563076
-500.518799,528.442383,670.623779,0.563835
-501.251221,532.928467,670.715332,0.564581
-494.567871,526.519775,672.729492,0.565350
-494.659424,536.224365,663.757324,0.566092
-485.412598,537.689209,666.961670,0.566832
-487.518311,534.118652,666.046143,0.567571
-494.750977,536.315918,671.997070,0.568320
-490.264893,536.865234,667.602539,0.569067
-494.659424,541.442871,659.362793,0.569811
-493.652344,536.224365,663.208008,0.570551
-493.560791,529.174805,658.905029,0.571290
-499.603271,537.689209,668.975830,0.572029
-498.413086,534.942627,672.363281,0.572773
-496.215820,542.907715,672.912598,0.573513
-492.919922,538.146973,666.503906,0.574252
-489.532471,538.238525,670.989990,0.574993
-495.300293,540.344238,668.426514,0.575732
-491.912842,541.809082,671.081543,0.576486
-486.419678,535.858154,666.503906,0.577227
-493.927002,519.012451,675.201416,0.577966
-492.919922,540.435791,668.701172,0.578706
-495.758057,543.914795,672.088623,0.579453
-493.194580,538.787842,667.327881,0.580190
-494.384766,532.836914,670.898438,0.580927
-497.222900,541.534424,664.855957,0.581674
-497.314453,537.689209,669.982910,0.582431
-494.567871,538.970947,673.645020,0.583173
-489.807129,541.168213,674.743652,0.583912
-500.701904,540.161133,666.778564,0.584650
-503.448486,538.513184,670.898438,0.585389
-503.356934,544.830322,665.039062,0.586128
-500.518799,539.245605,670.440674,0.586867
-500.335693,532.470703,668.060303,0.587606
-507.293701,529.907227,664.031982,0.588344
-506.652832,528.076172,663.665771,0.589083
-493.835449,534.118652,663.391113,0.589822
-496.032715,531.921387,666.870117,0.590571
-504.180908,529.083252,666.320801,0.591323
-504.821777,526.153564,658.905029,0.592063
-507.843018,527.984619,657.165527,0.592802
-492.828369,530.181885,658.538818,0.593541
-501.525879,527.252197,662.292480,0.594289
-503.448486,528.808594,664.764404,0.595029
-498.321533,530.273438,662.200928,0.595767
-503.356934,525.878906,666.503906,0.596506
-507.385254,531.829834,663.757324,0.597255
-502.258301,533.111572,670.989990,0.597995
-505.554199,532.928467,665.222168,0.598734
-511.413574,528.442383,663.757324,0.599473
-509.765625,534.667969,665.863037,0.600221
-505.187988,536.865234,661.834717,0.600960
-504.272461,528.533936,671.356201,0.601699
-503.540039,524.139404,670.989990,0.602438
-504.730225,527.801514,673.736572,0.603187
-500.244141,529.907227,676.116943,0.603926
-498.138428,534.942627,673.187256,0.604665
-497.863770,528.717041,670.166016,0.605404
-501.342773,532.104492,666.412354,0.606143
-504.638672,537.139893,674.285889,0.606882
-502.532959,531.372070,670.074463,0.607620
-501.068115,529.449463,670.532227,0.608359
-502.166748,532.836914,671.722412,0.609197
-506.835938,536.682129,666.320801,0.609936
-505.554199,534.393311,671.173096,0.610675
-504.272461,536.682129,666.687012,0.611414
-501.251221,529.083252,667.144775,0.612162
-498.321533,530.273438,661.834717,0.612902
-497.772217,533.843994,664.123535,0.613642
-496.582031,545.288086,665.954590,0.614384
-494.384766,530.639648,659.088135,0.615153
-497.406006,527.435303,664.672852,0.615901
-505.371094,529.541016,658.447266,0.616640
-503.814697,530.731201,675.567627,0.617378
-494.476318,530.822754,669.891357,0.618133
-496.582031,528.350830,661.010742,0.618872
-503.631592,538.696289,665.679932,0.619613
-501.617432,537.597656,670.806885,0.620356
-503.540039,547.851562,666.778564,0.621113
-498.962402,533.477783,671.630859,0.621850
-504.089355,532.836914,665.588379,0.622604
-503.540039,536.682129,659.912109,0.623344
-506.469727,534.027100,665.679932,0.624092
-511.138916,538.330078,666.320801,0.624840
-507.476807,539.337158,668.975830,0.625592
-508.483887,542.449951,668.426514,0.626331
-506.286621,518.188477,669.708252,0.627079
-507.293701,536.499023,670.898438,0.627816
-500.427246,542.633057,667.236328,0.628553
-503.906250,545.837402,668.975830,0.629296
-510.864258,552.337646,663.482666,0.630065
-508.392334,546.661377,668.792725,0.630815
-502.532959,551.696777,669.250488,0.631563
-501.251221,547.668457,673.553467,0.632313
-505.187988,538.513184,674.560547,0.633053
-513.244629,542.449951,668.975830,0.633792
-508.117676,541.992188,670.623779,0.634532
-503.448486,538.238525,671.264648,0.635271
-500.427246,541.534424,671.813965,0.636027
-508.666992,537.322998,673.187256,0.636768
-512.420654,536.315918,669.433594,0.637522
-508.117676,539.794922,671.356201,0.638309
-508.209229,545.928955,664.306641,0.639095
-503.265381,542.907715,661.834717,0.639858
-509.582520,537.414551,660.552979,0.640666
-509.490967,539.703369,668.884277,0.641466
-508.666992,536.865234,667.877197,0.642233
-510.589600,552.703857,665.588379,0.642999
-506.378174,540.161133,668.334961,0.643795
-511.962891,545.288086,666.870117,0.644564
-511.688232,535.308838,662.475586,0.645318
-500.885010,538.146973,657.440186,0.646132
-510.864258,547.576904,659.271240,0.646887
-510.314941,547.943115,668.060303,0.647634
-508.026123,554.534912,669.616699,0.648383
-504.638672,546.203613,665.222168,0.649160
-508.941650,547.943115,663.940430,0.649947
-509.124756,540.893555,667.877197,0.650687
-508.026123,545.654297,671.447754,0.651441
-507.293701,542.907715,666.595459,0.652173
-506.744385,549.041748,661.743164,0.652905
-509.857178,546.478271,672.729492,0.653636
-507.476807,548.309326,662.567139,0.654368
-511.688232,545.471191,667.694092,0.655101
-506.103516,539.978027,666.687012,0.655831
-500.518799,544.830322,660.003662,0.656562
-499.053955,552.612305,659.912109,0.657292
-505.645752,542.358398,655.975342,0.658033
-510.314941,541.717529,662.475586,0.658764
-508.758545,545.196533,663.116455,0.659496
-510.864258,546.295166,666.137695,0.660227
-510.406494,552.795410,671.447754,0.661043
-503.814697,553.802490,672.821045,0.661775
-501.617432,547.851562,666.687012,0.662505
-508.117676,557.281494,668.334961,0.663235
-503.906250,548.217773,669.250488,0.663978
-504.089355,550.048828,665.954590,0.664708
-500.976562,549.224854,669.158936,0.665439
-504.547119,553.802490,667.877197,0.666169
-506.744385,547.943115,670.898438,0.666910
-496.948242,551.788330,662.017822,0.667642
-499.786377,546.844482,670.898438,0.668372
-498.504639,546.203613,668.060303,0.669103
-505.828857,545.196533,661.651611,0.669849
-505.004883,543.365479,662.567139,0.670580
-506.011963,549.407959,668.884277,0.671310
-505.279541,554.168701,662.933350,0.672041
-505.096436,544.738770,666.687012,0.672783
-507.751465,542.633057,667.144775,0.673514
-499.969482,544.372559,669.250488,0.674244
-505.279541,546.295166,671.630859,0.674974
-504.547119,550.598145,666.595459,0.675714
-510.498047,544.281006,665.863037,0.676445
-507.476807,546.844482,673.278809,0.677175
-506.286621,548.583984,673.919678,0.677905
-508.758545,541.076660,669.250488,0.678646
-502.807617,542.358398,670.806885,0.679376
-508.941650,544.830322,674.743652,0.680198
-510.040283,538.604736,665.405273,0.680929
-506.469727,545.104980,664.031982,0.681688
-506.103516,544.921875,668.975830,0.682429
-503.173828,539.337158,668.243408,0.683169
-506.195068,537.689209,667.510986,0.683909
-510.040283,543.548584,664.215088,0.684662
-506.835938,536.590576,670.898438,0.685403
-503.723145,543.365479,667.877197,0.686144
-502.166748,548.217773,666.412354,0.686883
-504.638672,547.485352,664.764404,0.687638
-503.540039,540.161133,665.313721,0.688377
-502.624512,546.936035,669.525146,0.689114
-505.187988,543.090820,670.349121,0.689872
-500.793457,535.217285,673.187256,0.690628
-500.976562,543.090820,670.989990,0.691370
-498.321533,546.112061,670.806885,0.692111
-497.863770,540.527344,669.433594,0.692851
-497.955322,544.097900,662.841797,0.693606
-502.716064,544.006348,659.729004,0.694348
-503.997803,538.238525,663.940430,0.695087
-498.321533,538.421631,665.222168,0.695827
-495.574951,535.858154,662.109375,0.696578
-499.786377,527.435303,661.010742,0.697318
-497.131348,533.294678,658.813477,0.698057
-503.997803,532.562256,662.841797,0.698797
-492.004395,539.428711,662.384033,0.699561
-498.779297,538.513184,660.186768,0.700326
-498.138428,531.738281,667.510986,0.701074
-489.898682,537.322998,670.440674,0.701814
-495.849609,533.386230,662.841797,0.702579
-492.095947,516.448975,658.081055,0.703319
-501.068115,544.921875,659.179688,0.704059
-493.743896,539.245605,661.193848,0.704798
-494.750977,533.660889,667.419434,0.705548
-496.124268,534.027100,666.870117,0.706287
-497.039795,540.161133,661.834717,0.707026
-495.025635,535.675049,660.919189,0.707766
-498.962402,539.520264,665.039062,0.708518
-494.567871,527.160645,671.539307,0.709258
-495.849609,536.132812,664.764404,0.709997
-498.321533,537.231445,664.855957,0.710736
-496.490479,536.590576,669.525146,0.711490
-497.222900,540.344238,671.905518,0.712244
-493.469238,537.597656,667.510986,0.712997
-496.032715,530.273438,662.384033,0.713749
-493.286133,533.843994,662.384033,0.714500
-495.941162,516.632080,666.320801,0.715243
-487.518311,537.414551,670.532227,0.715986
-494.934082,543.365479,666.320801,0.716749
-496.673584,536.956787,663.757324,0.717494
-493.286133,538.421631,664.123535,0.718236
-491.729736,531.921387,666.595459,0.718976
-488.708496,543.182373,673.004150,0.719716
-489.440918,539.611816,677.398682,0.720456
-489.440918,535.583496,675.842285,0.721196
-493.652344,535.583496,671.356201,0.721935
-482.757568,535.491943,672.363281,0.722689
-489.715576,545.104980,665.863037,0.723430
-486.511230,543.273926,668.151855,0.724169
-490.447998,520.294189,665.405273,0.724908
-491.088867,544.281006,669.433594,0.725661
-491.180420,542.999268,675.476074,0.726402
-492.004395,541.168213,668.334961,0.727141
-481.292725,538.696289,673.278809,0.727881
-481.658936,542.907715,665.496826,0.728621
-482.208252,541.625977,661.468506,0.729361
-486.236572,545.471191,669.708252,0.730100
-489.349365,535.400391,661.010742,0.730840
-487.792969,538.513184,658.813477,0.731579
-492.095947,540.252686,666.595459,0.732320
-486.694336,541.076660,662.658691,0.733059
-485.229492,543.273926,666.320801,0.733799
-485.687256,542.999268,663.208008,0.734538
-490.173340,547.210693,656.890869,0.735277
-484.771729,550.689697,661.560059,0.736016
-486.602783,544.464111,661.102295,0.736755
-484.954834,547.393799,673.187256,0.737494
-479.278564,540.527344,666.137695,0.738234
-490.905762,545.654297,663.848877,0.738973
-488.800049,554.260254,666.137695,0.739712
-489.349365,551.696777,665.771484,0.740478
-484.588623,546.386719,669.616699,0.741219
-486.877441,549.499512,663.848877,0.741958
-489.898682,557.556152,662.841797,0.742697
-479.919434,551.330566,671.539307,0.743437
-479.644775,554.260254,673.828125,0.744176
-486.236572,555.725098,676.849365,0.744915
-487.335205,549.224854,662.567139,0.745655
-491.088867,549.591064,669.891357,0.746397
-487.518311,553.527832,665.771484,0.747143
-490.631104,557.830811,676.483154,0.747883
-485.687256,551.696777,677.947998,0.748623
-484.771729,549.041748,667.327881,0.749362
-487.335205,545.379639,666.961670,0.750112
-487.792969,554.260254,665.771484,0.750852
-485.229492,544.555664,674.285889,0.751684
-484.130859,545.654297,673.004150,0.752427
-488.983154,554.443359,671.356201,0.753167
-493.011475,555.908203,668.426514,0.753906
-479.370117,557.922363,668.426514,0.754645
-489.074707,555.725098,666.595459,0.755385
-493.652344,554.443359,670.898438,0.756125
-481.292725,560.943604,667.510986,0.756865
-482.208252,553.527832,666.961670,0.757604
-484.039307,558.654785,673.370361,0.758343
-489.532471,551.239014,664.855957,0.759083
-487.701416,559.020996,665.771484,0.759822
-486.236572,554.809570,667.785645,0.760561
-480.743408,553.894043,669.616699,0.761311
-487.792969,559.112549,647.460938,0.762052
-483.489990,561.767578,665.954590,0.762792
-484.130859,561.218262,676.025391,0.763531
-484.222412,558.837891,676.574707,0.764271
-488.433838,561.950684,668.884277,0.765011
-489.898682,559.112549,673.370361,0.765752
-490.264893,557.464600,681.701660,0.766492
-491.180420,558.288574,672.271729,0.767231
-492.370605,553.894043,674.926758,0.767971
-491.912842,562.133789,673.370361,0.768710
-485.412598,563.140869,670.257568,0.769450
-491.912842,561.950684,668.243408,0.770198
-487.701416,555.999756,664.489746,0.770938
-489.532471,554.901123,668.609619,0.771678
-489.166260,555.999756,669.891357,0.772417
-487.884521,561.126709,669.982910,0.773189
-495.574951,560.577393,672.546387,0.773967
-492.095947,558.105469,669.067383,0.774720
-493.652344,558.288574,670.715332,0.775485
-497.406006,554.260254,666.961670,0.776222
-500.061035,557.647705,670.623779,0.776967
-496.765137,562.866211,667.419434,0.777701
-493.927002,559.295654,666.229248,0.778442
-495.941162,557.647705,669.525146,0.779182
-496.032715,560.302734,669.433594,0.779925
-492.736816,556.457520,666.870117,0.780661
-489.624023,557.098389,669.708252,0.781409
-497.131348,560.852051,672.546387,0.782143
-479.736328,559.661865,669.891357,0.782873
-494.750977,556.640625,671.447754,0.783604
-493.743896,557.922363,666.320801,0.784335
-501.434326,560.852051,662.841797,0.785066
-501.342773,555.816650,665.771484,0.785797
-498.596191,556.549072,664.489746,0.786528
-497.772217,561.859131,664.489746,0.787267
-502.349854,558.013916,666.320801,0.788010
-498.413086,579.071045,670.532227,0.788752
-500.610352,561.950684,669.342041,0.789491
-499.877930,556.549072,667.236328,0.790231
-493.927002,564.971924,677.856445,0.790970
-495.300293,558.013916,667.602539,0.791709
-491.912842,560.668945,668.701172,0.792449
-493.011475,565.612793,674.835205,0.793188
-501.708984,554.992676,672.271729,0.793927
-499.694824,552.429199,667.968750,0.794667
-504.913330,556.549072,671.722412,0.795406
-502.349854,557.830811,670.898438,0.796169
-508.575439,548.950195,667.236328,0.796912
-508.209229,551.696777,672.088623,0.797652
-508.209229,554.260254,669.525146,0.798391
-501.342773,552.703857,665.588379,0.799131
-500.244141,551.422119,668.701172,0.799871
-500.244141,548.400879,668.609619,0.800610
-492.736816,553.436279,667.785645,0.801349
-499.969482,558.654785,666.870117,0.802100
-500.518799,556.091309,671.630859,0.802840
-502.441406,550.140381,667.968750,0.803580
-499.694824,545.471191,669.982910,0.804319
-505.737305,555.267334,662.017822,0.805059
-502.899170,548.217773,673.187256,0.805798
-498.687744,558.654785,679.870605,0.806538
-496.673584,549.224854,673.553467,0.807277
-497.131348,551.147461,663.024902,0.808017
-506.286621,546.752930,664.123535,0.808756
-500.244141,548.950195,667.144775,0.809495
-499.328613,551.788330,662.200928,0.810235
-504.455566,547.027588,668.975830,0.810984
-503.356934,543.823242,663.574219,0.811726
-503.540039,548.583984,659.454346,0.812466
-493.286133,543.182373,667.144775,0.813207
-501.159668,550.506592,670.166016,0.813957
-498.870850,548.858643,669.982910,0.814701
-497.406006,547.210693,670.440674,0.815440
-503.356934,550.689697,670.074463,0.816180
-503.540039,548.675537,671.081543,0.816919
-503.173828,547.576904,668.334961,0.817659
-498.596191,546.478271,669.342041,0.818399
-494.293213,543.457031,668.701172,0.819138
-495.391846,550.140381,670.074463,0.819896
-503.906250,550.781250,669.799805,0.820636
-499.603271,549.499512,666.320801,0.821376
-498.229980,548.126221,667.785645,0.822199
-500.701904,546.661377,663.665771,0.822960
-500.885010,549.591064,671.539307,0.823703
-494.201660,544.097900,671.081543,0.824442
-469.665527,550.231934,668.609619,0.825182
-495.849609,548.950195,667.053223,0.825921
-494.018555,550.231934,673.461914,0.826661
-493.560791,560.485840,671.264648,0.827400
-494.201660,550.140381,667.510986,0.828140
-498.138428,550.323486,666.229248,0.828879
-494.842529,554.534912,666.046143,0.829619
-489.440918,552.520752,665.222168,0.830358
-490.814209,554.351807,658.081055,0.831098
-486.877441,551.971436,661.010742,0.831839
-490.905762,545.379639,666.320801,0.832579
-489.624023,551.605225,668.334961,0.833318
-490.997314,549.957275,671.630859,0.834058
-496.124268,553.802490,662.017822,0.834815
-495.666504,542.083740,664.215088,0.835555
-496.398926,536.132812,674.102783,0.836294
-496.673584,550.231934,675.659180,0.837034
-498.596191,545.928955,682.250977,0.837783
-486.968994,543.548584,675.750732,0.838523
-492.553711,544.464111,667.053223,0.839263
-487.792969,543.182373,670.257568,0.840002
-491.638184,541.259766,662.017822,0.840743
-495.208740,536.956787,656.433105,0.841490
-488.983154,532.287598,654.327393,0.842229
-486.419678,538.970947,652.496338,0.842969
-492.462158,542.541504,644.348145,0.843744
-486.328125,540.893555,654.510498,0.844502
-484.039307,543.457031,654.968262,0.845255
-488.525391,552.612305,662.384033,0.846003
-484.039307,545.379639,668.151855,0.846775
-483.856201,546.386719,671.997070,0.847516
-487.426758,551.422119,682.708740,0.848257
-485.595703,553.710938,674.652100,0.848997
-483.489990,558.288574,680.877686,0.849754
-496.398926,559.295654,672.454834,0.850511
-497.589111,555.816650,675.750732,0.851258
-498.962402,558.471680,670.532227,0.852007
-492.828369,557.922363,664.398193,0.852773
-495.574951,549.407959,672.729492,0.853514
-493.377686,550.781250,674.194336,0.854254
-490.356445,544.372559,669.158936,0.854993
-489.624023,555.999756,662.750244,0.855746
-482.849121,549.499512,662.200928,0.856486
-488.433838,559.478760,669.891357,0.857226
-484.222412,553.894043,670.166016,0.857965
-489.898682,554.351807,668.060303,0.858712
-493.469238,544.555664,663.116455,0.859455
-497.589111,550.140381,661.743164,0.860195
-508.850098,546.936035,666.320801,0.860934
-501.068115,545.013428,666.320801,0.861685
-502.349854,543.457031,660.095215,0.862424
-503.265381,545.745850,656.433105,0.863164
-498.138428,547.027588,660.644531,0.863903
-493.286133,541.351318,660.003662,0.864653
-513.885498,541.900635,669.982910,0.865393
-496.582031,541.809082,668.243408,0.866133
-494.934082,540.527344,667.510986,0.866872
-494.110107,541.442871,661.010742,0.867621
-496.673584,541.259766,660.736084,0.868360
-494.934082,538.879395,672.546387,0.869099
-500.061035,544.189453,662.750244,0.869839
-505.462646,539.154053,660.827637,0.870588
-507.843018,536.499023,659.729004,0.871327
-507.019043,541.076660,657.440186,0.872066
-503.906250,541.625977,662.475586,0.872805
-499.786377,548.675537,662.933350,0.873554
-492.187500,540.618896,662.384033,0.874293
-490.264893,547.485352,668.060303,0.875033
-483.398438,548.034668,664.215088,0.875772
-484.497070,543.548584,670.166016,0.876521
-488.067627,539.978027,664.764404,0.877261
-487.335205,546.478271,671.081543,0.878001
-492.828369,550.598145,668.243408,0.878740
-494.476318,547.210693,666.503906,0.879490
-506.011963,544.738770,667.602539,0.880229
-509.216309,539.520264,673.553467,0.880969
-507.019043,545.654297,671.447754,0.881709
-505.004883,546.752930,669.342041,0.882458
-503.356934,539.245605,662.933350,0.883198
-491.729736,538.146973,666.870117,0.883938
-495.666504,539.794922,668.701172,0.884677
-485.961914,539.245605,667.510986,0.885426
-481.842041,537.048340,662.841797,0.886166
-493.286133,539.886475,668.701172,0.886905
-495.025635,536.865234,663.757324,0.887644
-495.300293,541.534424,647.644043,0.888393
-502.807617,538.238525,654.327393,0.889133
-496.307373,537.506104,658.264160,0.889873
-504.821777,541.809082,664.764404,0.890612
-494.842529,534.301758,669.250488,0.891367
-503.082275,542.724609,669.616699,0.892110
-495.483398,534.667969,673.187256,0.892946
-493.103027,536.956787,676.025391,0.893705
-491.180420,557.830811,671.447754,0.894445
-483.764648,543.548584,664.398193,0.895185
-485.321045,541.534424,665.039062,0.895925
-493.835449,539.154053,663.940430,0.896675
-488.525391,537.780762,655.792236,0.897415
-488.891602,535.858154,660.644531,0.898155
-498.779297,534.393311,660.095215,0.898894
-495.391846,539.703369,661.834717,0.899635
-488.342285,535.034180,661.102295,0.900374
-495.117188,538.330078,669.616699,0.901114
-498.321533,542.358398,670.349121,0.901853
-494.476318,542.358398,675.842285,0.902594
-492.279053,544.281006,672.912598,0.903334
-498.870850,559.020996,671.997070,0.904073
-495.574951,546.752930,675.109863,0.904813
-496.215820,534.576416,669.616699,0.905553
-503.265381,539.428711,667.236328,0.906292
-505.737305,534.942627,663.482666,0.907032
-491.088867,516.265869,668.792725,0.907771
-489.440918,536.499023,666.046143,0.908520
-493.560791,537.506104,666.503906,0.909259
-489.166260,535.949707,667.419434,0.909999
-492.279053,536.590576,659.545898,0.910738
-493.560791,541.351318,668.609619,0.911478
-494.842529,534.942627,658.172607,0.912217
-493.560791,543.731689,662.292480,0.912956
-491.638184,542.541504,676.940918,0.913696
-500.793457,543.273926,679.595947,0.914437
-501.525879,543.090820,673.828125,0.915208
-499.786377,546.203613,675.201416,0.915979
-498.779297,540.344238,671.173096,0.916730
-496.398926,543.090820,661.285400,0.917470
-490.539551,517.730713,663.848877,0.918209
-499.969482,540.985107,665.039062,0.918949
-470.947266,548.583984,660.827637,0.919688
-490.631104,542.541504,662.200928,0.920427
-496.490479,544.097900,666.870117,0.921207
-489.440918,538.055420,654.968262,0.921958
-489.624023,561.126709,664.764404,0.922707
-498.046875,546.112061,666.503906,0.923445
-498.321533,543.365479,657.623291,0.924186
-500.244141,540.527344,671.356201,0.924926
-501.434326,547.302246,664.764404,0.925666
-496.398926,549.316406,677.124023,0.926419
-490.081787,549.041748,673.278809,0.927159
-501.068115,549.957275,668.609619,0.927906
-500.701904,553.253174,660.461426,0.928648
-489.166260,553.710938,665.313721,0.929402
-492.462158,549.407959,664.947510,0.930146
-487.243652,541.717529,664.855957,0.930886
-496.582031,553.344727,666.961670,0.931625
-493.103027,547.302246,657.989502,0.932379
-491.546631,543.823242,660.278320,0.933119
-499.511719,545.379639,663.665771,0.933858
-491.912842,552.429199,665.588379,0.934598
-494.384766,548.583984,662.841797,0.935348
-500.335693,548.675537,670.166016,0.936088
-496.398926,549.499512,670.806885,0.936828
-490.631104,543.457031,669.708252,0.937567
-496.032715,550.872803,663.024902,0.938316
-505.004883,553.985596,667.144775,0.939055
-501.800537,546.752930,668.609619,0.939795
-500.610352,543.182373,675.201416,0.940534
-496.307373,546.844482,668.334961,0.941284
-497.680664,544.555664,667.694092,0.942023
-499.511719,539.520264,673.278809,0.942778
-492.370605,537.780762,662.292480,0.943544
-497.863770,542.266846,666.412354,0.944284
-492.828369,543.914795,674.194336,0.945026
-496.948242,547.760010,667.419434,0.945768
-498.779297,549.133301,661.834717,0.946521
-501.617432,542.266846,668.334961,0.947261
-489.898682,545.379639,671.997070,0.948012
-493.469238,556.457520,672.454834,0.948753
-487.243652,551.971436,667.510986,0.949503
-493.835449,547.576904,665.588379,0.950242
-514.251709,545.928955,667.510986,0.950982
-495.849609,549.407959,663.208008,0.951722
-492.645264,553.253174,663.940430,0.952471
-499.145508,551.422119,659.271240,0.953210
-487.792969,552.520752,659.637451,0.953950
-515.075684,551.696777,672.637939,0.954689
-500.701904,544.097900,667.694092,0.955438
-499.694824,556.732178,666.687012,0.956178
-493.835449,560.943604,665.679932,0.956927
-498.046875,540.985107,665.130615,0.957669
-497.772217,549.407959,667.236328,0.958420
-502.075195,554.901123,669.158936,0.959160
-500.152588,550.872803,669.158936,0.959899
-498.046875,553.161621,664.947510,0.960639
-503.356934,552.978516,665.039062,0.961389
-490.447998,551.788330,667.144775,0.962129
-491.546631,543.273926,663.940430,0.962868
-487.609863,549.041748,663.940430,0.963695
-493.835449,548.309326,666.046143,0.964448
-498.504639,550.689697,667.968750,0.965188
-502.441406,551.879883,663.757324,0.965928
-504.730225,543.457031,665.222168,0.966668
-507.476807,547.668457,662.933350,0.967417
-499.877930,548.858643,658.447266,0.968156
-504.821777,545.471191,661.376953,0.968896
-499.420166,543.914795,668.060303,0.969635
-498.046875,542.999268,668.518066,0.970389
-493.194580,550.415039,663.208008,0.971132
-493.652344,545.288086,663.391113,0.971871
-497.680664,545.562744,661.834717,0.972611
-503.265381,546.844482,669.067383,0.973361
-495.300293,550.415039,668.884277,0.974101
-495.666504,548.309326,666.503906,0.974841
-503.540039,551.879883,666.320801,0.975580
-500.244141,549.133301,662.200928,0.976330
-501.983643,547.119141,663.299561,0.977070
-501.159668,553.070068,666.961670,0.977810
-498.687744,544.281006,658.721924,0.978549
-498.779297,547.027588,658.996582,0.979298
-500.885010,548.583984,655.334473,0.980042
-505.737305,547.302246,665.863037,0.980783
-504.272461,547.851562,663.757324,0.981524
-506.378174,547.302246,663.940430,0.982273
-506.378174,538.513184,662.475586,0.983013
-506.561279,541.717529,663.299561,0.983753
-505.645752,549.316406,671.356201,0.984493
-502.441406,549.407959,666.503906,0.985265
-498.870850,552.062988,662.017822,0.986014
-495.574951,545.562744,665.222168,0.986764
-498.779297,550.689697,666.503906,0.987507
-502.349854,555.084229,671.722412,0.988272
-507.843018,543.731689,664.398193,0.989014
-499.053955,549.133301,665.222168,0.989753
-501.342773,556.182861,671.722412,0.990493
-502.716064,553.894043,662.841797,0.991248
-514.617920,552.612305,666.320801,0.991997
-506.927490,557.373047,662.200928,0.992767
-500.701904,551.055908,662.567139,0.993524
-508.209229,552.703857,658.355713,0.994270
-503.356934,556.823730,661.926270,0.995009
-502.441406,546.936035,663.940430,0.995749
-504.089355,555.358887,668.060303,0.996488
-511.138916,557.922363,659.912109,0.997225
-502.899170,562.133789,661.834717,0.997963
-502.716064,559.204102,665.039062,0.998711
-506.011963,559.936523,666.595459,0.999467
-506.469727,551.605225,666.046143,1.000205
-506.744385,553.253174,662.109375,1.000945
-501.708984,557.189941,665.863037,1.001689
-501.342773,548.400879,661.468506,1.002442
-506.011963,554.260254,664.581299,1.003182
-508.209229,551.605225,667.877197,1.003921
-508.117676,553.710938,666.778564,1.004661
-502.075195,552.429199,664.581299,1.005465
-505.187988,551.879883,663.757324,1.006233
-499.969482,554.901123,667.236328,1.006974
-502.990723,552.886963,667.694092,1.007714
-505.828857,555.725098,668.243408,1.008477
-509.399414,560.943604,667.694092,1.009216
-508.300781,558.837891,662.475586,1.009956
-502.624512,557.556152,667.968750,1.010701
-506.744385,552.886963,665.496826,1.011457
-507.110596,560.302734,666.046143,1.012197
-508.666992,558.013916,662.567139,1.012936
-504.547119,552.520752,665.863037,1.013676
-506.652832,552.703857,666.412354,1.014422
-508.941650,553.710938,664.764404,1.015161
-503.997803,554.351807,666.046143,1.015904
-503.723145,548.400879,664.398193,1.016643
-502.532959,559.295654,661.468506,1.017392
-503.173828,550.598145,661.834717,1.018132
-506.561279,548.492432,664.215088,1.018871
-501.708984,550.323486,666.595459,1.019610
-501.068115,546.386719,668.426514,1.020359
-501.434326,550.689697,665.039062,1.021098
-500.335693,545.562744,663.665771,1.021837
-498.046875,556.915283,668.334961,1.022576
-505.462646,552.154541,662.017822,1.023347
-501.983643,551.879883,662.658691,1.024089
-498.870850,555.358887,665.313721,1.024828
-499.969482,547.943115,664.947510,1.025567
-499.328613,558.654785,666.229248,1.026325
-499.877930,551.147461,662.750244,1.027064
-500.335693,551.422119,661.285400,1.027803
-495.208740,553.253174,669.891357,1.028542
-498.870850,555.999756,670.349121,1.029292
-494.659424,551.788330,670.623779,1.030031
-492.370605,551.788330,666.687012,1.030771
-493.377686,555.175781,665.039062,1.031509
-494.934082,551.971436,666.137695,1.032259
-496.765137,554.626465,665.130615,1.032998
-489.990234,577.514648,669.067383,1.033736
-478.271484,568.817139,666.687012,1.034475
-482.666016,554.718018,673.187256,1.035334
-497.222900,547.760010,689.941406,1.036075
-501.892090,538.421631,682.434082,1.036815
-516.265869,541.717529,675.567627,1.037553
-508.209229,547.302246,673.736572,1.038301
-505.371094,549.407959,665.954590,1.039038
-507.659912,549.957275,659.271240,1.039774
-508.850098,546.203613,661.193848,1.040531
-512.786865,534.027100,651.672363,1.041283
-512.786865,535.675049,635.009766,1.042022
-494.659424,534.118652,636.657715,1.042761
-489.349365,536.224365,638.397217,1.043500
-477.996826,549.499512,657.531738,1.044248
-468.292236,555.084229,656.341553,1.044987
-473.052979,558.837891,682.342529,1.045725
-482.208252,560.485840,689.117432,1.046465
-486.785889,550.506592,696.899414,1.047213
-491.912842,556.823730,694.335938,1.047953
-510.131836,551.513672,700.469971,1.048693
-515.075684,550.415039,687.469482,1.049432
-520.843506,546.569824,678.588867,1.050183
-518.096924,548.034668,680.236816,1.050922
-497.314453,545.654297,679.138184,1.051661
-502.807617,546.386719,665.771484,1.052400
-473.236084,550.048828,674.560547,1.053180
-452.911377,545.288086,672.180176,1.053967
-462.341309,552.703857,660.827637,1.054742
-470.214844,543.823242,647.644043,1.055482
-468.383789,531.738281,637.023926,1.056220
-493.011475,535.308838,628.417969,1.056959
-495.941162,525.695801,618.347168,1.057697
-510.131836,533.477783,617.980957,1.058442
-513.610840,522.583008,625.762939,1.059201
-501.708984,528.076172,628.234863,1.059949
-498.413086,538.055420,648.284912,1.060696
-476.074219,562.316895,661.651611,1.061437
-471.588135,546.203613,671.813965,1.062178
-460.693359,548.492432,688.659668,1.062919
-459.686279,550.598145,689.392090,1.063660
-481.201172,550.872803,690.399170,1.064398
-478.271484,551.513672,679.962158,1.065137
-492.828369,549.865723,678.680420,1.065876
-498.870850,551.055908,662.109375,1.066615
-499.328613,550.323486,661.102295,1.067352
-515.075684,546.569824,647.369385,1.068088
-502.624512,539.794922,659.088135,1.068837
-498.870850,551.513672,669.799805,1.069574
-487.609863,553.894043,664.764404,1.070305
-475.799561,559.661865,680.511475,1.071043
-477.996826,553.070068,679.138184,1.071787
-470.581055,558.746338,658.447266,1.072535
-486.419678,553.436279,678.955078,1.073266
-478.088379,552.337646,657.073975,1.073996
-489.074707,550.872803,658.172607,1.074728
-499.145508,545.288086,640.960693,1.075474
-504.730225,539.062500,638.488770,1.076204
-508.666992,550.964355,648.193359,1.076934
-504.272461,548.858643,653.778076,1.077664
-489.532471,550.415039,656.707764,1.078404
-485.504150,558.105469,669.799805,1.079143
-482.299805,552.886963,670.349121,1.079881
-482.025146,558.837891,680.419922,1.080620
-484.039307,545.104980,679.229736,1.081359
-485.778809,539.703369,680.236816,1.082097
-494.293213,552.246094,665.313721,1.082837
-494.293213,548.309326,656.616211,1.083576
-489.990234,541.625977,653.594971,1.084324
-494.293213,545.013428,653.869629,1.085063
-503.082275,548.034668,659.271240,1.085802
-498.138428,550.872803,660.186768,1.086541
-493.835449,546.936035,665.313721,1.087280
-488.800049,548.126221,664.764404,1.088019
-484.497070,550.964355,668.884277,1.088758
-484.130859,549.957275,672.821045,1.089496
-490.356445,545.745850,674.926758,1.090235
-496.032715,560.943604,648.468018,1.090974
-490.264893,538.055420,654.876709,1.091712
-492.736816,534.118652,658.172607,1.092451
-493.377686,539.520264,654.235840,1.093199
-496.948242,532.287598,637.756348,1.093938
-496.673584,536.865234,648.101807,1.094677
-492.828369,532.196045,643.981934,1.095416
-486.877441,534.210205,653.961182,1.096153
-482.757568,537.689209,662.841797,1.096894
-485.137939,539.978027,663.757324,1.097628
-479.187012,543.273926,668.792725,1.098359
-484.497070,547.576904,664.947510,1.099109
-488.525391,540.252686,663.024902,1.099839
-491.455078,537.597656,672.180176,1.100570
-489.166260,539.978027,667.510986,1.101301
-491.455078,541.992188,665.679932,1.102033
-492.187500,548.034668,653.869629,1.102764
-488.525391,543.914795,657.989502,1.103494
-485.870361,543.365479,655.792236,1.104225
-487.243652,538.513184,652.496338,1.104956
-480.926514,548.492432,662.658691,1.105773
-483.306885,539.062500,664.215088,1.106506
-476.715088,546.386719,662.200928,1.107236
-479.461670,533.477783,657.714844,1.107968
-479.003906,527.893066,658.538818,1.108698
-483.215332,532.470703,661.193848,1.109428
-478.179932,541.900635,656.524658,1.110158
-483.489990,540.985107,653.503418,1.110899
-481.658936,536.315918,658.721924,1.111629
-477.172852,538.055420,665.405273,1.112359
-479.553223,541.717529,663.391113,1.113089
-486.328125,537.963867,660.736084,1.113840
-480.468750,536.132812,653.686523,1.114579
-479.461670,537.689209,653.137207,1.115318
-473.693848,538.238525,651.855469,1.116057
-471.588135,539.245605,658.081055,1.116806
-481.475830,532.012939,653.503418,1.117544
-478.271484,533.386230,656.707764,1.118283
-474.334717,539.703369,658.447266,1.119022
-473.052979,562.042236,659.362793,1.119760
-476.806641,544.647217,658.081055,1.120499
-480.102539,533.935547,656.433105,1.121237
-475.799561,539.794922,676.483154,1.121976
-477.722168,541.351318,657.806396,1.122715
-483.032227,548.309326,656.524658,1.123454
-476.715088,550.598145,663.024902,1.124192
-473.144531,554.443359,663.574219,1.124931
-476.806641,547.851562,665.130615,1.125679
-478.088379,544.738770,663.940430,1.126415
-484.130859,550.231934,661.468506,1.127194
-479.644775,548.217773,651.123047,1.127949
-471.038818,546.936035,656.616211,1.128729
-472.778320,548.309326,652.679443,1.129485
-473.876953,551.055908,652.679443,1.130227
-481.292725,556.182861,659.820557,1.130967
-480.194092,553.527832,661.193848,1.131707
-480.926514,557.373047,662.200928,1.132447
-483.306885,555.358887,659.454346,1.133217
-489.807129,557.006836,663.574219,1.134024
-476.257324,553.710938,659.454346,1.134784
-475.524902,556.365967,661.193848,1.135532
-488.800049,558.471680,655.609131,1.136274
-492.828369,556.182861,657.989502,1.137017
-493.652344,561.218262,656.158447,1.137756
-486.053467,563.049316,661.010742,1.138496
-487.884521,561.767578,661.193848,1.139236
-487.976074,561.401367,659.545898,1.139975
-486.785889,567.810059,668.151855,1.140714
-477.996826,571.289062,668.518066,1.141455
-493.927002,568.634033,662.841797,1.142197
-493.286133,544.006348,665.588379,1.142937
-496.307373,565.704346,664.215088,1.143676
-495.483398,568.908691,661.193848,1.144415
-499.603271,576.690674,664.672852,1.145193
-505.187988,571.289062,665.863037,1.145944
-502.075195,563.140869,669.067383,1.146694
-508.941650,571.014404,661.376953,1.147435
-513.153076,567.718506,666.961670,1.148193
-510.589600,572.570801,668.792725,1.148934
-513.885498,576.873779,667.968750,1.149675
-514.526367,563.873291,666.961670,1.150416
-519.470215,568.267822,668.884277,1.151169
-517.272949,573.120117,672.180176,1.151911
-524.230957,563.690186,668.609619,1.152652
-530.914307,563.232422,669.433594,1.153393
-529.815674,569.366455,667.053223,1.154145
-528.533936,567.718506,669.799805,1.154886
-526.702881,568.542480,671.081543,1.155627
-522.033691,568.267822,671.081543,1.156368
-526.702881,572.021484,671.630859,1.157118
-527.709961,567.260742,670.532227,1.157859
-525.054932,552.154541,663.574219,1.158600
-537.048340,547.485352,664.764404,1.159341
-539.337158,549.224854,666.870117,1.160081
-538.513184,557.556152,661.010742,1.160811
-530.364990,555.358887,658.813477,1.161541
-522.583008,556.457520,661.376953,1.162272
-523.040771,563.323975,674.468994,1.163016
-529.907227,552.886963,664.489746,1.163746
-531.372070,546.112061,667.785645,1.164476
-539.520264,544.738770,663.024902,1.165206
-530.639648,551.513672,663.208008,1.165957
-539.611816,549.224854,666.412354,1.166697
-535.583496,560.577393,671.356201,1.167438
-535.308838,557.830811,665.863037,1.168180
-540.527344,552.703857,664.031982,1.168932
-535.675049,551.055908,671.630859,1.169672
-536.407471,554.534912,678.222656,1.170412
-540.435791,560.211182,677.764893,1.171151
-534.027100,555.725098,674.102783,1.171901
-529.357910,551.422119,670.989990,1.172641
-532.196045,564.605713,669.982910,1.173381
-529.449463,542.907715,665.679932,1.174121
-533.935547,555.450439,661.926270,1.174871
-531.097412,553.253174,676.391602,1.175612
-533.569336,550.048828,678.955078,1.176458
-536.956787,552.978516,695.251465,1.177216
-529.632568,567.901611,698.089600,1.177956
-526.519775,568.725586,697.814941,1.178695
-533.386230,569.732666,716.949463,1.179435
-549.133301,546.569824,722.717285,1.180185
-558.563232,546.020508,722.534180,1.180924
-568.084717,551.239014,727.386475,1.181664
-563.507080,561.035156,730.224609,1.182403
-564.147949,560.852051,734.161377,1.183143
-552.062988,565.155029,721.343994,1.183882
-550.781250,558.471680,715.667725,1.184622
-544.555664,554.077148,714.752197,1.185361
-535.308838,539.062500,716.949463,1.186101
-536.224365,559.936523,695.709229,1.186840
-505.096436,552.795410,699.096680,1.187579
-497.497559,563.598633,711.273193,1.188319
-499.420166,564.605713,709.808350,1.189058
-468.933105,579.162598,727.661133,1.189798
-471.771240,595.825195,740.203857,1.190538
-491.271973,602.874756,741.302490,1.191277
-500.152588,605.804443,748.718262,1.192016
-501.434326,603.881836,746.978760,1.192767
-500.335693,608.001709,745.513916,1.193506
-493.011475,614.410400,733.612061,1.194245
-484.405518,612.670898,730.133057,1.194984
-485.229492,615.142822,718.963623,1.195733
-483.856201,612.854004,714.752197,1.196473
-471.771240,616.607666,712.371826,1.197226
-445.953369,619.903564,715.118408,1.197997
-465.637207,624.114990,739.013672,1.198766
-466.003418,629.791260,748.260498,1.199514
-461.334229,632.995605,766.113281,1.200253
-472.961426,629.608154,780.303955,1.200996
-474.609375,634.552002,772.247314,1.201735
-496.124268,623.748779,767.395020,1.202526
-494.293213,619.537354,760.528564,1.203290
-507.751465,612.579346,747.802734,1.204094
-488.342285,607.360840,713.928223,1.204848
-486.602783,606.262207,698.089600,1.205592
-465.362549,593.261719,689.483643,1.206359
-457.489014,591.064453,682.067871,1.207103
-443.664551,564.056396,670.623779,1.207847
-433.685303,579.071045,666.229248,1.208590
-445.587158,565.063477,665.863037,1.209334
-442.932129,565.338135,662.200928,1.210077
-457.763672,559.753418,671.813965,1.210821
-467.742920,551.055908,668.884277,1.211565
-481.842041,544.830322,674.011230,1.212333
-499.237061,529.998779,665.039062,1.213087
-503.356934,537.689209,675.109863,1.213833
-505.187988,528.808594,672.729492,1.214578
-507.843018,526.062012,682.708740,1.215342
-502.899170,528.259277,688.201904,1.216086
-493.743896,520.477295,679.138184,1.216829
-477.905273,506.011963,676.574707,1.217574
-486.968994,493.743896,670.532227,1.218317
-493.835449,483.306885,656.707764,1.219061
-492.004395,479.919434,639.587402,1.219804
-500.244141,478.179932,640.594482,1.220547
-503.723145,467.742920,635.284424,1.221287
-506.011963,474.517822,632.171631,1.222020
-515.075684,467.926025,640.686035,1.222753
-516.632080,489.257812,648.742676,1.223487
-525.054932,470.306396,647.552490,1.224223
-511.322021,487.335205,658.172607,1.224966
-511.962891,480.834961,694.335938,1.225709
-508.758545,489.074707,691.589355,1.226452
-496.856689,483.306885,693.878174,1.227195
-483.673096,486.602783,697.540283,1.227939
-486.511230,491.912842,690.856934,1.228683
-482.116699,493.927002,672.363281,1.229427
-469.848633,498.870850,668.518066,1.230186
-465.270996,504.730225,668.701172,1.230921
-460.510254,498.779297,666.412354,1.231654
-463.073730,503.265381,674.926758,1.232387
-451.538086,508.117676,697.540283,1.233123
-460.693359,519.287109,684.448242,1.233857
-454.559326,521.209717,702.301025,1.234590
-457.214355,535.949707,709.350586,1.235323
-451.995850,545.013428,726.837158,1.236056
-459.777832,544.097900,740.203857,1.236822
-465.820312,553.344727,750.732422,1.237566
-454.742432,566.162109,755.310059,1.238310
-465.270996,560.394287,760.620117,1.239053
-478.729248,546.386719,781.402588,1.239807
-483.306885,550.140381,781.677246,1.240569
-491.180420,542.541504,780.029297,1.241313
-498.962402,532.836914,783.874512,1.242067
-505.737305,527.801514,795.135498,1.242811
-500.518799,528.259277,792.388916,1.243554
-485.229492,537.139893,798.248291,1.244298
-477.539062,533.294678,812.896729,1.245042
-463.165283,525.238037,819.488525,1.245802
-462.432861,527.801514,822.052002,1.246546
-442.016602,527.618408,829.650879,1.247373
-444.305420,524.230957,804.107666,1.248132
-436.248779,524.505615,817.840576,1.248876
-432.586670,529.449463,818.298340,1.249620
-438.354492,536.041260,820.770264,1.250364
-457.031250,522.857666,819.030762,1.251118
-459.503174,521.026611,810.241699,1.251862
-475.616455,515.350342,810.516357,1.252605
-482.482910,519.561768,808.502197,1.253348
-486.785889,520.019531,805.755615,1.254091
-499.328613,502.166748,808.135986,1.254824
-491.912842,500.976562,808.776855,1.255557
-489.898682,496.215820,794.952393,1.256290
-482.940674,499.145508,803.649902,1.257047
-481.201172,475.708008,803.558350,1.257791
-472.961426,471.313477,800.262451,1.258555
-461.975098,460.418701,797.332764,1.259302
-463.073730,440.185547,796.875000,1.260057
-474.334717,438.720703,793.395996,1.260800
-467.193604,430.664062,790.924072,1.261593
-485.687256,425.170898,792.205811,1.262368
-470.581055,416.381836,790.557861,1.263114
-488.067627,405.212402,792.480469,1.263858
-501.525879,394.409180,796.600342,1.264601
-498.962402,456.298828,792.480469,1.265345
-505.828857,461.608887,796.051025,1.266089
-488.525391,459.045410,818.756104,1.266833
-516.815186,452.636719,854.278564,1.267576
-574.951172,413.726807,854.095459,1.268344
-559.387207,422.149658,843.200684,1.269094
-548.126221,397.705078,840.270996,1.269848
-495.208740,431.854248,833.312988,1.270602
-463.531494,419.952393,826.080322,1.271339
-483.489990,456.848145,795.043945,1.272072
-349.822998,485.046387,787.078857,1.272805
-301.208496,453.826904,765.747070,1.273538
-409.332275,403.564453,755.676270,1.274367
-407.867432,372.436523,735.076904,1.275127
-507.293701,359.985352,712.188721,1.275931
-458.862305,354.400635,719.421387,1.276710
-485.595703,384.887695,714.385986,1.277454
-550.323486,386.901855,714.019775,1.278196
-549.407959,399.627686,714.202881,1.278939
-578.521729,402.191162,726.928711,1.279694
-626.037598,400.360107,725.555420,1.280438
-624.389648,395.965576,711.547852,1.281182
-601.409912,394.134521,708.526611,1.281925
-581.726074,391.571045,693.695068,1.282660
-560.485840,402.740479,665.313721,1.283396
-498.046875,412.994385,668.701172,1.284130
-472.778320,423.156738,671.905518,1.284863
-444.122314,435.882568,679.687500,1.285626
-397.888184,451.538086,666.870117,1.286370
-384.704590,465.454102,662.567139,1.287114
-384.155273,484.313965,660.095215,1.287857
-386.627197,495.117188,643.066406,1.288601
-396.240234,494.384766,642.517090,1.289346
-430.938721,494.750977,655.059814,1.290089
-448.791504,491.271973,666.412354,1.290832
-491.821289,523.590088,702.117920,1.291627
-493.011475,549.682617,737.640381,1.292414
-492.919922,553.894043,752.471924,1.293169
-489.257812,562.042236,763.275146,1.293914
-491.363525,564.697266,773.620605,1.294657
-486.968994,554.718018,782.409668,1.295401
-476.989746,556.365967,782.775879,1.296144
-466.369629,565.704346,768.585205,1.296892
-434.417725,551.239014,763.916016,1.297638
-427.185059,560.852051,753.753662,1.298382
-414.733887,550.872803,738.739014,1.299125
-409.790039,552.062988,709.808350,1.299863
-385.711670,534.667969,698.364258,1.300599
-391.387939,527.252197,665.496826,1.301331
-405.761719,534.484863,658.447266,1.302064
-395.782471,531.646729,666.503906,1.302815
-394.683838,534.210205,687.194824,1.303560
-389.007568,546.844482,692.871094,1.304328
-375.274658,572.021484,682.250977,1.305079
-365.661621,565.246582,656.982422,1.305841
-382.415771,558.380127,644.805908,1.306585
-390.106201,537.689209,629.791260,1.307346
-400.817871,519.287109,611.572266,1.308105
-398.254395,516.265869,600.494385,1.308867
-398.620605,510.223389,595.733643,1.309611
-385.070801,521.850586,596.099854,1.310355
-376.739502,525.695801,613.037109,1.311098
-364.288330,533.386230,612.396240,1.311852
-345.611572,541.992188,591.888428,1.312596
-341.857910,540.252686,585.113525,1.313339
-347.259521,536.224365,573.577881,1.314083
-345.611572,522.491455,567.260742,1.314825
-362.731934,523.773193,556.823730,1.315559
-378.112793,512.237549,552.703857,1.316293
-376.647949,513.153076,545.196533,1.317026
-375.366211,495.025635,544.281006,1.317775
-375.457764,495.483398,544.921875,1.318510
-375.183105,459.228516,588.317871,1.319328
-354.217529,470.397949,649.291992,1.320062
-335.083008,470.123291,660.369873,1.320821
-305.145264,480.560303,678.863525,1.321564
-299.011230,480.010986,680.511475,1.322307
-289.123535,461.242676,678.131104,1.323050
-310.821533,436.065674,673.461914,1.323804
-322.631836,423.339844,674.926758,1.324548
-343.505859,433.319092,681.701660,1.325291
-298.004150,437.896729,683.898926,1.326034
-278.686523,440.917969,675.567627,1.326777
-306.427002,426.452637,649.108887,1.327510
-320.617676,413.818359,635.925293,1.328243
-314.025879,410.156250,633.453369,1.328977
-315.765381,402.099609,619.812012,1.329745
-311.187744,391.845703,620.635986,1.330489
-322.723389,382.965088,626.220703,1.331232
-299.011230,420.043945,610.107422,1.331975
-286.926270,403.656006,623.840332,1.332729
-297.363281,396.423340,626.037598,1.333472
-259.918213,405.487061,627.593994,1.334241
-246.459961,401.000977,629.333496,1.334997
-256.622314,401.367188,629.974365,1.335741
-258.087158,386.901855,631.988525,1.336484
-249.664307,393.493652,630.065918,1.337228
-246.368408,387.084961,622.467041,1.337972
-260.192871,400.085449,607.727051,1.338733
-247.833252,399.719238,588.409424,1.339490
-245.361328,397.430420,592.346191,1.340238
-241.699219,395.965576,587.585449,1.340984
-247.009277,391.937256,581.634521,1.341728
-223.754883,389.099121,578.521729,1.342503
-224.395752,384.796143,551.513672,1.343285
-229.431152,379.302979,518.829346,1.344032
-251.037598,376.556396,514.526367,1.344776
-256.622314,354.400635,502.441406,1.345520
-267.883301,345.703125,438.629150,1.346263
-57.586670,343.872070,272.003174,1.347007
-672.821045,309.997559,249.572754,1.347774
-488.616943,226.776123,345.062256,1.348558
-363.739014,227.050781,327.209473,1.349319
-514.251709,261.932373,388.000488,1.350157
-241.699219,283.905029,467.193604,1.350910
-141.540527,299.285889,522.583008,1.351653
-204.071045,310.272217,552.886963,1.352396
-144.470215,326.660156,596.923828,1.353139
-16.571045,325.286865,612.487793,1.353882
-52.551270,326.934814,623.657227,1.354624
-51.452637,330.871582,619.720459,1.355369
-8.148193,314.025879,617.431641,1.356139
-55.023193,304.595947,614.868164,1.356885
-69.946289,286.560059,572.204590,1.357628
-73.516846,273.010254,561.584473,1.358395
-133.666992,251.129150,549.133301,1.359139
-138.885498,253.509521,523.315430,1.359883
-137.786865,236.846924,517.364502,1.360644
-134.948730,212.127686,518.371582,1.361431
-146.392822,231.079102,517.181396,1.362191
-117.187500,228.424072,522.949219,1.362943
-123.870850,214.324951,522.583008,1.363707
-129.089355,215.972900,500.701904,1.364450
-110.687256,202.880859,508.117676,1.365192
-105.834961,201.690674,519.012451,1.365934
-106.567383,202.697754,533.843994,1.366678
-98.968506,197.753906,523.864746,1.367421
-91.827393,205.352783,528.350830,1.368164
-103.912354,207.824707,520.202637,1.368908
-105.560303,187.683105,525.787354,1.369647
-91.552734,211.303711,513.153076,1.370381
-102.722168,214.416504,507.202148,1.371162
-105.834961,217.346191,502.075195,1.371909
-97.412109,218.261719,472.045898,1.372671
-100.250244,228.515625,477.996826,1.373414
-102.630615,214.599609,481.475830,1.374158
-98.144531,240.783691,474.700928,1.374901
-94.757080,253.784180,466.278076,1.375644
-98.876953,257.629395,459.960938,1.376388
-90.545654,273.559570,468.109131,1.377131
-82.580566,273.468018,468.841553,1.377874
-87.158203,279.418945,461.975098,1.378610
-59.875488,295.349121,465.362549,1.379343
-65.826416,295.806885,467.193604,1.380077
-62.622070,299.560547,475.433350,1.380948
-58.319092,314.941406,471.221924,1.381701
-56.945801,335.723877,483.398438,1.382490
-51.086426,329.956055,480.651855,1.383245
-42.480469,360.809326,494.384766,1.384035
-35.247803,368.316650,497.863770,1.384781
-33.050537,397.155762,505.279541,1.385604
-30.670166,423.156738,516.082764,1.386386
-53.375244,449.981689,537.139893,1.387205
-63.171387,482.208252,566.345215,1.387975
-71.319580,510.314941,599.395752,1.388723
-84.686279,536.041260,606.903076,1.389525
-93.200684,561.035156,616.516113,1.390281
-89.904785,575.225830,623.748779,1.391063
-92.651367,605.072021,636.840820,1.391888
-103.637695,620.178223,649.017334,1.392642
-105.468750,643.157959,656.799316,1.393384
-108.306885,649.658203,661.468506,1.394118
-115.447998,667.602539,677.856445,1.394851
-118.194580,673.736572,684.082031,1.395583
-107.757568,690.032959,704.956055,1.396321
-113.433838,702.392578,729.400635,1.397057
-118.927002,710.815430,733.795166,1.397790
-107.940674,721.343994,759.887695,1.398523
-118.103027,729.675293,792.205811,1.399256
-113.708496,738.647461,795.227051,1.400007
-106.842041,765.563965,817.199707,1.400741
-110.778809,762.542725,838.348389,1.401474
-106.292725,777.648926,853.912354,1.402221
-103.546143,781.311035,863.708496,1.402970
-100.250244,784.149170,871.032715,1.403715
-95.123291,787.261963,876.342773,1.404458
-86.425781,779.022217,884.216309,1.405214
-76.171875,785.522461,871.215820,1.405958
-70.770264,784.332275,862.976074,1.406701
-66.009521,789.367676,846.130371,1.407445
-56.579590,775.543213,832.305908,1.408221
-37.445068,778.564453,818.206787,1.408978
-33.782959,800.537109,791.290283,1.409745
-4.669189,780.487061,776.367188,1.410500
-21.423340,762.268066,788.452148,1.411326
-16.937256,746.520996,762.268066,1.412075
1.373291,756.591797,751.098633,1.412838
47.424316,739.013672,761.352539,1.413645
112.335205,738.006592,746.978760,1.414398
68.206787,752.471924,741.943359,1.415181
104.370117,740.844727,754.394531,1.415935
113.616943,740.386963,776.367188,1.416697
71.868896,757.690430,778.930664,1.417440
80.383301,781.494141,763.458252,1.418234
-21.423340,735.534668,799.804688,1.418980
-47.058105,724.456787,799.072266,1.419724
-86.975098,673.461914,805.023193,1.420468
-146.301270,692.321777,772.521973,1.421211
-103.912354,719.329834,754.669189,1.421954
-153.533936,698.181152,741.210938,1.422698
-163.513184,681.793213,722.808838,1.423441
-74.523926,693.145752,686.828613,1.424185
-101.715088,695.068359,677.307129,1.424928
-90.637207,684.173584,672.637939,1.425676
-47.790527,663.848877,673.919678,1.426410
-75.805664,646.820068,657.714844,1.427143
-21.697998,648.651123,675.476074,1.427881
-13.275146,653.686523,656.799316,1.428648
-58.685303,647.827148,653.869629,1.429392
-67.657471,637.481689,642.700195,1.430136
-85.052490,637.023926,638.763428,1.430879
-130.371094,630.798340,642.242432,1.431634
-129.730225,639.129639,652.770996,1.432378
-150.329590,638.946533,669.525146,1.433121
-161.315918,645.446777,673.828125,1.433865
-168.548584,640.869141,684.448242,1.434617
-186.492920,628.143311,691.955566,1.435360
-184.661865,620.269775,682.067871,1.436103
-177.795410,609.832764,673.095703,1.436846
-161.865234,609.649658,659.179688,1.437589
-153.991699,610.839844,645.812988,1.438323
-147.674561,607.818604,637.115479,1.439056
-139.984131,606.079102,624.664307,1.439789
-139.434814,604.522705,629.516602,1.440554
-155.456543,593.627930,627.136230,1.441288
-164.245605,589.691162,626.312256,1.442022
-180.999756,592.987061,622.100830,1.442812
-193.817139,599.670410,624.572754,1.443548
-191.986084,602.966309,638.580322,1.444282
-204.162598,605.621338,646.820068,1.445064
-194.549561,612.945557,649.658203,1.445814
-193.359375,617.614746,642.791748,1.446558
-186.309814,618.621826,660.919189,1.447307
-187.591553,616.149902,667.694092,1.448052
-172.576904,618.530273,672.088623,1.448807
-141.448975,629.882812,669.067383,1.449551
-165.252686,632.812500,667.144775,1.450295
-173.400879,631.530762,674.743652,1.451039
-184.661865,610.656738,665.130615,1.451793
-198.944092,622.192383,666.961670,1.452537
-203.796387,610.839844,661.834717,1.453280
-207.458496,610.931396,659.545898,1.454024
-199.768066,618.804932,656.524658,1.454756
-198.852539,616.424561,653.778076,1.455489
-189.788818,623.657227,648.742676,1.456222
-181.915283,617.614746,638.031006,1.456955
-175.231934,616.516113,640.960693,1.457730
-167.175293,615.692139,638.397217,1.458474
-161.865234,621.734619,632.812500,1.459217
-155.639648,625.305176,628.601074,1.459961
-149.597168,629.791260,622.375488,1.460714
-151.885986,640.777588,631.439209,1.461458
-164.703369,629.791260,623.016357,1.462201
-170.196533,643.341064,629.791260,1.462945
-186.950684,642.700195,633.270264,1.463785
-185.852051,655.151367,642.425537,1.464529
-187.042236,679.046631,654.602051,1.465272
-178.710938,666.687012,665.130615,1.466016
-173.767090,660.003662,659.362793,1.466759
-156.921387,662.292480,677.947998,1.467521
-159.484863,669.982910,674.285889,1.468266
-149.414062,696.533203,658.721924,1.469010
-135.314941,691.680908,659.912109,1.469765
-151.977539,687.011719,660.461426,1.470508
-149.597168,698.272705,651.580811,1.471251
-162.139893,695.251465,650.756836,1.471995
-152.435303,690.399170,638.031006,1.472749
-160.858154,691.131592,639.404297,1.473492
-160.858154,688.201904,627.868652,1.474236
-147.583008,697.357178,636.016846,1.474979
-158.477783,700.378418,610.473633,1.475723
-159.576416,704.132080,634.002686,1.476456
-141.357422,723.632812,623.382568,1.477189
-166.168213,707.519531,615.051270,1.477923
-147.399902,703.399658,620.269775,1.478658
-154.998779,699.737549,612.121582,1.479401
-162.414551,702.575684,602.325439,1.480145
-163.330078,682.983398,589.691162,1.480888
-159.484863,698.272705,588.684082,1.481641
-156.921387,696.624756,578.796387,1.482384
-168.273926,697.540283,581.085205,1.483128
-158.935547,697.174072,580.078125,1.483885
-157.196045,703.948975,601.226807,1.484661
-181.549072,716.308594,589.416504,1.485430
-162.231445,722.442627,599.945068,1.486184
-161.499023,742.675781,613.403320,1.486928
-172.027588,748.901367,617.523193,1.487696
-179.260254,748.443604,626.403809,1.488440
-180.450439,749.908447,640.228271,1.489183
-197.937012,742.401123,647.369385,1.489927
-184.936523,747.711182,643.981934,1.490673
-202.514648,756.317139,632.537842,1.491461
-184.661865,770.324707,606.445312,1.492209
-194.274902,760.894775,606.811523,1.493028
-196.105957,763.275146,606.353760,1.493780
-196.929932,757.232666,601.684570,1.494523
-205.902100,766.937256,609.741211,1.495266
-206.451416,768.035889,604.888916,1.496019
-206.085205,774.627686,605.163574,1.496762
-209.472656,759.155273,597.930908,1.497506
-179.992676,781.311035,589.874268,1.498250
-186.492920,804.748535,593.994141,1.498972
-193.359375,821.228027,605.072021,1.499706
-189.971924,818.389893,610.839844,1.500442
-257.171631,813.446045,621.734619,1.501177
-251.770020,807.678223,646.911621,1.501942
-283.172607,805.023193,634.094238,1.502686
-280.883789,810.974121,628.509521,1.503430
-264.495850,824.798584,621.276855,1.504174
-251.586914,836.975098,622.283936,1.504950
-232.635498,829.925537,603.515625,1.505697
-222.290039,831.756592,609.283447,1.506441
-213.134766,831.298828,596.008301,1.507185
-206.634521,832.122803,593.261719,1.507942
-214.599609,828.369141,578.796387,1.508686
-203.063965,827.087402,579.437256,1.509429
-213.226318,826.171875,571.472168,1.510172
-227.325439,818.023682,574.310303,1.510927
-242.156982,815.551758,577.697754,1.511672
-274.841309,824.707031,569.091797,1.512414
-268.890381,828.186035,570.373535,1.513157
-261.932373,821.411133,587.036133,1.513941
-258.544922,840.454102,592.987061,1.514686
-237.762451,822.967529,594.268799,1.515430
-216.430664,821.777344,587.402344,1.516186
-209.747314,821.411133,582.916260,1.516929
-190.429688,802.825928,575.225830,1.517673
-176.330566,838.073730,552.246094,1.518416
-159.851074,833.129883,543.823242,1.519159
-147.308350,829.742432,541.076660,1.519892
-155.364990,827.087402,548.767090,1.520625
-201.141357,824.432373,547.760010,1.521358
-210.021973,798.889160,565.246582,1.522093
-214.782715,821.319580,573.211670,1.522826
-207.183838,843.109131,581.542969,1.523559
-182.556152,853.363037,581.634521,1.524291
-161.407471,876.617432,602.874756,1.525032
-146.575928,878.448486,606.719971,1.525775
-134.948730,873.962402,604.064941,1.526519
-126.434326,861.145020,615.509033,1.527262
-111.328125,866.180420,604.431152,1.528021
-107.940674,860.778809,576.141357,1.528782
-90.545654,869.384766,561.035156,1.529527
-88.806152,872.589111,542.449951,1.530271
-91.094971,870.025635,541.168213,1.531020
-89.080811,872.955322,544.830322,1.531764
-105.926514,870.208740,563.507080,1.532508
-105.102539,875.061035,576.049805,1.533252
-99.151611,880.920410,592.346191,1.533997
-89.538574,899.322510,599.304199,1.534823
-77.178955,912.872314,610.015869,1.535568
-66.650391,915.710449,622.833252,1.536312
-60.333252,920.837402,623.657227,1.537055
-59.326172,924.865723,635.192871,1.537788
-58.685303,937.866211,633.819580,1.538521
-51.361084,948.211670,630.615234,1.539254
-56.396484,917.816162,631.988525,1.540049
-64.086914,930.541992,617.614746,1.540789
-67.108154,917.449951,608.459473,1.541568
-78.643799,939.331055,609.008789,1.542324
-78.918457,961.669922,604.064941,1.543075
-78.277588,967.895508,608.459473,1.543828
-70.587158,970.642090,615.234375,1.544576
-70.220947,972.564697,630.432129,1.545324
-67.291260,988.677979,634.094238,1.546092
-81.298828,997.650146,629.516602,1.546831
-83.404541,999.755859,641.235352,1.547563
-84.869385,1007.263184,643.066406,1.548296
-88.165283,1017.700195,634.277344,1.549058
-85.052490,1013.580322,635.284424,1.549792
-88.531494,1034.545898,637.207031,1.550525
-94.848633,1027.404785,640.777588,1.551259
-86.334229,1026.214600,627.410889,1.552023
-85.327148,1033.721924,613.128662,1.552767
-84.960938,1041.046143,613.586426,1.553511
-84.503174,1037.933350,606.353760,1.554256
-98.876953,1036.102295,599.212646,1.555011
-99.975586,1042.419434,597.106934,1.555767
-103.088379,1046.630859,598.754883,1.556520
-122.863770,1044.891357,597.747803,1.557293
-121.948242,1046.264648,590.972900,1.558047
-130.828857,1047.363281,587.402344,1.558791
-127.716064,1044.708252,581.909180,1.559535
-114.715576,1037.933350,569.091797,1.560281
-125.518799,1046.539307,559.478760,1.561025
-128.906250,1051.940918,559.387207,1.561769
-125.061035,1055.145264,559.753418,1.562513
-128.631592,1062.194824,559.020996,1.563334
-134.399414,1060.455322,569.458008,1.564094
-153.808594,1070.251465,575.042725,1.564867
-150.146484,1074.645996,571.472168,1.565619
-152.801514,1078.491211,580.902100,1.566388
-158.020020,1087.097168,579.528809,1.567132
-157.287598,1092.132568,574.676514,1.567877
-163.696289,1090.942383,574.127197,1.568621
-144.836426,1095.703125,570.190430,1.569376
-157.012939,1101.287842,573.486328,1.570121
-160.400391,1111.267090,579.986572,1.570865
-164.886475,1106.231689,586.395264,1.571612
-170.196533,1104.675293,588.592529,1.572360
-172.485352,1108.154297,588.409424,1.573094
-171.386719,1112.457275,584.014893,1.573827
-177.246094,1111.907959,582.641602,1.574561
-180.816650,1109.619141,577.423096,1.575242
-181.823730,1114.288330,573.669434,1.575987
-183.654785,1107.788086,564.605713,1.576731
-195.190430,1109.527588,564.514160,1.577475
-198.394775,1093.963623,556.274414,1.578172
-199.676514,1096.710205,555.725098,1.578916
-198.486328,1097.076416,550.323486,1.579660
-198.211670,1092.773438,538.146973,1.580405
-197.021484,1084.259033,540.161133,1.581159
-187.957764,1078.582764,535.766602,1.581904
-185.028076,1083.435059,562.133789,1.582648
-178.161621,1085.174561,533.843994,1.583392
-176.788330,1055.603027,536.956787,1.584135
-182.006836,1080.139160,539.154053,1.584868
-185.668945,1065.124512,530.914307,1.585601
-174.316406,1069.335938,538.055420,1.586333
-169.189453,1065.216064,534.027100,1.587103
-173.950195,1063.201904,532.745361,1.587847
-163.696289,1076.660156,536.773682,1.588591
-162.322998,1059.539795,529.449463,1.589335
-161.041260,1062.835693,559.295654,1.590079
-159.484863,1066.772461,542.724609,1.590813
-157.104492,1069.061279,541.717529,1.591546
-149.871826,1069.610596,548.400879,1.592280
-156.005859,1064.483643,549.957275,1.593025
-152.893066,1062.011719,551.696777,1.593770
-148.956299,1068.695068,552.154541,1.594514
-151.885986,1067.504883,555.084229,1.595287
-154.632568,1070.343018,554.077148,1.596038
-150.512695,1063.842773,546.844482,1.596800
-143.280029,1062.469482,548.858643,1.597574
-137.420654,1060.363770,551.147461,1.598355
-134.216309,1061.553955,548.217773,1.599105
-127.075195,1056.610107,535.308838,1.599850
-123.046875,1060.638428,536.132812,1.600594
-118.560791,1053.314209,536.499023,1.601332
-118.469238,1052.856445,534.759521,1.602065
-121.856689,1047.821045,528.259277,1.602814
-104.919434,1055.603027,522.491455,1.603559
-99.884033,1052.490234,523.498535,1.604320
-95.581055,1040.954590,512.512207,1.605149
-92.742920,1051.574707,521.209717,1.605894
-72.875977,1038.024902,518.096924,1.606638
-81.848145,1046.356201,511.230469,1.607396
-77.819824,1048.095703,511.505127,1.608140
-72.235107,1043.975830,506.561279,1.608884
-69.305420,1049.377441,507.568359,1.609627
-57.037354,1053.314209,509.582520,1.610369
-57.403564,1049.652100,509.857178,1.611103
-47.790527,1046.173096,508.300781,1.611836
-43.670654,1069.793701,504.364014,1.612569
-31.494141,1060.455322,507.110596,1.613331
-27.648926,1064.392090,511.871338,1.614093
-1.373291,1065.399170,519.195557,1.614839
-14.007568,1068.695068,521.484375,1.615600
-12.268066,1074.554443,522.674561,1.616238
-15.197754,1079.681396,526.153564,1.616982
-3.936768,1074.371338,532.836914,1.617726
-5.584717,1066.955566,535.858154,1.618470
-7.141113,1062.469482,543.182373,1.619224
-9.063721,1061.004639,535.308838,1.619967
-10.803223,1065.856934,537.414551,1.620711
-5.676270,1062.744141,534.851074,1.621455
1.190186,1063.568115,532.379150,1.622199
0.000000,1058.166504,526.428223,1.622932
-11.352539,1056.518555,520.935059,1.623665
-8.239746,1042.053223,516.815186,1.624398
-6.683350,1045.806885,525.604248,1.625157
-19.409180,1031.890869,511.505127,1.625901
-18.218994,1021.728516,507.568359,1.626664
-21.240234,1018.615723,505.187988,1.627422
-11.718750,1004.516602,501.525879,1.628221
-3.479004,991.516113,495.025635,1.628975
-3.753662,961.395264,493.011475,1.629719
-0.823975,972.930908,490.447998,1.630463
2.471924,967.803955,484.954834,1.631231
6.225586,974.121094,484.863281,1.631975
-27.648926,957.824707,479.187012,1.632783
-32.043457,937.133789,486.145020,1.633565
-42.022705,923.126221,472.595215,1.634345
-42.022705,919.830322,475.799561,1.635096
-5.218506,898.590088,469.573975,1.635840
-9.521484,893.096924,459.320068,1.636506
-1.922607,887.237549,445.678711,1.637250
9.246826,882.568359,445.861816,1.637993
1.464844,870.300293,433.959961,1.638736
3.570557,862.792969,426.086426,1.639490
27.557373,853.637695,423.522949,1.640233
23.803711,849.700928,396.240234,1.640977
22.247314,835.784912,377.929688,1.641739
36.895752,825.164795,371.429443,1.642504
15.563965,796.325684,350.830078,1.643239
13.458252,773.345947,326.202393,1.643972
17.486572,759.704590,313.568115,1.644705
4.119873,754.760742,317.504883,1.645468
11.535645,729.034424,299.743652,1.646212
13.183594,706.604004,310.089111,1.646957
12.268066,680.877686,327.667236,1.647700
27.465820,686.462402,309.356689,1.648454
28.015137,702.941895,306.243896,1.649197
49.621582,695.800781,310.089111,1.649941
60.058594,682.891846,318.603516,1.650685
65.185547,680.694580,282.897949,1.651440
66.284180,665.679932,287.750244,1.652185
77.362061,637.573242,290.222168,1.652928
69.946289,621.368408,278.503418,1.653672
66.375732,605.804443,276.214600,1.654380
73.333740,569.000244,250.854492,1.655203
47.790527,533.020020,225.677490,1.655949
52.917480,520.660400,187.591553,1.656692
35.705566,471.405029,183.837891,1.657452
36.346436,472.412109,147.033691,1.658196
40.283203,489.624023,120.391846,1.658939
27.923584,602.508545,102.539062,1.659683
29.388428,776.641846,-51.544189,1.660427
32.318115,1100.097656,-118.743896,1.661160
32.409668,1165.649414,-163.696289,1.661894
4.119873,1121.520996,-159.759521,1.662627
-79.742432,1010.101318,-107.208252,1.663374
93.933105,959.014893,-34.057617,1.664135
63.262939,973.297119,-70.129395,1.664881
-40.374756,1020.904541,-45.684814,1.665636
-26.367188,1046.539307,44.311523,1.666381
-6.134033,1057.342529,89.996338,1.667125
-124.877930,1052.398682,153.442383,1.667869
-143.096924,1065.948486,199.493408,1.668613
-112.884521,1041.961670,212.219238,1.669358
-113.983154,987.762451,279.235840,1.670102
-144.744873,1013.946533,288.574219,1.670874
-136.138916,948.760986,311.553955,1.671619
-296.905518,1226.257324,650.207520,1.672362
-82.763672,1182.586670,685.821533,1.673106
-197.753906,1199.249268,713.836670,1.673850
-453.826904,1191.192627,864.807129,1.674594
-97.229004,1223.968506,880.096436,1.675338
-192.169189,1222.778320,1012.481689,1.676082
-340.301514,1224.151611,1048.004150,1.676826
-112.884521,1254.455566,1044.342041,1.677569
-116.821289,1245.666504,1104.949951,1.678387
-311.462402,1226.440430,1126.190186,1.679121
-115.722656,1231.384277,1127.105713,1.679855
-126.159668,1237.792969,1131.774902,1.680591
-273.193359,1197.967529,1144.958496,1.681336
-202.148438,1189.270020,1095.428467,1.682080
-106.567383,1129.760742,1024.475098,1.682841
-200.866699,1127.746582,982.635498,1.683586
-81.024170,1084.899902,910.217285,1.684330
-51.910400,1085.357666,825.531006,1.685074
-105.285645,1071.990967,794.677734,1.685818
-119.201660,1047.912598,717.681885,1.686574
-106.384277,1041.595459,689.300537,1.687318
-160.400391,1027.496338,633.087158,1.688063
-155.639648,1030.059814,582.641602,1.688807
-155.548096,1017.242432,561.584473,1.689546
-153.350830,1004.333496,514.526367,1.690280
-117.919922,1007.995605,505.279541,1.691013
-69.946289,1010.375977,493.560791,1.691747
-51.544189,1011.016846,488.891602,1.692484
-48.706055,1007.629395,489.898682,1.693228
-36.437988,1008.270264,488.983154,1.693972
11.901855,1005.889893,480.834961,1.694731
100.891113,976.409912,492.828369,1.695476
175.231934,958.923340,472.778320,1.696220
-67.108154,980.621338,455.749512,1.696963
-191.986084,932.556152,450.531006,1.697726
-203.613281,958.465576,432.220459,1.698505
-200.042725,923.400879,432.952881,1.699279
-161.315918,930.267334,415.008545,1.700030
-166.259766,927.520752,402.740479,1.700773
-127.899170,899.688721,376.098633,1.701541
-40.191650,898.040771,363.922119,1.702285
13.366699,874.145508,350.280762,1.703029
21.881104,862.518311,341.125488,1.703772
2.288818,818.298340,334.075928,1.704526
-14.373779,777.832031,311.370850,1.705270
-34.698486,777.923584,299.835205,1.706013
-101.715088,745.513916,282.989502,1.706757
-154.449463,733.612061,268.981934,1.707501
-75.439453,733.703613,252.868652,1.708235
-16.387939,743.225098,226.959229,1.708968
-5.950928,745.971680,230.163574,1.709701
-55.480957,723.175049,209.747314,1.710462
-78.002930,723.815918,187.225342,1.711226
-35.156250,728.027344,171.386719,1.711996
-18.035889,720.336914,162.597656,1.712758
-43.395996,720.062256,135.498047,1.713527
-27.282715,699.920654,125.976562,1.714275
17.211914,694.519043,110.961914,1.715021
-4.302979,695.068359,106.201172,1.715766
-16.296387,680.877686,88.989258,1.716510
11.352539,671.539307,87.249756,1.717276
17.578125,674.835205,77.453613,1.718022
6.866455,716.308594,78.918457,1.718784
17.944336,712.738037,90.179443,1.719528
31.951904,699.005127,74.157715,1.720271
70.770264,722.442627,75.714111,1.721015
61.706543,692.779541,69.396973,1.721727
24.169922,690.765381,55.389404,1.722471
63.903809,663.574219,19.683838,1.723215
59.234619,656.158447,11.718750,1.723959
11.260986,675.933838,-5.767822,1.724703
12.542725,691.680908,-10.986328,1.725435
22.155762,673.004150,-0.091553,1.726168
32.867432,677.124023,22.705078,1.726902
39.733887,685.089111,45.593262,1.727663
46.142578,700.195312,58.959961,1.728408
46.325684,706.054688,66.101074,1.729152
41.839600,695.068359,56.030273,1.729895
5.584717,675.842285,46.417236,1.730648
-11.535645,659.912109,19.958496,1.731392
-44.128418,629.150391,3.845215,1.732135
-88.348389,623.382568,-38.269043,1.732879
-112.792969,624.206543,-82.122803,1.733621
-84.869385,643.157959,-101.440430,1.734355
-91.735840,678.497314,-111.419678,1.735088
-94.299316,681.976318,-124.877930,1.735821
-106.292725,712.188721,-134.948730,1.736581
-109.222412,745.330811,-158.111572,1.737324
-140.167236,747.802734,-178.527832,1.738067
-174.224854,743.499756,-172.393799,1.738811
-204.162598,714.477539,-163.787842,1.739554
42.297363,679.779053,-15.106201,1.740287
-138.519287,588.592529,116.821289,1.741020
309.173584,671.356201,102.996826,1.741754
233.001709,722.717285,56.488037,1.742509
-107.849121,678.955078,12.725830,1.743253
160.125732,780.578613,-68.664551,1.743997
220.184326,781.677246,-130.096436,1.744740
-63.446045,781.585693,-140.899658,1.745475
-37.353516,841.186523,-174.865723,1.746208
196.838379,847.320557,-186.492920,1.746940
-72.235107,822.875977,-195.007324,1.747679
114.715576,841.094971,-210.296631,1.748436
121.856689,865.722656,-225.402832,1.749180
-62.347412,874.603271,-242.340088,1.749924
-27.740479,924.499512,-274.291992,1.750755
79.101562,935.394287,-284.545898,1.751515
-66.925049,958.648682,-283.355713,1.752260
3.295898,972.381592,-241.241455,1.753112
-32.135010,987.487793,-225.860596,1.753880
-46.600342,985.473633,-198.944092,1.754623
-32.043457,970.275879,-188.232422,1.755365
-82.305908,969.635010,-173.217773,1.756107
-100.250244,970.001221,-144.561768,1.756860
-75.439453,985.565186,-112.152100,1.757602
-189.422607,1032.257080,-95.947266,1.758344
-189.880371,1031.890869,-70.953369,1.759086
-200.958252,1047.546387,-88.439941,1.759821
-253.326416,1050.933838,-64.270020,1.760555
-261.474609,957.092285,-1.556396,1.761288
-185.211182,1421.081543,89.996338,1.762020
-1030.517578,87.158203,1401.306152,1.762773
-1903.839111,1245.391846,1602.447510,1.763518
-1917.938232,1265.899658,1495.880127,1.764262
-1105.499268,1408.721924,968.444824,1.765007
1761.840820,1662.231445,1057.159424,1.765761
2999.908447,1886.535645,1301.330566,1.766505
2184.906006,1598.327637,910.675049,1.767250
-1607.940674,1597.137451,997.009277,1.767995
-1445.800781,1621.765137,1106.048584,1.768747
-1277.984619,1556.579590,962.310791,1.769494
-693.786621,1539.550781,879.272461,1.770247
1006.713867,1696.838379,749.450684,1.771000
827.636719,1635.772705,711.273193,1.771794
94.848633,1583.312988,667.968750,1.772549
-1120.513916,1550.262451,708.160400,1.773293
-655.517578,1523.071289,701.751709,1.774037
41.931152,1578.186035,659.729004,1.774814
445.129395,1523.254395,660.644531,1.775600
-134.948730,1473.632812,639.953613,1.776357
-758.148193,1394.531250,517.730713,1.777153
-304.412842,1359.375000,468.658447,1.777904
-13.458252,1322.845459,399.169922,1.778648
61.340332,1307.647705,365.203857,1.779391
-337.829590,1250.976562,293.792725,1.780149
-275.848389,1214.172363,222.015381,1.780935
-79.010010,1218.292236,143.829346,1.781679
288.024902,1178.833008,114.807129,1.782422
112.518311,1131.866455,65.093994,1.783169
-22.979736,1098.815918,35.339355,1.783902
-106.384277,1072.814941,-33.966064,1.784636
-54.931641,1048.095703,-91.094971,1.785369
68.939209,1050.109863,-108.489990,1.786127
-16.937256,1068.328857,-146.759033,1.786874
-132.934570,1049.835205,-165.710449,1.787641
-167.083740,1047.271729,-166.992188,1.788386
-217.712402,1032.348633,-171.752930,1.789142
-177.246094,1013.946533,-176.330566,1.789890
-40.100098,1018.432617,-187.408447,1.790638
38.452148,1001.586914,-228.881836,1.791402
40.100098,994.354248,-235.473633,1.792174
-499.511719,989.593506,-140.991211,1.792919
-99.151611,1018.341064,81.298828,1.793663
436.065674,1083.435059,193.542480,1.794407
704.406738,1188.720703,331.512451,1.795150
271.820068,1195.678711,331.512451,1.795883
-488.159180,1144.226074,302.215576,1.796616
-502.624512,1093.414307,204.895020,1.797349
12.176514,1100.097656,157.012939,1.798112
154.815674,1107.147217,74.981689,1.798856
2.288818,1104.400635,24.444580,1.799600
-274.017334,1072.082520,6.134033,1.800343
-104.370117,1032.989502,-51.818848,1.801097
48.706055,1030.242920,-71.777344,1.801841
165.252686,1029.052734,-94.757080,1.802585
98.602295,1027.679443,-73.883057,1.803329
-91.827393,1038.024902,-67.749023,1.804074
-23.529053,1027.679443,-65.002441,1.804808
47.973633,1005.615234,-66.192627,1.805540
93.475342,999.206543,-77.453613,1.806274
65.826416,988.769531,-89.630127,1.807024
20.965576,994.354248,-92.193604,1.807757
8.331299,982.086182,-104.736328,1.808490
-6.408691,994.079590,-113.983154,1.809223
18.951416,972.290039,-156.738281,1.809994
67.199707,962.585449,-218.536377,1.810739
243.621826,1018.798828,-161.956787,1.811483
498.870850,1000.488281,233.276367,1.812227
197.387695,1037.567139,367.492676,1.812981
-414.733887,1178.283691,479.095459,1.813726
-373.809814,1253.540039,396.606445,1.814470
107.116699,1223.785400,289.306641,1.815233
135.223389,1231.384277,262.664795,1.815988
-200.408936,1181.396484,211.944580,1.816733
-253.967285,1144.409180,143.463135,1.817476
-30.853271,1128.753662,103.454590,1.818220
78.094482,1105.041504,53.833008,1.818974
121.032715,1075.561523,17.852783,1.819718
33.050537,1047.180176,-65.734863,1.820462
21.881104,1038.757324,-128.448486,1.821205
99.517822,1001.312256,-146.118164,1.822032
128.265381,996.093750,-153.533936,1.822768
134.033203,994.628906,-199.493408,1.823501
123.687744,977.966309,-217.803955,1.824234
117.187500,983.459473,-239.135742,1.824994
53.100586,964.233398,-251.861572,1.825739
36.437988,936.309814,-277.496338,1.826483
39.276123,931.274414,-322.265625,1.827227
132.568359,921.295166,-366.943359,1.827981
201.416016,881.286621,-424.255371,1.828725
293.701172,857.208252,-454.925537,1.829469
190.979004,845.306396,-511.962891,1.830213
69.213867,846.496582,-532.836914,1.830840
-545.379639,819.671631,-437.805176,1.831585
-872.589111,778.198242,-109.405518,1.832329
331.787109,906.921387,41.839600,1.833101
1391.876221,1136.169434,120.483398,1.833861
864.624023,1122.528076,146.850586,1.834607
-766.571045,1061.645508,126.617432,1.835376
-633.361816,1088.378906,56.396484,1.836137
598.663330,1174.530029,-113.159180,1.836882
863.342285,1187.622070,-135.406494,1.837626
328.399658,1094.970703,-133.209229,1.838369
-102.539062,1065.765381,-156.738281,1.839113
-485.870361,1075.653076,-188.690186,1.839857
-111.877441,1093.688965,-290.771484,1.840602
115.356445,1085.540771,-375.732422,1.841345
662.933350,1051.208496,-463.439941,1.842093
1124.359131,1004.608154,-257.812500,1.842841
1554.748535,932.464600,58.227539,1.843621
-302.307129,951.232910,87.615967,1.844374
-818.115234,1214.538574,79.925537,1.845119
-1174.255371,1217.102051,246.551514,1.845863
-1628.631592,1212.615967,286.926270,1.846608
-908.111572,1160.705566,238.586426,1.847366
1928.833008,1435.455322,58.593750,1.848181
1381.256104,1362.213135,28.198242,1.848935
-1021.911621,1214.813232,73.974609,1.849715
-1458.984375,1202.270508,54.656982,1.850467
-829.376221,1205.017090,24.353027,1.851211
893.280029,1319.274902,-78.918457,1.851955
1199.249268,1312.042236,-145.019531,1.852699
355.957031,1198.608398,-185.760498,1.853465
-753.753662,1134.887695,-244.079590,1.854305
-895.843506,1112.548828,-251.861572,1.855056
-659.362793,1126.464844,-267.700195,1.855801
246.276855,1167.297363,-272.094727,1.856566
1004.333496,1176.910400,-212.860107,1.857310
824.157715,1128.295898,-224.029541,1.858055
84.136963,1088.287354,-258.911133,1.858803
-695.068359,1105.590820,-140.167236,1.859560
-973.846436,1135.253906,-73.425293,1.860305
-1145.507812,1202.819824,-64.544678,1.861049
-1046.264648,1183.227539,-150.329590,1.861794
-187.957764,1155.761719,-197.479248,1.862537
1384.826660,1294.006348,-281.707764,1.863271
1393.707275,1283.020020,-282.165527,1.864005
-197.296143,1136.718750,-192.810059,1.864738
-831.665039,1117.492676,-193.908691,1.865457
-553.527832,1141.387939,-246.093750,1.866201
67.565918,1212.341309,-371.704102,1.866945
686.279297,1197.784424,-445.404053,1.867689
-67.474365,1082.244873,-515.716553,1.868442
-496.124268,1028.503418,-536.773682,1.869186
-587.493896,1014.221191,-561.492920,1.869929
-247.650146,1142.944336,-424.987793,1.870672
1622.131348,1896.057129,2020.202637,1.871426
2999.908447,2999.908447,2999.908447,1.872170
2999.908447,2824.035645,1735.015869,1.872914
1636.596680,1895.874023,-305.419922,1.873659
-629.425049,1188.262939,-3000.000000,1.874402
-1364.318848,916.259766,-3000.000000,1.875136
-8.331299,720.153809,-850.524902,1.875869
-570.556641,621.643066,1576.538086,1.876602
-1472.534180,754.577637,1173.797607,1.877355
-249.114990,926.788330,-508.300781,1.878100
-240.051270,831.756592,-993.164062,1.878844
293.426514,721.893311,-936.401367,1.879589
389.190674,771.789551,-219.726562,1.880333
136.688232,1058.349609,-49.255371,1.881077
-121.856689,1200.622559,-398.437500,1.881821
-257.263184,1162.902832,-541.900635,1.882565
-321.990967,1137.817383,-516.723633,1.883310
-295.349121,1153.930664,-566.162109,1.884054
-242.340088,1163.452148,-504.547119,1.884798
-360.809326,1152.008057,-375.000000,1.885536
-426.086426,1117.675781,-438.537598,1.886288
138.244629,845.855713,-268.981934,1.887033
172.485352,839.996338,-664.215088,1.887777
383.331299,942.993164,-475.250244,1.888451
413.543701,1051.483154,-403.289795,1.889157
181.274414,1173.797607,-232.086182,1.889901
-6.500244,1157.043457,-242.706299,1.890644
-430.114746,1101.745605,-274.383545,1.891473
-582.458496,1070.892334,-265.502930,1.892230
-598.022461,1077.117920,-250.762939,1.892974
-510.681152,1106.414795,-194.915771,1.893718
-431.213379,1113.830566,-130.462646,1.894462
-284.179688,1123.168945,-161.682129,1.895150
-314.483643,1111.633301,-151.336670,1.895884
-435.699463,1098.266602,-99.609375,1.896618
-674.194336,1070.251465,-23.986816,1.897351
-776.458740,1053.680420,-44.677734,1.898130
-732.330322,1056.976318,-55.938721,1.898886
-425.445557,1072.357178,-61.065674,1.899653
-44.677734,1112.182617,-88.439941,1.900413
116.271973,1136.352539,-94.390869,1.901203
271.270752,1173.614502,-109.863281,1.901951
225.128174,1201.995850,-88.439941,1.902696
150.421143,1228.546143,-55.755615,1.903440
-12.908936,1269.378662,-0.183105,1.904196
-77.636719,1289.245605,-1.373291,1.904941
-135.955811,1290.802002,-17.944336,1.905685
-103.546143,1270.477295,-81.207275,1.906429
-68.023682,1259.399414,-88.623047,1.907172
-26.641846,1261.138916,-50.354004,1.907906
-35.980225,1278.350830,-42.114258,1.908639
-87.799072,1296.112061,-49.163818,1.909372
-178.070068,1275.970459,-85.235596,1.910137
-213.226318,1264.709473,-108.398438,1.910881
-237.213135,1245.941162,-135.131836,1.911626
-239.227295,1232.940674,-153.533936,1.912369
-216.339111,1200.531006,-180.267334,1.913123
-180.999756,1181.396484,-223.205566,1.913867
-162.597656,1176.177979,-242.523193,1.914626
-134.857178,1163.360596,-250.305176,1.915379
-108.123779,1165.649414,-252.593994,1.916173
-87.249756,1161.895752,-272.918701,1.916926
-73.059082,1147.888184,-302.947998,1.917671
-109.039307,1147.155762,-334.075928,1.918421
-157.012939,1106.964111,-391.754150,1.919201
-186.950684,1108.612061,-395.141602,1.919969
-155.181885,1100.738525,-397.338867,1.920764
-62.530518,1097.717285,-387.817383,1.921523
-0.366211,1088.836670,-406.677246,1.922267
-18.493652,1081.420898,-403.472900,1.923011
-41.656494,1069.244385,-401.000977,1.923755
-54.382324,1060.089111,-366.027832,1.924499
-66.925049,1095.794678,-336.639404,1.925311
-67.657471,1111.907959,-300.018311,1.926061
-75.988770,1127.838135,-265.136719,1.926889
-102.905273,1118.591309,-261.474609,1.927642
-123.504639,1118.225098,-259.918213,1.928389
-138.244629,1114.562988,-248.199463,1.929133
-125.518799,1135.803223,-224.121094,1.929894
-129.730225,1147.888184,-201.049805,1.930639
-129.455566,1152.191162,-199.768066,1.931383
-138.610840,1149.536133,-217.987061,1.932126
-152.618408,1130.035400,-228.790283,1.932870
-186.584473,1126.922607,-242.980957,1.933604
-167.633057,1133.789062,-233.642578,1.934337
-133.026123,1143.859863,-213.958740,1.935070
-112.884521,1149.444580,-233.825684,1.935833
-88.073730,1124.176025,-255.798340,1.936577
-52.825928,1105.133057,-279.418945,1.937321
-71.960449,1108.612061,-270.904541,1.938065
-52.551270,1111.083984,-257.904053,1.938819
-50.811768,1118.957520,-263.305664,1.939562
-45.776367,1126.647949,-261.657715,1.940306
-54.840088,1119.689941,-271.820068,1.941050
-63.262939,1106.231689,-263.488770,1.941803
-74.340820,1117.034912,-239.318848,1.942547
-62.072754,1145.416260,-228.332520,1.943291
-67.474365,1132.965088,-228.332520,1.944036
-73.608398,1142.486572,-220.001221,1.944772
-97.137451,1152.008057,-210.205078,1.945505
-98.876953,1155.578613,-207.550049,1.946238
-98.876953,1157.775879,-191.162109,1.946971
-81.573486,1165.374756,-189.514160,1.947715
-93.200684,1170.684814,-185.028076,1.948448
-97.045898,1167.572021,-192.993164,1.949182
-127.716064,1157.409668,-227.325439,1.949981
-124.969482,1156.494141,-204.528809,1.950748
-120.941162,1160.156250,-205.535889,1.951492
-84.777832,1159.973145,-208.557129,1.952237
-51.635742,1153.839111,-219.635010,1.952981
-51.269531,1135.986328,-253.875732,1.953736
-54.840088,1132.141113,-266.143799,1.954480
-54.290771,1109.893799,-272.460938,1.955224
-27.740479,1117.950439,-263.122559,1.955968
-29.846191,1121.887207,-247.192383,1.956712
-32.043457,1113.830566,-266.510010,1.957445
-33.416748,1103.027344,-272.644043,1.958179
-35.156250,1089.843750,-279.510498,1.958912
-46.966553,1096.435547,-262.390137,1.959672
-35.430908,1103.118896,-257.812500,1.960520
-26.275635,1101.013184,-270.263672,1.961267
-26.824951,1110.809326,-257.629395,1.962011
-47.332764,1098.907471,-256.622314,1.962772
-31.402588,1115.295410,-239.685059,1.963516
-24.536133,1116.302490,-239.959717,1.964260
-23.254395,1127.655029,-228.149414,1.965005
-26.916504,1138.916016,-218.261719,1.965760
-31.768799,1134.613037,-213.043213,1.966504
-13.275146,1125.091553,-225.585938,1.967247
0.640869,1121.520996,-215.698242,1.967991
12.725830,1125.000000,-211.029053,1.968735
16.754150,1129.852295,-195.922852,1.969544
43.395996,1128.387451,-203.979492,1.970292
30.120850,1118.041992,-215.881348,1.971037
29.113770,1106.231689,-217.437744,1.971646
47.241211,1103.393555,-210.113525,1.972390
42.388916,1101.654053,-188.964844,1.973134
44.952393,1109.893799,-195.373535,1.973878
55.297852,1098.815918,-207.183838,1.974632
25.451660,1079.956055,-218.261719,1.975376
46.417236,1070.068359,-223.663330,1.976120
61.248779,1071.441650,-214.141846,1.976864
61.706543,1062.927246,-205.810547,1.977607
73.150635,1063.018799,-215.972900,1.978341
70.404053,1050.659180,-220.550537,1.979074
69.854736,1047.454834,-213.867188,1.979808
73.516846,1045.349121,-224.578857,1.980568
70.587158,1034.912109,-225.769043,1.981313
73.974609,1031.524658,-221.282959,1.982068
77.087402,1017.333984,-216.522217,1.982804
73.059082,1019.531250,-215.881348,1.983434
72.692871,1018.981934,-210.571289,1.984193
83.587646,1009.185791,-224.670410,1.984960
88.623047,1007.537842,-209.381104,1.985725
94.207764,990.142822,-210.571289,1.986469
93.017578,1008.728027,-217.895508,1.987213
72.418213,1005.523682,-210.388184,1.987957
87.158203,1003.875732,-216.430664,1.988723
87.524414,995.361328,-208.831787,1.989467
82.397461,995.178223,-203.979492,1.990225
103.363037,996.185303,-208.007812,1.991006
102.905273,991.241455,-204.162598,1.991789
102.264404,995.178223,-213.775635,1.992568
107.666016,996.643066,-212.219238,1.993320
118.469238,984.558105,-204.895020,1.994063
120.574951,988.586426,-200.500488,1.994830
132.019043,990.875244,-207.733154,1.995575
125.061035,985.565186,-211.669922,1.996319
119.293213,984.008789,-206.359863,1.997066
125.885010,975.402832,-204.986572,1.997825
124.969482,975.219727,-203.521729,1.998570
129.455566,969.909668,-204.528809,1.999313
132.385254,968.902588,-210.479736,2.000057
126.251221,971.099854,-219.635010,2.000695
125.518799,963.317871,-217.437744,2.001489
135.314941,972.015381,-208.007812,2.002237
130.645752,965.332031,-207.916260,2.002981
126.892090,962.127686,-219.268799,2.003803
122.863770,966.522217,-214.782715,2.004552
116.546631,962.036133,-211.669922,2.005296
107.208252,965.606689,-209.106445,2.006043
122.497559,975.219727,-204.071045,2.006787
117.645264,972.198486,-208.374023,2.007531
115.539551,971.649170,-207.641602,2.008275
106.750488,971.374512,-198.760986,2.009019
98.510742,974.029541,-204.071045,2.009763
103.729248,978.057861,-204.986572,2.010507
100.708008,981.719971,-193.267822,2.011250
92.468262,988.861084,-195.190430,2.011993
92.559814,988.494873,-197.937012,2.012725
84.503174,991.973877,-198.303223,2.013458
86.608887,985.015869,-206.176758,2.014208
86.334229,991.516113,-199.310303,2.014954
86.151123,988.769531,-191.894531,2.015698
77.178955,989.959717,-195.648193,2.016441
74.432373,992.797852,-190.521240,2.017186
74.157715,993.713379,-192.077637,2.017925
66.650391,987.945557,-195.007324,2.018658
65.917969,995.727539,-199.310303,2.019391
47.698975,992.340088,-201.873779,2.020125
53.192139,991.058350,-208.007812,2.020857
45.501709,994.079590,-210.205078,2.021590
39.825439,988.494873,-212.951660,2.022323
38.452148,989.410400,-195.190430,2.023057
35.980225,983.001709,-204.528809,2.023815
33.966064,987.030029,-200.683594,2.024558
20.599365,989.501953,-199.493408,2.025302
10.711670,996.185303,-201.141357,2.026046
8.514404,990.142822,-205.078125,2.026816
7.690430,989.410400,-210.754395,2.027561
4.119873,996.917725,-203.887939,2.028304
5.493164,1002.502441,-202.514648,2.029048
0.183105,999.481201,-196.472168,2.029791
-5.493164,989.318848,-204.528809,2.030536
3.387451,986.938477,-198.120117,2.031279
-3.387451,984.741211,-199.859619,2.032107
2.197266,991.058350,-197.113037,2.032842
-5.218506,993.713379,-182.556152,2.033575
-12.359619,983.551025,-185.943604,2.034308
-1.556396,987.487793,-187.225342,2.035042
-3.295898,985.015869,-188.415527,2.035783
-11.352539,985.198975,-190.155029,2.036527
-8.697510,982.818604,-180.725098,2.037271
-9.155273,972.656250,-179.718018,2.038015
-10.345459,971.557617,-185.485840,2.038803
-12.542725,973.480225,-176.513672,2.039553
-17.944336,964.050293,-180.267334,2.040300
-19.042969,965.972900,-175.689697,2.041046
-18.493652,962.127686,-172.393799,2.041747
-6.408691,970.916748,-170.654297,2.042492
-4.760742,945.922852,-177.886963,2.043236
-18.035889,946.655273,-181.182861,2.043979
-20.965576,943.084717,-175.231934,2.044733
-17.669678,934.295654,-173.583984,2.045477
-17.120361,929.351807,-175.506592,2.046221
-16.479492,932.647705,-171.020508,2.046964
-8.697510,934.478760,-177.612305,2.047707
-15.930176,914.062500,-172.760010,2.048440
-15.014648,910.675049,-184.753418,2.049173
-22.338867,902.160645,-179.718018,2.049906
-20.416260,896.759033,-182.006836,2.050666
-18.859863,893.463135,-179.992676,2.051410
-23.712158,882.934570,-181.274414,2.052154
-27.465820,872.314453,-188.140869,2.052917
-26.916504,867.553711,-185.943604,2.053696
-26.092529,861.694336,-189.971924,2.054471
-25.360107,861.419678,-196.014404,2.055222
-26.733398,848.236084,-188.232422,2.055966
-28.381348,853.637695,-197.113037,2.056624
-24.902344,839.904785,-198.486328,2.057369
-29.937744,843.109131,-195.098877,2.058113
-35.980225,840.454102,-189.971924,2.058857
-33.782959,826.995850,-199.493408,2.059625
-31.860352,835.144043,-194.732666,2.060416
-33.966064,834.228516,-190.246582,2.061170
-34.790039,830.749512,-187.957764,2.061969
-37.170410,841.278076,-189.422607,2.062719
-40.832520,835.418701,-180.358887,2.063462
-39.001465,831.665039,-179.809570,2.064205
-44.403076,839.630127,-176.788330,2.064961
-44.494629,839.996338,-175.598145,2.065705
-36.437988,835.601807,-180.450439,2.066449
-36.437988,842.559814,-171.386719,2.067193
-36.987305,839.538574,-172.851562,2.067928
-35.980225,844.848633,-168.731689,2.068666
-35.156250,844.848633,-175.323486,2.069400
-41.381836,833.862305,-166.625977,2.070214
-32.684326,845.581055,-166.625977,2.070985
-38.635254,839.996338,-165.435791,2.071730
-34.973145,846.130371,-165.252686,2.072474
-41.290283,837.890625,-173.675537,2.073218
-38.085938,839.080811,-173.858643,2.073973
-49.255371,840.728760,-174.316406,2.074717
-44.219971,848.236084,-169.097900,2.075460
-50.445557,841.827393,-163.421631,2.076204
-45.684814,848.419189,-168.365479,2.076947
-45.867920,848.510742,-168.365479,2.077681
-45.593262,847.137451,-165.069580,2.078414
-48.156738,853.363037,-167.449951,2.079147
-37.811279,853.729248,-169.281006,2.079907
-45.684814,852.539062,-174.224854,2.080639
-42.297363,849.884033,-172.485352,2.081372
-44.952393,851.623535,-169.006348,2.082104
-49.072266,852.996826,-164.520264,2.082861
-45.684814,854.095459,-140.899658,2.083605
-49.987793,855.560303,-158.020020,2.084349
-42.114258,865.356445,-159.759521,2.085093
-36.804199,858.215332,-153.717041,2.085847
-35.797119,855.651855,-160.308838,2.086592
-37.445068,856.292725,-153.533936,2.087335
-39.733887,865.081787,-147.033691,2.088079
-31.951904,864.532471,-149.139404,2.088814
-32.043457,862.152100,-152.069092,2.089547
-30.853271,866.363525,-146.575928,2.090280
-33.782959,869.842529,-145.294189,2.091014
-39.642334,871.124268,-141.906738,2.091756
-31.127930,869.750977,-148.498535,2.092522
-24.993896,845.306396,-150.238037,2.093267
-29.571533,866.363525,-144.470215,2.094011
-28.747559,856.658936,-151.062012,2.094768
-28.381348,860.778809,-144.744873,2.095512
-36.621094,852.355957,-154.907227,2.096256
-27.648926,850.616455,-160.949707,2.097000
-25.726318,857.299805,-161.224365,2.097755
-38.726807,854.827881,-143.920898,2.098499
-36.254883,852.996826,-149.230957,2.099243
-25.177002,852.630615,-158.111572,2.099986
-28.930664,850.524902,-152.526855,2.100731
-18.218994,850.250244,-150.970459,2.101464
-29.022217,851.257324,-152.618408,2.102198
-24.444580,848.236084,-149.871826,2.102931
-22.338867,850.158691,-154.449463,2.103777
-14.190674,847.320557,-150.238037,2.104523
-6.500244,847.595215,-147.583008,2.105266
-17.303467,855.468750,-149.047852,2.106010
-22.613525,853.729248,-140.991211,2.106764
-20.599365,858.489990,-142.822266,2.107508
0.640869,858.032227,-140.075684,2.108252
22.430420,856.842041,-137.603760,2.108996
-0.183105,858.581543,-131.195068,2.109749
-1.739502,855.102539,-143.554688,2.110493
0.915527,854.278564,-139.160156,2.111236
10.070801,844.573975,-131.927490,2.111979
12.542725,856.292725,-135.589600,2.112722
1.007080,855.194092,-128.540039,2.113455
2.380371,846.130371,-135.498047,2.114187
11.169434,839.813232,-134.307861,2.114920
9.429932,835.693359,-140.350342,2.115646
14.099121,836.242676,-139.984131,2.116389
9.429932,833.862305,-139.617920,2.117132
11.260986,835.418701,-150.054932,2.117875
19.409180,838.806152,-148.590088,2.118628
5.493164,839.355469,-145.751953,2.119372
13.000488,828.277588,-157.562256,2.120115
17.211914,834.686279,-154.266357,2.120858
18.493652,822.692871,-150.878906,2.121612
20.599365,826.812744,-157.379150,2.122355
20.782471,825.256348,-154.357910,2.123098
19.409180,827.545166,-146.850586,2.123842
