ACC_X,ACC_Y,ACC_Z
528.992004,425.536011,638.304016
528.992004,431.391998,628.544006
532.895996,431.391998,620.736023
532.895996,433.343994,624.640015
532.895996,445.056000,632.447998
527.039978,441.152008,622.687988
528.992004,439.200012,620.736023
540.703979,443.104004,618.783997
530.943970,441.152008,612.927979
538.752014,433.343994,601.216003
538.752014,429.440002,599.263977
542.656006,441.152008,605.119995
546.559998,441.152008,605.119995
552.416016,427.488007,601.216003
548.512024,413.824005,597.312012
552.416016,413.824005,605.119995
548.512024,417.727997,607.072021
552.416016,411.872009,605.119995
558.271973,417.727997,618.783997
560.223999,421.631989,624.640015
569.984009,423.584015,622.687988
568.031982,415.776001,622.687988
579.744019,413.824005,626.591980
579.744019,413.824005,628.544006
583.648010,415.776001,632.447998
587.552002,406.015991,634.400024
589.504028,411.872009,636.351990
581.695984,413.824005,640.255981
595.359985,417.727997,642.208008
589.504028,413.824005,642.208008
599.263977,409.920013,642.208008
603.168030,415.776001,640.255981
597.312012,409.920013,646.112000
607.072021,407.967987,644.159973
603.168030,409.920013,636.351990
610.976013,396.256012,644.159973
610.976013,398.208008,642.208008
609.023987,394.303986,650.015991
616.831970,386.496002,644.159973
616.831970,398.208008,646.112000
624.640015,407.967987,638.304016
626.591980,394.303986,642.208008
616.831970,411.872009,650.015991
624.640015,398.208008,646.112000
620.736023,398.208008,653.919983
620.736023,407.967987,640.255981
638.304016,411.872009,646.112000
638.304016,409.920013,644.159973
644.159973,396.256012,644.159973
653.919983,402.112000,646.112000
646.112000,404.063995,653.919983
653.919983,402.112000,646.112000
651.968018,398.208008,646.112000
651.968018,392.351990,650.015991
659.776001,402.112000,648.064026
655.872009,402.112000,638.304016
657.823975,402.112000,648.064026
659.776001,398.208008,642.208008
663.679993,394.303986,638.304016
667.583984,407.967987,632.447998
663.679993,413.824005,628.544006
669.536011,398.208008,636.351990
681.247986,413.824005,634.400024
659.776001,413.824005,628.544006
677.343994,421.631989,634.400024
675.392029,437.247986,646.112000
667.583984,433.343994,632.447998
673.440002,435.295990,630.495972
679.296021,439.200012,628.544006
679.296021,441.152008,640.255981
683.200012,443.104004,638.304016
689.056030,435.295990,628.544006
679.296021,450.911987,632.447998
685.151978,443.104004,634.400024
689.056030,447.007996,640.255981
685.151978,439.200012,638.304016
681.247986,443.104004,640.255981
679.296021,443.104004,632.447998
679.296021,448.959991,636.351990
683.200012,443.104004,634.400024
683.200012,445.056000,632.447998
679.296021,448.959991,632.447998
683.200012,450.911987,632.447998
679.296021,458.720001,628.544006
683.200012,462.623993,634.400024
675.392029,456.768005,630.495972
675.392029,464.575989,638.304016
671.487976,460.671997,634.400024
673.440002,468.480011,626.591980
671.487976,476.287994,628.544006
675.392029,470.432007,632.447998
681.247986,474.335999,634.400024
677.343994,474.335999,632.447998
673.440002,468.480011,636.351990
673.440002,464.575989,644.159973
681.247986,474.335999,638.304016
673.440002,468.480011,634.400024
667.583984,464.575989,650.015991
673.440002,464.575989,636.351990
667.583984,470.432007,632.447998
667.583984,466.528015,632.447998
671.487976,472.384003,628.544006
675.392029,468.480011,634.400024
677.343994,464.575989,628.544006
673.440002,468.480011,632.447998
681.247986,476.287994,638.304016
663.679993,476.287994,626.591980
671.487976,478.239990,634.400024
675.392029,489.951996,650.015991
667.583984,491.903992,636.351990
673.440002,484.096008,638.304016
663.679993,491.903992,632.447998
669.536011,499.712006,650.015991
665.632019,491.903992,646.112000
667.583984,489.951996,642.208008
671.487976,495.808014,636.351990
671.487976,488.000000,630.495972
671.487976,489.951996,632.447998
663.679993,486.048004,626.591980
675.392029,497.760010,634.400024
675.392029,493.855988,634.400024
667.583984,489.951996,638.304016
667.583984,495.808014,632.447998
677.343994,495.808014,626.591980
683.200012,503.615997,624.640015
679.296021,499.712006,626.591980
675.392029,495.808014,632.447998
673.440002,488.000000,624.640015
671.487976,493.855988,628.544006
685.151978,488.000000,634.400024
681.247986,488.000000,634.400024
685.151978,488.000000,634.400024
687.104004,486.048004,628.544006
687.104004,484.096008,624.640015
683.200012,491.903992,628.544006
685.151978,480.191986,636.351990
689.056030,486.048004,632.447998
683.200012,486.048004,642.208008
698.815979,484.096008,632.447998
696.864014,484.096008,634.400024
691.007996,484.096008,636.351990
691.007996,486.048004,632.447998
694.911987,493.855988,638.304016
700.768005,482.144012,634.400024
698.815979,484.096008,636.351990
696.864014,489.951996,636.351990
694.911987,484.096008,630.495972
689.056030,486.048004,632.447998
696.864014,484.096008,642.208008
700.768005,484.096008,638.304016
706.624023,480.191986,640.255981
704.671997,482.144012,638.304016
712.479980,468.480011,636.351990
708.575989,472.384003,640.255981
710.528015,478.239990,632.447998
702.719971,476.287994,632.447998
706.624023,472.384003,630.495972
698.815979,464.575989,638.304016
704.671997,470.432007,642.208008
706.624023,468.480011,628.544006
706.624023,462.623993,632.447998
712.479980,464.575989,634.400024
702.719971,468.480011,624.640015
698.815979,478.239990,626.591980
700.768005,464.575989,632.447998
698.815979,466.528015,624.640015
712.479980,466.528015,628.544006
712.479980,466.528015,638.304016
706.624023,458.720001,638.304016
714.432007,450.911987,642.208008
714.432007,466.528015,648.064026
714.432007,464.575989,657.823975
720.288025,460.671997,651.968018
708.575989,460.671997,650.015991
702.719971,456.768005,651.968018
706.624023,445.056000,650.015991
706.624023,448.959991,651.968018
712.479980,441.152008,657.823975
704.671997,445.056000,653.919983
700.768005,445.056000,655.872009
691.007996,445.056000,650.015991
689.056030,443.104004,650.015991
694.911987,445.056000,648.064026
694.911987,441.152008,632.447998
692.960022,443.104004,646.112000
689.056030,441.152008,646.112000
675.392029,433.343994,632.447998
687.104004,439.200012,632.447998
679.296021,431.391998,628.544006
683.200012,427.488007,626.591980
681.247986,421.631989,630.495972
681.247986,425.536011,626.591980
681.247986,421.631989,632.447998
677.343994,423.584015,638.304016
681.247986,419.679993,650.015991
667.583984,423.584015,651.968018
679.296021,415.776001,650.015991
681.247986,409.920013,655.872009
677.343994,411.872009,661.728027
694.911987,413.824005,659.776001
689.056030,413.824005,663.679993
683.200012,413.824005,659.776001
687.104004,417.727997,655.872009
687.104004,427.488007,650.015991
689.056030,427.488007,646.112000
689.056030,437.247986,642.208008
679.296021,441.152008,648.064026
683.200012,450.911987,636.351990
683.200012,454.816010,642.208008
687.104004,462.623993,634.400024
689.056030,454.816010,634.400024
691.007996,456.768005,630.495972
689.056030,460.671997,616.831970
681.247986,452.864014,618.783997
685.151978,448.959991,620.736023
683.200012,458.720001,616.831970
681.247986,452.864014,620.736023
681.247986,450.911987,622.687988
687.104004,452.864014,618.783997
689.056030,448.959991,612.927979
685.151978,450.911987,612.927979
692.960022,450.911987,622.687988
685.151978,450.911987,622.687988
687.104004,454.816010,620.736023
696.864014,458.720001,634.400024
694.911987,460.671997,638.304016
694.911987,462.623993,642.208008
692.960022,452.864014,640.255981
694.911987,458.720001,644.159973
694.911987,464.575989,650.015991
696.864014,462.623993,650.015991
696.864014,466.528015,651.968018
683.200012,472.384003,650.015991
696.864014,460.671997,650.015991
689.056030,468.480011,651.968018
702.719971,468.480011,650.015991
694.911987,466.528015,653.919983
694.911987,466.528015,650.015991
685.151978,462.623993,651.968018
692.960022,460.671997,644.159973
689.056030,468.480011,650.015991
681.247986,460.671997,646.112000
681.247986,464.575989,638.304016
679.296021,456.768005,632.447998
677.343994,448.959991,634.400024
675.392029,456.768005,628.544006
675.392029,466.528015,634.400024
667.583984,460.671997,632.447998
685.151978,456.768005,638.304016
681.247986,452.864014,620.736023
671.487976,460.671997,616.831970
671.487976,470.432007,616.831970
677.343994,456.768005,620.736023
675.392029,470.432007,620.736023
677.343994,464.575989,616.831970
681.247986,472.384003,620.736023
679.296021,466.528015,622.687988
681.247986,456.768005,634.400024
677.343994,470.432007,630.495972
683.200012,470.432007,620.736023
679.296021,464.575989,628.544006
669.536011,464.575989,632.447998
689.056030,470.432007,626.591980
679.296021,466.528015,626.591980
681.247986,466.528015,626.591980
679.296021,450.911987,630.495972
681.247986,460.671997,630.495972
679.296021,464.575989,626.591980
677.343994,456.768005,620.736023
679.296021,458.720001,628.544006
683.200012,450.911987,624.640015
677.343994,445.056000,630.495972
681.247986,452.864014,626.591980
683.200012,447.007996,622.687988
687.104004,454.816010,620.736023
685.151978,448.959991,624.640015
679.296021,447.007996,630.495972
685.151978,447.007996,630.495972
681.247986,441.152008,628.544006
677.343994,445.056000,636.351990
683.200012,445.056000,644.159973
679.296021,441.152008,648.064026
685.151978,452.864014,650.015991
687.104004,441.152008,650.015991
687.104004,441.152008,650.015991
687.104004,441.152008,650.015991
694.911987,448.959991,653.919983
696.864014,454.816010,651.968018
687.104004,447.007996,650.015991
681.247986,447.007996,650.015991
683.200012,439.200012,648.064026
681.247986,441.152008,655.872009
681.247986,441.152008,661.728027
671.487976,439.200012,661.728027
671.487976,437.247986,655.872009
667.583984,443.104004,657.823975
675.392029,437.247986,659.776001
667.583984,439.200012,655.872009
665.632019,435.295990,655.872009
659.776001,435.295990,651.968018
663.679993,431.391998,663.679993
663.679993,427.488007,663.679993
661.728027,425.536011,657.823975
657.823975,423.584015,661.728027
655.872009,427.488007,661.728027
653.919983,419.679993,650.015991
655.872009,419.679993,651.968018
648.064026,413.824005,663.679993
653.919983,406.015991,657.823975
653.919983,417.727997,653.919983
646.112000,402.112000,646.112000
640.255981,409.920013,646.112000
640.255981,411.872009,651.968018
638.304016,406.015991,644.159973
626.591980,419.679993,644.159973
630.495972,423.584015,648.064026
628.544006,411.872009,644.159973
630.495972,415.776001,650.015991
628.544006,409.920013,634.400024
628.544006,409.920013,646.112000
626.591980,407.967987,648.064026
626.591980,409.920013,651.968018
628.544006,394.303986,644.159973
626.591980,390.399994,640.255981
634.400024,388.447998,646.112000
622.687988,392.351990,651.968018
622.687988,390.399994,650.015991
618.783997,390.399994,653.919983
618.783997,396.256012,650.015991
618.783997,406.015991,646.112000
616.831970,407.967987,648.064026
610.976013,409.920013,642.208008
610.976013,409.920013,636.351990
603.168030,402.112000,642.208008
593.408020,406.015991,638.304016
593.408020,417.727997,622.687988
601.216003,417.727997,628.544006
597.312012,415.776001,634.400024
597.312012,419.679993,634.400024
599.263977,411.872009,634.400024
597.312012,417.727997,628.544006
593.408020,415.776001,612.927979
585.599976,415.776001,610.976013
593.408020,409.920013,612.927979
589.504028,425.536011,609.023987
591.455994,425.536011,597.312012
581.695984,417.727997,599.263977
583.648010,423.584015,599.263977
577.791992,427.488007,603.168030
573.888000,427.488007,593.408020
569.984009,425.536011,591.455994
566.080017,425.536011,591.455994
571.935974,435.295990,587.552002
571.935974,433.343994,587.552002
571.935974,437.247986,587.552002
568.031982,423.584015,585.599976
566.080017,429.440002,585.599976
571.935974,421.631989,583.648010
569.984009,423.584015,583.648010
566.080017,425.536011,579.744019
571.935974,435.295990,581.695984
560.223999,433.343994,587.552002
564.127991,431.391998,585.599976
554.367981,421.631989,585.599976
552.416016,429.440002,591.455994
560.223999,417.727997,575.840027
556.320007,417.727997,587.552002
560.223999,435.295990,585.599976
550.463989,429.440002,581.695984
558.271973,431.391998,585.599976
550.463989,423.584015,581.695984
556.320007,421.631989,581.695984
556.320007,425.536011,575.840027
560.223999,425.536011,571.935974
556.320007,425.536011,569.984009
550.463989,425.536011,575.840027
552.416016,415.776001,575.840027
552.416016,415.776001,575.840027
552.416016,411.872009,573.888000
550.463989,411.872009,587.552002
558.271973,398.208008,573.888000
546.559998,398.208008,585.599976
556.320007,398.208008,583.648010
556.320007,404.063995,575.840027
558.271973,394.303986,577.791992
552.416016,392.351990,581.695984
550.463989,392.351990,585.599976
554.367981,388.447998,585.599976
560.223999,392.351990,581.695984
558.271973,390.399994,583.648010
562.176025,386.496002,587.552002
556.320007,384.544006,587.552002
564.127991,386.496002,581.695984
554.367981,396.256012,585.599976
546.559998,388.447998,585.599976
556.320007,390.399994,589.504028
548.512024,392.351990,591.455994
560.223999,390.399994,593.408020
550.463989,390.399994,589.504028
556.320007,386.496002,595.359985
548.512024,388.447998,597.312012
550.463989,392.351990,603.168030
548.512024,390.399994,595.359985
554.367981,384.544006,601.216003
556.320007,394.303986,605.119995
558.271973,386.496002,601.216003
554.367981,388.447998,610.976013
554.367981,392.351990,599.263977
560.223999,380.640015,601.216003
554.367981,392.351990,599.263977
554.367981,382.592010,603.168030
556.320007,378.687988,612.927979
550.463989,374.783997,614.880005
548.512024,390.399994,610.976013
548.512024,380.640015,614.880005
550.463989,376.735992,612.927979
556.320007,378.687988,618.783997
552.416016,374.783997,618.783997
548.512024,382.592010,612.927979
538.752014,374.783997,618.783997
552.416016,366.976013,609.023987
542.656006,378.687988,614.880005
548.512024,382.592010,612.927979
534.848022,382.592010,614.880005
544.607971,380.640015,620.736023
538.752014,378.687988,618.783997
538.752014,380.640015,614.880005
538.752014,370.880005,610.976013
544.607971,368.928009,612.927979
534.848022,368.928009,612.927979
548.512024,366.976013,612.927979
538.752014,374.783997,616.831970
532.895996,374.783997,603.168030
532.895996,380.640015,601.216003
527.039978,380.640015,607.072021
528.992004,382.592010,601.216003
527.039978,388.447998,601.216003
527.039978,388.447998,593.408020
527.039978,388.447998,601.216003
523.135986,386.496002,607.072021
528.992004,378.687988,599.263977
542.656006,370.880005,601.216003
534.848022,378.687988,609.023987
538.752014,376.735992,609.023987
530.943970,370.880005,610.976013
532.895996,374.783997,612.927979
536.799988,374.783997,610.976013
550.463989,378.687988,618.783997
540.703979,376.735992,614.880005
552.416016,374.783997,626.591980
560.223999,376.735992,628.544006
554.367981,374.783997,630.495972
554.367981,372.832001,634.400024
558.271973,384.544006,642.208008
558.271973,380.640015,636.351990
560.223999,374.783997,646.112000
571.935974,392.351990,648.064026
560.223999,378.687988,650.015991
566.080017,378.687988,646.112000
577.791992,368.928009,653.919983
577.791992,378.687988,651.968018
573.888000,374.783997,651.968018
573.888000,382.592010,657.823975
575.840027,386.496002,659.776001
587.552002,384.544006,653.919983
587.552002,378.687988,655.872009
585.599976,376.735992,657.823975
589.504028,378.687988,651.968018
591.455994,382.592010,653.919983
587.552002,378.687988,657.823975
577.791992,378.687988,646.112000
585.599976,382.592010,650.015991
589.504028,388.447998,653.919983
585.599976,388.447998,651.968018
585.599976,384.544006,651.968018
577.791992,396.256012,648.064026
591.455994,396.256012,648.064026
593.408020,382.592010,644.159973
597.312012,386.496002,646.112000
585.599976,392.351990,636.351990
591.455994,390.399994,644.159973
585.599976,382.592010,650.015991
583.648010,398.208008,646.112000
593.408020,396.256012,648.064026
591.455994,392.351990,648.064026
585.599976,400.160004,659.776001
589.504028,396.256012,648.064026
591.455994,384.544006,653.919983
587.552002,384.544006,644.159973
587.552002,388.447998,650.015991
599.263977,384.544006,648.064026
587.552002,396.256012,648.064026
589.504028,388.447998,655.872009
601.216003,382.592010,651.968018
593.408020,384.544006,648.064026
597.312012,376.735992,648.064026
599.263977,380.640015,648.064026
603.168030,390.399994,665.632019
601.216003,384.544006,651.968018
599.263977,386.496002,655.872009
603.168030,376.735992,651.968018
603.168030,388.447998,648.064026
597.312012,384.544006,646.112000
597.312012,376.735992,650.015991
599.263977,380.640015,651.968018
609.023987,372.832001,650.015991
610.976013,372.832001,653.919983
607.072021,372.832001,651.968018
616.831970,376.735992,653.919983
609.023987,372.832001,651.968018
620.736023,368.928009,646.112000
607.072021,374.783997,655.872009
622.687988,372.832001,671.487976
612.927979,365.023987,661.728027
616.831970,370.880005,659.776001
620.736023,368.928009,651.968018
620.736023,365.023987,648.064026
618.783997,374.783997,665.632019
620.736023,370.880005,657.823975
624.640015,368.928009,653.919983
618.783997,376.735992,659.776001
624.640015,366.976013,661.728027
618.783997,363.071991,665.632019
628.544006,357.216003,665.632019
626.591980,363.071991,669.536011
632.447998,368.928009,663.679993
634.400024,359.167999,665.632019
636.351990,366.976013,663.679993
632.447998,365.023987,663.679993
638.304016,368.928009,661.728027
636.351990,365.023987,661.728027
646.112000,372.832001,661.728027
642.208008,368.928009,661.728027
644.159973,359.167999,661.728027
638.304016,374.783997,655.872009
642.208008,372.832001,665.632019
644.159973,365.023987,661.728027
648.064026,376.735992,659.776001
650.015991,363.071991,669.536011
657.823975,368.928009,657.823975
659.776001,366.976013,659.776001
655.872009,368.928009,665.632019
663.679993,366.976013,669.536011
667.583984,376.735992,663.679993
663.679993,378.687988,661.728027
659.776001,376.735992,659.776001
661.728027,366.976013,663.679993
663.679993,366.976013,675.392029
681.247986,363.071991,665.632019
673.440002,368.928009,663.679993
673.440002,365.023987,667.583984
665.632019,365.023987,665.632019
663.679993,370.880005,669.536011
667.583984,374.783997,673.440002
673.440002,374.783997,665.632019
675.392029,363.071991,669.536011
673.440002,392.351990,677.343994
673.440002,380.640015,677.343994
677.343994,378.687988,665.632019
696.864014,384.544006,671.487976
677.343994,384.544006,675.392029
685.151978,382.592010,663.679993
675.392029,390.399994,661.728027
673.440002,392.351990,665.632019
687.104004,384.544006,653.919983
692.960022,388.447998,655.872009
692.960022,382.592010,651.968018
685.151978,390.399994,655.872009
685.151978,384.544006,661.728027
675.392029,388.447998,655.872009
689.056030,394.303986,663.679993
681.247986,396.256012,655.872009
689.056030,392.351990,661.728027
685.151978,396.256012,651.968018
683.200012,396.256012,651.968018
679.296021,384.544006,657.823975
681.247986,388.447998,661.728027
692.960022,396.256012,651.968018
683.200012,407.967987,653.919983
683.200012,400.160004,648.064026
687.104004,390.399994,644.159973
691.007996,400.160004,650.015991
691.007996,400.160004,651.968018
689.056030,396.256012,648.064026
691.007996,396.256012,651.968018
687.104004,400.160004,648.064026
692.960022,392.351990,648.064026
691.007996,404.063995,653.919983
692.960022,392.351990,646.112000
685.151978,404.063995,646.112000
692.960022,396.256012,650.015991
687.104004,390.399994,642.208008
687.104004,407.967987,648.064026
692.960022,411.872009,657.823975
692.960022,394.303986,648.064026
692.960022,404.063995,640.255981
700.768005,400.160004,648.064026
691.007996,407.967987,646.112000
694.911987,413.824005,648.064026
700.768005,411.872009,650.015991
694.911987,411.872009,648.064026
698.815979,415.776001,646.112000
691.007996,406.015991,650.015991
700.768005,411.872009,648.064026
700.768005,406.015991,651.968018
704.671997,409.920013,644.159973
708.575989,413.824005,650.015991
704.671997,409.920013,650.015991
706.624023,415.776001,651.968018
712.479980,415.776001,650.015991
710.528015,409.920013,650.015991
712.479980,419.679993,650.015991
706.624023,419.679993,651.968018
698.815979,411.872009,648.064026
708.575989,407.967987,648.064026
698.815979,415.776001,648.064026
694.911987,417.727997,646.112000
702.719971,413.824005,648.064026
698.815979,419.679993,640.255981
700.768005,409.920013,638.304016
696.864014,415.776001,646.112000
687.104004,425.536011,638.304016
696.864014,409.920013,638.304016
689.056030,417.727997,642.208008
696.864014,415.776001,640.255981
691.007996,423.584015,640.255981
687.104004,435.295990,646.112000
677.343994,421.631989,638.304016
696.864014,409.920013,628.544006
691.007996,409.920013,636.351990
683.200012,415.776001,630.495972
687.104004,421.631989,624.640015
689.056030,423.584015,632.447998
683.200012,425.536011,642.208008
679.296021,423.584015,640.255981
692.960022,429.440002,644.159973
685.151978,437.247986,638.304016
687.104004,433.343994,634.400024
683.200012,439.200012,646.112000
694.911987,439.200012,642.208008
692.960022,433.343994,642.208008
683.200012,443.104004,632.447998
685.151978,435.295990,638.304016
692.960022,425.536011,640.255981
675.392029,431.391998,642.208008
696.864014,435.295990,644.159973
683.200012,435.295990,650.015991
691.007996,445.056000,644.159973
696.864014,427.488007,642.208008
691.007996,429.440002,642.208008
696.864014,423.584015,646.112000
683.200012,431.391998,638.304016
689.056030,441.152008,640.255981
681.247986,435.295990,640.255981
685.151978,435.295990,638.304016
683.200012,445.056000,638.304016
687.104004,435.295990,632.447998
687.104004,433.343994,634.400024
683.200012,435.295990,636.351990
691.007996,441.152008,636.351990
698.815979,429.440002,630.495972
694.911987,429.440002,640.255981
691.007996,431.391998,636.351990
687.104004,439.200012,638.304016
679.296021,437.247986,642.208008
691.007996,431.391998,640.255981
689.056030,427.488007,640.255981
687.104004,427.488007,644.159973
689.056030,411.872009,636.351990
694.911987,415.776001,646.112000
689.056030,423.584015,642.208008
692.960022,427.488007,632.447998
687.104004,413.824005,632.447998
689.056030,417.727997,632.447998
687.104004,427.488007,630.495972
679.296021,429.440002,628.544006
691.007996,429.440002,634.400024
675.392029,427.488007,630.495972
689.056030,425.536011,636.351990
683.200012,417.727997,634.400024
685.151978,409.920013,630.495972
692.960022,407.967987,632.447998
681.247986,415.776001,630.495972
689.056030,413.824005,640.255981
694.911987,398.208008,636.351990
681.247986,406.015991,636.351990
696.864014,411.872009,644.159973
687.104004,402.112000,634.400024
687.104004,394.303986,648.064026
685.151978,413.824005,640.255981
696.864014,409.920013,640.255981
692.960022,404.063995,634.400024
694.911987,386.496002,638.304016
698.815979,390.399994,628.544006
700.768005,390.399994,632.447998
696.864014,386.496002,640.255981
691.007996,396.256012,638.304016
679.296021,396.256012,628.544006
689.056030,392.351990,632.447998
689.056030,384.544006,630.495972
687.104004,400.160004,628.544006
687.104004,392.351990,634.400024
689.056030,380.640015,624.640015
696.864014,382.592010,626.591980
691.007996,388.447998,620.736023
687.104004,388.447998,630.495972
694.911987,378.687988,626.591980
683.200012,382.592010,628.544006
694.911987,392.351990,626.591980
679.296021,380.640015,632.447998
687.104004,380.640015,638.304016
692.960022,390.399994,628.544006
691.007996,376.735992,628.544006
685.151978,386.496002,636.351990
689.056030,392.351990,630.495972
685.151978,384.544006,624.640015
685.151978,370.880005,628.544006
689.056030,374.783997,622.687988
687.104004,384.544006,618.783997
685.151978,378.687988,618.783997
683.200012,376.735992,616.831970
687.104004,384.544006,618.783997
685.151978,376.735992,620.736023
679.296021,368.928009,612.927979
681.247986,363.071991,609.023987
685.151978,374.783997,609.023987
681.247986,372.832001,614.880005
681.247986,372.832001,614.880005
691.007996,380.640015,616.831970
683.200012,370.880005,607.072021
692.960022,378.687988,614.880005
679.296021,368.928009,614.880005
685.151978,380.640015,607.072021
687.104004,382.592010,610.976013
687.104004,363.071991,614.880005
687.104004,368.928009,614.880005
687.104004,378.687988,618.783997
687.104004,380.640015,614.880005
677.343994,365.023987,618.783997
687.104004,376.735992,607.072021
681.247986,376.735992,618.783997
687.104004,368.928009,612.927979
698.815979,366.976013,612.927979
692.960022,378.687988,612.927979
694.911987,372.832001,610.976013
692.960022,374.783997,609.023987
689.056030,378.687988,614.880005
694.911987,380.640015,616.831970
694.911987,370.880005,605.119995
694.911987,376.735992,607.072021
696.864014,378.687988,607.072021
691.007996,380.640015,610.976013
692.960022,374.783997,609.023987
696.864014,378.687988,603.168030
694.911987,372.832001,601.216003
687.104004,370.880005,601.216003
694.911987,378.687988,603.168030
698.815979,378.687988,601.216003
704.671997,380.640015,607.072021
696.864014,388.447998,603.168030
696.864014,388.447998,603.168030
702.719971,376.735992,603.168030
702.719971,382.592010,605.119995
706.624023,376.735992,601.216003
696.864014,365.023987,607.072021
708.575989,384.544006,610.976013
702.719971,378.687988,607.072021
708.575989,370.880005,599.263977
720.288025,374.783997,603.168030
714.432007,380.640015,601.216003
716.383972,384.544006,610.976013
710.528015,382.592010,601.216003
724.192017,374.783997,609.023987
716.383972,374.783997,603.168030
718.335999,372.832001,610.976013
712.479980,365.023987,618.783997
720.288025,382.592010,610.976013
706.624023,374.783997,618.783997
724.192017,376.735992,607.072021
718.335999,390.399994,618.783997
718.335999,386.496002,609.023987
724.192017,380.640015,603.168030
718.335999,386.496002,614.880005
720.288025,382.592010,601.216003
722.239990,384.544006,610.976013
724.192017,370.880005,612.927979
728.096008,370.880005,614.880005
720.288025,380.640015,605.119995
728.096008,376.735992,609.023987
724.192017,378.687988,610.976013
728.096008,378.687988,609.023987
726.143982,366.976013,610.976013
724.192017,366.976013,605.119995
733.952026,376.735992,603.168030
726.143982,370.880005,607.072021
730.047974,376.735992,605.119995
724.192017,365.023987,605.119995
716.383972,370.880005,614.880005
726.143982,376.735992,603.168030
722.239990,365.023987,597.312012
716.383972,372.832001,607.072021
714.432007,355.264008,601.216003
718.335999,361.119995,603.168030
728.096008,359.167999,603.168030
714.432007,363.071991,603.168030
710.528015,361.119995,597.312012
730.047974,353.312012,607.072021
730.047974,347.455994,601.216003
728.096008,359.167999,609.023987
722.239990,349.407990,612.927979
718.335999,355.264008,614.880005
730.047974,365.023987,601.216003
724.192017,357.216003,599.263977
722.239990,359.167999,607.072021
728.096008,366.976013,610.976013
732.000000,359.167999,607.072021
730.047974,355.264008,609.023987
722.239990,359.167999,607.072021
730.047974,359.167999,610.976013
724.192017,361.119995,616.831970
726.143982,355.264008,614.880005
732.000000,357.216003,614.880005
739.807983,359.167999,614.880005
710.528015,353.312012,614.880005
726.143982,365.023987,609.023987
728.096008,351.359985,607.072021
722.239990,357.216003,603.168030
743.711975,349.407990,601.216003
726.143982,349.407990,599.263977
720.288025,357.216003,603.168030
714.432007,365.023987,597.312012
714.432007,365.023987,605.119995
720.288025,355.264008,599.263977
712.479980,366.976013,593.408020
724.192017,368.928009,597.312012
698.815979,357.216003,603.168030
691.007996,374.783997,607.072021
698.815979,368.928009,589.504028
706.624023,349.407990,589.504028
706.624023,353.312012,591.455994
702.719971,351.359985,577.791992
706.624023,353.312012,587.552002
704.671997,363.071991,585.599976
704.671997,355.264008,585.599976
692.960022,347.455994,581.695984
696.864014,370.880005,581.695984
691.007996,368.928009,583.648010
683.200012,351.359985,579.744019
689.056030,368.928009,577.791992
691.007996,361.119995,589.504028
704.671997,365.023987,593.408020
696.864014,363.071991,589.504028
704.671997,349.407990,591.455994
706.624023,349.407990,597.312012
712.479980,343.552002,599.263977
735.903992,361.119995,595.359985
691.007996,359.167999,593.408020
710.528015,357.216003,583.648010
694.911987,359.167999,589.504028
696.864014,353.312012,581.695984
687.104004,363.071991,581.695984
692.960022,355.264008,585.599976
691.007996,357.216003,583.648010
679.296021,349.407990,566.080017
691.007996,347.455994,568.031982
685.151978,363.071991,571.935974
679.296021,351.359985,569.984009
677.343994,357.216003,568.031982
675.392029,361.119995,558.271973
679.296021,366.976013,560.223999
687.104004,347.455994,568.031982
677.343994,349.407990,562.176025
679.296021,357.216003,568.031982
671.487976,363.071991,569.984009
685.151978,335.743988,571.935974
671.487976,349.407990,562.176025
685.151978,365.023987,571.935974
671.487976,347.455994,568.031982
675.392029,341.600006,568.031982
685.151978,355.264008,564.127991
681.247986,353.312012,568.031982
671.487976,363.071991,562.176025
681.247986,343.552002,569.984009
665.632019,353.312012,569.984009
675.392029,365.023987,562.176025
681.247986,366.976013,560.223999
657.823975,363.071991,560.223999
671.487976,368.928009,550.463989
667.583984,363.071991,548.512024
677.343994,357.216003,540.703979
673.440002,357.216003,550.463989
681.247986,347.455994,546.559998
681.247986,359.167999,550.463989
679.296021,349.407990,542.656006
675.392029,324.032013,548.512024
685.151978,335.743988,558.271973
663.679993,351.359985,554.367981
675.392029,327.936005,556.320007
681.247986,337.696014,558.271973
677.343994,349.407990,562.176025
696.864014,341.600006,568.031982
696.864014,341.600006,554.367981
694.911987,343.552002,556.320007
687.104004,341.600006,550.463989
694.911987,337.696014,558.271973
696.864014,343.552002,556.320007
700.768005,335.743988,556.320007
700.768005,337.696014,556.320007
702.719971,335.743988,560.223999
700.768005,343.552002,560.223999
700.768005,337.696014,568.031982
700.768005,322.079987,560.223999
706.624023,324.032013,558.271973
724.192017,329.888000,554.367981
706.624023,318.175995,554.367981
704.671997,308.415985,552.416016
704.671997,310.368011,548.512024
700.768005,300.608002,550.463989
702.719971,316.223999,546.559998
710.528015,310.368011,546.559998
700.768005,296.704010,540.703979
716.383972,308.415985,546.559998
708.575989,296.704010,540.703979
716.383972,300.608002,540.703979
714.432007,302.559998,558.271973
714.432007,306.463989,546.559998
706.624023,298.656006,540.703979
712.479980,300.608002,552.416016
716.383972,306.463989,552.416016
718.335999,296.704010,550.463989
718.335999,292.799988,556.320007
724.192017,298.656006,560.223999
726.143982,292.799988,554.367981
724.192017,294.752014,558.271973
716.383972,284.992004,556.320007
728.096008,281.088013,556.320007
726.143982,296.704010,550.463989
728.096008,283.040009,546.559998
724.192017,281.088013,542.656006
730.047974,284.992004,548.512024
743.711975,281.088013,552.416016
737.856018,279.135986,542.656006
735.903992,283.040009,542.656006
735.903992,281.088013,564.127991
733.952026,283.040009,556.320007
733.952026,292.799988,556.320007
741.760010,283.040009,554.367981
733.952026,286.944000,560.223999
726.143982,286.944000,558.271973
730.047974,281.088013,554.367981
732.000000,290.847992,554.367981
743.711975,281.088013,558.271973
732.000000,267.424011,554.367981
745.664001,277.183990,560.223999
741.760010,273.279999,560.223999
737.856018,277.183990,554.367981
749.567993,263.519989,564.127991
737.856018,261.567993,554.367981
743.711975,273.279999,548.512024
737.856018,273.279999,548.512024
751.520020,271.328003,554.367981
747.616028,261.567993,552.416016
735.903992,265.471985,556.320007
741.760010,267.424011,542.656006
749.567993,275.231995,552.416016
745.664001,283.040009,562.176025
745.664001,273.279999,554.367981
745.664001,277.183990,554.367981
767.135986,279.135986,552.416016
759.328003,271.328003,558.271973
755.424011,265.471985,558.271973
745.664001,286.944000,562.176025
741.760010,279.135986,564.127991
743.711975,279.135986,562.176025
747.616028,279.135986,560.223999
737.856018,263.519989,550.463989
749.567993,263.519989,564.127991
759.328003,269.376007,554.367981
759.328003,273.279999,550.463989
747.616028,275.231995,560.223999
753.471985,267.424011,558.271973
757.375977,283.040009,550.463989
749.567993,298.656006,558.271973
763.231995,283.040009,562.176025
761.280029,286.944000,562.176025
761.280029,298.656006,554.367981
743.711975,302.559998,558.271973
757.375977,302.559998,564.127991
733.952026,304.511993,558.271973
749.567993,302.559998,560.223999
745.664001,281.088013,544.607971
753.471985,298.656006,544.607971
755.424011,304.511993,544.607971
749.567993,284.992004,548.512024
751.520020,312.320007,552.416016
741.760010,300.608002,546.559998
741.760010,290.847992,554.367981
747.616028,314.272003,558.271973
741.760010,314.272003,554.367981
747.616028,306.463989,546.559998
743.711975,318.175995,552.416016
743.711975,312.320007,556.320007
755.424011,302.559998,546.559998
749.567993,329.888000,550.463989
751.520020,320.127991,552.416016
753.471985,320.127991,550.463989
751.520020,325.984009,550.463989
745.664001,312.320007,544.607971
739.807983,318.175995,550.463989
743.711975,331.839996,552.416016
741.760010,324.032013,536.799988
743.711975,335.743988,536.799988
745.664001,324.032013,538.752014
730.047974,320.127991,532.895996
737.856018,333.791992,538.752014
737.856018,316.223999,536.799988
739.807983,314.272003,530.943970
749.567993,320.127991,534.848022
733.952026,322.079987,538.752014
730.047974,325.984009,538.752014
735.903992,333.791992,536.799988
733.952026,329.888000,536.799988
743.711975,327.936005,536.799988
751.520020,322.079987,523.135986
730.047974,331.839996,527.039978
747.616028,329.888000,527.039978
724.192017,343.552002,521.184021
739.807983,337.696014,521.184021
743.711975,324.032013,519.231995
749.567993,333.791992,519.231995
735.903992,324.032013,515.328003
730.047974,335.743988,521.184021
749.567993,331.839996,521.184021
732.000000,322.079987,523.135986
745.664001,324.032013,523.135986
749.567993,325.984009,528.992004
747.616028,325.984009,519.231995
745.664001,329.888000,521.184021
747.616028,324.032013,519.231995
753.471985,322.079987,509.471985
763.231995,318.175995,521.184021
747.616028,312.320007,521.184021
763.231995,325.984009,513.375977
765.184021,314.272003,515.328003
763.231995,312.320007,519.231995
778.848022,310.368011,521.184021
767.135986,300.608002,536.799988
763.231995,308.415985,528.992004
778.848022,316.223999,527.039978
772.992004,312.320007,517.280029
782.752014,306.463989,525.088013
776.895996,308.415985,523.135986
786.656006,294.752014,528.992004
790.559998,298.656006,523.135986
778.848022,304.511993,532.895996
780.799988,294.752014,525.088013
782.752014,310.368011,523.135986
778.848022,306.463989,527.039978
776.895996,306.463989,527.039978
778.848022,304.511993,534.848022
776.895996,310.368011,530.943970
782.752014,296.704010,536.799988
776.895996,310.368011,521.184021
788.607971,288.895996,527.039978
782.752014,292.799988,521.184021
794.463989,306.463989,525.088013
796.416016,294.752014,521.184021
784.703979,286.944000,519.231995
784.703979,290.847992,521.184021
776.895996,292.799988,538.752014
786.656006,288.895996,527.039978
778.848022,296.704010,527.039978
780.799988,288.895996,528.992004
784.703979,286.944000,538.752014
794.463989,279.135986,530.943970
798.367981,277.183990,532.895996
790.559998,290.847992,527.039978
794.463989,290.847992,534.848022
798.367981,288.895996,530.943970
796.416016,277.183990,530.943970
794.463989,288.895996,528.992004
802.271973,290.847992,534.848022
800.320007,286.944000,534.848022
794.463989,286.944000,532.895996
800.320007,296.704010,527.039978
792.512024,290.847992,534.848022
796.416016,290.847992,532.895996
800.320007,296.704010,532.895996
790.559998,294.752014,532.895996
798.367981,281.088013,532.895996
800.320007,283.040009,536.799988
792.512024,298.656006,523.135986
806.176025,283.040009,532.895996
804.223999,284.992004,532.895996
794.463989,288.895996,532.895996
788.607971,286.944000,530.943970
792.512024,286.944000,532.895996
792.512024,286.944000,523.135986
804.223999,302.559998,521.184021
794.463989,290.847992,521.184021
800.320007,288.895996,523.135986
792.512024,288.895996,532.895996
798.367981,288.895996,523.135986
792.512024,286.944000,523.135986
790.559998,292.799988,527.039978
790.559998,281.088013,527.039978
788.607971,294.752014,528.992004
788.607971,294.752014,532.895996
792.512024,286.944000,521.184021
786.656006,292.799988,527.039978
788.607971,298.656006,527.039978
784.703979,281.088013,527.039978
782.752014,284.992004,525.088013
794.463989,294.752014,511.424011
798.367981,279.135986,513.375977
792.512024,284.992004,515.328003
790.559998,294.752014,521.184021
788.607971,292.799988,521.184021
788.607971,302.559998,523.135986
790.559998,306.463989,519.231995
788.607971,294.752014,515.328003
780.799988,296.704010,528.992004
792.512024,302.559998,519.231995
798.367981,294.752014,521.184021
788.607971,298.656006,527.039978
802.271973,286.944000,525.088013
788.607971,294.752014,532.895996
788.607971,306.463989,528.992004
796.416016,300.608002,528.992004
792.512024,294.752014,528.992004
794.463989,300.608002,519.231995
794.463989,300.608002,525.088013
792.512024,298.656006,521.184021
784.703979,304.511993,521.184021
790.559998,312.320007,517.280029
788.607971,308.415985,509.471985
786.656006,306.463989,511.424011
798.367981,318.175995,525.088013
792.512024,310.368011,517.280029
784.703979,302.559998,511.424011
790.559998,302.559998,517.280029
788.607971,296.704010,511.424011
782.752014,302.559998,505.567993
780.799988,304.511993,511.424011
786.656006,296.704010,513.375977
784.703979,302.559998,521.184021
792.512024,304.511993,507.519989
788.607971,304.511993,511.424011
790.559998,302.559998,513.375977
786.656006,302.559998,519.231995
794.463989,308.415985,505.567993
784.703979,298.656006,507.519989
788.607971,302.559998,513.375977
798.367981,304.511993,519.231995
794.463989,310.368011,511.424011
792.512024,306.463989,519.231995
798.367981,306.463989,515.328003
800.320007,296.704010,523.135986
786.656006,302.559998,511.424011
788.607971,304.511993,513.375977
786.656006,302.559998,507.519989
792.512024,308.415985,507.519989
788.607971,302.559998,515.328003
790.559998,296.704010,515.328003
786.656006,304.511993,505.567993
790.559998,296.704010,511.424011
788.607971,304.511993,509.471985
786.656006,304.511993,507.519989
784.703979,306.463989,503.615997
778.848022,312.320007,507.519989
774.943970,310.368011,517.280029
776.895996,304.511993,503.615997
778.848022,308.415985,509.471985
772.992004,300.608002,507.519989
778.848022,314.272003,495.808014
778.848022,296.704010,499.712006
772.992004,296.704010,501.664001
772.992004,302.559998,501.664001
772.992004,296.704010,497.760010
772.992004,302.559998,495.808014
774.943970,296.704010,505.567993
765.184021,296.704010,503.615997
769.088013,300.608002,503.615997
761.280029,298.656006,495.808014
757.375977,298.656006,491.903992
771.039978,296.704010,484.096008
765.184021,296.704010,489.951996
767.135986,298.656006,489.951996
761.280029,302.559998,486.048004
751.520020,298.656006,488.000000
763.231995,294.752014,489.951996
757.375977,290.847992,489.951996
763.231995,296.704010,482.144012
757.375977,296.704010,486.048004
759.328003,296.704010,484.096008
757.375977,292.799988,489.951996
759.328003,296.704010,489.951996
759.328003,294.752014,493.855988
753.471985,296.704010,484.096008
759.328003,294.752014,489.951996
769.088013,296.704010,486.048004
757.375977,284.992004,489.951996
757.375977,294.752014,489.951996
765.184021,300.608002,488.000000
761.280029,296.704010,486.048004
759.328003,296.704010,489.951996
763.231995,292.799988,489.951996
763.231995,296.704010,484.096008
759.328003,284.992004,489.951996
761.280029,281.088013,493.855988
761.280029,288.895996,489.951996
765.184021,294.752014,484.096008
761.280029,284.992004,489.951996
763.231995,288.895996,491.903992
759.328003,279.135986,497.760010
763.231995,279.135986,505.567993
772.992004,283.040009,501.664001
765.184021,286.944000,493.855988
774.943970,284.992004,488.000000
771.039978,267.424011,497.760010
772.992004,271.328003,486.048004
771.039978,279.135986,489.951996
767.135986,271.328003,488.000000
771.039978,277.183990,488.000000
765.184021,275.231995,488.000000
765.184021,279.135986,488.000000
763.231995,277.183990,488.000000
765.184021,281.088013,493.855988
763.231995,281.088013,497.760010
761.280029,277.183990,488.000000
774.943970,279.135986,489.951996
763.231995,279.135986,488.000000
772.992004,271.328003,491.903992
769.088013,275.231995,489.951996
769.088013,271.328003,486.048004
767.135986,271.328003,488.000000
763.231995,265.471985,482.144012
761.280029,265.471985,486.048004
767.135986,275.231995,486.048004
771.039978,267.424011,486.048004
772.992004,259.615997,482.144012
772.992004,267.424011,486.048004
771.039978,269.376007,486.048004
761.280029,263.519989,482.144012
776.895996,257.664001,480.191986
772.992004,257.664001,486.048004
772.992004,263.519989,480.191986
782.752014,261.567993,486.048004
776.895996,257.664001,482.144012
769.088013,267.424011,484.096008
772.992004,267.424011,486.048004
772.992004,257.664001,486.048004
774.943970,259.615997,493.855988
774.943970,253.759995,488.000000
771.039978,261.567993,488.000000
774.943970,257.664001,488.000000
776.895996,259.615997,480.191986
782.752014,251.807999,491.903992
782.752014,253.759995,493.855988
778.848022,261.567993,486.048004
786.656006,267.424011,491.903992
788.607971,251.807999,486.048004
782.752014,265.471985,491.903992
788.607971,255.712006,495.808014
786.656006,271.328003,501.664001
788.607971,267.424011,501.664001
794.463989,259.615997,501.664001
792.512024,263.519989,491.903992
802.271973,279.135986,501.664001
794.463989,275.231995,495.808014
796.416016,279.135986,501.664001
794.463989,269.376007,499.712006
804.223999,277.183990,499.712006
798.367981,267.424011,501.664001
806.176025,271.328003,493.855988
802.271973,263.519989,493.855988
804.223999,273.279999,501.664001
806.176025,284.992004,493.855988
802.271973,275.231995,493.855988
802.271973,279.135986,493.855988
804.223999,279.135986,491.903992
804.223999,283.040009,495.808014
802.271973,281.088013,495.808014
810.080017,281.088013,495.808014
813.984009,281.088013,489.951996
800.320007,284.992004,493.855988
804.223999,294.752014,493.855988
804.223999,279.135986,493.855988
804.223999,284.992004,491.903992
808.127991,284.992004,491.903992
806.176025,284.992004,493.855988
804.223999,283.040009,489.951996
806.176025,283.040009,493.855988
812.031982,275.231995,489.951996
808.127991,283.040009,489.951996
810.080017,284.992004,491.903992
817.888000,283.040009,488.000000
810.080017,269.376007,489.951996
815.935974,281.088013,493.855988
817.888000,283.040009,486.048004
808.127991,275.231995,489.951996
804.223999,279.135986,489.951996
808.127991,277.183990,491.903992
817.888000,283.040009,488.000000
810.080017,273.279999,484.096008
817.888000,265.471985,486.048004
825.695984,283.040009,480.191986
813.984009,279.135986,484.096008
810.080017,281.088013,484.096008
817.888000,279.135986,486.048004
810.080017,281.088013,489.951996
819.840027,286.944000,489.951996
823.744019,273.279999,480.191986
821.791992,273.279999,478.239990
815.935974,290.847992,480.191986
823.744019,284.992004,484.096008
810.080017,279.135986,484.096008
813.984009,286.944000,488.000000
819.840027,277.183990,480.191986
817.888000,283.040009,480.191986
813.984009,281.088013,482.144012
831.552002,283.040009,480.191986
819.840027,283.040009,482.144012
815.935974,286.944000,476.287994
808.127991,286.944000,476.287994
821.791992,290.847992,482.144012
810.080017,292.799988,474.335999
817.888000,283.040009,476.287994
813.984009,286.944000,480.191986
813.984009,288.895996,476.287994
813.984009,283.040009,470.432007
819.840027,273.279999,480.191986
819.840027,286.944000,472.384003
815.935974,288.895996,478.239990
813.984009,288.895996,480.191986
829.599976,286.944000,472.384003
812.031982,273.279999,478.239990
819.840027,275.231995,472.384003
810.080017,279.135986,482.144012
815.935974,283.040009,470.432007
815.935974,279.135986,474.335999
819.840027,275.231995,476.287994
817.888000,279.135986,472.384003
819.840027,283.040009,474.335999
821.791992,283.040009,478.239990
815.935974,281.088013,474.335999
815.935974,281.088013,476.287994
815.935974,265.471985,472.384003
819.840027,269.376007,474.335999
825.695984,267.424011,472.384003
823.744019,273.279999,468.480011
815.935974,279.135986,464.575989
821.791992,275.231995,466.528015
815.935974,275.231995,466.528015
827.648010,281.088013,474.335999
815.935974,275.231995,474.335999
815.935974,283.040009,470.432007
821.791992,279.135986,466.528015
812.031982,277.183990,474.335999
819.840027,269.376007,460.671997
819.840027,277.183990,462.623993
825.695984,281.088013,474.335999
821.791992,271.328003,458.720001
829.599976,261.567993,466.528015
817.888000,267.424011,464.575989
815.935974,286.944000,466.528015
823.744019,290.847992,464.575989
821.791992,281.088013,468.480011
825.695984,281.088013,462.623993
821.791992,288.895996,452.864014
821.791992,284.992004,452.864014
819.840027,277.183990,454.816010
812.031982,283.040009,454.816010
825.695984,290.847992,456.768005
825.695984,288.895996,447.007996
825.695984,286.944000,437.247986
827.648010,286.944000,441.152008
823.744019,296.704010,441.152008
825.695984,281.088013,443.104004
825.695984,279.135986,450.911987
819.840027,286.944000,441.152008
831.552002,290.847992,443.104004
821.791992,286.944000,435.295990
825.695984,296.704010,439.200012
827.648010,292.799988,433.343994
843.263977,296.704010,425.536011
829.599976,298.656006,439.200012
829.599976,302.559998,439.200012
835.455994,308.415985,433.343994
835.455994,292.799988,425.536011
839.359985,306.463989,425.536011
841.312012,300.608002,427.488007
847.168030,312.320007,437.247986
849.119995,304.511993,439.200012
851.072021,318.175995,435.295990
847.168030,310.368011,437.247986
856.927979,308.415985,431.391998
853.023987,312.320007,435.295990
860.831970,314.272003,433.343994
853.023987,310.368011,433.343994
864.736023,304.511993,443.104004
856.927979,310.368011,445.056000
862.783997,314.272003,435.295990
864.736023,314.272003,439.200012
866.687988,318.175995,427.488007
872.544006,322.079987,425.536011
862.783997,320.127991,431.391998
872.544006,314.272003,429.440002
872.544006,325.984009,425.536011
870.591980,331.839996,421.631989
872.544006,331.839996,423.584015
880.351990,329.888000,427.488007
874.495972,333.791992,431.391998
874.495972,331.839996,421.631989
880.351990,329.888000,441.152008
878.400024,335.743988,435.295990
886.208008,329.888000,433.343994
897.919983,333.791992,429.440002
895.968018,320.127991,431.391998
903.776001,337.696014,441.152008
897.919983,337.696014,439.200012
894.015991,339.648010,439.200012
899.872009,349.407990,443.104004
897.919983,351.359985,445.056000
895.968018,343.552002,437.247986
905.728027,351.359985,441.152008
903.776001,357.216003,435.295990
899.872009,353.312012,429.440002
907.679993,349.407990,419.679993
919.392029,353.312012,427.488007
911.583984,353.312012,431.391998
911.583984,357.216003,433.343994
901.823975,353.312012,425.536011
907.679993,361.119995,417.727997
913.536011,368.928009,417.727997
913.536011,368.928009,425.536011
915.487976,359.167999,417.727997
911.583984,365.023987,421.631989
909.632019,353.312012,415.776001
909.632019,359.167999,421.631989
913.536011,359.167999,411.872009
919.392029,355.264008,421.631989
915.487976,359.167999,417.727997
915.487976,365.023987,419.679993
917.440002,365.023987,417.727997
913.536011,365.023987,417.727997
921.343994,372.832001,425.536011
915.487976,368.928009,425.536011
927.200012,359.167999,425.536011
919.392029,359.167999,415.776001
921.343994,361.119995,407.967987
917.440002,363.071991,411.872009
929.151978,363.071991,413.824005
933.056030,363.071991,413.824005
929.151978,368.928009,415.776001
935.007996,366.976013,419.679993
925.247986,370.880005,419.679993
942.815979,363.071991,419.679993
913.536011,365.023987,419.679993
933.056030,370.880005,427.488007
917.440002,376.735992,419.679993
929.151978,368.928009,407.967987
933.056030,363.071991,413.824005
929.151978,353.312012,411.872009
931.104004,359.167999,415.776001
935.007996,363.071991,415.776001
923.296021,359.167999,415.776001
929.151978,361.119995,411.872009
921.343994,349.407990,411.872009
919.392029,357.216003,415.776001
921.343994,374.783997,419.679993
913.536011,368.928009,417.727997
921.343994,359.167999,423.584015
923.296021,363.071991,411.872009
929.151978,368.928009,402.112000
936.960022,365.023987,413.824005
927.200012,366.976013,409.920013
923.296021,368.928009,421.631989
917.440002,372.832001,413.824005
919.392029,366.976013,421.631989
911.583984,372.832001,421.631989
917.440002,370.880005,417.727997
919.392029,372.832001,413.824005
913.536011,374.783997,409.920013
913.536011,368.928009,411.872009
915.487976,359.167999,415.776001
911.583984,372.832001,419.679993
927.200012,347.455994,421.631989
911.583984,339.648010,423.584015
917.440002,361.119995,429.440002
909.632019,363.071991,423.584015
909.632019,357.216003,409.920013
913.536011,365.023987,421.631989
899.872009,372.832001,417.727997
909.632019,359.167999,421.631989
907.679993,365.023987,415.776001
907.679993,359.167999,419.679993
899.872009,363.071991,427.488007
903.776001,361.119995,427.488007
913.536011,366.976013,417.727997
915.487976,359.167999,419.679993
905.728027,361.119995,427.488007
919.392029,366.976013,425.536011
909.632019,361.119995,431.391998
911.583984,357.216003,423.584015
907.679993,363.071991,419.679993
905.728027,351.359985,409.920013
909.632019,345.503998,409.920013
903.776001,349.407990,415.776001
899.872009,357.216003,407.967987
892.064026,357.216003,411.872009
897.919983,349.407990,413.824005
905.728027,351.359985,413.824005
907.679993,343.552002,419.679993
903.776001,335.743988,415.776001
907.679993,341.600006,419.679993
901.823975,327.936005,415.776001
907.679993,324.032013,419.679993
899.872009,327.936005,425.536011
919.392029,331.839996,429.440002
909.632019,331.839996,431.391998
911.583984,329.888000,435.295990
911.583984,333.791992,431.391998
911.583984,333.791992,427.488007
919.392029,324.032013,435.295990
903.776001,322.079987,443.104004
905.728027,318.175995,433.343994
901.823975,314.272003,431.391998
907.679993,306.463989,429.440002
905.728027,310.368011,419.679993
899.872009,312.320007,421.631989
901.823975,318.175995,427.488007
899.872009,310.368011,413.824005
899.872009,300.608002,409.920013
890.112000,306.463989,406.015991
897.919983,312.320007,413.824005
903.776001,296.704010,415.776001
911.583984,302.559998,421.631989
905.728027,300.608002,427.488007
909.632019,298.656006,443.104004
899.872009,302.559998,431.391998
915.487976,304.511993,439.200012
915.487976,298.656006,435.295990
917.440002,306.463989,437.247986
931.104004,290.847992,435.295990
915.487976,283.040009,439.200012
925.247986,300.608002,439.200012
907.679993,296.704010,439.200012
921.343994,292.799988,443.104004
917.440002,298.656006,437.247986
917.440002,292.799988,425.536011
915.487976,294.752014,417.727997
909.632019,284.992004,415.776001
919.392029,298.656006,423.584015
911.583984,296.704010,423.584015
919.392029,288.895996,415.776001
905.728027,281.088013,415.776001
911.583984,292.799988,402.112000
911.583984,302.559998,413.824005
909.632019,281.088013,417.727997
903.776001,281.088013,427.488007
909.632019,286.944000,435.295990
917.440002,290.847992,425.536011
913.536011,277.183990,443.104004
919.392029,269.376007,437.247986
917.440002,277.183990,435.295990
919.392029,281.088013,433.343994
913.536011,290.847992,439.200012
921.343994,284.992004,439.200012
913.536011,288.895996,433.343994
911.583984,281.088013,429.440002
915.487976,283.040009,429.440002
913.536011,290.847992,429.440002
913.536011,283.040009,417.727997
915.487976,283.040009,427.488007
907.679993,286.944000,419.679993
911.583984,275.231995,421.631989
907.679993,277.183990,429.440002
915.487976,283.040009,425.536011
909.632019,279.135986,429.440002
905.728027,288.895996,431.391998
905.728027,283.040009,433.343994
907.679993,265.471985,429.440002
911.583984,265.471985,425.536011
915.487976,281.088013,433.343994
901.823975,265.471985,431.391998
905.728027,261.567993,437.247986
901.823975,261.567993,421.631989
907.679993,279.135986,425.536011
905.728027,263.519989,425.536011
899.872009,269.376007,415.776001
903.776001,269.376007,421.631989
903.776001,279.135986,415.776001
897.919983,271.328003,415.776001
895.968018,261.567993,409.920013
903.776001,283.040009,421.631989
899.872009,273.279999,413.824005
911.583984,277.183990,427.488007
903.776001,277.183990,419.679993
905.728027,283.040009,425.536011
907.679993,277.183990,433.343994
919.392029,277.183990,437.247986
915.487976,277.183990,433.343994
913.536011,288.895996,441.152008
909.632019,281.088013,431.391998
911.583984,283.040009,437.247986
901.823975,284.992004,435.295990
911.583984,288.895996,431.391998
899.872009,281.088013,421.631989
897.919983,286.944000,411.872009
907.679993,288.895996,409.920013
903.776001,279.135986,407.967987
895.968018,284.992004,407.967987
897.919983,284.992004,404.063995
909.632019,283.040009,398.208008
909.632019,290.847992,407.967987
913.536011,294.752014,417.727997
911.583984,304.511993,413.824005
903.776001,306.463989,427.488007
895.968018,308.415985,431.391998
895.968018,314.272003,427.488007
903.776001,304.511993,427.488007
907.679993,300.608002,419.679993
909.632019,310.368011,431.391998
911.583984,300.608002,419.679993
903.776001,304.511993,419.679993
899.872009,296.704010,404.063995
907.679993,308.415985,404.063995
901.823975,310.368011,402.112000
901.823975,304.511993,402.112000
895.968018,314.272003,394.303986
892.064026,314.272003,392.351990
907.679993,318.175995,394.303986
901.823975,320.127991,392.351990
907.679993,312.320007,394.303986
909.632019,308.415985,398.208008
911.583984,310.368011,396.256012
915.487976,300.608002,404.063995
915.487976,304.511993,402.112000
919.392029,306.463989,406.015991
909.632019,304.511993,419.679993
911.583984,308.415985,413.824005
917.440002,312.320007,429.440002
917.440002,320.127991,409.920013
917.440002,308.415985,413.824005
911.583984,322.079987,409.920013
911.583984,322.079987,409.920013
909.632019,318.175995,400.160004
909.632019,304.511993,398.208008
913.536011,322.079987,394.303986
915.487976,314.272003,390.399994
915.487976,300.608002,396.256012
901.823975,300.608002,390.399994
907.679993,300.608002,380.640015
911.583984,302.559998,386.496002
913.536011,302.559998,386.496002
901.823975,310.368011,390.399994
901.823975,298.656006,386.496002
909.632019,300.608002,400.160004
909.632019,300.608002,406.015991
903.776001,302.559998,406.015991
911.583984,322.079987,406.015991
903.776001,314.272003,402.112000
905.728027,310.368011,402.112000
903.776001,314.272003,404.063995
907.679993,314.272003,402.112000
905.728027,296.704010,404.063995
907.679993,308.415985,398.208008
901.823975,302.559998,396.256012
907.679993,296.704010,386.496002
897.919983,298.656006,382.592010
897.919983,292.799988,392.351990
903.776001,300.608002,386.496002
899.872009,306.463989,390.399994
897.919983,298.656006,388.447998
892.064026,302.559998,382.592010
894.015991,296.704010,374.783997
892.064026,292.799988,374.783997
888.159973,296.704010,384.544006
897.919983,298.656006,380.640015
888.159973,281.088013,372.832001
895.968018,298.656006,382.592010
895.968018,298.656006,388.447998
899.872009,296.704010,400.160004
886.208008,298.656006,396.256012
895.968018,292.799988,394.303986
892.064026,284.992004,400.160004
897.919983,292.799988,386.496002
903.776001,288.895996,400.160004
899.872009,281.088013,388.447998
895.968018,298.656006,386.496002
888.159973,284.992004,384.544006
882.304016,283.040009,390.399994
880.351990,279.135986,384.544006
888.159973,283.040009,386.496002
878.400024,275.231995,380.640015
878.400024,279.135986,378.687988
882.304016,283.040009,386.496002
878.400024,281.088013,374.783997
880.351990,273.279999,378.687988
872.544006,269.376007,382.592010
880.351990,273.279999,384.544006
874.495972,273.279999,388.447998
888.159973,267.424011,400.160004
882.304016,275.231995,392.351990
880.351990,273.279999,394.303986
878.400024,275.231995,402.112000
876.447998,271.328003,402.112000
876.447998,269.376007,398.208008
874.495972,265.471985,400.160004
884.255981,275.231995,394.303986
876.447998,261.567993,406.015991
874.495972,267.424011,398.208008
876.447998,261.567993,404.063995
868.640015,267.424011,390.399994
872.544006,263.519989,402.112000
866.687988,271.328003,398.208008
868.640015,261.567993,390.399994
862.783997,275.231995,390.399994
872.544006,259.615997,386.496002
864.736023,265.471985,390.399994
864.736023,259.615997,388.447998
874.495972,265.471985,394.303986
858.880005,253.759995,384.544006
866.687988,257.664001,394.303986
866.687988,255.712006,392.351990
856.927979,259.615997,390.399994
862.783997,277.183990,392.351990
864.736023,259.615997,388.447998
858.880005,261.567993,396.256012
858.880005,255.712006,394.303986
864.736023,271.328003,396.256012
856.927979,271.328003,384.544006
866.687988,259.615997,394.303986
866.687988,267.424011,392.351990
860.831970,275.231995,396.256012
856.927979,275.231995,400.160004
864.736023,275.231995,394.303986
858.880005,271.328003,402.112000
860.831970,267.424011,396.256012
856.927979,257.664001,388.447998
858.880005,259.615997,386.496002
858.880005,263.519989,386.496002
856.927979,261.567993,388.447998
858.880005,265.471985,388.447998
864.736023,259.615997,384.544006
860.831970,267.424011,388.447998
853.023987,253.759995,378.687988
860.831970,247.904007,374.783997
860.831970,249.856003,384.544006
858.880005,253.759995,384.544006
868.640015,249.856003,384.544006
862.783997,249.856003,386.496002
858.880005,253.759995,384.544006
868.640015,249.856003,382.592010
862.783997,247.904007,384.544006
862.783997,247.904007,396.256012
862.783997,251.807999,386.496002
866.687988,242.048004,390.399994
872.544006,242.048004,398.208008
868.640015,244.000000,388.447998
872.544006,238.143997,396.256012
868.640015,244.000000,398.208008
868.640015,236.192001,409.920013
874.495972,238.143997,396.256012
874.495972,232.287994,400.160004
870.591980,230.335999,386.496002
876.447998,228.384003,382.592010
876.447998,226.432007,382.592010
876.447998,230.335999,390.399994
870.591980,236.192001,386.496002
874.495972,212.768005,384.544006
872.544006,218.623993,390.399994
884.255981,230.335999,390.399994
870.591980,224.479996,382.592010
878.400024,222.528000,390.399994
876.447998,220.576004,398.208008
878.400024,226.432007,394.303986
870.591980,228.384003,400.160004
884.255981,216.671997,400.160004
880.351990,228.384003,400.160004
880.351990,226.432007,406.015991
882.304016,224.479996,398.208008
880.351990,224.479996,398.208008
878.400024,222.528000,390.399994
880.351990,206.912003,398.208008
882.304016,226.432007,400.160004
888.159973,222.528000,396.256012
884.255981,218.623993,400.160004
884.255981,228.384003,390.399994
874.495972,228.384003,388.447998
874.495972,224.479996,398.208008
866.687988,218.623993,396.256012
868.640015,236.192001,382.592010
868.640015,224.479996,376.735992
880.351990,226.432007,378.687988
864.736023,236.192001,380.640015
862.783997,230.335999,384.544006
872.544006,218.623993,384.544006
876.447998,220.576004,378.687988
872.544006,222.528000,370.880005
870.591980,220.576004,372.832001
866.687988,224.479996,378.687988
872.544006,226.432007,392.351990
870.591980,220.576004,376.735992
868.640015,228.384003,380.640015
858.880005,228.384003,378.687988
868.640015,234.240005,374.783997
866.687988,238.143997,376.735992
874.495972,222.528000,374.783997
872.544006,220.576004,378.687988
872.544006,232.287994,380.640015
874.495972,226.432007,374.783997
878.400024,226.432007,390.399994
876.447998,226.432007,380.640015
870.591980,240.095993,372.832001
876.447998,220.576004,376.735992
868.640015,222.528000,368.928009
868.640015,228.384003,370.880005
876.447998,236.192001,368.928009
868.640015,232.287994,374.783997
876.447998,218.623993,363.071991
870.591980,218.623993,370.880005
872.544006,228.384003,380.640015
868.640015,228.384003,372.832001
864.736023,216.671997,368.928009
866.687988,220.576004,376.735992
884.255981,216.671997,372.832001
870.591980,220.576004,378.687988
882.304016,224.479996,376.735992
882.304016,218.623993,380.640015
876.447998,220.576004,384.544006
876.447998,214.720001,376.735992
878.400024,212.768005,378.687988
880.351990,218.623993,378.687988
882.304016,218.623993,372.832001
878.400024,210.815994,372.832001
882.304016,214.720001,380.640015
880.351990,212.768005,384.544006
880.351990,204.960007,370.880005
884.255981,206.912003,376.735992
888.159973,208.863998,370.880005
882.304016,204.960007,365.023987
886.208008,212.768005,368.928009
895.968018,210.815994,366.976013
886.208008,210.815994,368.928009
884.255981,212.768005,376.735992
888.159973,216.671997,370.880005
886.208008,204.960007,365.023987
894.015991,203.007996,370.880005
890.112000,199.104004,384.544006
888.159973,206.912003,374.783997
895.968018,206.912003,370.880005
897.919983,191.296005,372.832001
894.015991,203.007996,380.640015
894.015991,204.960007,378.687988
892.064026,199.104004,374.783997
884.255981,206.912003,374.783997
886.208008,199.104004,376.735992
894.015991,199.104004,376.735992
901.823975,201.056000,374.783997
901.823975,208.863998,376.735992
897.919983,204.960007,382.592010
894.015991,197.151993,372.832001
897.919983,189.343994,370.880005
901.823975,191.296005,370.880005
899.872009,191.296005,376.735992
895.968018,185.440002,376.735992
903.776001,191.296005,372.832001
903.776001,191.296005,368.928009
903.776001,189.343994,368.928009
897.919983,189.343994,370.880005
905.728027,197.151993,368.928009
903.776001,191.296005,372.832001
897.919983,189.343994,366.976013
909.632019,179.584000,376.735992
905.728027,183.488007,370.880005
915.487976,189.343994,380.640015
913.536011,179.584000,380.640015
915.487976,183.488007,386.496002
913.536011,177.632004,380.640015
911.583984,175.679993,376.735992
919.392029,177.632004,384.544006
913.536011,185.440002,380.640015
907.679993,179.584000,384.544006
911.583984,189.343994,396.256012
917.440002,183.488007,388.447998
917.440002,187.391998,392.351990
919.392029,189.343994,382.592010
919.392029,187.391998,376.735992
915.487976,183.488007,380.640015
915.487976,197.151993,384.544006
917.440002,181.535995,384.544006
911.583984,179.584000,386.496002
915.487976,187.391998,380.640015
919.392029,181.535995,380.640015
911.583984,183.488007,384.544006
915.487976,193.248001,372.832001
909.632019,177.632004,384.544006
907.679993,189.343994,372.832001
911.583984,189.343994,380.640015
903.776001,177.632004,374.783997
909.632019,187.391998,374.783997
913.536011,181.535995,374.783997
899.872009,185.440002,378.687988
903.776001,175.679993,384.544006
911.583984,177.632004,382.592010
901.823975,181.535995,380.640015
915.487976,191.296005,384.544006
903.776001,195.199997,382.592010
901.823975,199.104004,382.592010
915.487976,203.007996,386.496002
905.728027,206.912003,382.592010
909.632019,201.056000,386.496002
905.728027,197.151993,382.592010
909.632019,191.296005,388.447998
903.776001,197.151993,382.592010
901.823975,191.296005,376.735992
903.776001,187.391998,376.735992
903.776001,197.151993,374.783997
905.728027,183.488007,382.592010
911.583984,187.391998,376.735992
903.776001,187.391998,384.544006
894.015991,203.007996,374.783997
895.968018,204.960007,382.592010
899.872009,206.912003,378.687988
897.919983,201.056000,372.832001
895.968018,201.056000,376.735992
894.015991,199.104004,370.880005
894.015991,201.056000,372.832001
895.968018,203.007996,378.687988
895.968018,201.056000,382.592010
899.872009,212.768005,378.687988
899.872009,210.815994,376.735992
894.015991,199.104004,376.735992
899.872009,216.671997,370.880005
888.159973,210.815994,374.783997
886.208008,212.768005,368.928009
892.064026,212.768005,384.544006
890.112000,216.671997,372.832001
892.064026,204.960007,370.880005
894.015991,208.863998,366.976013
897.919983,220.576004,370.880005
886.208008,208.863998,361.119995
888.159973,203.007996,365.023987
884.255981,216.671997,372.832001
886.208008,203.007996,365.023987
892.064026,210.815994,359.167999
890.112000,212.768005,368.928009
892.064026,208.863998,357.216003
886.208008,206.912003,365.023987
878.400024,216.671997,366.976013
884.255981,222.528000,359.167999
888.159973,216.671997,361.119995
888.159973,220.576004,359.167999
892.064026,212.768005,359.167999
886.208008,216.671997,368.928009
882.304016,224.479996,372.832001
882.304016,220.576004,361.119995
886.208008,216.671997,363.071991
886.208008,220.576004,368.928009
882.304016,214.720001,357.216003
892.064026,210.815994,355.264008
888.159973,210.815994,357.216003
888.159973,220.576004,363.071991
895.968018,208.863998,365.023987
888.159973,208.863998,361.119995
890.112000,210.815994,365.023987
895.968018,216.671997,365.023987
888.159973,212.768005,351.359985
882.304016,208.863998,361.119995
884.255981,208.863998,365.023987
892.064026,212.768005,359.167999
886.208008,214.720001,359.167999
884.255981,210.815994,361.119995
886.208008,216.671997,361.119995
895.968018,216.671997,351.359985
886.208008,210.815994,357.216003
890.112000,206.912003,368.928009
888.159973,201.056000,357.216003
892.064026,197.151993,355.264008
884.255981,199.104004,357.216003
890.112000,201.056000,361.119995
892.064026,206.912003,357.216003
895.968018,201.056000,357.216003
890.112000,199.104004,361.119995
897.919983,195.199997,355.264008
888.159973,203.007996,353.312012
892.064026,203.007996,361.119995
897.919983,204.960007,355.264008
894.015991,204.960007,366.976013
894.015991,199.104004,363.071991
895.968018,199.104004,355.264008
897.919983,193.248001,359.167999
897.919983,199.104004,361.119995
895.968018,195.199997,355.264008
895.968018,191.296005,357.216003
886.208008,193.248001,365.023987
895.968018,201.056000,357.216003
897.919983,193.248001,355.264008
901.823975,187.391998,351.359985
892.064026,183.488007,355.264008
892.064026,193.248001,355.264008
897.919983,183.488007,365.023987
899.872009,193.248001,359.167999
901.823975,193.248001,357.216003
903.776001,187.391998,359.167999
895.968018,199.104004,355.264008
894.015991,191.296005,361.119995
882.304016,191.296005,359.167999
890.112000,203.007996,355.264008
897.919983,199.104004,361.119995
897.919983,199.104004,359.167999
901.823975,191.296005,365.023987
899.872009,187.391998,357.216003
899.872009,187.391998,353.312012
899.872009,181.535995,359.167999
897.919983,175.679993,355.264008
905.728027,183.488007,361.119995
901.823975,179.584000,370.880005
897.919983,189.343994,365.023987
894.015991,175.679993,366.976013
897.919983,175.679993,357.216003
892.064026,185.440002,359.167999
897.919983,185.440002,365.023987
911.583984,185.440002,363.071991
909.632019,183.488007,366.976013
903.776001,185.440002,366.976013
894.015991,173.727997,365.023987
899.872009,179.584000,368.928009
895.968018,173.727997,363.071991
886.208008,173.727997,365.023987
897.919983,177.632004,365.023987
894.015991,185.440002,365.023987
899.872009,167.871994,363.071991
897.919983,160.063995,365.023987
890.112000,173.727997,366.976013
897.919983,173.727997,357.216003
899.872009,171.776001,363.071991
890.112000,160.063995,355.264008
903.776001,162.016006,361.119995
890.112000,171.776001,365.023987
890.112000,162.016006,355.264008
892.064026,169.824005,365.023987
901.823975,169.824005,368.928009
895.968018,165.919998,357.216003
897.919983,173.727997,361.119995
895.968018,171.776001,359.167999
894.015991,163.968002,359.167999
888.159973,160.063995,365.023987
890.112000,160.063995,353.312012
895.968018,167.871994,357.216003
899.872009,162.016006,361.119995
897.919983,163.968002,355.264008
888.159973,160.063995,353.312012
892.064026,156.160004,353.312012
894.015991,156.160004,357.216003
901.823975,156.160004,353.312012
892.064026,156.160004,355.264008
888.159973,169.824005,355.264008
892.064026,158.112000,361.119995
892.064026,158.112000,351.359985
894.015991,158.112000,349.407990
897.919983,158.112000,347.455994
894.015991,152.255997,359.167999
886.208008,162.016006,366.976013
901.823975,150.304001,359.167999
894.015991,148.352005,357.216003
899.872009,144.447998,357.216003
905.728027,152.255997,359.167999
905.728027,144.447998,357.216003
907.679993,148.352005,355.264008
907.679993,158.112000,366.976013
907.679993,148.352005,365.023987
895.968018,144.447998,359.167999
901.823975,146.399994,366.976013
911.583984,146.399994,363.071991
905.728027,142.496002,365.023987
899.872009,146.399994,363.071991
909.632019,136.639999,351.359985
901.823975,144.447998,357.216003
907.679993,144.447998,361.119995
894.015991,144.447998,357.216003
907.679993,144.447998,355.264008
899.872009,150.304001,357.216003
905.728027,144.447998,365.023987
909.632019,136.639999,361.119995
911.583984,148.352005,361.119995
907.679993,140.544006,357.216003
909.632019,128.832001,355.264008
909.632019,138.591995,361.119995
901.823975,132.735992,353.312012
909.632019,142.496002,361.119995
901.823975,132.735992,361.119995
907.679993,132.735992,361.119995
913.536011,146.399994,351.359985
911.583984,142.496002,347.455994
907.679993,146.399994,359.167999
913.536011,148.352005,359.167999
919.392029,146.399994,355.264008
911.583984,142.496002,345.503998
905.728027,144.447998,357.216003
915.487976,144.447998,357.216003
915.487976,148.352005,357.216003
911.583984,148.352005,355.264008
913.536011,146.399994,355.264008
913.536011,148.352005,351.359985
919.392029,140.544006,347.455994
915.487976,140.544006,357.216003
927.200012,144.447998,349.407990
915.487976,146.399994,357.216003
915.487976,150.304001,349.407990
923.296021,140.544006,357.216003
913.536011,146.399994,357.216003
919.392029,148.352005,349.407990
923.296021,144.447998,355.264008
915.487976,142.496002,363.071991
927.200012,144.447998,355.264008
925.247986,144.447998,347.455994
919.392029,146.399994,355.264008
917.440002,158.112000,357.216003
915.487976,148.352005,343.552002
921.343994,140.544006,353.312012
927.200012,142.496002,361.119995
925.247986,136.639999,363.071991
921.343994,140.544006,357.216003
921.343994,146.399994,357.216003
929.151978,142.496002,353.312012
929.151978,150.304001,355.264008
927.200012,136.639999,363.071991
931.104004,142.496002,355.264008
929.151978,142.496002,351.359985
931.104004,154.207993,353.312012
935.007996,148.352005,353.312012
935.007996,148.352005,353.312012
933.056030,144.447998,357.216003
940.864014,150.304001,349.407990
940.864014,140.544006,355.264008
940.864014,140.544006,357.216003
950.624023,128.832001,355.264008
933.056030,144.447998,351.359985
935.007996,142.496002,351.359985
936.960022,150.304001,347.455994
942.815979,148.352005,347.455994
938.911987,158.112000,347.455994
938.911987,158.112000,345.503998
944.768005,138.591995,345.503998
950.624023,140.544006,347.455994
948.671997,148.352005,343.552002
950.624023,154.207993,345.503998
940.864014,146.399994,351.359985
946.719971,148.352005,347.455994
950.624023,144.447998,343.552002
948.671997,148.352005,349.407990
938.911987,148.352005,347.455994
952.575989,140.544006,335.743988
948.671997,144.447998,335.743988
954.528015,146.399994,349.407990
944.768005,142.496002,331.839996
948.671997,144.447998,335.743988
950.624023,142.496002,333.791992
946.719971,152.255997,341.600006
950.624023,144.447998,335.743988
948.671997,146.399994,327.936005
952.575989,146.399994,325.984009
958.432007,146.399994,333.791992
952.575989,148.352005,333.791992
960.383972,142.496002,329.888000
954.528015,146.399994,325.984009
956.479980,148.352005,333.791992
958.432007,146.399994,333.791992
956.479980,158.112000,329.888000
956.479980,162.016006,333.791992
954.528015,152.255997,329.888000
954.528015,148.352005,325.984009
962.335999,154.207993,325.984009
964.288025,162.016006,331.839996
958.432007,158.112000,322.079987
962.335999,148.352005,327.936005
956.479980,156.160004,324.032013
964.288025,162.016006,329.888000
956.479980,156.160004,322.079987
962.335999,156.160004,325.984009
966.239990,154.207993,333.791992
968.192017,156.160004,325.984009
970.143982,150.304001,318.175995
964.288025,158.112000,316.223999
960.383972,162.016006,320.127991
968.192017,160.063995,320.127991
968.192017,156.160004,322.079987
960.383972,162.016006,325.984009
968.192017,162.016006,325.984009
972.096008,162.016006,318.175995
970.143982,160.063995,325.984009
968.192017,158.112000,320.127991
976.000000,160.063995,320.127991
976.000000,152.255997,316.223999
968.192017,169.824005,318.175995
977.952026,160.063995,318.175995
981.856018,169.824005,322.079987
987.711975,171.776001,310.368011
977.952026,171.776001,316.223999
981.856018,175.679993,318.175995
985.760010,173.727997,310.368011
987.711975,167.871994,316.223999
977.952026,169.824005,318.175995
976.000000,163.968002,304.511993
985.760010,167.871994,312.320007
989.664001,163.968002,320.127991
993.567993,167.871994,318.175995
993.567993,169.824005,318.175995
987.711975,181.535995,316.223999
987.711975,169.824005,308.415985
991.616028,165.919998,312.320007
993.567993,167.871994,312.320007
999.424011,163.968002,312.320007
989.664001,173.727997,312.320007
1001.375977,169.824005,318.175995
1005.280029,179.584000,318.175995
993.567993,175.679993,316.223999
989.664001,169.824005,320.127991
993.567993,175.679993,314.272003
1001.375977,173.727997,316.223999
999.424011,175.679993,316.223999
1009.184021,173.727997,318.175995
1005.280029,169.824005,318.175995
995.520020,173.727997,316.223999
1005.280029,179.584000,320.127991
1001.375977,173.727997,306.463989
999.424011,177.632004,308.415985
1003.328003,181.535995,310.368011
997.471985,187.391998,314.272003
1009.184021,175.679993,306.463989
1003.328003,181.535995,318.175995
997.471985,185.440002,316.223999
1007.231995,177.632004,318.175995
1007.231995,179.584000,320.127991
1009.184021,177.632004,327.936005
1001.375977,183.488007,327.936005
1011.135986,183.488007,320.127991
1007.231995,179.584000,320.127991
1001.375977,175.679993,324.032013
1005.280029,181.535995,325.984009
1005.280029,187.391998,325.984009
999.424011,187.391998,331.839996
999.424011,191.296005,331.839996
1001.375977,193.248001,329.888000
1001.375977,187.391998,329.888000
999.424011,187.391998,327.936005
997.471985,175.679993,322.079987
993.567993,181.535995,327.936005
999.424011,187.391998,333.791992
997.471985,185.440002,327.936005
1005.280029,181.535995,325.984009
995.520020,175.679993,325.984009
999.424011,179.584000,327.936005
1005.280029,189.343994,324.032013
1005.280029,179.584000,329.888000
1003.328003,185.440002,331.839996
1001.375977,187.391998,325.984009
997.471985,187.391998,325.984009
995.520020,187.391998,325.984009
999.424011,187.391998,325.984009
1001.375977,179.584000,320.127991
991.616028,175.679993,316.223999
995.520020,160.063995,312.320007
999.424011,167.871994,308.415985
987.711975,163.968002,312.320007
987.711975,156.160004,310.368011
991.616028,160.063995,308.415985
987.711975,169.824005,312.320007
981.856018,163.968002,308.415985
983.807983,177.632004,302.559998
979.903992,173.727997,310.368011
977.952026,181.535995,308.415985
981.856018,175.679993,300.608002
983.807983,181.535995,308.415985
985.760010,175.679993,306.463989
976.000000,171.776001,300.608002
974.047974,165.919998,300.608002
976.000000,158.112000,298.656006
968.192017,152.255997,298.656006
966.239990,154.207993,296.704010
970.143982,142.496002,292.799988
960.383972,144.447998,288.895996
970.143982,144.447998,290.847992
964.288025,142.496002,298.656006
964.288025,144.447998,294.752014
960.383972,138.591995,292.799988
964.288025,132.735992,298.656006
956.479980,128.832001,292.799988
958.432007,128.832001,294.752014
958.432007,132.735992,288.895996
950.624023,121.024002,288.895996
966.239990,111.264000,284.992004
958.432007,103.456001,294.752014
958.432007,105.407997,288.895996
952.575989,107.360001,286.944000
954.528015,113.216003,286.944000
956.479980,113.216003,279.135986
958.432007,117.120003,277.183990
958.432007,121.024002,281.088013
958.432007,122.975998,284.992004
958.432007,128.832001,284.992004
950.624023,134.688004,283.040009
948.671997,148.352005,288.895996
960.383972,148.352005,290.847992
956.479980,138.591995,281.088013
966.239990,146.399994,279.135986
958.432007,136.639999,281.088013
962.335999,136.639999,286.944000
974.047974,138.591995,284.992004
966.239990,146.399994,281.088013
966.239990,150.304001,283.040009
962.335999,162.016006,288.895996
960.383972,150.304001,286.944000
958.432007,152.255997,296.704010
968.192017,150.304001,288.895996
974.047974,140.544006,294.752014
985.760010,121.024002,292.799988
976.000000,126.879997,288.895996
974.047974,134.688004,286.944000
966.239990,121.024002,290.847992
966.239990,121.024002,292.799988
966.239990,134.688004,292.799988
981.856018,132.735992,283.040009
970.143982,140.544006,286.944000
974.047974,142.496002,283.040009
976.000000,144.447998,286.944000
974.047974,146.399994,288.895996
974.047974,158.112000,288.895996
981.856018,160.063995,286.944000
977.952026,162.016006,279.135986
977.952026,169.824005,290.847992
979.903992,160.063995,284.992004
991.616028,160.063995,277.183990
987.711975,158.112000,288.895996
993.567993,162.016006,290.847992
991.616028,173.727997,288.895996
993.567993,169.824005,300.608002
991.616028,187.391998,292.799988
991.616028,173.727997,288.895996
983.807983,173.727997,288.895996
981.856018,179.584000,288.895996
987.711975,177.632004,286.944000
993.567993,173.727997,290.847992
985.760010,167.871994,290.847992
991.616028,169.824005,286.944000
987.711975,160.063995,286.944000
979.903992,162.016006,283.040009
983.807983,158.112000,284.992004
985.760010,163.968002,277.183990
983.807983,158.112000,283.040009
989.664001,163.968002,286.944000
993.567993,165.919998,275.231995
987.711975,171.776001,277.183990
989.664001,171.776001,283.040009
985.760010,167.871994,290.847992
983.807983,177.632004,290.847992
985.760010,177.632004,298.656006
991.616028,175.679993,300.608002
995.520020,175.679993,288.895996
995.520020,173.727997,288.895996
993.567993,181.535995,290.847992
993.567993,181.535995,290.847992
991.616028,175.679993,292.799988
991.616028,193.248001,292.799988
987.711975,183.488007,294.752014
1005.280029,185.440002,294.752014
991.616028,181.535995,286.944000
997.471985,181.535995,292.799988
993.567993,185.440002,284.992004
983.807983,183.488007,283.040009
993.567993,175.679993,290.847992
977.952026,183.488007,286.944000
993.567993,187.391998,288.895996
983.807983,189.343994,277.183990
987.711975,187.391998,292.799988
983.807983,187.391998,288.895996
983.807983,185.440002,296.704010
985.760010,193.248001,294.752014
991.616028,195.199997,298.656006
979.903992,197.151993,302.559998
981.856018,206.912003,298.656006
981.856018,199.104004,294.752014
977.952026,212.768005,281.088013
976.000000,208.863998,290.847992
964.288025,199.104004,294.752014
972.096008,199.104004,290.847992
981.856018,203.007996,296.704010
979.903992,199.104004,283.040009
962.335999,208.863998,281.088013
966.239990,212.768005,290.847992
958.432007,212.768005,283.040009
962.335999,204.960007,288.895996
952.575989,204.960007,283.040009
960.383972,201.056000,288.895996
958.432007,203.007996,302.559998
962.335999,204.960007,290.847992
958.432007,212.768005,275.231995
954.528015,199.104004,281.088013
940.864014,206.912003,288.895996
936.960022,199.104004,279.135986
946.719971,206.912003,283.040009
948.671997,208.863998,281.088013
938.911987,208.863998,263.519989
933.056030,204.960007,269.376007
938.911987,201.056000,273.279999
940.864014,204.960007,263.519989
935.007996,204.960007,255.712006
942.815979,210.815994,255.712006
933.056030,214.720001,259.615997
933.056030,220.576004,245.951996
927.200012,210.815994,251.807999
921.343994,216.671997,245.951996
858.880005,220.576004,242.048004
833.504028,212.768005,240.095993
849.119995,158.112000,230.335999
796.416016,128.832001,210.815994
866.687988,128.832001,197.151993
882.304016,115.167999,185.440002
880.351990,72.223999,173.727997
878.400024,113.216003,179.584000
929.151978,142.496002,173.727997
933.056030,113.216003,189.343994
927.200012,115.167999,201.056000
915.487976,195.199997,199.104004
923.296021,269.376007,216.671997
913.536011,265.471985,230.335999
895.968018,259.615997,222.528000
909.632019,308.415985,230.335999
929.151978,331.839996,212.768005
936.960022,318.175995,216.671997
935.007996,310.368011,208.863998
942.815979,306.463989,197.151993
956.479980,294.752014,201.056000
952.575989,269.376007,189.343994
946.719971,265.471985,179.584000
927.200012,263.519989,181.535995
909.632019,247.904007,181.535995
884.255981,228.384003,177.632004
878.400024,204.960007,185.440002
874.495972,195.199997,181.535995
870.591980,158.112000,175.679993
872.544006,128.832001,175.679993
872.544006,111.264000,171.776001
880.351990,93.695999,171.776001
882.304016,81.984001,183.488007
884.255981,72.223999,197.151993
882.304016,85.888000,201.056000
890.112000,99.552002,214.720001
897.919983,111.264000,224.479996
899.872009,132.735992,242.048004
903.776001,158.112000,253.759995
899.872009,181.535995,259.615997
897.919983,187.391998,269.376007
899.872009,203.007996,275.231995
899.872009,214.720001,271.328003
894.015991,232.287994,267.424011
892.064026,222.528000,284.992004
903.776001,210.815994,273.279999
909.632019,199.104004,261.567993
915.487976,189.343994,259.615997
927.200012,177.632004,234.240005
909.632019,171.776001,222.528000
909.632019,163.968002,228.384003
899.872009,160.063995,216.671997
899.872009,146.399994,208.863998
892.064026,148.352005,199.104004
890.112000,154.207993,191.296005
888.159973,162.016006,183.488007
884.255981,156.160004,179.584000
886.208008,156.160004,179.584000
882.304016,163.968002,189.343994
880.351990,165.919998,187.391998
899.872009,177.632004,193.248001
897.919983,179.584000,189.343994
895.968018,195.199997,195.199997
901.823975,187.391998,201.056000
905.728027,197.151993,212.768005
903.776001,214.720001,201.056000
897.919983,220.576004,220.576004
903.776001,212.768005,228.384003
905.728027,208.863998,218.623993
901.823975,214.720001,210.815994
899.872009,206.912003,201.056000
909.632019,193.248001,206.912003
911.583984,177.632004,199.104004
897.919983,171.776001,212.768005
894.015991,183.488007,206.912003
901.823975,177.632004,210.815994
901.823975,177.632004,210.815994
909.632019,163.968002,201.056000
899.872009,152.255997,193.248001
886.208008,121.024002,206.912003
884.255981,113.216003,232.287994
886.208008,122.975998,265.471985
886.208008,81.984001,302.559998
884.255981,37.088001,322.079987
911.583984,9.760000,337.696014
917.440002,-7.808000,343.552002
933.056030,-42.944000,353.312012
944.768005,-44.896000,339.648010
948.671997,-25.375999,339.648010
960.383972,9.760000,339.648010
958.432007,31.232000,335.743988
958.432007,80.031998,341.600006
954.528015,134.688004,347.455994
956.479980,175.679993,343.552002
954.528015,220.576004,343.552002
958.432007,249.856003,327.936005
950.624023,294.752014,329.888000
940.864014,325.984009,318.175995
970.143982,333.791992,288.895996
966.239990,327.936005,279.135986
960.383972,316.223999,259.615997
954.528015,292.799988,244.000000
962.335999,271.328003,228.384003
956.479980,236.192001,226.432007
960.383972,206.912003,220.576004
952.575989,171.776001,218.623993
962.335999,132.735992,214.720001
976.000000,111.264000,210.815994
950.624023,87.839996,210.815994
944.768005,78.080002,210.815994
940.864014,48.799999,218.623993
954.528015,40.992001,228.384003
946.719971,62.464001,224.479996
950.624023,60.512001,224.479996
958.432007,58.560001,218.623993
972.096008,80.031998,222.528000
968.192017,132.735992,220.576004
952.575989,154.207993,218.623993
958.432007,169.824005,226.432007
962.335999,204.960007,224.479996
958.432007,238.143997,230.335999
966.239990,244.000000,224.479996
972.096008,244.000000,224.479996
964.288025,247.904007,232.287994
977.952026,251.807999,220.576004
977.952026,240.095993,212.768005
976.000000,210.815994,214.720001
976.000000,191.296005,203.007996
976.000000,165.919998,208.863998
972.096008,146.399994,206.912003
976.000000,130.783997,203.007996
974.047974,95.648003,208.863998
974.047974,91.744003,208.863998
962.335999,95.648003,208.863998
964.288025,89.792000,210.815994
962.335999,83.935997,214.720001
962.335999,83.935997,216.671997
956.479980,101.503998,203.007996
958.432007,105.407997,195.199997
956.479980,109.311996,187.391998
962.335999,119.071999,197.151993
960.383972,142.496002,204.960007
970.143982,154.207993,210.815994
962.335999,148.352005,199.104004
962.335999,158.112000,183.488007
966.239990,160.063995,179.584000
966.239990,173.727997,179.584000
966.239990,171.776001,171.776001
966.239990,160.063995,183.488007
964.288025,152.255997,183.488007
968.192017,160.063995,189.343994
964.288025,152.255997,210.815994
966.239990,128.832001,214.720001
962.335999,138.591995,218.623993
970.143982,134.688004,220.576004
964.288025,121.024002,220.576004
964.288025,115.167999,220.576004
958.432007,109.311996,222.528000
964.288025,117.120003,234.240005
966.239990,122.975998,234.240005
952.575989,115.167999,240.095993
962.335999,128.832001,240.095993
964.288025,132.735992,226.432007
970.143982,140.544006,234.240005
964.288025,148.352005,240.095993
968.192017,150.304001,236.192001
972.096008,160.063995,234.240005
974.047974,167.871994,232.287994
976.000000,169.824005,234.240005
974.047974,177.632004,230.335999
966.239990,167.871994,230.335999
970.143982,177.632004,228.384003
960.383972,185.440002,220.576004
958.432007,179.584000,214.720001
964.288025,179.584000,210.815994
962.335999,177.632004,212.768005
962.335999,177.632004,216.671997
958.432007,165.919998,222.528000
960.383972,162.016006,206.912003
954.528015,165.919998,208.863998
958.432007,156.160004,206.912003
956.479980,148.352005,204.960007
962.335999,162.016006,204.960007
962.335999,160.063995,206.912003
968.192017,165.919998,212.768005
956.479980,162.016006,212.768005
960.383972,160.063995,218.623993
956.479980,167.871994,210.815994
960.383972,177.632004,210.815994
962.335999,177.632004,220.576004
960.383972,191.296005,214.720001
958.432007,185.440002,214.720001
956.479980,197.151993,214.720001
954.528015,199.104004,216.671997
970.143982,201.056000,224.479996
960.383972,204.960007,226.432007
972.096008,210.815994,222.528000
972.096008,204.960007,220.576004
966.239990,208.863998,216.671997
954.528015,201.056000,216.671997
962.335999,195.199997,218.623993
958.432007,197.151993,228.384003
956.479980,193.248001,228.384003
956.479980,189.343994,226.432007
968.192017,189.343994,218.623993
962.335999,177.632004,224.479996
964.288025,156.160004,228.384003
968.192017,160.063995,238.143997
974.047974,162.016006,240.095993
972.096008,156.160004,245.951996
974.047974,160.063995,245.951996
976.000000,160.063995,230.335999
987.711975,165.919998,236.192001
981.856018,160.063995,234.240005
977.952026,177.632004,234.240005
972.096008,171.776001,236.192001
962.335999,173.727997,238.143997
960.383972,191.296005,247.904007
964.288025,179.584000,234.240005
960.383972,189.343994,242.048004
976.000000,187.391998,247.904007
983.807983,167.871994,226.432007
976.000000,189.343994,238.143997
985.760010,179.584000,238.143997
966.239990,158.112000,242.048004
974.047974,181.535995,242.048004
974.047974,163.968002,232.287994
968.192017,165.919998,242.048004
970.143982,163.968002,234.240005
972.096008,150.304001,242.048004
966.239990,148.352005,242.048004
974.047974,163.968002,238.143997
977.952026,138.591995,232.287994
979.903992,111.264000,222.528000
991.616028,173.727997,218.623993
948.671997,140.544006,206.912003
962.335999,124.928001,201.056000
976.000000,162.016006,199.104004
956.479980,136.639999,197.151993
960.383972,140.544006,193.248001
960.383972,148.352005,189.343994
960.383972,154.207993,187.391998
960.383972,148.352005,171.776001
966.239990,146.399994,177.632004
962.335999,142.496002,169.824005
966.239990,152.255997,160.063995
964.288025,156.160004,162.016006
956.479980,146.399994,146.399994
962.335999,146.399994,150.304001
948.671997,142.496002,148.352005
966.239990,154.207993,148.352005
954.528015,148.352005,138.591995
948.671997,130.783997,154.207993
956.479980,160.063995,136.639999
956.479980,163.968002,130.783997
960.383972,148.352005,121.024002
944.768005,162.016006,121.024002
948.671997,173.727997,117.120003
946.719971,154.207993,113.216003
948.671997,165.919998,105.407997
942.815979,185.440002,107.360001
950.624023,177.632004,111.264000
954.528015,177.632004,107.360001
948.671997,179.584000,103.456001
954.528015,169.824005,93.695999
954.528015,179.584000,91.744003
964.288025,187.391998,85.888000
966.239990,179.584000,95.648003
974.047974,175.679993,97.599998
964.288025,187.391998,95.648003
966.239990,199.104004,99.552002
972.096008,181.535995,95.648003
970.143982,187.391998,87.839996
968.192017,199.104004,91.744003
958.432007,203.007996,83.935997
964.288025,203.007996,89.792000
968.192017,203.007996,93.695999
964.288025,208.863998,89.792000
880.351990,283.040009,171.776001
944.768005,242.048004,355.264008
942.815979,-42.944000,365.023987
976.000000,91.744003,177.632004
1036.511963,284.992004,44.896000
1040.416016,80.031998,50.751999
1020.895996,42.944000,175.679993
993.567993,99.552002,253.759995
983.807983,52.703999,212.768005
1020.895996,210.815994,134.688004
1044.319946,230.335999,124.928001
1026.751953,50.751999,150.304001
1024.800049,142.496002,173.727997
1007.231995,286.944000,171.776001
1005.280029,224.479996,144.447998
1024.800049,220.576004,146.399994
1020.895996,234.240005,173.727997
1016.992004,224.479996,169.824005
1059.936035,288.895996,171.776001
950.624023,333.791992,191.296005
1056.031982,236.192001,195.199997
987.711975,230.335999,197.151993
1020.895996,281.088013,185.440002
1007.231995,226.432007,181.535995
1001.375977,189.343994,183.488007
1016.992004,173.727997,193.248001
1007.231995,130.783997,181.535995
1024.800049,144.447998,177.632004
1030.656006,128.832001,189.343994
1030.656006,81.984001,197.151993
1040.416016,105.407997,199.104004
1077.504028,81.984001,204.960007
1093.119995,48.799999,195.199997
1108.735962,78.080002,206.912003
1104.832031,76.127998,236.192001
1085.312012,83.935997,247.904007
1065.791992,165.919998,255.712006
1073.599976,183.488007,257.664001
1059.936035,199.104004,267.424011
1046.271973,286.944000,273.279999
1034.560059,298.656006,275.231995
1022.848022,302.559998,269.376007
1022.848022,325.984009,286.944000
1034.560059,300.608002,283.040009
1048.223999,281.088013,269.376007
1056.031982,283.040009,265.471985
1048.223999,244.000000,257.664001
1044.319946,203.007996,259.615997
1036.511963,212.768005,263.519989
1038.463989,193.248001,251.807999
1034.560059,163.968002,236.192001
1030.656006,160.063995,236.192001
1032.608032,163.968002,224.479996
1015.039978,144.447998,210.815994
1015.039978,138.591995,197.151993
1024.800049,132.735992,183.488007
1024.800049,140.544006,181.535995
1024.800049,144.447998,165.919998
1026.751953,128.832001,162.016006
1028.703979,144.447998,158.112000
1018.943970,181.535995,152.255997
1022.848022,185.440002,146.399994
1030.656006,177.632004,134.688004
1032.608032,187.391998,113.216003
1026.751953,206.912003,105.407997
1030.656006,224.479996,89.792000
1032.608032,208.863998,85.888000
1026.751953,204.960007,80.031998
1018.943970,210.815994,68.320000
1016.992004,216.671997,64.416000
1013.088013,210.815994,56.608002
1007.231995,203.007996,44.896000
1016.992004,203.007996,37.088001
993.567993,199.104004,25.375999
995.520020,201.056000,35.136002
1001.375977,183.488007,35.136002
997.471985,187.391998,40.992001
1003.328003,197.151993,42.944000
997.471985,201.056000,48.799999
1003.328003,201.056000,46.848000
1003.328003,199.104004,50.751999
995.520020,206.912003,50.751999
999.424011,212.768005,46.848000
1003.328003,212.768005,46.848000
995.520020,206.912003,50.751999
1001.375977,222.528000,54.655998
1005.280029,218.623993,44.896000
999.424011,214.720001,54.655998
1005.280029,218.623993,40.992001
1003.328003,218.623993,44.896000
1009.184021,212.768005,62.464001
1020.895996,216.671997,58.560001
1022.848022,208.863998,62.464001
1032.608032,201.056000,62.464001
1036.511963,193.248001,66.367996
1040.416016,201.056000,78.080002
1032.608032,199.104004,78.080002
1032.608032,214.720001,81.984001
1038.463989,257.664001,70.272003
1038.463989,286.944000,66.367996
1036.511963,296.704010,68.320000
1042.368042,316.223999,76.127998
1040.416016,306.463989,78.080002
1038.463989,288.895996,97.599998
1050.176025,304.511993,101.503998
1056.031982,318.175995,111.264000
1056.031982,316.223999,122.975998
1059.936035,327.936005,122.975998
1054.079956,345.503998,134.688004
1057.984009,353.312012,138.591995
1073.599976,331.839996,150.304001
1069.696045,320.127991,152.255997
1069.696045,329.888000,154.207993
1065.791992,325.984009,171.776001
1071.647949,302.559998,185.440002
1042.368042,138.591995,224.479996
1089.215942,-140.544006,242.048004
1108.735962,-353.312012,259.615997
1132.160034,-296.704010,288.895996
1104.832031,-95.648003,306.463989
1102.880005,58.560001,281.088013
1095.072021,169.824005,273.279999
1077.504028,226.432007,244.000000
1020.895996,220.576004,257.664001
1112.640015,171.776001,312.320007
1102.880005,144.447998,370.880005
1173.151978,177.632004,413.824005
1163.391968,228.384003,441.152008
1159.488037,286.944000,435.295990
1153.631958,341.600006,396.256012
1118.495972,382.592010,341.600006
1095.072021,382.592010,286.944000
1069.696045,363.071991,234.240005
1046.271973,324.032013,201.056000
1040.416016,277.183990,169.824005
1038.463989,238.143997,136.639999
1036.511963,210.815994,130.783997
1034.560059,195.199997,128.832001
1034.560059,171.776001,109.311996
1042.368042,169.824005,95.648003
1026.751953,146.399994,78.080002
1013.088013,121.024002,54.655998
1011.135986,121.024002,31.232000
1005.280029,122.975998,31.232000
1001.375977,136.639999,25.375999
993.567993,189.343994,15.616000
1001.375977,247.904007,13.664000
989.664001,300.608002,11.712000
985.760010,325.984009,1.952000
981.856018,298.656006,-11.712000
993.567993,228.384003,-15.616000
993.567993,181.535995,-3.904000
987.711975,179.584000,0.000000
981.856018,245.951996,17.568001
981.856018,324.032013,23.424000
989.664001,384.544006,37.088001
991.616028,386.496002,44.896000
997.471985,322.079987,72.223999
999.424011,220.576004,85.888000
1009.184021,150.304001,107.360001
1005.280029,144.447998,121.024002
1020.895996,191.296005,124.928001
1018.943970,226.432007,136.639999
1013.088013,226.432007,132.735992
1011.135986,206.912003,136.639999
997.471985,208.863998,124.928001
987.711975,210.815994,115.167999
993.567993,226.432007,103.456001
1003.328003,242.048004,89.792000
1003.328003,249.856003,85.888000
1001.375977,257.664001,81.984001
989.664001,269.376007,81.984001
985.760010,283.040009,68.320000
977.952026,284.992004,66.367996
981.856018,281.088013,56.608002
977.952026,279.135986,42.944000
952.575989,255.712006,23.424000
950.624023,245.951996,13.664000
946.719971,244.000000,7.808000
940.864014,199.104004,0.000000
935.007996,169.824005,-1.952000
938.911987,158.112000,5.856000
942.815979,146.399994,19.520000
950.624023,154.207993,25.375999
942.815979,167.871994,50.751999
958.432007,179.584000,62.464001
962.335999,195.199997,76.127998
962.335999,203.007996,89.792000
956.479980,210.815994,91.744003
950.624023,224.479996,85.888000
942.815979,244.000000,95.648003
938.911987,279.135986,80.031998
933.056030,298.656006,74.176003
933.056030,290.847992,62.464001
925.247986,269.376007,46.848000
915.487976,245.951996,40.992001
911.583984,242.048004,25.375999
905.728027,247.904007,15.616000
905.728027,232.287994,0.000000
897.919983,214.720001,-7.808000
882.304016,173.727997,-13.664000
878.400024,97.599998,-31.232000
886.208008,72.223999,-44.896000
876.447998,115.167999,-46.848000
860.831970,156.160004,-58.560001
839.359985,181.535995,-64.416000
843.263977,140.544006,-80.031998
841.312012,58.560001,-85.888000
829.599976,58.560001,-89.792000
829.599976,115.167999,-91.744003
831.552002,148.352005,-95.648003
819.840027,169.824005,-97.599998
827.648010,208.863998,-101.503998
819.840027,212.768005,-105.407997
819.840027,181.535995,-105.407997
819.840027,152.255997,-113.216003
813.984009,138.591995,-115.167999
823.744019,158.112000,-119.071999
813.984009,165.919998,-122.975998
827.648010,187.391998,-138.591995
845.216003,191.296005,-156.160004
845.216003,244.000000,-134.688004
825.695984,486.048004,-109.311996
825.695984,644.159973,-70.272003
829.599976,519.231995,-1.952000
856.927979,203.007996,58.560001
895.968018,-218.623993,111.264000
929.151978,-452.864014,142.496002
944.768005,-382.592010,150.304001
927.200012,-87.839996,150.304001
931.104004,173.727997,150.304001
917.440002,247.904007,152.255997
915.487976,117.120003,158.112000
913.536011,-97.599998,148.352005
907.679993,-214.720001,128.832001
897.919983,-199.104004,128.832001
890.112000,-68.320000,140.544006
856.927979,154.207993,154.207993
856.927979,390.399994,154.207993
870.591980,515.328003,146.399994
911.583984,517.280029,134.688004
931.104004,462.623993,122.975998
950.624023,390.399994,101.503998
962.335999,341.600006,89.792000
962.335999,335.743988,87.839996
954.528015,357.216003,74.176003
944.768005,331.839996,66.367996
946.719971,247.904007,68.320000
923.296021,150.304001,60.512001
933.056030,83.935997,39.040001
931.104004,5.856000,23.424000
925.247986,-40.992001,9.760000
911.583984,-37.088001,-9.760000
903.776001,-31.232000,-17.568001
894.015991,0.000000,-23.424000
907.679993,25.375999,-44.896000
895.968018,44.896000,-42.944000
895.968018,93.695999,-54.655998
897.919983,142.496002,-66.367996
899.872009,191.296005,-54.655998
899.872009,238.143997,-66.367996
894.015991,267.424011,-62.464001
890.112000,284.992004,-64.416000
886.208008,300.608002,-74.176003
886.208008,292.799988,-99.552002
876.447998,236.192001,-121.024002
880.351990,181.535995,-156.160004
860.831970,175.679993,-169.824005
860.831970,146.399994,-163.968002
851.072021,66.367996,-156.160004
843.263977,-15.616000,-144.447998
847.168030,-31.232000,-132.735992
851.072021,21.472000,-134.688004
864.736023,48.799999,-140.544006
862.783997,52.703999,-148.352005
876.447998,-1.952000,-144.447998
892.064026,-56.608002,-124.928001
890.112000,-72.223999,-115.167999
899.872009,-29.280001,-117.120003
911.583984,40.992001,-124.928001
923.296021,195.199997,-130.783997
913.536011,370.880005,-117.120003
905.728027,470.432007,-74.176003
905.728027,454.816010,-29.280001
929.151978,279.135986,-1.952000
942.815979,40.992001,39.040001
970.143982,-148.352005,48.799999
999.424011,-175.679993,60.512001
995.520020,-105.407997,68.320000
981.856018,11.712000,62.464001
989.664001,25.375999,54.655998
972.096008,-83.935997,74.176003
976.000000,-199.104004,85.888000
972.096008,-185.440002,115.167999
958.432007,-27.327999,142.496002
964.288025,210.815994,148.352005
960.383972,417.727997,146.399994
966.239990,505.567993,132.735992
966.239990,484.096008,95.648003
968.192017,400.160004,62.464001
972.096008,318.175995,48.799999
974.047974,273.279999,39.040001
974.047974,257.664001,19.520000
974.047974,261.567993,-1.952000
989.664001,228.384003,-13.664000
979.903992,144.447998,-29.280001
987.711975,42.944000,-44.896000
970.143982,-60.512001,-64.416000
958.432007,-119.071999,-87.839996
933.056030,-107.360001,-115.167999
913.536011,-74.176003,-130.783997
903.776001,-46.848000,-162.016006
907.679993,-13.664000,-165.919998
909.632019,-13.664000,-162.016006
888.159973,-29.280001,-175.679993
888.159973,-3.904000,-187.391998
874.495972,50.751999,-203.007996
882.304016,156.160004,-199.104004
880.351990,292.799988,-183.488007
866.687988,437.247986,-167.871994
890.112000,478.239990,-146.399994
882.304016,454.816010,-109.311996
899.872009,308.415985,-81.984001
903.776001,74.176003,-60.512001
915.487976,-109.311996,-50.751999
897.919983,-208.863998,-58.560001
886.208008,-195.199997,-87.839996
872.544006,-154.207993,-97.599998
862.783997,-103.456001,-107.360001
853.023987,-70.272003,-109.311996
845.216003,-13.664000,-111.264000
849.119995,0.000000,-109.311996
864.736023,-87.839996,-72.223999
864.736023,-187.391998,-54.655998
870.591980,-99.552002,-37.088001
890.112000,134.688004,-58.560001
886.208008,368.928009,-76.127998
892.064026,521.184021,-68.320000
907.679993,556.320007,-83.935997
923.296021,474.335999,-78.080002
921.343994,394.303986,-95.648003
925.247986,378.687988,-126.879997
925.247986,359.167999,-154.207993
905.728027,314.272003,-183.488007
894.015991,212.768005,-197.151993
890.112000,81.984001,-210.815994
882.304016,-17.568001,-224.479996
860.831970,-134.688004,-240.095993
897.919983,-234.240005,-265.471985
866.687988,-236.192001,-275.231995
853.023987,-189.343994,-277.183990
841.312012,-85.888000,-271.328003
858.880005,54.655998,-267.424011
868.640015,179.584000,-261.567993
899.872009,255.712006,-265.471985
899.872009,214.720001,-261.567993
880.351990,128.832001,-212.768005
862.783997,99.552002,-146.399994
866.687988,191.296005,-89.792000
892.064026,396.256012,5.856000
944.768005,573.888000,70.272003
995.520020,628.544006,89.792000
1042.368042,499.712006,66.367996
1063.839966,294.752014,39.040001
1087.264038,140.544006,1.952000
1048.223999,74.176003,-62.464001
1007.231995,27.327999,-115.167999
960.383972,-21.472000,-154.207993
931.104004,-15.616000,-162.016006
915.487976,80.031998,-150.304001
948.671997,160.063995,-142.496002
974.047974,236.192001,-103.456001
999.424011,318.175995,-113.216003
1003.328003,300.608002,-140.544006
974.047974,183.488007,-171.776001
970.143982,132.735992,-206.912003
970.143982,189.343994,-238.143997
956.479980,411.872009,-290.847992
948.671997,802.271973,-294.752014
1001.375977,1124.352051,-277.183990
1001.375977,1073.599976,-216.671997
989.664001,339.648010,-138.591995
989.664001,-679.296021,-80.031998
1046.271973,-1262.943970,-40.992001
1048.223999,-1024.800049,0.000000
1063.839966,-121.024002,23.424000
1149.728027,833.504028,23.424000
1221.952026,1223.904053,1.952000
1198.527954,931.104004,-15.616000
1134.112061,160.063995,-21.472000
1126.303955,-443.104004,-60.512001
1155.583984,-548.512024,-95.648003
1188.767944,-208.863998,-130.783997
1171.199951,331.839996,-148.352005
1145.823975,671.487976,-142.496002
1106.784058,708.575989,-160.063995
1083.359985,450.911987,-179.584000
1071.647949,134.688004,-199.104004
1075.552002,-80.031998,-201.056000
1048.223999,-50.751999,-201.056000
1018.943970,130.783997,-212.768005
997.471985,361.119995,-214.720001
1030.656006,448.959991,-214.720001
1061.887939,355.264008,-208.863998
1059.936035,95.648003,-165.919998
1042.368042,-214.720001,-117.120003
1038.463989,-343.552002,-66.367996
1046.271973,-167.871994,-11.712000
1075.552002,171.776001,25.375999
1089.215942,472.384003,52.703999
1097.024048,558.271973,54.655998
1102.880005,513.375977,44.896000
1093.119995,368.928009,17.568001
1102.880005,132.735992,-29.280001
1100.927979,-37.088001,-74.176003
1093.119995,-1.952000,-117.120003
1085.312012,152.255997,-146.399994
1083.359985,314.272003,-171.776001
1073.599976,400.160004,-191.296005
1073.599976,378.687988,-201.056000
1061.887939,261.567993,-216.671997
1063.839966,83.935997,-228.384003
1061.887939,-3.904000,-242.048004
1061.887939,33.183998,-251.807999
1056.031982,154.207993,-265.471985
1054.079956,251.807999,-292.799988
1054.079956,281.088013,-292.799988
1052.128052,216.671997,-283.040009
1042.368042,115.167999,-259.615997
1052.128052,66.367996,-273.279999
1057.984009,89.792000,-263.519989
1054.079956,154.207993,-263.519989
1056.031982,195.199997,-259.615997
1048.223999,212.768005,-263.519989
1081.407959,199.104004,-288.895996
1130.208008,179.584000,-300.608002
1147.776001,156.160004,-292.799988
1138.015991,150.304001,-271.328003
1114.592041,140.544006,-242.048004
1102.880005,134.688004,-206.912003
1089.215942,173.727997,-183.488007
1110.687988,177.632004,-173.727997
1097.024048,162.016006,-160.063995
1085.312012,175.679993,-148.352005
1091.167969,165.919998,-138.591995
1095.072021,142.496002,-169.824005
1112.640015,130.783997,-185.440002
1132.160034,122.975998,-206.912003
1180.959961,99.552002,-132.735992
2320.927979,-1098.975952,1832.927979
3464.800049,-3199.327881,3804.447998
1862.208008,-3455.040039,394.303986
320.127991,-1690.432007,-905.728027
234.240005,2201.855957,-1436.671997
628.544006,1692.384033,-993.567993
853.023987,-1184.864014,-556.320007
1007.231995,441.152008,-907.679993
927.200012,1147.776001,-919.392029
991.616028,931.104004,-566.080017
1046.271973,431.391998,-495.808014
993.567993,423.584015,-651.968018
1204.384033,991.616028,-790.559998
1403.488037,1011.135986,-435.295990
1586.975952,737.856018,179.584000
1694.336060,513.375977,568.031982
1635.776001,515.328003,488.000000
1469.855957,646.112000,228.384003
1350.784058,724.192017,70.272003
1331.264038,784.703979,5.856000
1311.744019,868.640015,-13.664000
1300.031982,931.104004,5.856000
1301.984009,925.247986,21.472000
1286.368042,780.799988,33.183998
1288.319946,489.951996,-31.232000
1296.128052,95.648003,-130.783997
1245.375977,-83.935997,-189.343994
1184.864014,-142.496002,-244.000000
1122.400024,-150.304001,-300.608002
1097.024048,-39.040001,-312.320007
1098.975952,66.367996,-271.328003
1139.968018,150.304001,-224.479996
1165.343994,191.296005,-222.528000
1167.296021,247.904007,-204.960007
1175.104004,253.759995,-214.720001
1161.439941,269.376007,-234.240005
1165.343994,294.752014,-259.615997
1155.583984,333.791992,-281.088013
1149.728027,357.216003,-302.559998
1126.303955,378.687988,-302.559998
1122.400024,355.264008,-296.704010
1110.687988,331.839996,-302.559998
1089.215942,288.895996,-308.415985
1077.504028,218.623993,-290.847992
1087.264038,169.824005,-283.040009
1073.599976,134.688004,-290.847992
1059.936035,103.456001,-312.320007
1052.128052,122.975998,-316.223999
1038.463989,142.496002,-310.368011
1050.176025,148.352005,-296.704010
1057.984009,187.391998,-277.183990
1057.984009,208.863998,-279.135986
1063.839966,228.384003,-257.664001
1057.984009,255.712006,-257.664001
1054.079956,253.759995,-251.807999
1038.463989,259.615997,-259.615997
1044.319946,249.856003,-255.712006
1042.368042,253.759995,-269.376007
1038.463989,234.240005,-273.279999
1024.800049,212.768005,-277.183990
1018.943970,193.248001,-279.135986
1005.280029,165.919998,-279.135986
991.616028,138.591995,-277.183990
995.520020,113.216003,-283.040009
985.760010,109.311996,-281.088013
985.760010,105.407997,-279.135986
989.664001,107.360001,-273.279999
981.856018,121.024002,-253.759995
983.807983,126.879997,-247.904007
991.616028,154.207993,-247.904007
985.760010,175.679993,-245.951996
976.000000,179.584000,-238.143997
981.856018,195.199997,-249.856003
970.143982,214.720001,-263.519989
958.432007,216.671997,-288.895996
948.671997,214.720001,-294.752014
952.575989,191.296005,-294.752014
958.432007,148.352005,-298.656006
948.671997,126.879997,-294.752014
956.479980,117.120003,-302.559998
942.815979,128.832001,-304.511993
940.864014,162.016006,-312.320007
942.815979,175.679993,-320.127991
931.104004,197.151993,-318.175995
935.007996,220.576004,-302.559998
940.864014,220.576004,-296.704010
952.575989,206.912003,-279.135986
962.335999,201.056000,-253.759995
972.096008,183.488007,-251.807999
970.143982,183.488007,-245.951996
962.335999,181.535995,-257.664001
956.479980,181.535995,-267.424011
948.671997,177.632004,-271.328003
948.671997,167.871994,-284.992004
938.911987,156.160004,-292.799988
936.960022,142.496002,-296.704010
931.104004,144.447998,-298.656006
925.247986,152.255997,-300.608002
927.200012,165.919998,-298.656006
925.247986,152.255997,-302.559998
927.200012,162.016006,-306.463989
931.104004,154.207993,-302.559998
925.247986,140.544006,-312.320007
931.104004,156.160004,-302.559998
929.151978,169.824005,-298.656006
925.247986,185.440002,-298.656006
927.200012,201.056000,-298.656006
931.104004,218.623993,-300.608002
936.960022,220.576004,-290.847992
935.007996,201.056000,-292.799988
925.247986,208.863998,-292.799988
921.343994,201.056000,-294.752014
921.343994,203.007996,-296.704010
929.151978,208.863998,-292.799988
933.056030,212.768005,-296.704010
931.104004,214.720001,-290.847992
929.151978,220.576004,-288.895996
931.104004,224.479996,-296.704010
923.296021,242.048004,-294.752014
940.864014,281.088013,-308.415985
942.815979,333.791992,-314.272003
929.151978,322.079987,-318.175995
929.151978,310.368011,-310.368011
925.247986,273.279999,-308.415985
931.104004,218.623993,-318.175995
936.960022,179.584000,-300.608002
950.624023,148.352005,-284.992004
954.528015,117.120003,-281.088013
964.288025,107.360001,-273.279999
948.671997,101.503998,-279.135986
946.719971,115.167999,-271.328003
944.768005,134.688004,-273.279999
929.151978,154.207993,-279.135986
940.864014,171.776001,-269.376007
940.864014,212.768005,-273.279999
948.671997,222.528000,-277.183990
952.575989,232.287994,-267.424011
956.479980,238.143997,-273.279999
960.383972,220.576004,-279.135986
952.575989,224.479996,-271.328003
954.528015,204.960007,-271.328003
950.624023,191.296005,-271.328003
940.864014,181.535995,-273.279999
942.815979,195.199997,-249.856003
952.575989,206.912003,-263.519989
950.624023,189.343994,-273.279999
944.768005,187.391998,-271.328003
962.335999,169.824005,-275.231995
964.288025,156.160004,-267.424011
968.192017,142.496002,-265.471985
960.383972,138.591995,-257.664001
974.047974,115.167999,-253.759995
952.575989,119.071999,-247.904007
960.383972,121.024002,-257.664001
960.383972,128.832001,-255.712006
970.143982,144.447998,-267.424011
979.903992,165.919998,-261.567993
993.567993,165.919998,-251.807999
989.664001,181.535995,-249.856003
995.520020,189.343994,-259.615997
995.520020,179.584000,-257.664001
991.616028,183.488007,-251.807999
983.807983,177.632004,-251.807999
993.567993,171.776001,-255.712006
983.807983,156.160004,-261.567993
1001.375977,142.496002,-263.519989
995.520020,126.879997,-265.471985
999.424011,130.783997,-251.807999
991.616028,134.688004,-263.519989
985.760010,144.447998,-269.376007
979.903992,144.447998,-259.615997
979.903992,160.063995,-269.376007
977.952026,160.063995,-269.376007
985.760010,171.776001,-284.992004
985.760010,167.871994,-281.088013
983.807983,165.919998,-279.135986
989.664001,156.160004,-279.135986
983.807983,148.352005,-284.992004
991.616028,140.544006,-283.040009
995.520020,148.352005,-277.183990
999.424011,160.063995,-284.992004
993.567993,173.727997,-271.328003
997.471985,183.488007,-269.376007
989.664001,181.535995,-281.088013
997.471985,191.296005,-281.088013
1013.088013,179.584000,-267.424011
999.424011,173.727997,-279.135986
991.616028,156.160004,-275.231995
997.471985,148.352005,-277.183990
993.567993,144.447998,-279.135986
997.471985,158.112000,-279.135986
991.616028,154.207993,-279.135986
995.520020,160.063995,-281.088013
1001.375977,152.255997,-279.135986
993.567993,163.968002,-281.088013
995.520020,165.919998,-284.992004
1009.184021,163.968002,-296.704010
1009.184021,162.016006,-283.040009
1001.375977,163.968002,-283.040009
1005.280029,165.919998,-281.088013
997.471985,173.727997,-281.088013
991.616028,177.632004,-283.040009
1005.280029,167.871994,-288.895996
1013.088013,162.016006,-288.895996
1011.135986,163.968002,-279.135986
1013.088013,165.919998,-271.328003
1013.088013,156.160004,-273.279999
1013.088013,154.207993,-273.279999
1016.992004,158.112000,-271.328003
1013.088013,175.679993,-257.664001
1020.895996,193.248001,-261.567993
1026.751953,183.488007,-257.664001
1015.039978,185.440002,-261.567993
1016.992004,163.968002,-281.088013
1020.895996,148.352005,-284.992004
1011.135986,144.447998,-288.895996
1001.375977,158.112000,-277.183990
987.711975,167.871994,-284.992004
993.567993,162.016006,-292.799988
989.664001,156.160004,-290.847992
991.616028,156.160004,-288.895996
991.616028,158.112000,-277.183990
981.856018,158.112000,-286.944000
979.903992,177.632004,-294.752014
972.096008,167.871994,-292.799988
977.952026,169.824005,-296.704010
981.856018,156.160004,-290.847992
972.096008,154.207993,-288.895996
976.000000,167.871994,-279.135986
974.047974,173.727997,-284.992004
977.952026,171.776001,-290.847992
972.096008,177.632004,-290.847992
972.096008,154.207993,-284.992004
964.288025,154.207993,-283.040009
956.479980,175.679993,-275.231995
964.288025,191.296005,-279.135986
960.383972,210.815994,-284.992004
966.239990,212.768005,-290.847992
960.383972,195.199997,-286.944000
958.432007,203.007996,-279.135986
962.335999,195.199997,-283.040009
964.288025,185.440002,-290.847992
970.143982,191.296005,-283.040009
960.383972,189.343994,-290.847992
958.432007,173.727997,-294.752014
962.335999,165.919998,-292.799988
962.335999,165.919998,-292.799988
962.335999,171.776001,-292.799988
958.432007,187.391998,-286.944000
958.432007,185.440002,-296.704010
962.335999,185.440002,-296.704010
954.528015,197.151993,-286.944000
962.335999,187.391998,-288.895996
958.432007,189.343994,-284.992004
956.479980,201.056000,-275.231995
960.383972,185.440002,-286.944000
962.335999,167.871994,-292.799988
958.432007,156.160004,-286.944000
966.239990,171.776001,-281.088013
966.239990,179.584000,-283.040009
966.239990,171.776001,-292.799988
970.143982,189.343994,-279.135986
964.288025,183.488007,-277.183990
964.288025,181.535995,-275.231995
966.239990,163.968002,-279.135986
952.575989,146.399994,-279.135986
964.288025,126.879997,-279.135986
964.288025,130.783997,-269.376007
956.479980,144.447998,-281.088013
960.383972,158.112000,-281.088013
962.335999,167.871994,-275.231995
970.143982,187.391998,-273.279999
960.383972,201.056000,-281.088013
964.288025,204.960007,-271.328003
966.239990,203.007996,-273.279999
968.192017,193.248001,-269.376007
972.096008,185.440002,-255.712006
983.807983,173.727997,-249.856003
993.567993,156.160004,-240.095993
995.520020,158.112000,-242.048004
999.424011,167.871994,-236.192001
1003.328003,150.304001,-228.384003
1005.280029,150.304001,-236.192001
1003.328003,156.160004,-251.807999
1015.039978,195.199997,-251.807999
1007.231995,204.960007,-245.951996
1024.800049,191.296005,-251.807999
1009.184021,191.296005,-273.279999
1007.231995,169.824005,-273.279999
1009.184021,142.496002,-275.231995
1009.184021,140.544006,-269.376007
1009.184021,144.447998,-275.231995
1009.184021,160.063995,-277.183990
1013.088013,162.016006,-283.040009
1016.992004,165.919998,-281.088013
1013.088013,171.776001,-296.704010
1026.751953,189.343994,-288.895996
1018.943970,165.919998,-288.895996
1022.848022,171.776001,-286.944000
1026.751953,175.679993,-283.040009
1024.800049,171.776001,-283.040009
1028.703979,175.679993,-271.328003
1026.751953,175.679993,-277.183990
1028.703979,171.776001,-286.944000
1034.560059,171.776001,-288.895996
1038.463989,167.871994,-284.992004
1044.319946,163.968002,-284.992004
1042.368042,162.016006,-281.088013
1052.128052,163.968002,-292.799988
1042.368042,163.968002,-288.895996
1040.416016,183.488007,-281.088013
1042.368042,175.679993,-281.088013
1046.271973,181.535995,-292.799988
1038.463989,189.343994,-294.752014
1040.416016,183.488007,-290.847992
1038.463989,183.488007,-286.944000
1042.368042,189.343994,-292.799988
1044.319946,191.296005,-298.656006
1044.319946,187.391998,-310.368011
1044.319946,179.584000,-302.559998
1042.368042,183.488007,-298.656006
1034.560059,189.343994,-306.463989
1038.463989,183.488007,-304.511993
1030.656006,189.343994,-300.608002
1040.416016,195.199997,-302.559998
1042.368042,185.440002,-306.463989
1044.319946,177.632004,-302.559998
1026.751953,187.391998,-296.704010
1028.703979,185.440002,-302.559998
1028.703979,179.584000,-302.559998
1022.848022,193.248001,-294.752014
1026.751953,177.632004,-296.704010
1036.511963,177.632004,-294.752014
1026.751953,175.679993,-300.608002
1028.703979,175.679993,-296.704010
1018.943970,173.727997,-290.847992
1024.800049,175.679993,-296.704010
1018.943970,169.824005,-290.847992
1013.088013,167.871994,-279.135986
1028.703979,165.919998,-286.944000
1015.039978,167.871994,-290.847992
1015.039978,156.160004,-284.992004
1015.039978,156.160004,-292.799988
1013.088013,160.063995,-288.895996
1015.039978,148.352005,-283.040009
1013.088013,152.255997,-281.088013
1007.231995,152.255997,-292.799988
1003.328003,152.255997,-286.944000
1003.328003,162.016006,-292.799988
1007.231995,158.112000,-300.608002
1011.135986,148.352005,-296.704010
1005.280029,146.399994,-292.799988
1005.280029,138.591995,-286.944000
1016.992004,144.447998,-288.895996
1007.231995,146.399994,-294.752014
1003.328003,136.639999,-296.704010
997.471985,144.447998,-296.704010
999.424011,150.304001,-300.608002
993.567993,150.304001,-300.608002
997.471985,142.496002,-294.752014
993.567993,142.496002,-290.847992
993.567993,130.783997,-294.752014
981.856018,144.447998,-284.992004
985.760010,146.399994,-300.608002
979.903992,150.304001,-290.847992
983.807983,156.160004,-294.752014
977.952026,150.304001,-292.799988
972.096008,146.399994,-308.415985
958.432007,136.639999,-302.559998
964.288025,138.591995,-304.511993
964.288025,148.352005,-306.463989
960.383972,144.447998,-306.463989
954.528015,156.160004,-308.415985
948.671997,160.063995,-304.511993
942.815979,158.112000,-314.272003
950.624023,162.016006,-310.368011
948.671997,163.968002,-316.223999
940.864014,150.304001,-318.175995
948.671997,150.304001,-312.320007
946.719971,144.447998,-314.272003
938.911987,146.399994,-316.223999
935.007996,136.639999,-316.223999
933.056030,156.160004,-320.127991
933.056030,148.352005,-320.127991
933.056030,146.399994,-318.175995
925.247986,150.304001,-325.984009
921.343994,150.304001,-329.888000
933.056030,142.496002,-335.743988
915.487976,146.399994,-335.743988
925.247986,136.639999,-333.791992
931.104004,130.783997,-329.888000
931.104004,134.688004,-335.743988
925.247986,142.496002,-322.079987
929.151978,144.447998,-325.984009
927.200012,142.496002,-327.936005
929.151978,144.447998,-329.888000
929.151978,146.399994,-339.648010
931.104004,154.207993,-331.839996
931.104004,142.496002,-333.791992
938.911987,130.783997,-337.696014
942.815979,128.832001,-347.455994
950.624023,138.591995,-339.648010
948.671997,130.783997,-341.600006
948.671997,150.304001,-337.696014
948.671997,136.639999,-347.455994
954.528015,142.496002,-343.552002
962.335999,152.255997,-333.791992
960.383972,142.496002,-331.839996
960.383972,130.783997,-337.696014
972.096008,140.544006,-327.936005
977.952026,136.639999,-325.984009
977.952026,144.447998,-324.032013
976.000000,132.735992,-314.272003
987.711975,136.639999,-324.032013
979.903992,142.496002,-310.368011
976.000000,142.496002,-306.463989
987.711975,138.591995,-316.223999
977.952026,144.447998,-316.223999
983.807983,144.447998,-316.223999
987.711975,140.544006,-324.032013
991.616028,152.255997,-320.127991
989.664001,150.304001,-316.223999
991.616028,154.207993,-320.127991
987.711975,132.735992,-310.368011
981.856018,142.496002,-324.032013
993.567993,144.447998,-327.936005
991.616028,144.447998,-324.032013
989.664001,146.399994,-310.368011
983.807983,136.639999,-318.175995
979.903992,142.496002,-312.320007
977.952026,150.304001,-312.320007
987.711975,146.399994,-306.463989
987.711975,136.639999,-314.272003
989.664001,152.255997,-312.320007
989.664001,152.255997,-304.511993
987.711975,152.255997,-294.752014
972.096008,136.639999,-300.608002
976.000000,142.496002,-314.272003
976.000000,140.544006,-318.175995
983.807983,142.496002,-335.743988
987.711975,154.207993,-329.888000
968.192017,154.207993,-322.079987
968.192017,144.447998,-314.272003
970.143982,154.207993,-310.368011
979.903992,169.824005,-310.368011
974.047974,165.919998,-306.463989
981.856018,165.919998,-308.415985
968.192017,162.016006,-318.175995
962.335999,169.824005,-316.223999
966.239990,156.160004,-327.936005
962.335999,154.207993,-325.984009
966.239990,144.447998,-331.839996
956.479980,150.304001,-325.984009
960.383972,148.352005,-322.079987
962.335999,152.255997,-327.936005
972.096008,154.207993,-327.936005
970.143982,152.255997,-322.079987
972.096008,154.207993,-306.463989
962.335999,165.919998,-312.320007
977.952026,144.447998,-306.463989
981.856018,158.112000,-310.368011
977.952026,150.304001,-306.463989
972.096008,142.496002,-310.368011
976.000000,150.304001,-314.272003
970.143982,152.255997,-310.368011
964.288025,158.112000,-320.127991
972.096008,152.255997,-320.127991
970.143982,154.207993,-306.463989
960.383972,148.352005,-310.368011
974.047974,140.544006,-316.223999
