ACC_X,ACC_Y,ACC_Z
810.080017,452.864014,470.432007
808.127991,456.768005,480.191986
806.176025,460.671997,484.096008
810.080017,447.007996,476.287994
815.935974,454.816010,480.191986
813.984009,454.816010,482.144012
812.031982,452.864014,488.000000
817.888000,437.247986,480.191986
813.984009,439.200012,484.096008
821.791992,447.007996,478.239990
804.223999,443.104004,474.335999
813.984009,443.104004,480.191986
804.223999,458.720001,470.432007
813.984009,458.720001,464.575989
808.127991,470.432007,460.671997
810.080017,470.432007,470.432007
802.271973,464.575989,464.575989
806.176025,462.623993,458.720001
806.176025,460.671997,454.816010
806.176025,466.528015,470.432007
808.127991,452.864014,466.528015
810.080017,452.864014,468.480011
802.271973,454.816010,476.287994
804.223999,448.959991,482.144012
806.176025,454.816010,482.144012
808.127991,454.816010,482.144012
815.935974,452.864014,486.048004
808.127991,456.768005,476.287994
806.176025,456.768005,482.144012
806.176025,456.768005,484.096008
806.176025,462.623993,478.239990
796.416016,464.575989,472.384003
804.223999,468.480011,470.432007
808.127991,470.432007,472.384003
798.367981,478.239990,470.432007
800.320007,484.096008,460.671997
800.320007,474.335999,470.432007
788.607971,474.335999,470.432007
802.271973,474.335999,472.384003
802.271973,488.000000,474.335999
796.416016,476.287994,480.191986
802.271973,482.144012,486.048004
794.463989,482.144012,484.096008
798.367981,472.384003,495.808014
800.320007,468.480011,484.096008
792.512024,476.287994,493.855988
800.320007,480.191986,489.951996
812.031982,454.816010,489.951996
792.512024,462.623993,501.664001
792.512024,482.144012,497.760010
790.559998,460.671997,499.712006
776.895996,448.959991,497.760010
792.512024,484.096008,495.808014
813.984009,462.623993,497.760010
802.271973,454.816010,482.144012
802.271973,489.951996,484.096008
782.752014,478.239990,488.000000
778.848022,458.720001,491.903992
788.607971,497.760010,493.855988
806.176025,478.239990,484.096008
812.031982,466.528015,482.144012
804.223999,495.808014,484.096008
796.416016,482.144012,491.903992
790.559998,464.575989,493.855988
823.744019,493.855988,491.903992
808.127991,482.144012,486.048004
815.935974,468.480011,488.000000
810.080017,468.480011,495.808014
802.271973,466.528015,493.855988
813.984009,484.096008,493.855988
817.888000,486.048004,482.144012
821.791992,448.959991,480.191986
835.455994,486.048004,480.191986
813.984009,509.471985,486.048004
802.271973,482.144012,497.760010
802.271973,454.816010,493.855988
817.888000,462.623993,491.903992
806.176025,476.287994,493.855988
806.176025,452.864014,489.951996
802.271973,441.152008,489.951996
788.607971,484.096008,482.144012
788.607971,480.191986,470.432007
800.320007,450.911987,462.623993
812.031982,462.623993,454.816010
798.367981,488.000000,458.720001
794.463989,480.191986,460.671997
790.559998,474.335999,464.575989
800.320007,482.144012,462.623993
790.559998,488.000000,460.671997
806.176025,507.519989,458.720001
800.320007,484.096008,472.384003
792.512024,486.048004,470.432007
794.463989,511.424011,478.239990
804.223999,499.712006,474.335999
813.984009,470.432007,472.384003
812.031982,499.712006,470.432007
819.840027,499.712006,472.384003
798.367981,476.287994,478.239990
804.223999,478.239990,482.144012
806.176025,474.335999,480.191986
812.031982,480.191986,474.335999
812.031982,480.191986,472.384003
817.888000,445.056000,474.335999
815.935974,456.768005,480.191986
812.031982,480.191986,468.480011
821.791992,478.239990,476.287994
823.744019,458.720001,482.144012
827.648010,478.239990,478.239990
821.791992,493.855988,468.480011
827.648010,493.855988,470.432007
833.504028,482.144012,480.191986
839.359985,513.375977,493.855988
839.359985,495.808014,503.615997
839.359985,480.191986,519.231995
835.455994,497.760010,528.992004
853.023987,513.375977,540.703979
847.168030,503.615997,548.512024
843.263977,491.903992,552.416016
851.072021,493.855988,554.367981
854.976013,499.712006,560.223999
854.976013,505.567993,556.320007
849.119995,486.048004,554.367981
843.263977,482.144012,554.367981
835.455994,497.760010,554.367981
849.119995,497.760010,552.416016
849.119995,478.239990,552.416016
839.359985,474.335999,546.559998
837.408020,486.048004,544.607971
841.312012,488.000000,540.703979
827.648010,486.048004,538.752014
817.888000,480.191986,542.656006
819.840027,489.951996,550.463989
812.031982,495.808014,575.840027
800.320007,488.000000,589.504028
808.127991,474.335999,612.927979
825.695984,472.384003,614.880005
839.359985,474.335999,597.312012
856.927979,470.432007,605.119995
874.495972,454.816010,599.263977
878.400024,464.575989,587.552002
878.400024,493.855988,585.599976
864.736023,491.903992,589.504028
856.927979,501.664001,587.552002
839.359985,528.992004,577.791992
823.744019,556.320007,554.367981
810.080017,546.559998,560.223999
796.416016,546.559998,554.367981
802.271973,544.607971,540.703979
794.463989,536.799988,532.895996
804.223999,521.184021,523.135986
808.127991,497.760010,517.280029
825.695984,466.528015,523.135986
819.840027,470.432007,511.424011
819.840027,462.623993,517.280029
823.744019,433.343994,513.375977
808.127991,427.488007,519.231995
812.031982,443.104004,519.231995
792.512024,431.391998,519.231995
767.135986,445.056000,521.184021
749.567993,460.671997,530.943970
753.471985,437.247986,521.184021
735.903992,450.911987,515.328003
726.143982,476.287994,523.135986
771.039978,472.384003,536.799988
804.223999,450.911987,536.799988
796.416016,486.048004,523.135986
798.367981,513.375977,521.184021
804.223999,501.664001,523.135986
794.463989,495.808014,528.992004
784.703979,497.760010,525.088013
786.656006,513.375977,521.184021
796.416016,534.848022,521.184021
772.992004,523.135986,503.615997
763.231995,503.615997,503.615997
763.231995,505.567993,497.760010
767.135986,501.664001,486.048004
763.231995,495.808014,476.287994
759.328003,476.287994,474.335999
757.375977,437.247986,470.432007
743.711975,439.200012,470.432007
743.711975,439.200012,462.623993
747.616028,417.727997,472.384003
755.424011,394.303986,478.239990
749.567993,415.776001,480.191986
735.903992,406.015991,482.144012
726.143982,404.063995,486.048004
730.047974,413.824005,493.855988
733.952026,450.911987,488.000000
741.760010,441.152008,495.808014
741.760010,448.959991,505.567993
745.664001,448.959991,513.375977
755.424011,450.911987,523.135986
751.520020,472.384003,521.184021
757.375977,488.000000,521.184021
763.231995,476.287994,513.375977
751.520020,480.191986,513.375977
755.424011,505.567993,511.424011
753.471985,495.808014,511.424011
745.664001,480.191986,511.424011
739.807983,488.000000,515.328003
733.952026,482.144012,503.615997
722.239990,460.671997,505.567993
728.096008,445.056000,503.615997
732.000000,439.200012,515.328003
720.288025,447.007996,511.424011
722.239990,445.056000,517.280029
733.952026,429.440002,517.280029
741.760010,404.063995,513.375977
743.711975,415.776001,499.712006
741.760010,435.295990,484.096008
732.000000,407.967987,484.096008
732.000000,402.112000,488.000000
732.000000,431.391998,482.144012
730.047974,439.200012,484.096008
728.096008,450.911987,489.951996
726.143982,447.007996,484.096008
716.383972,447.007996,493.855988
726.143982,474.335999,491.903992
728.096008,468.480011,493.855988
730.047974,454.816010,491.903992
730.047974,464.575989,495.808014
737.856018,478.239990,497.760010
741.760010,445.056000,493.855988
743.711975,437.247986,503.615997
739.807983,447.007996,509.471985
747.616028,425.536011,495.808014
749.567993,421.631989,505.567993
761.280029,404.063995,507.519989
753.471985,423.584015,505.567993
743.711975,417.727997,507.519989
749.567993,406.015991,503.615997
741.760010,402.112000,495.808014
751.520020,413.824005,486.048004
745.664001,423.584015,486.048004
749.567993,433.343994,482.144012
749.567993,421.631989,486.048004
747.616028,421.631989,495.808014
747.616028,445.056000,488.000000
753.471985,437.247986,493.855988
757.375977,443.104004,503.615997
759.328003,450.911987,509.471985
757.375977,454.816010,523.135986
759.328003,456.768005,525.088013
761.280029,454.816010,527.039978
769.088013,458.720001,497.760010
917.440002,519.231995,429.440002
995.520020,242.048004,437.247986
739.807983,52.703999,462.623993
767.135986,288.895996,462.623993
765.184021,495.808014,478.239990
743.711975,501.664001,493.855988
749.567993,407.967987,501.664001
774.943970,300.608002,491.903992
800.320007,275.231995,505.567993
815.935974,310.368011,523.135986
825.695984,286.944000,534.848022
776.895996,244.000000,550.463989
769.088013,179.584000,562.176025
792.512024,140.544006,566.080017
796.416016,103.456001,562.176025
792.512024,97.599998,571.935974
804.223999,138.591995,583.648010
792.512024,183.488007,583.648010
810.080017,216.671997,577.791992
792.512024,230.335999,587.552002
772.992004,265.471985,583.648010
716.383972,384.544006,581.695984
683.200012,609.023987,573.888000
687.104004,905.728027,548.512024
685.151978,1184.864014,530.943970
733.952026,1313.696045,515.328003
815.935974,1286.368042,525.088013
851.072021,1075.552002,546.559998
802.271973,704.671997,581.695984
776.895996,406.015991,626.591980
747.616028,296.704010,646.112000
753.471985,306.463989,640.255981
753.471985,402.112000,634.400024
767.135986,173.727997,603.168030
870.591980,1.952000,544.607971
860.831970,173.727997,552.416016
747.616028,577.791992,573.888000
788.607971,726.143982,587.552002
689.056030,499.712006,587.552002
603.168030,284.992004,534.848022
790.559998,439.200012,486.048004
761.280029,616.831970,476.287994
808.127991,650.015991,462.623993
812.031982,562.176025,456.768005
819.840027,548.512024,466.528015
800.320007,550.463989,497.760010
782.752014,519.231995,532.895996
753.471985,482.144012,554.367981
757.375977,472.384003,577.791992
769.088013,476.287994,597.312012
757.375977,437.247986,614.880005
741.760010,407.967987,620.736023
739.807983,406.015991,618.783997
730.047974,392.351990,632.447998
733.952026,359.167999,624.640015
737.856018,314.272003,626.591980
741.760010,302.559998,628.544006
745.664001,283.040009,628.544006
739.807983,249.856003,636.351990
728.096008,249.856003,630.495972
726.143982,249.856003,632.447998
720.288025,257.664001,638.304016
724.192017,259.615997,636.351990
708.575989,259.615997,634.400024
696.864014,245.951996,622.687988
694.911987,257.664001,620.736023
708.575989,242.048004,618.783997
700.768005,226.432007,607.072021
712.479980,224.479996,603.168030
712.479980,224.479996,595.359985
702.719971,222.528000,591.455994
704.671997,228.384003,587.552002
698.815979,245.951996,587.552002
720.288025,249.856003,587.552002
692.960022,253.759995,581.695984
700.768005,249.856003,579.744019
700.768005,273.279999,566.080017
692.960022,259.615997,571.935974
694.911987,222.528000,566.080017
706.624023,165.919998,552.416016
720.288025,119.071999,534.848022
739.807983,44.896000,538.752014
755.424011,-35.136002,532.895996
778.848022,-134.688004,523.135986
802.271973,-284.992004,528.992004
815.935974,-378.687988,515.328003
804.223999,-407.967987,507.519989
612.927979,-29.280001,536.799988
587.552002,724.192017,616.831970
669.536011,925.247986,665.632019
503.615997,595.359985,610.976013
579.744019,472.384003,550.463989
657.823975,579.744019,566.080017
673.440002,669.536011,552.416016
-290.847992,2847.968018,523.135986
632.447998,4210.463867,470.432007
929.151978,2643.008057,532.895996
562.176025,-628.544006,509.471985
714.432007,-1852.447998,423.584015
886.208008,-620.736023,365.023987
517.280029,1325.407959,341.600006
880.351990,1700.192017,417.727997
882.304016,798.367981,474.335999
694.911987,-222.528000,437.247986
599.263977,-228.384003,394.303986
683.200012,493.855988,392.351990
817.888000,892.064026,450.911987
792.512024,675.392029,499.712006
692.960022,238.143997,507.519989
636.351990,103.456001,501.664001
626.591980,316.223999,517.280029
691.007996,536.799988,542.656006
712.479980,568.031982,573.888000
677.343994,433.343994,579.744019
655.872009,300.608002,558.271973
653.919983,269.376007,552.416016
673.440002,384.544006,552.416016
687.104004,488.000000,550.463989
687.104004,489.951996,554.367981
665.632019,390.399994,554.367981
667.583984,333.791992,548.512024
675.392029,351.359985,548.512024
694.911987,409.920013,554.367981
696.864014,460.671997,544.607971
679.296021,441.152008,540.703979
677.343994,374.783997,540.703979
692.960022,353.312012,525.088013
696.864014,390.399994,528.992004
702.719971,437.247986,527.039978
698.815979,435.295990,532.895996
667.583984,382.592010,528.992004
669.536011,355.264008,523.135986
673.440002,366.976013,525.088013
691.007996,406.015991,513.375977
665.632019,421.631989,509.471985
650.015991,396.256012,515.328003
651.968018,392.351990,507.519989
642.208008,419.679993,501.664001
618.783997,435.295990,491.903992
612.927979,462.623993,491.903992
595.359985,456.768005,497.760010
573.888000,454.816010,482.144012
568.031982,462.623993,472.384003
575.840027,497.760010,478.239990
577.791992,521.184021,466.528015
581.695984,513.375977,456.768005
569.984009,484.096008,450.911987
558.271973,468.480011,441.152008
556.320007,497.760010,435.295990
558.271973,548.512024,443.104004
558.271973,577.791992,439.200012
552.416016,599.263977,445.056000
523.135986,605.119995,443.104004
525.088013,640.255981,441.152008
528.992004,683.200012,447.007996
511.424011,732.000000,439.200012
503.615997,741.760010,433.343994
515.328003,737.856018,431.391998
519.231995,739.807983,425.536011
525.088013,755.424011,419.679993
523.135986,767.135986,411.872009
519.231995,763.231995,406.015991
536.799988,745.664001,402.112000
546.559998,694.911987,415.776001
552.416016,675.392029,402.112000
568.031982,648.064026,409.920013
579.744019,618.783997,413.824005
577.791992,599.263977,413.824005
583.648010,581.695984,421.631989
581.695984,542.656006,427.488007
579.744019,521.184021,450.911987
575.840027,501.664001,448.959991
566.080017,501.664001,458.720001
556.320007,517.280029,450.911987
546.559998,495.808014,447.007996
544.607971,462.623993,452.864014
546.559998,450.911987,447.007996
544.607971,460.671997,443.104004
550.463989,470.432007,450.911987
538.752014,456.768005,454.816010
534.848022,423.584015,443.104004
538.752014,411.872009,452.864014
542.656006,409.920013,445.056000
538.752014,409.920013,448.959991
536.799988,425.536011,450.911987
536.799988,419.679993,450.911987
530.943970,398.208008,448.959991
530.943970,400.160004,445.056000
532.895996,390.399994,447.007996
532.895996,392.351990,454.816010
532.895996,392.351990,445.056000
523.135986,392.351990,454.816010
517.280029,376.735992,456.768005
528.992004,374.783997,450.911987
519.231995,372.832001,447.007996
523.135986,355.264008,445.056000
517.280029,366.976013,448.959991
513.375977,357.216003,448.959991
523.135986,357.216003,445.056000
521.184021,351.359985,452.864014
521.184021,355.264008,448.959991
521.184021,353.312012,454.816010
525.088013,339.648010,460.671997
523.135986,312.320007,452.864014
527.039978,288.895996,464.575989
534.848022,277.183990,466.528015
530.943970,283.040009,454.816010
544.607971,273.279999,456.768005
542.656006,267.424011,462.623993
538.752014,245.951996,456.768005
554.367981,253.759995,468.480011
554.367981,259.615997,464.575989
566.080017,283.040009,464.575989
566.080017,273.279999,464.575989
562.176025,269.376007,458.720001
569.984009,275.231995,454.816010
562.176025,269.376007,448.959991
569.984009,273.279999,443.104004
573.888000,275.231995,443.104004
575.840027,279.135986,435.295990
579.744019,275.231995,425.536011
577.791992,269.376007,429.440002
573.888000,267.424011,433.343994
575.840027,273.279999,435.295990
583.648010,271.328003,429.440002
585.599976,263.519989,435.295990
595.359985,253.759995,435.295990
589.504028,251.807999,439.200012
587.552002,259.615997,431.391998
595.359985,261.567993,443.104004
589.504028,251.807999,433.343994
587.552002,253.759995,439.200012
587.552002,259.615997,431.391998
587.552002,253.759995,431.391998
577.791992,261.567993,429.440002
591.455994,271.328003,439.200012
585.599976,273.279999,433.343994
595.359985,273.279999,437.247986
589.504028,269.376007,443.104004
587.552002,271.328003,445.056000
597.312012,292.799988,456.768005
599.263977,294.752014,460.671997
609.023987,308.415985,466.528015
609.023987,324.032013,480.191986
612.927979,339.648010,488.000000
614.880005,345.503998,495.808014
618.783997,363.071991,509.471985
626.591980,366.976013,509.471985
630.495972,365.023987,519.231995
640.255981,368.928009,525.088013
638.304016,372.832001,536.799988
640.255981,372.832001,550.463989
640.255981,365.023987,552.416016
646.112000,372.832001,562.176025
646.112000,376.735992,564.127991
646.112000,366.976013,581.695984
650.015991,370.880005,583.648010
648.064026,376.735992,585.599976
644.159973,382.592010,585.599976
657.823975,378.687988,585.599976
646.112000,386.496002,585.599976
644.159973,392.351990,585.599976
640.255981,398.208008,583.648010
650.015991,404.063995,583.648010
644.159973,411.872009,575.840027
651.968018,411.872009,569.984009
651.968018,413.824005,569.984009
648.064026,413.824005,577.791992
651.968018,413.824005,569.984009
661.728027,404.063995,569.984009
657.823975,394.303986,568.031982
651.968018,400.160004,575.840027
651.968018,406.015991,573.888000
665.632019,400.160004,583.648010
667.583984,396.256012,577.791992
661.728027,386.496002,595.359985
667.583984,382.592010,593.408020
667.583984,384.544006,593.408020
675.392029,382.592010,585.599976
669.536011,382.592010,591.455994
671.487976,372.832001,595.359985
671.487976,370.880005,589.504028
677.343994,380.640015,593.408020
671.487976,376.735992,591.455994
681.247986,359.167999,593.408020
677.343994,370.880005,593.408020
681.247986,378.687988,589.504028
677.343994,368.928009,591.455994
677.343994,370.880005,585.599976
671.487976,374.783997,587.552002
675.392029,380.640015,595.359985
681.247986,376.735992,595.359985
675.392029,376.735992,587.552002
685.151978,370.880005,597.312012
679.296021,376.735992,585.599976
677.343994,376.735992,585.599976
671.487976,374.783997,591.455994
679.296021,372.832001,589.504028
675.392029,384.544006,589.504028
681.247986,380.640015,599.263977
679.296021,376.735992,585.599976
673.440002,376.735992,581.695984
679.296021,390.399994,589.504028
689.056030,396.256012,589.504028
685.151978,374.783997,573.888000
681.247986,384.544006,587.552002
687.104004,384.544006,587.552002
687.104004,384.544006,591.455994
679.296021,400.160004,591.455994
681.247986,388.447998,587.552002
687.104004,390.399994,603.168030
681.247986,392.351990,577.791992
685.151978,386.496002,587.552002
687.104004,396.256012,587.552002
681.247986,394.303986,583.648010
692.960022,390.399994,593.408020
692.960022,382.592010,583.648010
687.104004,380.640015,577.791992
696.864014,386.496002,579.744019
687.104004,396.256012,579.744019
691.007996,390.399994,575.840027
696.864014,390.399994,577.791992
692.960022,386.496002,581.695984
696.864014,400.160004,581.695984
694.911987,402.112000,579.744019
696.864014,392.351990,585.599976
700.768005,390.399994,583.648010
692.960022,390.399994,579.744019
698.815979,400.160004,579.744019
698.815979,404.063995,573.888000
691.007996,394.303986,587.552002
712.479980,394.303986,583.648010
704.671997,409.920013,581.695984
694.911987,404.063995,581.695984
696.864014,404.063995,581.695984
694.911987,407.967987,575.840027
698.815979,396.256012,575.840027
698.815979,407.967987,573.888000
712.479980,404.063995,579.744019
702.719971,406.015991,581.695984
712.479980,406.015991,583.648010
702.719971,406.015991,587.552002
708.575989,406.015991,579.744019
708.575989,406.015991,587.552002
706.624023,406.015991,577.791992
708.575989,409.920013,577.791992
708.575989,415.776001,577.791992
716.383972,407.967987,575.840027
716.383972,413.824005,581.695984
714.432007,417.727997,579.744019
716.383972,421.631989,581.695984
712.479980,415.776001,591.455994
712.479980,419.679993,587.552002
710.528015,417.727997,587.552002
710.528015,427.488007,585.599976
712.479980,417.727997,581.695984
716.383972,431.391998,591.455994
718.335999,423.584015,585.599976
720.288025,421.631989,597.312012
730.047974,425.536011,591.455994
728.096008,425.536011,591.455994
730.047974,431.391998,593.408020
722.239990,431.391998,593.408020
726.143982,427.488007,599.263977
732.000000,429.440002,581.695984
726.143982,445.056000,589.504028
730.047974,427.488007,583.648010
726.143982,443.104004,591.455994
733.952026,429.440002,587.552002
730.047974,435.295990,589.504028
728.096008,437.247986,593.408020
741.760010,439.200012,597.312012
737.856018,445.056000,589.504028
743.711975,452.864014,587.552002
735.903992,448.959991,595.359985
737.856018,437.247986,603.168030
741.760010,450.911987,601.216003
747.616028,447.007996,591.455994
745.664001,458.720001,597.312012
747.616028,450.911987,593.408020
743.711975,452.864014,593.408020
741.760010,445.056000,601.216003
741.760010,456.768005,599.263977
745.664001,462.623993,595.359985
737.856018,460.671997,605.119995
745.664001,458.720001,599.263977
747.616028,468.480011,603.168030
749.567993,472.384003,601.216003
739.807983,470.432007,597.312012
741.760010,474.335999,601.216003
753.471985,474.335999,589.504028
749.567993,462.623993,597.312012
757.375977,472.384003,599.263977
747.616028,470.432007,595.359985
757.375977,464.575989,601.216003
741.760010,466.528015,595.359985
757.375977,456.768005,603.168030
757.375977,468.480011,607.072021
755.424011,466.528015,601.216003
745.664001,464.575989,607.072021
757.375977,464.575989,612.927979
767.135986,464.575989,605.119995
763.231995,464.575989,603.168030
761.280029,464.575989,599.263977
767.135986,458.720001,601.216003
759.328003,464.575989,593.408020
767.135986,464.575989,599.263977
761.280029,468.480011,599.263977
769.088013,454.816010,603.168030
761.280029,470.432007,607.072021
759.328003,470.432007,605.119995
769.088013,456.768005,605.119995
753.471985,466.528015,618.783997
769.088013,456.768005,607.072021
761.280029,460.671997,610.976013
771.039978,452.864014,616.831970
765.184021,452.864014,609.023987
761.280029,458.720001,610.976013
757.375977,458.720001,601.216003
753.471985,458.720001,607.072021
759.328003,454.816010,618.783997
763.231995,466.528015,605.119995
755.424011,464.575989,612.927979
759.328003,460.671997,612.927979
755.424011,458.720001,612.927979
759.328003,464.575989,610.976013
751.520020,460.671997,597.312012
763.231995,452.864014,609.023987
767.135986,464.575989,612.927979
757.375977,460.671997,607.072021
755.424011,458.720001,610.976013
763.231995,452.864014,609.023987
753.471985,443.104004,601.216003
763.231995,452.864014,614.880005
757.375977,448.959991,614.880005
759.328003,441.152008,614.880005
767.135986,445.056000,616.831970
755.424011,445.056000,616.831970
767.135986,445.056000,614.880005
761.280029,445.056000,614.880005
765.184021,450.911987,624.640015
765.184021,431.391998,616.831970
771.039978,439.200012,616.831970
772.992004,435.295990,616.831970
771.039978,433.343994,618.783997
759.328003,433.343994,622.687988
765.184021,439.200012,618.783997
757.375977,433.343994,612.927979
757.375977,443.104004,616.831970
763.231995,437.247986,612.927979
759.328003,429.440002,618.783997
767.135986,425.536011,614.880005
771.039978,427.488007,614.880005
769.088013,427.488007,612.927979
772.992004,409.920013,612.927979
774.943970,415.776001,618.783997
767.135986,413.824005,616.831970
771.039978,407.967987,616.831970
763.231995,404.063995,612.927979
771.039978,423.584015,622.687988
759.328003,406.015991,628.544006
757.375977,406.015991,622.687988
765.184021,406.015991,626.591980
767.135986,409.920013,626.591980
765.184021,407.967987,630.495972
761.280029,396.256012,624.640015
767.135986,390.399994,622.687988
769.088013,415.776001,624.640015
765.184021,406.015991,618.783997
771.039978,406.015991,622.687988
757.375977,404.063995,618.783997
761.280029,411.872009,624.640015
767.135986,402.112000,632.447998
761.280029,396.256012,628.544006
763.231995,413.824005,624.640015
761.280029,419.679993,628.544006
759.328003,409.920013,634.400024
763.231995,400.160004,622.687988
765.184021,394.303986,616.831970
765.184021,396.256012,622.687988
763.231995,411.872009,626.591980
763.231995,392.351990,628.544006
763.231995,396.256012,630.495972
767.135986,392.351990,620.736023
763.231995,402.112000,626.591980
749.567993,402.112000,620.736023
747.616028,400.160004,616.831970
745.664001,402.112000,622.687988
759.328003,406.015991,612.927979
751.520020,407.967987,622.687988
749.567993,392.351990,624.640015
749.567993,402.112000,628.544006
765.184021,394.303986,620.736023
755.424011,394.303986,616.831970
753.471985,386.496002,612.927979
757.375977,390.399994,622.687988
745.664001,398.208008,616.831970
759.328003,398.208008,618.783997
755.424011,396.256012,618.783997
755.424011,396.256012,612.927979
747.616028,396.256012,620.736023
753.471985,400.160004,618.783997
757.375977,386.496002,614.880005
743.711975,386.496002,612.927979
755.424011,402.112000,610.976013
749.567993,404.063995,614.880005
749.567993,386.496002,616.831970
753.471985,390.399994,607.072021
737.856018,388.447998,612.927979
745.664001,386.496002,616.831970
751.520020,396.256012,609.023987
753.471985,396.256012,614.880005
759.328003,396.256012,605.119995
755.424011,394.303986,595.359985
753.471985,392.351990,601.216003
755.424011,398.208008,610.976013
755.424011,402.112000,612.927979
757.375977,396.256012,609.023987
759.328003,415.776001,614.880005
765.184021,400.160004,605.119995
763.231995,402.112000,612.927979
771.039978,404.063995,618.783997
767.135986,402.112000,620.736023
765.184021,402.112000,622.687988
759.328003,402.112000,612.927979
765.184021,407.967987,626.591980
765.184021,394.303986,622.687988
769.088013,415.776001,622.687988
774.943970,409.920013,622.687988
774.943970,398.208008,622.687988
778.848022,407.967987,620.736023
774.943970,402.112000,618.783997
771.039978,404.063995,620.736023
774.943970,411.872009,634.400024
769.088013,413.824005,620.736023
771.039978,407.967987,616.831970
776.895996,400.160004,614.880005
778.848022,404.063995,614.880005
790.559998,404.063995,626.591980
774.943970,394.303986,620.736023
774.943970,402.112000,622.687988
778.848022,398.208008,624.640015
772.992004,390.399994,632.447998
771.039978,404.063995,624.640015
780.799988,386.496002,630.495972
772.992004,390.399994,620.736023
784.703979,388.447998,630.495972
769.088013,396.256012,632.447998
780.799988,394.303986,626.591980
772.992004,390.399994,638.304016
776.895996,386.496002,628.544006
784.703979,404.063995,630.495972
778.848022,404.063995,634.400024
788.607971,396.256012,638.304016
761.280029,402.112000,638.304016
778.848022,411.872009,634.400024
774.943970,400.160004,628.544006
772.992004,406.015991,632.447998
772.992004,404.063995,632.447998
778.848022,394.303986,634.400024
776.895996,396.256012,630.495972
776.895996,407.967987,626.591980
772.992004,390.399994,626.591980
765.184021,392.351990,616.831970
765.184021,388.447998,607.072021
757.375977,390.399994,607.072021
753.471985,394.303986,609.023987
763.231995,396.256012,610.976013
743.711975,376.735992,607.072021
753.471985,390.399994,603.168030
737.856018,394.303986,614.880005
751.520020,390.399994,603.168030
757.375977,386.496002,597.312012
733.952026,388.447998,601.216003
747.616028,390.399994,597.312012
730.047974,384.544006,605.119995
741.760010,394.303986,605.119995
733.952026,396.256012,603.168030
732.000000,388.447998,603.168030
737.856018,396.256012,605.119995
735.903992,392.351990,607.072021
747.616028,394.303986,607.072021
737.856018,390.399994,593.408020
737.856018,394.303986,601.216003
726.143982,396.256012,612.927979
735.903992,398.208008,607.072021
728.096008,400.160004,614.880005
728.096008,406.015991,616.831970
739.807983,388.447998,610.976013
718.335999,394.303986,605.119995
720.288025,394.303986,607.072021
720.288025,392.351990,603.168030
700.768005,396.256012,595.359985
718.335999,382.592010,601.216003
702.719971,384.544006,593.408020
728.096008,386.496002,607.072021
706.624023,404.063995,607.072021
716.383972,388.447998,607.072021
708.575989,394.303986,597.312012
708.575989,390.399994,601.216003
702.719971,394.303986,597.312012
698.815979,396.256012,605.119995
710.528015,394.303986,593.408020
696.864014,386.496002,593.408020
712.479980,390.399994,591.455994
698.815979,388.447998,595.359985
700.768005,400.160004,591.455994
689.056030,392.351990,599.263977
691.007996,404.063995,589.504028
700.768005,394.303986,599.263977
692.960022,386.496002,597.312012
692.960022,400.160004,597.312012
679.296021,407.967987,589.504028
698.815979,390.399994,587.552002
679.296021,398.208008,597.312012
692.960022,396.256012,593.408020
687.104004,396.256012,585.599976
685.151978,398.208008,587.552002
679.296021,396.256012,589.504028
681.247986,390.399994,589.504028
691.007996,394.303986,593.408020
685.151978,402.112000,595.359985
689.056030,406.015991,591.455994
687.104004,402.112000,595.359985
677.343994,402.112000,589.504028
679.296021,402.112000,585.599976
669.536011,404.063995,587.552002
679.296021,404.063995,585.599976
679.296021,407.967987,595.359985
675.392029,406.015991,577.791992
681.247986,415.776001,577.791992
667.583984,407.967987,581.695984
669.536011,419.679993,585.599976
669.536011,419.679993,583.648010
671.487976,415.776001,579.744019
675.392029,409.920013,581.695984
669.536011,406.015991,581.695984
659.776001,407.967987,575.840027
669.536011,409.920013,571.935974
679.296021,417.727997,573.888000
673.440002,406.015991,575.840027
667.583984,417.727997,571.935974
671.487976,417.727997,575.840027
671.487976,421.631989,577.791992
663.679993,415.776001,575.840027
667.583984,415.776001,575.840027
669.536011,419.679993,573.888000
665.632019,419.679993,571.935974
679.296021,425.536011,569.984009
667.583984,421.631989,569.984009
673.440002,419.679993,564.127991
681.247986,425.536011,571.935974
673.440002,423.584015,566.080017
675.392029,431.391998,566.080017
667.583984,425.536011,571.935974
663.679993,439.200012,569.984009
667.583984,441.152008,579.744019
681.247986,435.295990,571.935974
675.392029,437.247986,571.935974
687.104004,425.536011,571.935974
685.151978,431.391998,566.080017
679.296021,437.247986,571.935974
673.440002,421.631989,579.744019
675.392029,431.391998,571.935974
673.440002,435.295990,573.888000
667.583984,437.247986,558.271973
683.200012,439.200012,554.367981
673.440002,445.056000,554.367981
681.247986,435.295990,552.416016
665.632019,425.536011,556.320007
663.679993,431.391998,560.223999
671.487976,433.343994,550.463989
667.583984,423.584015,552.416016
665.632019,431.391998,556.320007
655.872009,433.343994,538.752014
657.823975,417.727997,536.799988
650.015991,423.584015,538.752014
651.968018,409.920013,536.799988
657.823975,407.967987,534.848022
673.440002,417.727997,528.992004
669.536011,415.776001,521.184021
657.823975,406.015991,523.135986
659.776001,407.967987,523.135986
661.728027,411.872009,521.184021
653.919983,406.015991,523.135986
653.919983,409.920013,528.992004
650.015991,409.920013,530.943970
657.823975,402.112000,521.184021
653.919983,409.920013,519.231995
659.776001,406.015991,528.992004
659.776001,406.015991,519.231995
671.487976,413.824005,523.135986
665.632019,406.015991,523.135986
673.440002,407.967987,530.943970
665.632019,400.160004,528.992004
663.679993,411.872009,532.895996
667.583984,409.920013,532.895996
665.632019,392.351990,534.848022
681.247986,396.256012,536.799988
663.679993,413.824005,532.895996
681.247986,390.399994,532.895996
665.632019,398.208008,525.088013
673.440002,415.776001,527.039978
675.392029,392.351990,528.992004
653.919983,394.303986,525.088013
679.296021,400.160004,523.135986
673.440002,398.208008,527.039978
673.440002,386.496002,513.375977
671.487976,394.303986,519.231995
663.679993,378.687988,521.184021
669.536011,376.735992,513.375977
657.823975,406.015991,525.088013
659.776001,394.303986,523.135986
653.919983,374.783997,515.328003
659.776001,378.687988,515.328003
665.632019,382.592010,515.328003
673.440002,384.544006,525.088013
681.247986,390.399994,536.799988
667.583984,388.447998,519.231995
679.296021,374.783997,525.088013
675.392029,384.544006,521.184021
675.392029,390.399994,530.943970
669.536011,382.592010,532.895996
675.392029,386.496002,525.088013
655.872009,390.399994,519.231995
659.776001,386.496002,513.375977
669.536011,386.496002,523.135986
665.632019,388.447998,511.424011
663.679993,392.351990,521.184021
679.296021,382.592010,515.328003
673.440002,370.880005,511.424011
669.536011,380.640015,523.135986
671.487976,382.592010,530.943970
673.440002,382.592010,532.895996
675.392029,376.735992,528.992004
677.343994,374.783997,525.088013
673.440002,382.592010,532.895996
679.296021,376.735992,532.895996
673.440002,390.399994,530.943970
671.487976,384.544006,534.848022
669.536011,398.208008,530.943970
661.728027,390.399994,536.799988
667.583984,392.351990,534.848022
673.440002,404.063995,536.799988
667.583984,384.544006,534.848022
694.911987,394.303986,534.848022
663.679993,392.351990,525.088013
669.536011,384.544006,528.992004
661.728027,400.160004,534.848022
657.823975,404.063995,540.703979
667.583984,406.015991,538.752014
663.679993,402.112000,530.943970
683.200012,386.496002,536.799988
661.728027,390.399994,536.799988
681.247986,388.447998,540.703979
665.632019,380.640015,536.799988
659.776001,386.496002,532.895996
657.823975,394.303986,528.992004
661.728027,382.592010,536.799988
665.632019,376.735992,536.799988
659.776001,396.256012,530.943970
657.823975,394.303986,530.943970
653.919983,386.496002,536.799988
653.919983,390.399994,527.039978
651.968018,398.208008,519.231995
653.919983,394.303986,523.135986
657.823975,396.256012,528.992004
665.632019,392.351990,523.135986
661.728027,390.399994,519.231995
665.632019,400.160004,525.088013
655.872009,380.640015,523.135986
655.872009,384.544006,525.088013
653.919983,382.592010,521.184021
638.304016,392.351990,525.088013
653.919983,380.640015,521.184021
640.255981,386.496002,521.184021
665.632019,378.687988,523.135986
650.015991,380.640015,511.424011
653.919983,378.687988,519.231995
650.015991,374.783997,513.375977
655.872009,365.023987,517.280029
651.968018,370.880005,513.375977
651.968018,380.640015,507.519989
663.679993,365.023987,513.375977
650.015991,380.640015,511.424011
651.968018,380.640015,521.184021
651.968018,374.783997,509.471985
667.583984,384.544006,517.280029
648.064026,380.640015,507.519989
669.536011,384.544006,517.280029
663.679993,388.447998,523.135986
665.632019,390.399994,513.375977
659.776001,382.592010,515.328003
661.728027,382.592010,521.184021
665.632019,394.303986,519.231995
669.536011,392.351990,523.135986
673.440002,392.351990,528.992004
667.583984,380.640015,527.039978
663.679993,390.399994,528.992004
675.392029,392.351990,523.135986
677.343994,392.351990,525.088013
669.536011,382.592010,525.088013
677.343994,392.351990,519.231995
673.440002,392.351990,521.184021
677.343994,386.496002,534.848022
659.776001,390.399994,532.895996
689.056030,392.351990,536.799988
667.583984,386.496002,528.992004
681.247986,372.832001,515.328003
675.392029,386.496002,519.231995
669.536011,374.783997,525.088013
683.200012,365.023987,525.088013
677.343994,372.832001,525.088013
681.247986,374.783997,511.424011
681.247986,365.023987,507.519989
677.343994,380.640015,507.519989
685.151978,372.832001,509.471985
685.151978,372.832001,509.471985
685.151978,363.071991,509.471985
679.296021,361.119995,513.375977
685.151978,363.071991,509.471985
681.247986,365.023987,513.375977
687.104004,366.976013,517.280029
692.960022,366.976013,521.184021
700.768005,351.359985,515.328003
692.960022,363.071991,521.184021
696.864014,366.976013,517.280029
683.200012,370.880005,527.039978
708.575989,376.735992,527.039978
698.815979,374.783997,523.135986
702.719971,370.880005,530.943970
702.719971,376.735992,538.752014
696.864014,368.928009,525.088013
698.815979,368.928009,536.799988
708.575989,374.783997,530.943970
712.479980,376.735992,536.799988
710.528015,370.880005,527.039978
710.528015,366.976013,521.184021
702.719971,366.976013,523.135986
706.624023,374.783997,521.184021
696.864014,359.167999,515.328003
696.864014,363.071991,525.088013
694.911987,368.928009,523.135986
704.671997,363.071991,527.039978
708.575989,349.407990,530.943970
708.575989,343.552002,528.992004
710.528015,355.264008,519.231995
712.479980,359.167999,517.280029
712.479980,361.119995,515.328003
716.383972,359.167999,523.135986
712.479980,355.264008,517.280029
710.528015,361.119995,507.519989
712.479980,357.216003,525.088013
708.575989,353.312012,517.280029
712.479980,353.312012,525.088013
716.383972,368.928009,515.328003
714.432007,361.119995,519.231995
718.335999,359.167999,513.375977
724.192017,370.880005,521.184021
716.383972,355.264008,525.088013
724.192017,363.071991,523.135986
712.479980,368.928009,515.328003
720.288025,361.119995,519.231995
724.192017,365.023987,507.519989
718.335999,366.976013,513.375977
722.239990,363.071991,517.280029
710.528015,366.976013,521.184021
712.479980,363.071991,513.375977
710.528015,361.119995,511.424011
706.624023,363.071991,503.615997
710.528015,355.264008,507.519989
714.432007,363.071991,503.615997
714.432007,363.071991,503.615997
712.479980,368.928009,501.664001
720.288025,363.071991,507.519989
716.383972,351.359985,503.615997
726.143982,349.407990,495.808014
706.624023,365.023987,495.808014
710.528015,370.880005,489.951996
700.768005,365.023987,488.000000
714.432007,357.216003,486.048004
710.528015,361.119995,488.000000
722.239990,359.167999,484.096008
714.432007,359.167999,491.903992
712.479980,351.359985,486.048004
710.528015,363.071991,488.000000
714.432007,355.264008,486.048004
714.432007,349.407990,486.048004
712.479980,351.359985,484.096008
724.192017,363.071991,484.096008
728.096008,353.312012,484.096008
722.239990,349.407990,486.048004
728.096008,365.023987,489.951996
728.096008,359.167999,489.951996
737.856018,343.552002,486.048004
726.143982,351.359985,489.951996
735.903992,343.552002,484.096008
733.952026,359.167999,489.951996
732.000000,355.264008,489.951996
737.856018,353.312012,491.903992
745.664001,363.071991,488.000000
749.567993,357.216003,480.191986
747.616028,361.119995,488.000000
749.567993,361.119995,486.048004
743.711975,366.976013,484.096008
743.711975,353.312012,491.903992
747.616028,353.312012,488.000000
751.520020,347.455994,482.144012
757.375977,353.312012,486.048004
759.328003,351.359985,484.096008
763.231995,347.455994,484.096008
751.520020,355.264008,486.048004
774.943970,341.600006,484.096008
761.280029,349.407990,489.951996
761.280029,341.600006,482.144012
763.231995,351.359985,489.951996
769.088013,345.503998,488.000000
771.039978,337.696014,493.855988
778.848022,337.696014,484.096008
772.992004,349.407990,488.000000
776.895996,345.503998,491.903992
776.895996,339.648010,497.760010
776.895996,335.743988,491.903992
790.559998,341.600006,505.567993
788.607971,335.743988,497.760010
790.559998,341.600006,501.664001
792.512024,347.455994,505.567993
788.607971,343.552002,503.615997
792.512024,345.503998,507.519989
800.320007,345.503998,517.280029
796.416016,345.503998,513.375977
798.367981,349.407990,515.328003
806.176025,341.600006,515.328003
798.367981,341.600006,513.375977
798.367981,347.455994,517.280029
806.176025,347.455994,519.231995
800.320007,349.407990,523.135986
804.223999,349.407990,519.231995
806.176025,341.600006,521.184021
806.176025,339.648010,525.088013
806.176025,337.696014,523.135986
798.367981,333.791992,511.424011
802.271973,335.743988,523.135986
806.176025,325.984009,517.280029
810.080017,337.696014,511.424011
812.031982,339.648010,515.328003
810.080017,331.839996,515.328003
808.127991,333.791992,521.184021
810.080017,337.696014,513.375977
812.031982,335.743988,521.184021
812.031982,339.648010,521.184021
804.223999,337.696014,523.135986
804.223999,347.455994,525.088013
808.127991,347.455994,517.280029
806.176025,357.216003,517.280029
808.127991,355.264008,513.375977
804.223999,349.407990,505.567993
806.176025,349.407990,513.375977
804.223999,355.264008,519.231995
802.271973,345.503998,509.471985
794.463989,353.312012,509.471985
800.320007,361.119995,509.471985
798.367981,357.216003,505.567993
796.416016,345.503998,501.664001
798.367981,357.216003,497.760010
792.512024,353.312012,501.664001
792.512024,361.119995,495.808014
796.416016,355.264008,491.903992
796.416016,359.167999,491.903992
798.367981,355.264008,493.855988
794.463989,353.312012,489.951996
790.559998,353.312012,484.096008
790.559998,359.167999,484.096008
790.559998,353.312012,489.951996
790.559998,365.023987,488.000000
786.656006,368.928009,478.239990
790.559998,365.023987,480.191986
776.895996,361.119995,488.000000
786.656006,361.119995,484.096008
786.656006,365.023987,482.144012
774.943970,363.071991,482.144012
784.703979,361.119995,486.048004
784.703979,359.167999,480.191986
776.895996,357.216003,482.144012
776.895996,368.928009,486.048004
786.656006,359.167999,484.096008
782.752014,361.119995,486.048004
776.895996,361.119995,480.191986
782.752014,355.264008,480.191986
780.799988,368.928009,482.144012
782.752014,361.119995,476.287994
780.799988,363.071991,480.191986
778.848022,368.928009,482.144012
772.992004,361.119995,484.096008
776.895996,355.264008,486.048004
788.607971,365.023987,486.048004
782.752014,355.264008,480.191986
784.703979,355.264008,476.287994
784.703979,353.312012,482.144012
782.752014,349.407990,476.287994
784.703979,361.119995,480.191986
784.703979,353.312012,474.335999
784.703979,347.455994,478.239990
792.512024,357.216003,478.239990
788.607971,355.264008,472.384003
798.367981,343.552002,472.384003
786.656006,341.600006,468.480011
788.607971,351.359985,472.384003
788.607971,347.455994,476.287994
794.463989,347.455994,482.144012
790.559998,345.503998,480.191986
786.656006,345.503998,486.048004
788.607971,339.648010,486.048004
790.559998,339.648010,486.048004
798.367981,339.648010,476.287994
794.463989,333.791992,486.048004
788.607971,337.696014,480.191986
796.416016,339.648010,470.432007
802.271973,349.407990,480.191986
792.512024,335.743988,476.287994
788.607971,335.743988,486.048004
792.512024,341.600006,476.287994
794.463989,347.455994,472.384003
792.512024,339.648010,474.335999
800.320007,343.552002,478.239990
800.320007,345.503998,476.287994
806.176025,349.407990,474.335999
800.320007,345.503998,474.335999
806.176025,345.503998,476.287994
806.176025,343.552002,478.239990
806.176025,343.552002,482.144012
806.176025,343.552002,484.096008
804.223999,331.839996,476.287994
806.176025,337.696014,480.191986
806.176025,343.552002,478.239990
810.080017,325.984009,478.239990
819.840027,335.743988,476.287994
815.935974,337.696014,474.335999
815.935974,337.696014,470.432007
819.840027,331.839996,466.528015
823.744019,339.648010,468.480011
815.935974,335.743988,468.480011
810.080017,343.552002,472.384003
804.223999,349.407990,468.480011
806.176025,353.312012,464.575989
804.223999,339.648010,470.432007
810.080017,347.455994,466.528015
821.791992,355.264008,474.335999
812.031982,343.552002,478.239990
819.840027,343.552002,464.575989
821.791992,341.600006,468.480011
808.127991,345.503998,472.384003
812.031982,347.455994,474.335999
808.127991,339.648010,464.575989
808.127991,347.455994,472.384003
808.127991,345.503998,470.432007
812.031982,351.359985,470.432007
800.320007,353.312012,468.480011
806.176025,353.312012,466.528015
808.127991,345.503998,470.432007
810.080017,345.503998,464.575989
810.080017,339.648010,474.335999
800.320007,351.359985,466.528015
804.223999,347.455994,472.384003
812.031982,353.312012,456.768005
804.223999,347.455994,466.528015
806.176025,357.216003,466.528015
815.935974,347.455994,460.671997
819.840027,351.359985,472.384003
812.031982,357.216003,470.432007
810.080017,349.407990,460.671997
800.320007,351.359985,466.528015
812.031982,353.312012,462.623993
808.127991,359.167999,466.528015
800.320007,353.312012,470.432007
804.223999,353.312012,474.335999
808.127991,349.407990,474.335999
810.080017,353.312012,472.384003
825.695984,357.216003,478.239990
821.791992,353.312012,482.144012
819.840027,351.359985,464.575989
821.791992,345.503998,476.287994
819.840027,343.552002,470.432007
810.080017,347.455994,474.335999
806.176025,349.407990,476.287994
808.127991,351.359985,486.048004
813.984009,349.407990,474.335999
808.127991,349.407990,474.335999
813.984009,349.407990,482.144012
810.080017,339.648010,476.287994
806.176025,335.743988,468.480011
800.320007,341.600006,472.384003
808.127991,339.648010,478.239990
810.080017,339.648010,472.384003
819.840027,339.648010,476.287994
808.127991,345.503998,472.384003
815.935974,345.503998,478.239990
800.320007,345.503998,476.287994
808.127991,335.743988,472.384003
800.320007,341.600006,474.335999
808.127991,329.888000,474.335999
800.320007,331.839996,478.239990
810.080017,335.743988,470.432007
804.223999,329.888000,474.335999
804.223999,339.648010,470.432007
815.935974,333.791992,470.432007
800.320007,327.936005,464.575989
817.888000,325.984009,474.335999
810.080017,329.888000,472.384003
812.031982,327.936005,468.480011
812.031982,327.936005,462.623993
813.984009,333.791992,468.480011
812.031982,325.984009,470.432007
810.080017,327.936005,474.335999
812.031982,325.984009,468.480011
817.888000,329.888000,470.432007
815.935974,335.743988,466.528015
817.888000,331.839996,460.671997
821.791992,329.888000,466.528015
819.840027,329.888000,472.384003
812.031982,337.696014,482.144012
819.840027,335.743988,474.335999
817.888000,349.407990,480.191986
821.791992,347.455994,480.191986
823.744019,337.696014,480.191986
819.840027,333.791992,468.480011
817.888000,343.552002,476.287994
819.840027,335.743988,482.144012
823.744019,333.791992,486.048004
823.744019,333.791992,476.287994
817.888000,343.552002,480.191986
825.695984,345.503998,480.191986
815.935974,343.552002,480.191986
819.840027,335.743988,486.048004
819.840027,335.743988,476.287994
823.744019,339.648010,480.191986
819.840027,339.648010,476.287994
825.695984,327.936005,472.384003
825.695984,339.648010,470.432007
827.648010,324.032013,472.384003
819.840027,333.791992,476.287994
825.695984,329.888000,472.384003
817.888000,329.888000,470.432007
823.744019,333.791992,478.239990
817.888000,339.648010,476.287994
819.840027,333.791992,476.287994
817.888000,339.648010,478.239990
823.744019,339.648010,468.480011
825.695984,333.791992,476.287994
819.840027,324.032013,470.432007
823.744019,329.888000,470.432007
821.791992,335.743988,474.335999
819.840027,318.175995,472.384003
812.031982,322.079987,464.575989
823.744019,320.127991,470.432007
823.744019,329.888000,462.623993
819.840027,324.032013,472.384003
812.031982,329.888000,472.384003
812.031982,322.079987,468.480011
810.080017,327.936005,456.768005
808.127991,325.984009,466.528015
817.888000,316.223999,450.911987
812.031982,324.032013,456.768005
813.984009,329.888000,462.623993
817.888000,322.079987,462.623993
802.271973,316.223999,454.816010
813.984009,324.032013,448.959991
815.935974,325.984009,458.720001
817.888000,333.791992,452.864014
812.031982,314.272003,456.768005
808.127991,314.272003,460.671997
806.176025,327.936005,456.768005
813.984009,324.032013,454.816010
804.223999,324.032013,454.816010
810.080017,322.079987,456.768005
808.127991,312.320007,452.864014
804.223999,329.888000,456.768005
806.176025,312.320007,448.959991
800.320007,314.272003,448.959991
806.176025,331.839996,448.959991
808.127991,318.175995,443.104004
800.320007,318.175995,439.200012
808.127991,318.175995,445.056000
810.080017,320.127991,447.007996
810.080017,322.079987,437.247986
804.223999,329.888000,443.104004
804.223999,327.936005,437.247986
796.416016,329.888000,435.295990
804.223999,322.079987,437.247986
804.223999,316.223999,439.200012
802.271973,318.175995,437.247986
802.271973,322.079987,427.488007
800.320007,322.079987,431.391998
796.416016,308.415985,431.391998
806.176025,308.415985,427.488007
802.271973,310.368011,429.440002
796.416016,314.272003,425.536011
810.080017,310.368011,435.295990
804.223999,314.272003,429.440002
806.176025,324.032013,431.391998
804.223999,316.223999,425.536011
806.176025,316.223999,431.391998
798.367981,320.127991,419.679993
800.320007,320.127991,425.536011
804.223999,320.127991,417.727997
802.271973,322.079987,417.727997
810.080017,312.320007,415.776001
804.223999,320.127991,411.872009
808.127991,314.272003,409.920013
813.984009,314.272003,409.920013
810.080017,312.320007,409.920013
817.888000,316.223999,406.015991
808.127991,304.511993,404.063995
808.127991,304.511993,402.112000
815.935974,306.463989,404.063995
821.791992,300.608002,402.112000
825.695984,300.608002,400.160004
823.744019,312.320007,404.063995
825.695984,306.463989,404.063995
827.648010,312.320007,404.063995
823.744019,320.127991,398.208008
815.935974,318.175995,394.303986
817.888000,324.032013,398.208008
825.695984,318.175995,402.112000
817.888000,316.223999,400.160004
821.791992,320.127991,400.160004
823.744019,318.175995,402.112000
831.552002,320.127991,402.112000
835.455994,308.415985,406.015991
839.359985,302.559998,407.967987
845.216003,310.368011,411.872009
839.359985,298.656006,419.679993
843.263977,306.463989,421.631989
843.263977,292.799988,417.727997
843.263977,281.088013,421.631989
841.312012,281.088013,421.631989
849.119995,281.088013,427.488007
847.168030,306.463989,431.391998
839.359985,304.511993,429.440002
839.359985,304.511993,435.295990
847.168030,302.559998,433.343994
854.976013,300.608002,435.295990
854.976013,320.127991,439.200012
854.976013,314.272003,445.056000
851.072021,316.223999,445.056000
854.976013,320.127991,443.104004
853.023987,331.839996,445.056000
864.736023,324.032013,454.816010
868.640015,327.936005,445.056000
870.591980,331.839996,448.959991
870.591980,329.888000,445.056000
868.640015,324.032013,443.104004
884.255981,322.079987,447.007996
872.544006,337.696014,447.007996
876.447998,333.791992,435.295990
864.736023,333.791992,439.200012
860.831970,329.888000,439.200012
854.976013,331.839996,439.200012
872.544006,335.743988,429.440002
868.640015,324.032013,431.391998
868.640015,339.648010,419.679993
858.880005,351.359985,423.584015
864.736023,343.552002,425.536011
870.591980,331.839996,421.631989
868.640015,333.791992,425.536011
872.544006,333.791992,429.440002
870.591980,333.791992,429.440002
864.736023,331.839996,423.584015
862.783997,343.552002,417.727997
868.640015,337.696014,421.631989
864.736023,333.791992,421.631989
884.255981,327.936005,415.776001
882.304016,327.936005,417.727997
882.304016,329.888000,407.967987
882.304016,312.320007,407.967987
874.495972,327.936005,402.112000
880.351990,329.888000,398.208008
866.687988,325.984009,388.447998
868.640015,327.936005,400.160004
866.687988,324.032013,382.592010
862.783997,331.839996,384.544006
860.831970,329.888000,380.640015
856.927979,325.984009,382.592010
872.544006,331.839996,392.351990
876.447998,339.648010,386.496002
870.591980,345.503998,407.967987
882.304016,339.648010,394.303986
884.255981,345.503998,394.303986
884.255981,349.407990,400.160004
882.304016,351.359985,407.967987
886.208008,349.407990,396.256012
886.208008,353.312012,404.063995
888.159973,351.359985,396.256012
886.208008,353.312012,398.208008
890.112000,349.407990,398.208008
895.968018,345.503998,398.208008
894.015991,347.455994,406.015991
895.968018,343.552002,411.872009
895.968018,335.743988,404.063995
899.872009,341.600006,407.967987
909.632019,337.696014,402.112000
907.679993,333.791992,396.256012
897.919983,327.936005,407.967987
897.919983,333.791992,409.920013
899.872009,333.791992,406.015991
897.919983,327.936005,404.063995
907.679993,333.791992,411.872009
911.583984,333.791992,419.679993
913.536011,333.791992,423.584015
923.296021,337.696014,413.824005
913.536011,331.839996,427.488007
933.056030,341.600006,421.631989
923.296021,339.648010,417.727997
917.440002,345.503998,423.584015
931.104004,349.407990,421.631989
929.151978,353.312012,423.584015
929.151978,361.119995,423.584015
929.151978,347.455994,433.343994
931.104004,357.216003,437.247986
946.719971,349.407990,445.056000
946.719971,347.455994,450.911987
944.768005,333.791992,458.720001
938.911987,345.503998,441.152008
946.719971,355.264008,452.864014
944.768005,351.359985,466.528015
944.768005,349.407990,460.671997
936.960022,341.600006,460.671997
933.056030,345.503998,472.384003
946.719971,331.839996,474.335999
944.768005,329.888000,472.384003
950.624023,325.984009,482.144012
960.383972,324.032013,484.096008
952.575989,324.032013,486.048004
950.624023,327.936005,489.951996
950.624023,325.984009,484.096008
948.671997,322.079987,486.048004
944.768005,331.839996,493.855988
944.768005,327.936005,491.903992
952.575989,331.839996,493.855988
950.624023,329.888000,495.808014
952.575989,322.079987,484.096008
942.815979,331.839996,480.191986
960.383972,329.888000,480.191986
954.528015,333.791992,486.048004
948.671997,335.743988,476.287994
948.671997,341.600006,476.287994
944.768005,333.791992,474.335999
940.864014,341.600006,464.575989
944.768005,339.648010,456.768005
940.864014,343.552002,460.671997
942.815979,333.791992,450.911987
944.768005,339.648010,445.056000
942.815979,333.791992,445.056000
946.719971,322.079987,447.007996
950.624023,325.984009,454.816010
950.624023,316.223999,448.959991
940.864014,324.032013,441.152008
944.768005,322.079987,448.959991
940.864014,318.175995,456.768005
929.151978,316.223999,458.720001
931.104004,312.320007,458.720001
929.151978,312.320007,462.623993
936.960022,296.704010,456.768005
946.719971,296.704010,458.720001
940.864014,298.656006,462.623993
946.719971,296.704010,458.720001
944.768005,298.656006,460.671997
938.911987,310.368011,462.623993
935.007996,304.511993,452.864014
929.151978,302.559998,460.671997
933.056030,290.847992,445.056000
933.056030,300.608002,452.864014
935.007996,298.656006,454.816010
935.007996,286.944000,456.768005
929.151978,292.799988,448.959991
931.104004,286.944000,445.056000
931.104004,298.656006,452.864014
925.247986,281.088013,458.720001
925.247986,290.847992,462.623993
925.247986,288.895996,452.864014
921.343994,294.752014,448.959991
913.536011,284.992004,445.056000
921.343994,277.183990,441.152008
917.440002,277.183990,445.056000
913.536011,286.944000,441.152008
913.536011,283.040009,448.959991
915.487976,263.519989,447.007996
917.440002,271.328003,456.768005
927.200012,263.519989,447.007996
915.487976,263.519989,454.816010
913.536011,267.424011,447.007996
915.487976,253.759995,452.864014
913.536011,253.759995,452.864014
913.536011,265.471985,445.056000
919.392029,257.664001,450.911987
913.536011,253.759995,445.056000
909.632019,259.615997,447.007996
911.583984,249.856003,441.152008
919.392029,247.904007,443.104004
905.728027,249.856003,435.295990
911.583984,249.856003,439.200012
915.487976,244.000000,431.391998
897.919983,245.951996,435.295990
895.968018,234.240005,439.200012
895.968018,244.000000,431.391998
897.919983,240.095993,435.295990
897.919983,245.951996,435.295990
899.872009,244.000000,421.631989
895.968018,244.000000,427.488007
894.015991,238.143997,423.584015
899.872009,238.143997,417.727997
890.112000,236.192001,419.679993
894.015991,236.192001,421.631989
888.159973,230.335999,427.488007
884.255981,234.240005,427.488007
882.304016,240.095993,423.584015
888.159973,232.287994,417.727997
884.255981,230.335999,419.679993
886.208008,226.432007,415.776001
901.823975,238.143997,417.727997
892.064026,234.240005,406.015991
882.304016,228.384003,415.776001
880.351990,238.143997,419.679993
882.304016,234.240005,413.824005
882.304016,230.335999,415.776001
888.159973,220.576004,427.488007
884.255981,232.287994,427.488007
882.304016,220.576004,413.824005
882.304016,232.287994,417.727997
878.400024,226.432007,417.727997
884.255981,228.384003,421.631989
894.015991,230.335999,425.536011
880.351990,222.528000,411.872009
882.304016,234.240005,419.679993
888.159973,232.287994,409.920013
888.159973,234.240005,415.776001
888.159973,232.287994,427.488007
880.351990,226.432007,415.776001
878.400024,232.287994,421.631989
895.968018,230.335999,417.727997
892.064026,226.432007,429.440002
890.112000,226.432007,425.536011
888.159973,240.095993,419.679993
882.304016,234.240005,421.631989
886.208008,230.335999,417.727997
888.159973,238.143997,425.536011
886.208008,234.240005,419.679993
882.304016,240.095993,423.584015
886.208008,242.048004,431.391998
882.304016,245.951996,423.584015
882.304016,242.048004,423.584015
886.208008,242.048004,413.824005
882.304016,240.095993,413.824005
882.304016,245.951996,417.727997
892.064026,245.951996,411.872009
886.208008,245.951996,415.776001
878.400024,242.048004,419.679993
886.208008,245.951996,423.584015
886.208008,245.951996,417.727997
880.351990,242.048004,423.584015
874.495972,242.048004,417.727997
882.304016,251.807999,423.584015
882.304016,244.000000,413.824005
892.064026,251.807999,421.631989
886.208008,253.759995,413.824005
880.351990,251.807999,413.824005
884.255981,255.712006,419.679993
882.304016,245.951996,413.824005
884.255981,253.759995,417.727997
884.255981,253.759995,409.920013
872.544006,265.471985,413.824005
884.255981,259.615997,419.679993
882.304016,255.712006,409.920013
882.304016,271.328003,411.872009
882.304016,271.328003,413.824005
888.159973,261.567993,415.776001
880.351990,259.615997,411.872009
888.159973,265.471985,415.776001
882.304016,265.471985,413.824005
882.304016,255.712006,415.776001
882.304016,271.328003,417.727997
886.208008,261.567993,407.967987
874.495972,263.519989,406.015991
886.208008,259.615997,409.920013
884.255981,269.376007,406.015991
882.304016,273.279999,413.824005
882.304016,261.567993,409.920013
886.208008,263.519989,409.920013
894.015991,273.279999,413.824005
884.255981,261.567993,415.776001
880.351990,263.519989,411.872009
888.159973,273.279999,415.776001
880.351990,265.471985,406.015991
886.208008,271.328003,413.824005
880.351990,263.519989,407.967987
878.400024,279.135986,411.872009
884.255981,275.231995,411.872009
884.255981,273.279999,406.015991
888.159973,273.279999,411.872009
882.304016,269.376007,407.967987
884.255981,269.376007,404.063995
882.304016,269.376007,404.063995
876.447998,275.231995,400.160004
890.112000,269.376007,402.112000
888.159973,265.471985,409.920013
884.255981,277.183990,406.015991
888.159973,265.471985,415.776001
884.255981,271.328003,409.920013
895.968018,283.040009,407.967987
886.208008,275.231995,411.872009
888.159973,275.231995,411.872009
886.208008,267.424011,404.063995
884.255981,269.376007,400.160004
876.447998,275.231995,400.160004
878.400024,267.424011,398.208008
884.255981,269.376007,394.303986
888.159973,269.376007,394.303986
890.112000,267.424011,400.160004
892.064026,267.424011,406.015991
892.064026,263.519989,406.015991
884.255981,269.376007,400.160004
888.159973,275.231995,400.160004
888.159973,277.183990,394.303986
884.255981,277.183990,394.303986
884.255981,279.135986,402.112000
888.159973,279.135986,400.160004
884.255981,265.471985,392.351990
892.064026,263.519989,400.160004
884.255981,275.231995,400.160004
882.304016,267.424011,396.256012
884.255981,257.664001,392.351990
882.304016,263.519989,398.208008
880.351990,261.567993,400.160004
882.304016,271.328003,394.303986
884.255981,273.279999,394.303986
884.255981,283.040009,392.351990
888.159973,275.231995,394.303986
888.159973,267.424011,400.160004
882.304016,269.376007,398.208008
884.255981,275.231995,394.303986
894.015991,271.328003,392.351990
897.919983,265.471985,396.256012
888.159973,257.664001,390.399994
886.208008,269.376007,398.208008
888.159973,269.376007,400.160004
882.304016,271.328003,394.303986
878.400024,275.231995,406.015991
882.304016,283.040009,394.303986
888.159973,277.183990,400.160004
882.304016,277.183990,394.303986
888.159973,281.088013,398.208008
882.304016,273.279999,394.303986
884.255981,279.135986,394.303986
884.255981,273.279999,386.496002
888.159973,265.471985,384.544006
890.112000,273.279999,388.447998
890.112000,281.088013,394.303986
882.304016,267.424011,390.399994
888.159973,271.328003,396.256012
886.208008,269.376007,392.351990
886.208008,273.279999,394.303986
899.872009,279.135986,390.399994
888.159973,275.231995,394.303986
892.064026,273.279999,400.160004
892.064026,286.944000,407.967987
895.968018,288.895996,394.303986
895.968018,277.183990,398.208008
897.919983,279.135986,402.112000
899.872009,290.847992,402.112000
890.112000,279.135986,406.015991
890.112000,277.183990,400.160004
907.679993,277.183990,398.208008
897.919983,279.135986,407.967987
897.919983,283.040009,404.063995
901.823975,273.279999,407.967987
903.776001,277.183990,402.112000
897.919983,279.135986,407.967987
894.015991,284.992004,404.063995
913.536011,286.944000,398.208008
901.823975,283.040009,407.967987
895.968018,279.135986,402.112000
897.919983,283.040009,402.112000
895.968018,267.424011,394.303986
897.919983,277.183990,398.208008
911.583984,267.424011,404.063995
897.919983,277.183990,390.399994
901.823975,277.183990,398.208008
901.823975,283.040009,398.208008
897.919983,279.135986,406.015991
897.919983,273.279999,398.208008
897.919983,277.183990,396.256012
897.919983,273.279999,404.063995
897.919983,273.279999,398.208008
899.872009,271.328003,400.160004
897.919983,271.328003,404.063995
907.679993,273.279999,402.112000
911.583984,273.279999,413.824005
919.392029,269.376007,402.112000
907.679993,265.471985,402.112000
909.632019,277.183990,402.112000
915.487976,269.376007,400.160004
905.728027,263.519989,394.303986
909.632019,269.376007,402.112000
909.632019,269.376007,404.063995
903.776001,261.567993,398.208008
909.632019,275.231995,404.063995
915.487976,279.135986,394.303986
911.583984,271.328003,382.592010
913.536011,283.040009,394.303986
913.536011,267.424011,398.208008
911.583984,259.615997,394.303986
909.632019,271.328003,396.256012
915.487976,273.279999,400.160004
907.679993,271.328003,398.208008
915.487976,269.376007,400.160004
905.728027,257.664001,415.776001
915.487976,279.135986,394.303986
911.583984,269.376007,398.208008
913.536011,277.183990,386.496002
915.487976,284.992004,396.256012
915.487976,277.183990,398.208008
915.487976,273.279999,400.160004
909.632019,277.183990,400.160004
905.728027,279.135986,390.399994
909.632019,275.231995,400.160004
911.583984,277.183990,392.351990
909.632019,277.183990,394.303986
907.679993,279.135986,394.303986
901.823975,279.135986,396.256012
903.776001,284.992004,392.351990
905.728027,279.135986,386.496002
903.776001,279.135986,388.447998
911.583984,277.183990,392.351990
899.872009,279.135986,388.447998
903.776001,275.231995,390.399994
905.728027,279.135986,390.399994
911.583984,284.992004,386.496002
903.776001,281.088013,390.399994
905.728027,288.895996,392.351990
897.919983,284.992004,392.351990
901.823975,283.040009,396.256012
901.823975,288.895996,392.351990
905.728027,283.040009,388.447998
894.015991,286.944000,398.208008
903.776001,277.183990,390.399994
899.872009,281.088013,390.399994
897.919983,286.944000,392.351990
897.919983,298.656006,388.447998
895.968018,288.895996,392.351990
901.823975,286.944000,386.496002
897.919983,298.656006,394.303986
894.015991,281.088013,392.351990
901.823975,292.799988,384.544006
892.064026,284.992004,380.640015
895.968018,294.752014,388.447998
897.919983,292.799988,382.592010
907.679993,292.799988,382.592010
911.583984,290.847992,380.640015
890.112000,294.752014,384.544006
897.919983,298.656006,384.544006
899.872009,296.704010,374.783997
897.919983,298.656006,382.592010
899.872009,296.704010,374.783997
890.112000,294.752014,388.447998
899.872009,300.608002,392.351990
892.064026,304.511993,388.447998
894.015991,304.511993,390.399994
899.872009,310.368011,390.399994
894.015991,306.463989,384.544006
899.872009,304.511993,396.256012
899.872009,312.320007,390.399994
890.112000,314.272003,386.496002
892.064026,306.463989,386.496002
892.064026,310.368011,390.399994
894.015991,304.511993,388.447998
890.112000,310.368011,394.303986
894.015991,306.463989,386.496002
886.208008,308.415985,386.496002
892.064026,304.511993,382.592010
890.112000,306.463989,376.735992
894.015991,306.463989,386.496002
895.968018,298.656006,386.496002
888.159973,306.463989,388.447998
890.112000,308.415985,380.640015
892.064026,308.415985,374.783997
886.208008,308.415985,382.592010
892.064026,310.368011,380.640015
886.208008,310.368011,370.880005
886.208008,314.272003,382.592010
886.208008,304.511993,394.303986
882.304016,304.511993,382.592010
880.351990,310.368011,382.592010
886.208008,304.511993,386.496002
892.064026,310.368011,382.592010
888.159973,308.415985,374.783997
888.159973,308.415985,380.640015
882.304016,298.656006,376.735992
884.255981,296.704010,388.447998
882.304016,304.511993,380.640015
888.159973,300.608002,380.640015
882.304016,294.752014,382.592010
888.159973,296.704010,384.544006
894.015991,298.656006,386.496002
895.968018,302.559998,378.687988
888.159973,302.559998,388.447998
886.208008,304.511993,386.496002
882.304016,298.656006,378.687988
892.064026,302.559998,372.832001
890.112000,302.559998,374.783997
892.064026,302.559998,380.640015
894.015991,304.511993,388.447998
899.872009,292.799988,380.640015
890.112000,300.608002,374.783997
897.919983,292.799988,382.592010
899.872009,296.704010,380.640015
897.919983,300.608002,382.592010
897.919983,298.656006,388.447998
895.968018,298.656006,392.351990
895.968018,298.656006,382.592010
897.919983,294.752014,394.303986
894.015991,302.559998,394.303986
899.872009,304.511993,384.544006
897.919983,298.656006,386.496002
892.064026,304.511993,380.640015
890.112000,294.752014,386.496002
888.159973,296.704010,386.496002
890.112000,290.847992,384.544006
897.919983,288.895996,382.592010
901.823975,298.656006,380.640015
899.872009,284.992004,374.783997
890.112000,294.752014,386.496002
894.015991,277.183990,384.544006
890.112000,286.944000,386.496002
890.112000,292.799988,390.399994
895.968018,292.799988,392.351990
892.064026,284.992004,382.592010
895.968018,288.895996,386.496002
895.968018,298.656006,388.447998
888.159973,294.752014,378.687988
890.112000,290.847992,386.496002
894.015991,298.656006,378.687988
895.968018,290.847992,384.544006
888.159973,288.895996,386.496002
892.064026,290.847992,394.303986
878.400024,296.704010,384.544006
884.255981,294.752014,388.447998
888.159973,290.847992,386.496002
886.208008,298.656006,384.544006
886.208008,290.847992,386.496002
876.447998,284.992004,384.544006
884.255981,294.752014,384.544006
876.447998,283.040009,384.544006
880.351990,283.040009,388.447998
886.208008,284.992004,382.592010
888.159973,284.992004,386.496002
888.159973,290.847992,384.544006
874.495972,286.944000,386.496002
872.544006,288.895996,384.544006
878.400024,288.895996,390.399994
876.447998,290.847992,388.447998
876.447998,294.752014,382.592010
874.495972,288.895996,378.687988
870.591980,294.752014,392.351990
872.544006,292.799988,380.640015
876.447998,298.656006,382.592010
880.351990,292.799988,376.735992
882.304016,302.559998,378.687988
880.351990,298.656006,374.783997
868.640015,290.847992,370.880005
870.591980,298.656006,380.640015
874.495972,296.704010,380.640015
878.400024,302.559998,378.687988
874.495972,298.656006,376.735992
868.640015,296.704010,376.735992
880.351990,298.656006,378.687988
874.495972,296.704010,380.640015
868.640015,292.799988,374.783997
870.591980,294.752014,380.640015
878.400024,298.656006,363.071991
870.591980,302.559998,374.783997
876.447998,284.992004,359.167999
872.544006,296.704010,368.928009
872.544006,292.799988,380.640015
868.640015,288.895996,376.735992
870.591980,302.559998,378.687988
876.447998,300.608002,376.735992
872.544006,296.704010,372.832001
880.351990,298.656006,366.976013
870.591980,292.799988,372.832001
872.544006,294.752014,370.880005
880.351990,294.752014,372.832001
862.783997,288.895996,366.976013
870.591980,294.752014,374.783997
866.687988,310.368011,376.735992
874.495972,296.704010,380.640015
876.447998,284.992004,374.783997
866.687988,296.704010,370.880005
866.687988,302.559998,378.687988
876.447998,302.559998,370.880005
860.831970,294.752014,374.783997
866.687988,292.799988,382.592010
872.544006,296.704010,370.880005
872.544006,298.656006,374.783997
878.400024,284.992004,378.687988
872.544006,288.895996,374.783997
870.591980,288.895996,374.783997
876.447998,296.704010,374.783997
866.687988,284.992004,378.687988
882.304016,292.799988,378.687988
876.447998,288.895996,380.640015
872.544006,298.656006,390.399994
868.640015,288.895996,392.351990
870.591980,290.847992,382.592010
872.544006,298.656006,386.496002
884.255981,292.799988,386.496002
884.255981,288.895996,378.687988
884.255981,294.752014,378.687988
882.304016,288.895996,376.735992
870.591980,283.040009,376.735992
882.304016,286.944000,376.735992
872.544006,281.088013,378.687988
884.255981,286.944000,380.640015
878.400024,298.656006,384.544006
880.351990,292.799988,370.880005
876.447998,298.656006,380.640015
874.495972,288.895996,378.687988
872.544006,281.088013,384.544006
876.447998,288.895996,380.640015
872.544006,277.183990,384.544006
874.495972,279.135986,388.447998
874.495972,284.992004,382.592010
878.400024,286.944000,382.592010
880.351990,288.895996,378.687988
882.304016,284.992004,382.592010
880.351990,294.752014,376.735992
874.495972,286.944000,378.687988
876.447998,281.088013,374.783997
880.351990,288.895996,376.735992
870.591980,294.752014,380.640015
878.400024,288.895996,380.640015
884.255981,290.847992,378.687988
884.255981,281.088013,372.832001
882.304016,288.895996,376.735992
874.495972,286.944000,376.735992
860.831970,281.088013,378.687988
872.544006,283.040009,376.735992
868.640015,281.088013,384.544006
870.591980,283.040009,378.687988
872.544006,281.088013,378.687988
880.351990,284.992004,374.783997
876.447998,281.088013,380.640015
876.447998,284.992004,378.687988
876.447998,292.799988,378.687988
870.591980,283.040009,378.687988
876.447998,277.183990,378.687988
872.544006,271.328003,380.640015
884.255981,269.376007,376.735992
882.304016,283.040009,382.592010
878.400024,283.040009,384.544006
884.255981,284.992004,378.687988
872.544006,284.992004,382.592010
880.351990,279.135986,384.544006
872.544006,277.183990,384.544006
876.447998,283.040009,376.735992
882.304016,283.040009,382.592010
872.544006,283.040009,372.832001
878.400024,284.992004,376.735992
872.544006,281.088013,384.544006
876.447998,277.183990,378.687988
870.591980,271.328003,378.687988
876.447998,288.895996,382.592010
874.495972,284.992004,382.592010
880.351990,286.944000,378.687988
878.400024,273.279999,380.640015
876.447998,277.183990,378.687988
876.447998,281.088013,372.832001
866.687988,275.231995,366.976013
866.687988,279.135986,378.687988
864.736023,283.040009,372.832001
870.591980,277.183990,380.640015
868.640015,277.183990,376.735992
864.736023,283.040009,376.735992
870.591980,283.040009,378.687988
868.640015,284.992004,374.783997
862.783997,286.944000,372.832001
864.736023,273.279999,368.928009
876.447998,277.183990,372.832001
864.736023,290.847992,370.880005
868.640015,283.040009,372.832001
870.591980,277.183990,374.783997
858.880005,284.992004,376.735992
866.687988,277.183990,370.880005
868.640015,265.471985,380.640015
866.687988,273.279999,370.880005
862.783997,283.040009,374.783997
868.640015,279.135986,384.544006
880.351990,271.328003,390.399994
870.591980,253.759995,376.735992
872.544006,269.376007,380.640015
858.880005,273.279999,376.735992
862.783997,275.231995,384.544006
874.495972,269.376007,378.687988
864.736023,281.088013,382.592010
872.544006,261.567993,382.592010
866.687988,267.424011,388.447998
870.591980,286.944000,382.592010
868.640015,275.231995,386.496002
876.447998,273.279999,378.687988
872.544006,273.279999,388.447998
862.783997,273.279999,378.687988
864.736023,271.328003,378.687988
866.687988,269.376007,384.544006
868.640015,279.135986,384.544006
868.640015,281.088013,386.496002
864.736023,261.567993,382.592010
868.640015,275.231995,386.496002
862.783997,277.183990,378.687988
862.783997,273.279999,386.496002
858.880005,281.088013,372.832001
858.880005,275.231995,378.687988
853.023987,279.135986,374.783997
864.736023,271.328003,378.687988
862.783997,265.471985,372.832001
864.736023,273.279999,378.687988
860.831970,273.279999,386.496002
860.831970,269.376007,384.544006
860.831970,283.040009,380.640015
854.976013,275.231995,380.640015
851.072021,284.992004,382.592010
854.976013,279.135986,388.447998
858.880005,271.328003,378.687988
851.072021,273.279999,380.640015
860.831970,271.328003,370.880005
864.736023,275.231995,374.783997
858.880005,269.376007,376.735992
858.880005,288.895996,382.592010
858.880005,281.088013,380.640015
853.023987,288.895996,378.687988
856.927979,281.088013,374.783997
849.119995,279.135986,382.592010
854.976013,273.279999,392.351990
856.927979,265.471985,388.447998
856.927979,265.471985,384.544006
858.880005,265.471985,384.544006
854.976013,269.376007,374.783997
854.976013,267.424011,370.880005
854.976013,261.567993,376.735992
856.927979,263.519989,384.544006
854.976013,257.664001,378.687988
851.072021,263.519989,382.592010
847.168030,273.279999,380.640015
856.927979,269.376007,378.687988
856.927979,265.471985,384.544006
851.072021,265.471985,374.783997
851.072021,283.040009,384.544006
854.976013,271.328003,384.544006
856.927979,281.088013,380.640015
853.023987,275.231995,380.640015
851.072021,283.040009,380.640015
849.119995,281.088013,384.544006
851.072021,277.183990,380.640015
854.976013,277.183990,380.640015
860.831970,273.279999,382.592010
864.736023,275.231995,370.880005
866.687988,279.135986,376.735992
864.736023,277.183990,372.832001
858.880005,277.183990,380.640015
862.783997,275.231995,378.687988
868.640015,275.231995,388.447998
858.880005,277.183990,374.783997
866.687988,269.376007,382.592010
868.640015,269.376007,384.544006
872.544006,277.183990,384.544006
870.591980,275.231995,376.735992
878.400024,275.231995,374.783997
872.544006,279.135986,388.447998
874.495972,284.992004,376.735992
870.591980,279.135986,384.544006
870.591980,277.183990,378.687988
872.544006,279.135986,384.544006
872.544006,275.231995,382.592010
872.544006,281.088013,388.447998
878.400024,269.376007,382.592010
876.447998,277.183990,378.687988
878.400024,283.040009,376.735992
866.687988,279.135986,376.735992
874.495972,286.944000,384.544006
878.400024,277.183990,380.640015
880.351990,275.231995,382.592010
876.447998,277.183990,384.544006
870.591980,271.328003,376.735992
884.255981,271.328003,378.687988
882.304016,284.992004,380.640015
886.208008,283.040009,382.592010
886.208008,273.279999,386.496002
880.351990,275.231995,384.544006
884.255981,275.231995,380.640015
882.304016,281.088013,380.640015
876.447998,273.279999,380.640015
886.208008,267.424011,376.735992
868.640015,275.231995,384.544006
882.304016,279.135986,380.640015
878.400024,271.328003,378.687988
880.351990,269.376007,378.687988
880.351990,259.615997,378.687988
884.255981,275.231995,380.640015
878.400024,273.279999,376.735992
880.351990,265.471985,372.832001
884.255981,265.471985,378.687988
884.255981,261.567993,378.687988
876.447998,269.376007,374.783997
874.495972,267.424011,374.783997
880.351990,255.712006,378.687988
870.591980,265.471985,366.976013
874.495972,263.519989,374.783997
882.304016,255.712006,372.832001
876.447998,255.712006,380.640015
874.495972,261.567993,363.071991
880.351990,277.183990,368.928009
874.495972,273.279999,363.071991
870.591980,265.471985,365.023987
870.591980,259.615997,361.119995
868.640015,267.424011,363.071991
870.591980,269.376007,357.216003
864.736023,261.567993,351.359985
864.736023,263.519989,361.119995
853.023987,259.615997,357.216003
860.831970,265.471985,363.071991
868.640015,269.376007,359.167999
862.783997,273.279999,355.264008
862.783997,269.376007,359.167999
866.687988,277.183990,359.167999
862.783997,269.376007,365.023987
864.736023,275.231995,368.928009
868.640015,259.615997,368.928009
864.736023,277.183990,366.976013
866.687988,273.279999,366.976013
858.880005,281.088013,372.832001
858.880005,277.183990,366.976013
866.687988,283.040009,376.735992
866.687988,275.231995,370.880005
854.976013,286.944000,365.023987
858.880005,265.471985,366.976013
853.023987,269.376007,363.071991
854.976013,283.040009,349.407990
853.023987,275.231995,349.407990
849.119995,279.135986,349.407990
860.831970,279.135986,351.359985
854.976013,273.279999,349.407990
849.119995,273.279999,349.407990
856.927979,261.567993,353.312012
849.119995,273.279999,351.359985
853.023987,275.231995,339.648010
851.072021,290.847992,353.312012
847.168030,269.376007,351.359985
851.072021,275.231995,349.407990
843.263977,275.231995,357.216003
851.072021,273.279999,351.359985
856.927979,277.183990,361.119995
849.119995,283.040009,357.216003
847.168030,284.992004,355.264008
849.119995,284.992004,351.359985
851.072021,284.992004,351.359985
843.263977,290.847992,361.119995
845.216003,288.895996,351.359985
849.119995,286.944000,359.167999
853.023987,292.799988,347.455994
839.359985,294.752014,355.264008
847.168030,286.944000,351.359985
853.023987,284.992004,355.264008
843.263977,283.040009,355.264008
843.263977,281.088013,347.455994
847.168030,286.944000,351.359985
847.168030,277.183990,361.119995
849.119995,286.944000,365.023987
847.168030,275.231995,368.928009
845.216003,269.376007,355.264008
845.216003,269.376007,361.119995
853.023987,269.376007,361.119995
853.023987,271.328003,357.216003
853.023987,275.231995,372.832001
856.927979,265.471985,365.023987
858.880005,269.376007,370.880005
854.976013,263.519989,372.832001
853.023987,249.856003,370.880005
860.831970,263.519989,372.832001
853.023987,259.615997,365.023987
853.023987,269.376007,370.880005
854.976013,267.424011,378.687988
858.880005,263.519989,384.544006
853.023987,253.759995,384.544006
851.072021,249.856003,374.783997
853.023987,247.904007,380.640015
853.023987,247.904007,374.783997
853.023987,247.904007,380.640015
854.976013,247.904007,380.640015
860.831970,244.000000,384.544006
853.023987,238.143997,374.783997
860.831970,240.095993,382.592010
854.976013,244.000000,382.592010
854.976013,242.048004,382.592010
854.976013,238.143997,370.880005
858.880005,249.856003,372.832001
858.880005,251.807999,372.832001
854.976013,255.712006,376.735992
860.831970,245.951996,384.544006
849.119995,253.759995,372.832001
856.927979,255.712006,370.880005
856.927979,249.856003,374.783997
856.927979,247.904007,374.783997
858.880005,251.807999,388.447998
864.736023,249.856003,374.783997
853.023987,247.904007,368.928009
856.927979,242.048004,365.023987
853.023987,244.000000,368.928009
854.976013,245.951996,359.167999
843.263977,242.048004,357.216003
845.216003,255.712006,349.407990
841.312012,253.759995,337.696014
851.072021,249.856003,343.552002
847.168030,251.807999,339.648010
847.168030,255.712006,331.839996
849.119995,253.759995,343.552002
845.216003,245.951996,335.743988
843.263977,247.904007,327.936005
841.312012,249.856003,333.791992
843.263977,255.712006,325.984009
837.408020,253.759995,337.696014
835.455994,255.712006,329.888000
831.552002,253.759995,324.032013
831.552002,259.615997,312.320007
831.552002,249.856003,322.079987
833.504028,257.664001,322.079987
837.408020,259.615997,312.320007
837.408020,261.567993,308.415985
825.695984,253.759995,302.559998
833.504028,259.615997,294.752014
833.504028,257.664001,288.895996
837.408020,259.615997,281.088013
831.552002,265.471985,277.183990
821.791992,269.376007,277.183990
837.408020,267.424011,275.231995
827.648010,275.231995,277.183990
815.935974,265.471985,271.328003
821.791992,277.183990,281.088013
815.935974,269.376007,269.376007
812.031982,265.471985,261.567993
815.935974,271.328003,261.567993
806.176025,275.231995,259.615997
804.223999,271.328003,253.759995
810.080017,269.376007,255.712006
813.984009,275.231995,261.567993
817.888000,273.279999,249.856003
804.223999,286.944000,234.240005
808.127991,273.279999,234.240005
815.935974,286.944000,228.384003
813.984009,286.944000,224.479996
804.223999,294.752014,216.671997
796.416016,300.608002,230.335999
802.271973,308.415985,220.576004
792.512024,304.511993,212.768005
786.656006,308.415985,204.960007
782.752014,318.175995,204.960007
782.752014,312.320007,204.960007
774.943970,304.511993,208.863998
784.703979,294.752014,199.104004
790.559998,284.992004,197.151993
790.559998,283.040009,197.151993
786.656006,283.040009,199.104004
788.607971,271.328003,189.343994
788.607971,267.424011,187.391998
788.607971,267.424011,185.440002
772.992004,244.000000,183.488007
780.799988,247.904007,191.296005
774.943970,234.240005,185.440002
776.895996,240.095993,179.584000
784.703979,230.335999,171.776001
776.895996,228.384003,177.632004
784.703979,226.432007,179.584000
782.752014,236.192001,173.727997
782.752014,230.335999,169.824005
776.895996,238.143997,163.968002
780.799988,242.048004,173.727997
798.367981,251.807999,163.968002
796.416016,271.328003,160.063995
800.320007,271.328003,162.016006
794.463989,281.088013,162.016006
796.416016,283.040009,163.968002
798.367981,281.088013,177.632004
790.559998,286.944000,181.535995
790.559998,281.088013,175.679993
796.416016,275.231995,179.584000
800.320007,267.424011,171.776001
802.271973,257.664001,169.824005
800.320007,249.856003,163.968002
802.271973,234.240005,179.584000
804.223999,236.192001,195.199997
829.599976,240.095993,201.056000
796.416016,224.479996,203.007996
792.512024,218.623993,216.671997
786.656006,218.623993,214.720001
806.176025,212.768005,208.863998
806.176025,216.671997,220.576004
819.840027,206.912003,224.479996
813.984009,183.488007,220.576004
821.791992,208.863998,210.815994
800.320007,226.432007,222.528000
806.176025,220.576004,224.479996
792.512024,224.479996,244.000000
728.096008,244.000000,253.759995
759.328003,261.567993,255.712006
780.799988,203.007996,263.519989
810.080017,191.296005,259.615997
813.984009,261.567993,267.424011
813.984009,234.240005,265.471985
851.072021,183.488007,267.424011
870.591980,218.623993,281.088013
888.159973,242.048004,283.040009
895.968018,247.904007,286.944000
892.064026,259.615997,288.895996
874.495972,286.944000,296.704010
874.495972,318.175995,290.847992
876.447998,320.127991,288.895996
880.351990,316.223999,298.656006
899.872009,331.839996,300.608002
897.919983,329.888000,318.175995
905.728027,310.368011,333.791992
923.296021,288.895996,322.079987
927.200012,281.088013,314.272003
942.815979,286.944000,314.272003
933.056030,259.615997,318.175995
925.247986,245.951996,327.936005
940.864014,230.335999,325.984009
938.911987,232.287994,337.696014
938.911987,210.815994,333.791992
931.104004,210.815994,325.984009
929.151978,199.104004,329.888000
933.056030,179.584000,339.648010
936.960022,187.391998,333.791992
942.815979,195.199997,341.600006
946.719971,185.440002,351.359985
942.815979,181.535995,361.119995
940.864014,175.679993,359.167999
927.200012,226.432007,363.071991
935.007996,242.048004,376.735992
944.768005,220.576004,374.783997
948.671997,244.000000,370.880005
962.335999,247.904007,388.447998
962.335999,259.615997,382.592010
960.383972,255.712006,388.447998
966.239990,240.095993,398.208008
968.192017,240.095993,404.063995
972.096008,232.287994,407.967987
981.856018,275.231995,429.440002
981.856018,255.712006,435.295990
983.807983,195.199997,431.391998
995.520020,234.240005,441.152008
960.383972,238.143997,447.007996
964.288025,218.623993,441.152008
960.383972,238.143997,445.056000
966.239990,238.143997,450.911987
970.143982,224.479996,448.959991
964.288025,226.432007,450.911987
960.383972,226.432007,441.152008
960.383972,238.143997,421.631989
960.383972,236.192001,413.824005
960.383972,230.335999,419.679993
952.575989,226.432007,411.872009
960.383972,228.384003,394.303986
946.719971,251.807999,392.351990
946.719971,230.335999,388.447998
942.815979,238.143997,378.687988
946.719971,232.287994,351.359985
936.960022,230.335999,335.743988
940.864014,238.143997,320.127991
933.056030,242.048004,296.704010
919.392029,234.240005,292.799988
925.247986,236.192001,283.040009
929.151978,226.432007,273.279999
927.200012,220.576004,273.279999
938.911987,238.143997,271.328003
938.911987,232.287994,265.471985
935.007996,220.576004,245.951996
933.056030,210.815994,240.095993
935.007996,212.768005,232.287994
919.392029,220.576004,226.432007
884.255981,232.287994,249.856003
853.023987,339.648010,460.671997
892.064026,39.040001,569.984009
858.880005,-21.472000,388.447998
948.671997,374.783997,183.488007
977.952026,220.576004,95.648003
938.911987,-1.952000,183.488007
909.632019,173.727997,320.127991
878.400024,111.264000,335.743988
886.208008,103.456001,244.000000
923.296021,290.847992,173.727997
917.440002,163.968002,165.919998
915.487976,87.839996,216.671997
907.679993,247.904007,249.856003
890.112000,222.528000,224.479996
895.968018,201.056000,177.632004
890.112000,298.656006,173.727997
880.351990,255.712006,183.488007
874.495972,238.143997,175.679993
888.159973,308.415985,173.727997
876.447998,269.376007,160.063995
860.831970,259.615997,150.304001
856.927979,265.471985,156.160004
866.687988,220.576004,146.399994
866.687988,245.951996,132.735992
872.544006,259.615997,140.544006
851.072021,183.488007,140.544006
856.927979,193.248001,144.447998
843.263977,220.576004,122.975998
853.023987,206.912003,119.071999
854.976013,204.960007,117.120003
841.312012,195.199997,124.928001
819.840027,193.248001,105.407997
819.840027,240.095993,87.839996
819.840027,244.000000,80.031998
821.791992,210.815994,81.984001
813.984009,234.240005,80.031998
810.080017,269.376007,66.367996
825.695984,259.615997,52.703999
817.888000,271.328003,44.896000
800.320007,277.183990,50.751999
815.935974,265.471985,44.896000
802.271973,284.992004,33.183998
804.223999,312.320007,21.472000
808.127991,273.279999,0.000000
792.512024,271.328003,-9.760000
772.992004,314.272003,-9.760000
778.848022,294.752014,-15.616000
772.992004,265.471985,-13.664000
784.703979,283.040009,-11.712000
774.943970,284.992004,-29.280001
780.799988,296.704010,-33.183998
753.471985,294.752014,-40.992001
743.711975,288.895996,-37.088001
743.711975,281.088013,-50.751999
745.664001,312.320007,-60.512001
735.903992,322.079987,-68.320000
737.856018,310.368011,-81.984001
755.424011,329.888000,-105.407997
741.760010,351.359985,-107.360001
751.520020,357.216003,-117.120003
757.375977,351.359985,-101.503998
769.088013,339.648010,-109.311996
763.231995,349.407990,-119.071999
753.471985,366.976013,-122.975998
745.664001,386.496002,-121.024002
737.856018,439.200012,-130.783997
521.184021,480.191986,-109.311996
892.064026,769.088013,-89.792000
833.504028,634.400024,-101.503998
864.736023,515.328003,-103.456001
790.559998,575.840027,-58.560001
802.271973,646.112000,-48.799999
735.903992,683.200012,-5.856000
679.296021,636.351990,101.503998
821.791992,201.056000,138.591995
890.112000,-632.447998,165.919998
960.383972,-1309.791992,290.847992
1011.135986,-1372.255981,376.735992
1044.319946,-862.783997,396.256012
1040.416016,0.000000,406.015991
1007.231995,784.703979,400.160004
977.952026,1180.959961,400.160004
942.815979,1192.671997,406.015991
1001.375977,638.304016,353.312012
1073.599976,-784.703979,372.832001
1108.735962,-1639.680054,433.343994
1098.975952,-1059.936035,429.440002
981.856018,306.463989,400.160004
1015.039978,1383.968018,361.119995
1077.504028,1698.239990,329.888000
1030.656006,1321.504028,296.704010
1015.039978,331.839996,283.040009
1038.463989,-528.992004,271.328003
1052.128052,-630.495972,255.712006
1018.943970,9.760000,224.479996
1026.751953,804.223999,175.679993
1020.895996,1270.751953,146.399994
1038.463989,1292.223999,119.071999
1016.992004,964.288025,97.599998
995.520020,402.112000,64.416000
1036.511963,-156.160004,21.472000
1042.368042,-402.112000,-3.904000
1030.656006,-216.671997,-23.424000
1028.703979,134.688004,-56.608002
1003.328003,423.584015,-93.695999
987.711975,517.280029,-81.984001
997.471985,402.112000,-66.367996
985.760010,150.304001,-48.799999
1022.848022,-117.120003,-42.944000
1015.039978,-245.951996,-33.183998
1009.184021,-179.584000,-68.320000
972.096008,119.071999,-111.264000
985.760010,780.799988,-91.744003
970.143982,1403.488037,-31.232000
1016.992004,1442.527954,15.616000
1028.703979,942.815979,52.703999
1063.839966,113.216003,54.655998
1112.640015,-650.015991,58.560001
1163.391968,-1284.416016,142.496002
1179.008057,-1221.952026,240.095993
1124.352051,-296.704010,283.040009
1110.687988,720.288025,288.895996
1130.208008,1190.719971,288.895996
1136.063965,1102.880005,255.712006
1112.640015,587.552002,242.048004
1093.119995,-50.751999,228.384003
1145.823975,-359.167999,255.712006
1179.008057,-160.063995,281.088013
1220.000000,351.359985,296.704010
1278.560059,819.840027,288.895996
1303.936035,1063.839966,253.759995
1284.416016,989.664001,173.727997
1206.336060,622.687988,70.272003
1138.015991,66.367996,-11.712000
1138.015991,-390.399994,-40.992001
1153.631958,-431.391998,-29.280001
1143.871948,-158.112000,25.375999
1139.968018,185.440002,66.367996
1180.959961,427.488007,74.176003
1214.144043,499.712006,91.744003
1198.527954,538.752014,117.120003
1161.439941,542.656006,152.255997
1114.592041,372.832001,208.863998
1143.871948,-48.799999,224.479996
1233.663940,-447.007996,197.151993
1280.511963,-659.776001,171.776001
1260.991943,-636.351990,201.056000
1255.135986,-275.231995,232.287994
1190.719971,284.992004,279.135986
1204.384033,772.992004,275.231995
1247.328003,993.567993,261.567993
1257.088013,903.776001,251.807999
1247.328003,689.056030,226.432007
1225.855957,462.623993,185.440002
1208.287964,368.928009,121.024002
1210.239990,355.264008,42.944000
1188.767944,376.735992,-11.712000
1167.296021,327.936005,-37.088001
1163.391968,193.248001,-66.367996
1136.063965,66.367996,-109.311996
1124.352051,21.472000,-144.447998
1100.927979,23.424000,-173.727997
1091.167969,52.703999,-185.440002
1050.176025,224.479996,-195.199997
1032.608032,460.671997,-160.063995
1048.223999,560.223999,-109.311996
1024.800049,390.399994,-52.703999
1073.599976,-46.848000,-5.856000
1120.447998,-402.112000,-9.760000
1126.303955,-489.951996,-40.992001
1138.015991,-384.544006,-42.944000
1136.063965,-111.264000,9.760000
1136.063965,70.272003,76.127998
1122.400024,236.192001,130.783997
1134.112061,324.032013,175.679993
1139.968018,427.488007,189.343994
1179.008057,573.888000,183.488007
1180.959961,735.903992,148.352005
1155.583984,853.023987,97.599998
1149.728027,827.648010,80.031998
1124.352051,659.776001,72.223999
1116.543945,368.928009,72.223999
1159.488037,13.664000,48.799999
1161.439941,-247.904007,0.000000
1155.583984,-310.368011,-37.088001
1110.687988,-210.815994,-52.703999
1071.647949,33.183998,-91.744003
1040.416016,228.384003,-111.264000
1015.039978,267.424011,-99.552002
1022.848022,238.143997,-37.088001
1013.088013,167.871994,66.367996
1046.271973,245.951996,169.824005
1108.735962,441.152008,216.671997
1175.104004,632.447998,224.479996
1214.144043,737.856018,197.151993
1218.047974,706.624023,171.776001
1200.479980,593.408020,160.063995
1180.959961,421.631989,107.360001
1163.391968,122.975998,80.031998
1139.968018,-74.176003,80.031998
1126.303955,-62.464001,81.984001
1091.167969,146.399994,78.080002
1056.031982,402.112000,87.839996
1102.880005,587.552002,52.703999
1204.384033,585.599976,17.568001
1292.223999,468.480011,9.760000
1282.463989,335.743988,56.608002
1229.760010,210.815994,101.503998
1169.248047,277.183990,99.552002
1102.880005,630.495972,91.744003
1077.504028,985.760010,58.560001
1036.511963,929.151978,58.560001
987.711975,365.023987,105.407997
1016.992004,-464.575989,140.544006
1079.456055,-1001.375977,175.679993
1108.735962,-794.463989,195.199997
1141.920044,15.616000,214.720001
1192.671997,812.031982,224.479996
1218.047974,1132.160034,238.143997
1237.567993,899.872009,220.576004
1233.663940,341.600006,175.679993
1218.047974,-144.447998,126.879997
1206.336060,-283.040009,78.080002
1155.583984,-21.472000,33.183998
1098.975952,388.447998,1.952000
1063.839966,587.552002,-29.280001
1042.368042,501.664001,-64.416000
1040.416016,228.384003,-103.456001
1013.088013,-27.327999,-134.688004
1005.280029,-113.216003,-179.584000
979.903992,-13.664000,-201.056000
960.383972,169.824005,-234.240005
962.335999,316.223999,-257.664001
966.239990,347.455994,-284.992004
964.288025,281.088013,-316.223999
940.864014,181.535995,-320.127991
935.007996,122.975998,-327.936005
935.007996,210.815994,-322.079987
946.719971,275.231995,-335.743988
952.575989,283.040009,-325.984009
950.624023,244.000000,-300.608002
940.864014,160.063995,-267.424011
942.815979,107.360001,-210.815994
942.815979,183.488007,-148.352005
974.047974,353.312012,-93.695999
997.471985,579.744019,-29.280001
1018.943970,831.552002,23.424000
1057.984009,948.671997,44.896000
1057.984009,813.984009,78.080002
1040.416016,417.727997,89.792000
1061.887939,17.568001,76.127998
1079.456055,-128.832001,42.944000
1071.647949,42.944000,9.760000
1050.176025,378.687988,-27.327999
1048.223999,646.112000,-37.088001
1052.128052,661.728027,-56.608002
1054.079956,441.152008,-81.984001
1056.031982,140.544006,-93.695999
1061.887939,-58.560001,-103.456001
1048.223999,-81.984001,-121.024002
1044.319946,48.799999,-119.071999
1059.936035,247.904007,-136.639999
1059.936035,425.536011,-152.255997
1056.031982,454.816010,-150.304001
1048.223999,343.552002,-162.016006
1028.703979,179.584000,-171.776001
1028.703979,23.424000,-183.488007
1036.511963,-17.568001,-177.632004
1020.895996,78.080002,-181.535995
1022.848022,230.335999,-187.391998
1020.895996,333.791992,-201.056000
1022.848022,341.600006,-212.768005
1020.895996,281.088013,-230.335999
1011.135986,163.968002,-255.712006
991.616028,140.544006,-269.376007
979.903992,195.199997,-275.231995
976.000000,265.471985,-281.088013
966.239990,324.032013,-275.231995
962.335999,329.888000,-263.519989
964.288025,378.687988,-228.384003
966.239990,509.471985,-183.488007
964.288025,609.023987,-121.024002
985.760010,525.088013,-68.320000
991.616028,298.656006,-17.568001
1022.848022,74.176003,-27.327999
1001.375977,44.896000,-25.375999
997.471985,177.632004,-66.367996
995.520020,417.727997,-122.975998
997.471985,597.312012,-175.679993
981.856018,622.687988,-214.720001
993.567993,489.951996,-236.192001
1001.375977,281.088013,-251.807999
991.616028,107.360001,-283.040009
985.760010,89.792000,-320.127991
977.952026,214.720001,-355.264008
977.952026,394.303986,-359.167999
964.288025,521.184021,-361.119995
972.096008,486.048004,-366.976013
968.192017,308.415985,-359.167999
968.192017,124.928001,-370.880005
977.952026,27.327999,-366.976013
972.096008,56.608002,-365.023987
981.856018,160.063995,-353.312012
999.424011,226.432007,-337.696014
1005.280029,226.432007,-306.463989
1011.135986,185.440002,-281.088013
1032.608032,130.783997,-263.519989
1038.463989,91.744003,-251.807999
1052.128052,91.744003,-234.240005
1059.936035,148.352005,-214.720001
1046.271973,216.671997,-201.056000
1042.368042,277.183990,-189.343994
1050.176025,281.088013,-187.391998
1034.560059,238.143997,-179.584000
1013.088013,279.135986,-175.679993
1009.184021,392.351990,-144.447998
985.760010,587.552002,-113.216003
972.096008,650.015991,-119.071999
968.192017,659.776001,-138.591995
968.192017,620.736023,-173.727997
952.575989,509.471985,-214.720001
938.911987,322.079987,-284.992004
921.343994,136.639999,-333.791992
935.007996,66.367996,-370.880005
933.056030,119.071999,-388.447998
925.247986,249.856003,-372.832001
925.247986,355.264008,-357.216003
925.247986,437.247986,-339.648010
946.719971,355.264008,-320.127991
956.479980,220.576004,-294.752014
985.760010,70.272003,-294.752014
989.664001,19.520000,-283.040009
995.520020,60.512001,-292.799988
1007.231995,175.679993,-290.847992
1007.231995,261.567993,-292.799988
1003.328003,324.032013,-300.608002
997.471985,267.424011,-302.559998
993.567993,247.904007,-296.704010
997.471985,185.440002,-284.992004
977.952026,167.871994,-267.424011
981.856018,163.968002,-290.847992
954.528015,175.679993,-320.127991
956.479980,251.807999,-349.407990
936.960022,263.519989,-345.503998
935.007996,316.223999,-316.223999
909.632019,343.552002,-304.511993
903.776001,271.328003,-253.759995
895.968018,222.528000,-242.048004
892.064026,189.343994,-244.000000
872.544006,126.879997,-251.807999
874.495972,148.352005,-286.944000
866.687988,169.824005,-296.704010
854.976013,238.143997,-296.704010
862.783997,327.936005,-290.847992
847.168030,392.351990,-314.272003
845.216003,398.208008,-335.743988
847.168030,337.696014,-349.407990
854.976013,218.623993,-378.687988
870.591980,185.440002,-390.399994
880.351990,148.352005,-394.303986
886.208008,177.632004,-402.112000
886.208008,269.376007,-402.112000
892.064026,398.208008,-390.399994
899.872009,460.671997,-372.832001
892.064026,427.488007,-361.119995
886.208008,341.600006,-366.976013
890.112000,261.567993,-365.023987
892.064026,195.199997,-394.303986
880.351990,181.535995,-439.200012
880.351990,185.440002,-476.287994
858.880005,169.824005,-501.664001
854.976013,150.304001,-509.471985
860.831970,206.912003,-505.567993
868.640015,259.615997,-515.328003
853.023987,97.599998,-486.048004
833.504028,-124.928001,-406.015991
813.984009,-193.248001,-333.791992
774.943970,-29.280001,-300.608002
755.424011,228.384003,-302.559998
749.567993,538.752014,-290.847992
759.328003,849.119995,-308.415985
751.520020,1042.368042,-327.936005
753.471985,938.911987,-366.976013
796.416016,497.760010,-370.880005
858.880005,-7.808000,-353.312012
933.056030,-290.847992,-316.223999
1221.952026,-284.992004,-95.648003
1223.904053,-154.207993,536.799988
1497.183960,-74.176003,999.424011
1686.527954,-450.911987,1114.592041
1907.104004,-812.031982,876.447998
2032.031982,-1382.015991,948.671997
1549.887939,-1378.112061,757.375977
1610.400024,-923.296021,191.296005
1337.119995,-89.792000,-27.327999
1110.687988,944.768005,-265.471985
1130.208008,1177.056030,-294.752014
956.479980,1303.936035,-244.000000
1223.904053,1198.527954,-244.000000
1169.248047,813.984009,-146.399994
1268.800049,683.200012,-107.360001
1325.407959,603.168030,-76.127998
1264.895996,558.271973,-35.136002
1262.943970,642.208008,-76.127998
1157.536011,603.168030,-119.071999
1122.400024,564.127991,-193.248001
1022.848022,484.096008,-244.000000
1005.280029,382.592010,-284.992004
997.471985,314.272003,-247.904007
1007.231995,228.384003,-146.399994
1048.223999,138.591995,-27.327999
1075.552002,46.848000,46.848000
1061.887939,-39.040001,58.560001
1059.936035,-52.703999,-21.472000
1026.751953,23.424000,-144.447998
993.567993,193.248001,-259.615997
958.432007,382.592010,-363.071991
929.151978,509.471985,-421.631989
919.392029,556.320007,-448.959991
913.536011,530.943970,-452.864014
905.728027,433.343994,-419.679993
911.583984,349.407990,-384.544006
938.911987,259.615997,-357.216003
974.047974,203.007996,-331.839996
985.760010,173.727997,-333.791992
983.807983,128.832001,-329.888000
976.000000,113.216003,-357.216003
944.768005,87.839996,-437.247986
940.864014,54.655998,-452.864014
929.151978,66.367996,-435.295990
952.575989,40.992001,-439.200012
948.671997,21.472000,-411.872009
956.479980,23.424000,-427.488007
985.760010,44.896000,-425.536011
948.671997,80.031998,-390.399994
972.096008,138.591995,-388.447998
977.952026,181.535995,-370.880005
983.807983,208.863998,-363.071991
1030.656006,177.632004,-283.040009
1034.560059,156.160004,-236.192001
1091.167969,99.552002,-247.904007
1030.656006,87.839996,-277.183990
1016.992004,111.264000,-349.407990
970.143982,117.120003,-363.071991
950.624023,154.207993,-365.023987
1001.375977,228.384003,-402.112000
974.047974,288.895996,-404.063995
1018.943970,493.855988,-386.496002
964.288025,739.807983,-378.687988
936.960022,884.255981,-402.112000
940.864014,923.296021,-425.536011
907.679993,876.447998,-489.951996
950.624023,644.159973,-540.703979
899.872009,390.399994,-523.135986
938.911987,81.984001,-585.599976
929.151978,-50.751999,-552.416016
966.239990,21.472000,-558.271973
954.528015,-33.183998,-525.088013
954.528015,-3.904000,-534.848022
950.624023,-52.703999,-534.848022
958.432007,-21.472000,-503.615997
950.624023,29.280001,-505.567993
870.591980,3.904000,-390.399994
882.304016,-525.088013,-279.135986
884.255981,-1116.543945,-376.735992
977.952026,-1046.271973,-571.935974
854.976013,-534.848022,-577.791992
798.367981,503.615997,-564.127991
837.408020,1225.855957,-573.888000
860.831970,1335.167969,-499.712006
919.392029,933.056030,-464.575989
936.960022,179.584000,-382.592010
960.383972,-382.592010,-232.287994
1038.463989,-599.263977,-204.960007
1134.112061,-460.671997,-177.632004
1139.968018,-23.424000,-134.688004
1120.447998,269.376007,-208.863998
1083.359985,341.600006,-281.088013
1050.176025,302.559998,-388.447998
1003.328003,121.024002,-437.247986
993.567993,95.648003,-476.287994
985.760010,191.296005,-489.951996
1024.800049,300.608002,-421.631989
1054.079956,304.511993,-359.167999
1114.592041,255.712006,-232.287994
1175.104004,189.343994,-179.584000
1225.855957,91.744003,-156.160004
1186.816040,109.311996,-142.496002
1132.160034,134.688004,-257.664001
1059.936035,150.304001,-333.791992
1026.751953,279.135986,-480.191986
1009.184021,310.368011,-530.943970
1024.800049,320.127991,-525.088013
1044.319946,374.783997,-499.712006
1052.128052,439.200012,-406.015991
1065.791992,503.615997,-392.351990
1034.560059,532.895996,-341.600006
1040.416016,532.895996,-372.832001
1015.039978,505.567993,-404.063995
989.664001,489.951996,-417.727997
995.520020,448.959991,-489.951996
977.952026,398.208008,-488.000000
987.711975,327.936005,-505.567993
976.000000,236.192001,-519.231995
944.768005,-23.424000,-468.480011
987.711975,-390.399994,-470.432007
1003.328003,-499.712006,-447.007996
999.424011,-357.216003,-407.967987
1013.088013,-3.904000,-396.256012
1024.800049,249.856003,-359.167999
991.616028,283.040009,-343.552002
1005.280029,76.127998,-441.152008
1015.039978,-138.591995,-489.951996
958.432007,-105.407997,-521.184021
915.487976,46.848000,-571.935974
921.343994,296.704010,-595.359985
913.536011,550.463989,-579.744019
890.112000,628.544006,-581.695984
892.064026,527.039978,-569.984009
892.064026,423.584015,-542.656006
882.304016,251.807999,-556.320007
888.159973,156.160004,-548.512024
882.304016,214.720001,-546.559998
882.304016,224.479996,-571.935974
870.591980,232.287994,-583.648010
962.335999,33.183998,-484.096008
1235.615967,-185.440002,-87.839996
899.872009,140.544006,-669.536011
763.231995,162.016006,-782.752014
862.783997,331.839996,-609.023987
976.000000,345.503998,-357.216003
909.632019,244.000000,-511.424011
931.104004,296.704010,-392.351990
730.047974,456.768005,-831.552002
860.831970,-87.839996,-626.591980
1015.039978,85.888000,-380.640015
763.231995,306.463989,-833.504028
644.159973,290.847992,-897.919983
679.296021,554.367981,-856.927979
878.400024,76.127998,-460.671997
845.216003,234.240005,-456.768005
692.960022,230.335999,-786.656006
683.200012,236.192001,-853.023987
788.607971,52.703999,-659.776001
983.807983,-144.447998,-240.095993
806.176025,66.367996,-694.911987
735.903992,183.488007,-843.263977
704.671997,271.328003,-806.176025
724.192017,218.623993,-735.903992
831.552002,173.727997,-636.351990
991.616028,169.824005,-505.567993
1104.832031,214.720001,-333.791992
1192.671997,327.936005,-171.776001
1245.375977,423.584015,-37.088001
1268.800049,464.575989,46.848000
1301.984009,472.384003,113.216003
1317.599976,458.720001,146.399994
1319.552002,425.536011,138.591995
1333.215942,400.160004,122.975998
1315.647949,370.880005,107.360001
1307.839966,339.648010,70.272003
1276.608032,331.839996,50.751999
1262.943970,302.559998,23.424000
1243.423950,261.567993,-11.712000
1220.000000,195.199997,-50.751999
1175.104004,107.360001,-93.695999
1163.391968,39.040001,-138.591995
1138.015991,-9.760000,-175.679993
1112.640015,-56.608002,-226.432007
1081.407959,-85.888000,-255.712006
1071.647949,-122.975998,-275.231995
1075.552002,-140.544006,-308.415985
1059.936035,-154.207993,-318.175995
1054.079956,-156.160004,-308.415985
1056.031982,-152.255997,-306.463989
1052.128052,-130.783997,-298.656006
1042.368042,-132.735992,-286.944000
1042.368042,-113.216003,-300.608002
1048.223999,-76.127998,-286.944000
1026.751953,-60.512001,-279.135986
1009.184021,-39.040001,-294.752014
993.567993,25.375999,-292.799988
968.192017,93.695999,-312.320007
946.719971,169.824005,-339.648010
933.056030,236.192001,-372.832001
933.056030,314.272003,-413.824005
931.104004,368.928009,-423.584015
917.440002,394.303986,-435.295990
913.536011,411.872009,-439.200012
929.151978,388.447998,-435.295990
942.815979,384.544006,-427.488007
940.864014,378.687988,-419.679993
938.911987,384.544006,-421.631989
940.864014,378.687988,-407.967987
936.960022,388.447998,-398.208008
929.151978,365.023987,-407.967987
933.056030,333.791992,-407.967987
923.296021,312.320007,-415.776001
911.583984,283.040009,-407.967987
909.632019,249.856003,-423.584015
911.583984,228.384003,-435.295990
897.919983,197.151993,-429.440002
901.823975,185.440002,-427.488007
909.632019,191.296005,-423.584015
911.583984,228.384003,-423.584015
919.392029,279.135986,-425.536011
909.632019,335.743988,-429.440002
909.632019,372.832001,-441.152008
915.487976,402.112000,-437.247986
905.728027,417.727997,-458.720001
897.919983,407.967987,-462.623993
905.728027,382.592010,-468.480011
899.872009,351.359985,-474.335999
892.064026,316.223999,-472.384003
892.064026,290.847992,-476.287994
892.064026,263.519989,-480.191986
888.159973,242.048004,-468.480011
874.495972,228.384003,-466.528015
878.400024,216.671997,-470.432007
874.495972,222.528000,-462.623993
880.351990,244.000000,-458.720001
878.400024,257.664001,-462.623993
882.304016,284.992004,-450.911987
878.400024,300.608002,-466.528015
888.159973,318.175995,-462.623993
895.968018,327.936005,-458.720001
890.112000,341.600006,-468.480011
888.159973,337.696014,-466.528015
872.544006,320.127991,-462.623993
862.783997,314.272003,-468.480011
864.736023,298.656006,-458.720001
862.783997,284.992004,-474.335999
866.687988,267.424011,-482.144012
868.640015,267.424011,-486.048004
868.640015,247.904007,-478.239990
870.591980,251.807999,-476.287994
872.544006,253.759995,-470.432007
880.351990,263.519989,-482.144012
878.400024,275.231995,-472.384003
874.495972,290.847992,-468.480011
872.544006,302.559998,-468.480011
872.544006,304.511993,-472.384003
880.351990,318.175995,-464.575989
886.208008,318.175995,-464.575989
876.447998,310.368011,-468.480011
884.255981,298.656006,-466.528015
876.447998,283.040009,-470.432007
870.591980,277.183990,-472.384003
868.640015,267.424011,-484.096008
862.783997,257.664001,-480.191986
851.072021,244.000000,-482.144012
856.927979,251.807999,-489.951996
866.687988,247.904007,-495.808014
874.495972,265.471985,-493.855988
892.064026,261.567993,-489.951996
897.919983,283.040009,-468.480011
917.440002,283.040009,-447.007996
917.440002,286.944000,-439.200012
911.583984,277.183990,-423.584015
913.536011,283.040009,-425.536011
903.776001,269.376007,-441.152008
897.919983,255.712006,-460.671997
897.919983,244.000000,-466.528015
899.872009,238.143997,-478.239990
899.872009,226.432007,-491.903992
899.872009,230.335999,-476.287994
909.632019,214.720001,-462.623993
915.487976,224.479996,-458.720001
913.536011,220.576004,-454.816010
911.583984,242.048004,-445.056000
929.151978,240.095993,-447.007996
915.487976,230.335999,-458.720001
911.583984,245.951996,-456.768005
913.536011,245.951996,-468.480011
907.679993,244.000000,-466.528015
911.583984,234.240005,-472.384003
901.823975,228.384003,-460.671997
905.728027,220.576004,-466.528015
901.823975,216.671997,-464.575989
899.872009,208.863998,-476.287994
905.728027,195.199997,-468.480011
917.440002,193.248001,-470.432007
921.343994,185.440002,-462.623993
927.200012,185.440002,-462.623993
923.296021,179.584000,-454.816010
931.104004,185.440002,-448.959991
931.104004,185.440002,-452.864014
927.200012,187.391998,-443.104004
925.247986,185.440002,-447.007996
925.247986,189.343994,-441.152008
936.960022,179.584000,-447.007996
936.960022,171.776001,-460.671997
935.007996,181.535995,-452.864014
938.911987,163.968002,-456.768005
933.056030,165.919998,-452.864014
929.151978,167.871994,-460.671997
936.960022,154.207993,-454.816010
940.864014,158.112000,-445.056000
938.911987,144.447998,-443.104004
946.719971,136.639999,-452.864014
944.768005,142.496002,-445.056000
944.768005,130.783997,-445.056000
946.719971,142.496002,-439.200012
946.719971,144.447998,-441.152008
933.056030,152.255997,-445.056000
931.104004,146.399994,-447.007996
935.007996,140.544006,-450.911987
940.864014,142.496002,-450.911987
936.960022,132.735992,-454.816010
944.768005,128.832001,-448.959991
950.624023,124.928001,-443.104004
938.911987,115.167999,-447.007996
933.056030,126.879997,-437.247986
931.104004,111.264000,-445.056000
933.056030,113.216003,-431.391998
935.007996,117.120003,-445.056000
931.104004,103.456001,-450.911987
929.151978,103.456001,-447.007996
933.056030,107.360001,-462.623993
935.007996,107.360001,-460.671997
927.200012,113.216003,-454.816010
925.247986,115.167999,-448.959991
919.392029,111.264000,-464.575989
938.911987,119.071999,-460.671997
929.151978,130.783997,-450.911987
927.200012,126.879997,-458.720001
929.151978,130.783997,-460.671997
923.296021,121.024002,-460.671997
927.200012,113.216003,-460.671997
927.200012,119.071999,-462.623993
931.104004,113.216003,-464.575989
935.007996,117.120003,-464.575989
933.056030,107.360001,-450.911987
944.768005,115.167999,-447.007996
938.911987,111.264000,-443.104004
935.007996,122.975998,-441.152008
927.200012,126.879997,-447.007996
936.960022,130.783997,-447.007996
935.007996,134.688004,-450.911987
923.296021,126.879997,-456.768005
925.247986,130.783997,-447.007996
925.247986,134.688004,-443.104004
929.151978,142.496002,-450.911987
919.392029,140.544006,-454.816010
919.392029,138.591995,-458.720001
901.823975,142.496002,-460.671997
905.728027,142.496002,-466.528015
903.776001,144.447998,-458.720001
899.872009,136.639999,-468.480011
901.823975,132.735992,-472.384003
895.968018,136.639999,-480.191986
884.255981,150.304001,-468.480011
899.872009,140.544006,-472.384003
892.064026,146.399994,-480.191986
895.968018,144.447998,-472.384003
907.679993,146.399994,-476.287994
907.679993,148.352005,-472.384003
907.679993,156.160004,-480.191986
897.919983,158.112000,-466.528015
905.728027,162.016006,-466.528015
903.776001,148.352005,-466.528015
901.823975,160.063995,-470.432007
903.776001,154.207993,-472.384003
909.632019,152.255997,-470.432007
909.632019,162.016006,-468.480011
907.679993,156.160004,-480.191986
903.776001,165.919998,-472.384003
895.968018,177.632004,-476.287994
897.919983,175.679993,-474.335999
897.919983,189.343994,-466.528015
890.112000,187.391998,-462.623993
897.919983,183.488007,-464.575989
899.872009,175.679993,-464.575989
897.919983,185.440002,-476.287994
892.064026,189.343994,-480.191986
897.919983,193.248001,-480.191986
899.872009,187.391998,-476.287994
890.112000,187.391998,-462.623993
899.872009,203.007996,-470.432007
895.968018,197.151993,-470.432007
888.159973,206.912003,-468.480011
894.015991,199.104004,-468.480011
886.208008,203.007996,-480.191986
882.304016,195.199997,-476.287994
886.208008,201.056000,-470.432007
894.015991,203.007996,-462.623993
894.015991,204.960007,-466.528015
899.872009,212.768005,-464.575989
901.823975,212.768005,-464.575989
895.968018,214.720001,-466.528015
897.919983,224.479996,-450.911987
901.823975,224.479996,-456.768005
894.015991,218.623993,-450.911987
892.064026,218.623993,-458.720001
894.015991,232.287994,-468.480011
890.112000,214.720001,-472.384003
890.112000,218.623993,-462.623993
895.968018,212.768005,-464.575989
892.064026,226.432007,-470.432007
901.823975,232.287994,-468.480011
897.919983,218.623993,-452.864014
895.968018,226.432007,-456.768005
897.919983,230.335999,-462.623993
899.872009,247.904007,-464.575989
907.679993,240.095993,-464.575989
905.728027,247.904007,-464.575989
909.632019,240.095993,-470.432007
909.632019,245.951996,-472.384003
907.679993,242.048004,-466.528015
897.919983,245.951996,-466.528015
890.112000,251.807999,-458.720001
901.823975,245.951996,-476.287994
899.872009,242.048004,-472.384003
901.823975,242.048004,-470.432007
897.919983,242.048004,-470.432007
907.679993,242.048004,-466.528015
903.776001,244.000000,-466.528015
913.536011,242.048004,-458.720001
909.632019,249.856003,-462.623993
907.679993,244.000000,-470.432007
909.632019,253.759995,-474.335999
905.728027,253.759995,-462.623993
913.536011,259.615997,-458.720001
917.440002,257.664001,-466.528015
909.632019,251.807999,-466.528015
905.728027,255.712006,-466.528015
907.679993,245.951996,-470.432007
913.536011,247.904007,-460.671997
909.632019,238.143997,-468.480011
909.632019,245.951996,-468.480011
915.487976,238.143997,-468.480011
911.583984,238.143997,-466.528015
909.632019,240.095993,-456.768005
909.632019,249.856003,-462.623993
915.487976,242.048004,-468.480011
913.536011,238.143997,-468.480011
915.487976,244.000000,-468.480011
911.583984,240.095993,-470.432007
915.487976,244.000000,-472.384003
921.343994,238.143997,-468.480011
929.151978,244.000000,-466.528015
925.247986,238.143997,-464.575989
919.392029,249.856003,-468.480011
917.440002,245.951996,-460.671997
919.392029,238.143997,-466.528015
921.343994,244.000000,-468.480011
927.200012,247.904007,-466.528015
919.392029,240.095993,-464.575989
921.343994,251.807999,-464.575989
919.392029,244.000000,-470.432007
925.247986,234.240005,-466.528015
938.911987,242.048004,-466.528015
936.960022,244.000000,-458.720001
936.960022,245.951996,-452.864014
923.296021,245.951996,-458.720001
919.392029,247.904007,-448.959991
931.104004,245.951996,-458.720001
931.104004,251.807999,-466.528015
940.864014,245.951996,-478.239990
938.911987,242.048004,-476.287994
921.343994,242.048004,-470.432007
927.200012,249.856003,-464.575989
915.487976,247.904007,-468.480011
917.440002,255.712006,-466.528015
925.247986,249.856003,-466.528015
919.392029,249.856003,-472.384003
927.200012,251.807999,-466.528015
927.200012,249.856003,-474.335999
925.247986,257.664001,-466.528015
923.296021,255.712006,-464.575989
915.487976,247.904007,-470.432007
919.392029,265.471985,-464.575989
919.392029,257.664001,-464.575989
923.296021,255.712006,-468.480011
909.632019,263.519989,-464.575989
911.583984,261.567993,-468.480011
907.679993,251.807999,-466.528015
911.583984,261.567993,-468.480011
917.440002,267.424011,-472.384003
919.392029,265.471985,-460.671997
913.536011,261.567993,-464.575989
909.632019,265.471985,-458.720001
915.487976,269.376007,-460.671997
923.296021,273.279999,-456.768005
919.392029,271.328003,-460.671997
909.632019,277.183990,-466.528015
909.632019,284.992004,-464.575989
919.392029,290.847992,-470.432007
913.536011,281.088013,-460.671997
905.728027,286.944000,-464.575989
911.583984,279.135986,-450.911987
903.776001,288.895996,-452.864014
903.776001,284.992004,-448.959991
909.632019,284.992004,-452.864014
913.536011,290.847992,-452.864014
911.583984,286.944000,-447.007996
907.679993,292.799988,-447.007996
903.776001,300.608002,-452.864014
909.632019,286.944000,-450.911987
901.823975,288.895996,-448.959991
903.776001,302.559998,-445.056000
890.112000,298.656006,-448.959991
897.919983,302.559998,-441.152008
901.823975,300.608002,-443.104004
892.064026,302.559998,-448.959991
895.968018,294.752014,-447.007996
897.919983,306.463989,-445.056000
888.159973,300.608002,-443.104004
892.064026,302.559998,-441.152008
886.208008,298.656006,-435.295990
886.208008,292.799988,-433.343994
882.304016,298.656006,-435.295990
884.255981,294.752014,-435.295990
874.495972,294.752014,-439.200012
880.351990,294.752014,-435.295990
870.591980,288.895996,-425.536011
870.591980,292.799988,-437.247986
878.400024,290.847992,-429.440002
878.400024,284.992004,-421.631989
876.447998,290.847992,-423.584015
868.640015,290.847992,-417.727997
866.687988,290.847992,-419.679993
858.880005,284.992004,-421.631989
872.544006,284.992004,-429.440002
851.072021,283.040009,-419.679993
864.736023,277.183990,-415.776001
854.976013,273.279999,-423.584015
849.119995,271.328003,-411.872009
851.072021,271.328003,-419.679993
847.168030,275.231995,-411.872009
847.168030,275.231995,-407.967987
851.072021,261.567993,-409.920013
845.216003,267.424011,-411.872009
847.168030,267.424011,-407.967987
839.359985,255.712006,-411.872009
831.552002,251.807999,-406.015991
829.599976,245.951996,-392.351990
825.695984,251.807999,-400.160004
835.455994,245.951996,-402.112000
833.504028,232.287994,-396.256012
825.695984,234.240005,-396.256012
821.791992,232.287994,-394.303986
815.935974,230.335999,-396.256012
819.840027,220.576004,-394.303986
815.935974,222.528000,-390.399994
815.935974,218.623993,-398.208008
812.031982,220.576004,-388.447998
812.031982,204.960007,-378.687988
815.935974,216.671997,-378.687988
806.176025,199.104004,-380.640015
810.080017,201.056000,-386.496002
802.271973,201.056000,-380.640015
794.463989,204.960007,-374.783997
780.799988,199.104004,-378.687988
788.607971,193.248001,-376.735992
794.463989,187.391998,-378.687988
780.799988,183.488007,-378.687988
784.703979,185.440002,-382.592010
782.752014,179.584000,-378.687988
786.656006,187.391998,-382.592010
772.992004,189.343994,-378.687988
780.799988,183.488007,-376.735992
786.656006,187.391998,-365.023987
786.656006,167.871994,-372.832001
790.559998,177.632004,-365.023987
790.559998,165.919998,-353.312012
792.512024,171.776001,-357.216003
786.656006,179.584000,-357.216003
788.607971,173.727997,-351.359985
780.799988,163.968002,-351.359985
790.559998,167.871994,-353.312012
788.607971,158.112000,-355.264008
796.416016,160.063995,-363.071991
806.176025,160.063995,-359.167999
788.607971,158.112000,-359.167999
796.416016,154.207993,-341.600006
796.416016,154.207993,-339.648010
790.559998,146.399994,-335.743988
790.559998,140.544006,-331.839996
802.271973,150.304001,-337.696014
806.176025,142.496002,-347.455994
800.320007,146.399994,-337.696014
802.271973,150.304001,-331.839996
796.416016,142.496002,-335.743988
796.416016,144.447998,-337.696014
806.176025,148.352005,-343.552002
796.416016,136.639999,-335.743988
792.512024,132.735992,-327.936005
790.559998,138.591995,-333.791992
782.752014,132.735992,-327.936005
790.559998,119.071999,-325.984009
796.416016,136.639999,-333.791992
800.320007,119.071999,-327.936005
804.223999,142.496002,-325.984009
788.607971,140.544006,-329.888000
790.559998,150.304001,-324.032013
786.656006,136.639999,-314.272003
796.416016,142.496002,-325.984009
794.463989,142.496002,-335.743988
790.559998,134.688004,-322.079987
796.416016,142.496002,-320.127991
788.607971,130.783997,-320.127991
786.656006,144.447998,-314.272003
786.656006,136.639999,-316.223999
778.848022,134.688004,-324.032013
774.943970,134.688004,-339.648010
780.799988,121.024002,-347.455994
790.559998,117.120003,-355.264008
806.176025,124.928001,-343.552002
806.176025,134.688004,-324.032013
800.320007,138.591995,-310.368011
804.223999,142.496002,-294.752014
796.416016,146.399994,-302.559998
796.416016,148.352005,-310.368011
804.223999,146.399994,-318.175995
800.320007,150.304001,-339.648010
810.080017,158.112000,-355.264008
802.271973,150.304001,-339.648010
804.223999,148.352005,-333.791992
806.176025,136.639999,-325.984009
796.416016,156.160004,-316.223999
804.223999,136.639999,-304.511993
810.080017,140.544006,-318.175995
810.080017,146.399994,-322.079987
821.791992,154.207993,-327.936005
815.935974,150.304001,-308.415985
810.080017,146.399994,-312.320007
794.463989,158.112000,-320.127991
798.367981,173.727997,-320.127991
794.463989,154.207993,-325.984009
802.271973,165.919998,-331.839996
800.320007,167.871994,-349.407990
798.367981,162.016006,-339.648010
792.512024,158.112000,-333.791992
790.559998,154.207993,-324.032013
802.271973,156.160004,-316.223999
804.223999,158.112000,-308.415985
804.223999,165.919998,-320.127991
810.080017,177.632004,-308.415985
810.080017,185.440002,-316.223999
806.176025,187.391998,-327.936005
810.080017,187.391998,-329.888000
796.416016,195.199997,-335.743988
800.320007,187.391998,-339.648010
800.320007,208.863998,-337.696014
798.367981,181.535995,-337.696014
796.416016,203.007996,-327.936005
796.416016,199.104004,-341.600006
808.127991,204.960007,-339.648010
808.127991,195.199997,-329.888000
806.176025,206.912003,-327.936005
806.176025,203.007996,-318.175995
808.127991,212.768005,-320.127991
806.176025,218.623993,-329.888000
804.223999,224.479996,-337.696014
800.320007,228.384003,-337.696014
806.176025,242.048004,-337.696014
804.223999,222.528000,-339.648010
798.367981,228.384003,-347.455994
800.320007,232.287994,-351.359985
802.271973,228.384003,-335.743988
798.367981,224.479996,-333.791992
802.271973,224.479996,-335.743988
808.127991,228.384003,-320.127991
806.176025,222.528000,-318.175995
798.367981,240.095993,-306.463989
788.607971,244.000000,-314.272003
794.463989,245.951996,-318.175995
800.320007,247.904007,-333.791992
802.271973,242.048004,-341.600006
796.416016,245.951996,-345.503998
