ACC_X,ACC_Y,ACC_Z
726.143982,431.391998,538.752014
732.000000,433.343994,528.992004
735.903992,429.440002,536.799988
724.192017,427.488007,536.799988
726.143982,427.488007,538.752014
730.047974,439.200012,538.752014
739.807983,435.295990,528.992004
732.000000,433.343994,536.799988
733.952026,433.343994,534.848022
730.047974,433.343994,538.752014
726.143982,437.247986,534.848022
733.952026,441.152008,540.703979
735.903992,439.200012,534.848022
737.856018,435.295990,540.703979
735.903992,439.200012,536.799988
733.952026,439.200012,534.848022
732.000000,433.343994,536.799988
733.952026,441.152008,534.848022
743.711975,437.247986,540.703979
739.807983,443.104004,542.656006
730.047974,437.247986,536.799988
739.807983,435.295990,528.992004
737.856018,439.200012,538.752014
743.711975,437.247986,540.703979
743.711975,437.247986,540.703979
741.760010,435.295990,540.703979
743.711975,437.247986,540.703979
741.760010,443.104004,536.799988
741.760010,437.247986,540.703979
733.952026,437.247986,538.752014
747.616028,429.440002,540.703979
739.807983,437.247986,527.039978
741.760010,433.343994,532.895996
749.567993,435.295990,534.848022
755.424011,429.440002,538.752014
739.807983,443.104004,536.799988
730.047974,427.488007,548.512024
747.616028,425.536011,546.559998
745.664001,433.343994,534.848022
747.616028,431.391998,546.559998
741.760010,419.679993,548.512024
743.711975,431.391998,534.848022
745.664001,435.295990,534.848022
745.664001,433.343994,534.848022
747.616028,429.440002,540.703979
749.567993,431.391998,542.656006
751.520020,427.488007,546.559998
747.616028,431.391998,542.656006
741.760010,431.391998,554.367981
745.664001,417.727997,548.512024
749.567993,429.440002,546.559998
749.567993,427.488007,550.463989
753.471985,423.584015,556.320007
743.711975,417.727997,554.367981
747.616028,423.584015,548.512024
749.567993,419.679993,550.463989
745.664001,429.440002,556.320007
749.567993,427.488007,556.320007
751.520020,431.391998,550.463989
747.616028,429.440002,546.559998
743.711975,433.343994,554.367981
747.616028,429.440002,554.367981
745.664001,429.440002,564.127991
751.520020,435.295990,556.320007
747.616028,429.440002,554.367981
741.760010,431.391998,560.223999
753.471985,433.343994,562.176025
741.760010,427.488007,560.223999
745.664001,433.343994,558.271973
749.567993,433.343994,558.271973
741.760010,429.440002,554.367981
753.471985,433.343994,554.367981
751.520020,433.343994,560.223999
737.856018,421.631989,556.320007
745.664001,439.200012,556.320007
737.856018,439.200012,562.176025
753.471985,431.391998,562.176025
751.520020,431.391998,556.320007
739.807983,439.200012,552.416016
741.760010,429.440002,560.223999
747.616028,435.295990,546.559998
751.520020,427.488007,552.416016
745.664001,429.440002,554.367981
749.567993,429.440002,546.559998
751.520020,429.440002,560.223999
745.664001,435.295990,554.367981
745.664001,435.295990,554.367981
751.520020,439.200012,558.271973
747.616028,425.536011,552.416016
751.520020,425.536011,558.271973
745.664001,429.440002,554.367981
753.471985,435.295990,558.271973
751.520020,433.343994,558.271973
755.424011,433.343994,550.463989
745.664001,433.343994,554.367981
759.328003,433.343994,550.463989
751.520020,437.247986,550.463989
749.567993,439.200012,560.223999
753.471985,433.343994,558.271973
755.424011,443.104004,552.416016
759.328003,433.343994,562.176025
755.424011,443.104004,554.367981
751.520020,439.200012,554.367981
759.328003,443.104004,560.223999
749.567993,441.152008,560.223999
755.424011,435.295990,562.176025
755.424011,443.104004,554.367981
745.664001,441.152008,560.223999
757.375977,443.104004,566.080017
747.616028,437.247986,566.080017
751.520020,429.440002,564.127991
753.471985,439.200012,564.127991
757.375977,429.440002,556.320007
753.471985,431.391998,558.271973
749.567993,433.343994,571.935974
749.567993,425.536011,571.935974
751.520020,427.488007,558.271973
747.616028,427.488007,560.223999
753.471985,431.391998,562.176025
753.471985,431.391998,558.271973
753.471985,435.295990,556.320007
755.424011,425.536011,568.031982
751.520020,427.488007,566.080017
751.520020,431.391998,554.367981
741.760010,431.391998,566.080017
755.424011,421.631989,560.223999
759.328003,431.391998,556.320007
751.520020,427.488007,554.367981
753.471985,427.488007,546.559998
757.375977,433.343994,560.223999
757.375977,421.631989,554.367981
751.520020,431.391998,556.320007
753.471985,435.295990,554.367981
761.280029,427.488007,550.463989
757.375977,425.536011,554.367981
743.711975,421.631989,556.320007
759.328003,425.536011,556.320007
753.471985,435.295990,554.367981
745.664001,427.488007,560.223999
751.520020,431.391998,554.367981
763.231995,435.295990,556.320007
759.328003,435.295990,556.320007
759.328003,431.391998,562.176025
761.280029,435.295990,558.271973
761.280029,437.247986,556.320007
759.328003,435.295990,562.176025
757.375977,433.343994,556.320007
769.088013,441.152008,560.223999
761.280029,435.295990,556.320007
763.231995,429.440002,556.320007
755.424011,443.104004,564.127991
759.328003,435.295990,556.320007
755.424011,443.104004,554.367981
757.375977,443.104004,558.271973
757.375977,445.056000,566.080017
753.471985,433.343994,558.271973
763.231995,443.104004,554.367981
759.328003,437.247986,556.320007
757.375977,443.104004,554.367981
757.375977,450.911987,552.416016
761.280029,450.911987,558.271973
763.231995,450.911987,552.416016
759.328003,443.104004,558.271973
755.424011,441.152008,562.176025
763.231995,441.152008,554.367981
763.231995,447.007996,554.367981
757.375977,443.104004,556.320007
757.375977,445.056000,564.127991
761.280029,443.104004,554.367981
765.184021,445.056000,548.512024
769.088013,448.959991,556.320007
757.375977,454.816010,564.127991
757.375977,454.816010,554.367981
761.280029,456.768005,558.271973
761.280029,454.816010,558.271973
771.039978,456.768005,562.176025
763.231995,456.768005,560.223999
765.184021,462.623993,558.271973
761.280029,454.816010,560.223999
763.231995,456.768005,560.223999
771.039978,462.623993,556.320007
757.375977,462.623993,556.320007
772.992004,456.768005,564.127991
765.184021,462.623993,556.320007
771.039978,462.623993,564.127991
771.039978,460.671997,560.223999
765.184021,466.528015,552.416016
771.039978,468.480011,556.320007
771.039978,468.480011,562.176025
765.184021,464.575989,558.271973
772.992004,466.528015,558.271973
774.943970,472.384003,560.223999
771.039978,464.575989,560.223999
771.039978,468.480011,562.176025
772.992004,470.432007,560.223999
774.943970,472.384003,562.176025
774.943970,484.096008,556.320007
769.088013,476.287994,554.367981
765.184021,488.000000,556.320007
782.752014,464.575989,554.367981
774.943970,466.528015,564.127991
778.848022,478.239990,558.271973
774.943970,478.239990,558.271973
772.992004,472.384003,562.176025
780.799988,474.335999,554.367981
782.752014,460.671997,560.223999
776.895996,466.528015,564.127991
784.703979,468.480011,568.031982
772.992004,476.287994,568.031982
782.752014,470.432007,564.127991
790.559998,468.480011,560.223999
780.799988,464.575989,569.984009
782.752014,474.335999,569.984009
788.607971,474.335999,566.080017
780.799988,478.239990,566.080017
776.895996,474.335999,569.984009
782.752014,468.480011,569.984009
786.656006,466.528015,571.935974
776.895996,470.432007,571.935974
778.848022,472.384003,568.031982
774.943970,472.384003,562.176025
772.992004,470.432007,566.080017
782.752014,474.335999,560.223999
771.039978,468.480011,560.223999
782.752014,470.432007,564.127991
776.895996,470.432007,564.127991
774.943970,468.480011,558.271973
769.088013,476.287994,556.320007
772.992004,474.335999,568.031982
771.039978,472.384003,556.320007
767.135986,478.239990,546.559998
761.280029,478.239990,558.271973
772.992004,464.575989,554.367981
765.184021,466.528015,564.127991
774.943970,472.384003,556.320007
782.752014,466.528015,558.271973
776.895996,466.528015,554.367981
782.752014,466.528015,562.176025
788.607971,458.720001,560.223999
784.703979,470.432007,566.080017
790.559998,466.528015,558.271973
782.752014,456.768005,569.984009
784.703979,462.623993,568.031982
786.656006,464.575989,562.176025
782.752014,468.480011,568.031982
780.799988,468.480011,571.935974
782.752014,476.287994,575.840027
786.656006,470.432007,568.031982
778.848022,470.432007,566.080017
782.752014,460.671997,558.271973
786.656006,464.575989,569.984009
780.799988,468.480011,564.127991
776.895996,474.335999,568.031982
780.799988,468.480011,564.127991
780.799988,464.575989,566.080017
772.992004,464.575989,560.223999
772.992004,464.575989,564.127991
778.848022,470.432007,558.271973
771.039978,472.384003,564.127991
771.039978,466.528015,558.271973
774.943970,476.287994,564.127991
771.039978,470.432007,564.127991
761.280029,476.287994,554.367981
767.135986,482.144012,564.127991
765.184021,460.671997,558.271973
761.280029,482.144012,554.367981
763.231995,486.048004,554.367981
749.567993,476.287994,552.416016
759.328003,491.903992,556.320007
751.520020,493.855988,558.271973
751.520020,493.855988,550.463989
753.471985,489.951996,556.320007
741.760010,472.384003,556.320007
743.711975,484.096008,556.320007
737.856018,484.096008,550.463989
739.807983,489.951996,560.223999
730.047974,480.191986,558.271973
730.047974,480.191986,554.367981
726.143982,480.191986,554.367981
726.143982,497.760010,550.463989
728.096008,489.951996,550.463989
726.143982,488.000000,564.127991
718.335999,486.048004,552.416016
722.239990,493.855988,558.271973
718.335999,489.951996,556.320007
722.239990,488.000000,556.320007
726.143982,486.048004,546.559998
718.335999,486.048004,552.416016
716.383972,491.903992,554.367981
722.239990,491.903992,556.320007
720.288025,493.855988,560.223999
716.383972,488.000000,544.607971
714.432007,489.951996,560.223999
716.383972,491.903992,558.271973
716.383972,482.144012,550.463989
718.335999,482.144012,558.271973
724.192017,480.191986,560.223999
718.335999,472.384003,562.176025
722.239990,482.144012,571.935974
720.288025,474.335999,569.984009
720.288025,468.480011,575.840027
720.288025,486.048004,575.840027
720.288025,482.144012,581.695984
714.432007,480.191986,575.840027
714.432007,486.048004,571.935974
720.288025,484.096008,583.648010
720.288025,488.000000,581.695984
714.432007,482.144012,587.552002
716.383972,480.191986,581.695984
706.624023,480.191986,585.599976
714.432007,488.000000,583.648010
706.624023,489.951996,581.695984
706.624023,486.048004,571.935974
702.719971,480.191986,577.791992
702.719971,489.951996,579.744019
702.719971,480.191986,569.984009
700.768005,474.335999,568.031982
702.719971,488.000000,562.176025
689.056030,493.855988,569.984009
681.247986,491.903992,575.840027
685.151978,489.951996,564.127991
685.151978,488.000000,571.935974
679.296021,486.048004,562.176025
683.200012,497.760010,554.367981
677.343994,486.048004,568.031982
669.536011,480.191986,554.367981
679.296021,495.808014,564.127991
679.296021,488.000000,566.080017
683.200012,488.000000,560.223999
675.392029,476.287994,571.935974
673.440002,489.951996,569.984009
673.440002,484.096008,569.984009
659.776001,489.951996,571.935974
659.776001,489.951996,564.127991
667.583984,486.048004,558.271973
671.487976,488.000000,550.463989
669.536011,484.096008,546.559998
675.392029,484.096008,550.463989
665.632019,482.144012,546.559998
673.440002,472.384003,538.752014
675.392029,472.384003,542.656006
673.440002,472.384003,548.512024
671.487976,474.335999,556.320007
667.583984,472.384003,540.703979
667.583984,464.575989,556.320007
665.632019,476.287994,554.367981
671.487976,491.903992,556.320007
663.679993,482.144012,554.367981
681.247986,480.191986,562.176025
671.487976,497.760010,573.888000
675.392029,468.480011,575.840027
677.343994,470.432007,569.984009
677.343994,484.096008,583.648010
685.151978,480.191986,573.888000
687.104004,486.048004,581.695984
683.200012,488.000000,577.791992
679.296021,488.000000,562.176025
683.200012,488.000000,562.176025
685.151978,493.855988,571.935974
681.247986,493.855988,566.080017
683.200012,491.903992,562.176025
685.151978,488.000000,571.935974
677.343994,482.144012,579.744019
694.911987,489.951996,568.031982
687.104004,489.951996,571.935974
696.864014,472.384003,571.935974
691.007996,482.144012,564.127991
692.960022,482.144012,566.080017
691.007996,484.096008,564.127991
692.960022,476.287994,560.223999
704.671997,484.096008,558.271973
694.911987,488.000000,581.695984
704.671997,501.664001,587.552002
692.960022,476.287994,593.408020
694.911987,486.048004,585.599976
698.815979,480.191986,591.455994
694.911987,480.191986,591.455994
696.864014,493.855988,587.552002
692.960022,497.760010,571.935974
702.719971,470.432007,575.840027
696.864014,484.096008,564.127991
694.911987,505.567993,560.223999
691.007996,489.951996,558.271973
689.056030,478.239990,571.935974
692.960022,501.664001,568.031982
685.151978,501.664001,568.031982
675.392029,489.951996,568.031982
685.151978,495.808014,566.080017
679.296021,495.808014,554.367981
671.487976,501.664001,554.367981
683.200012,493.855988,554.367981
685.151978,489.951996,558.271973
677.343994,503.615997,564.127991
681.247986,507.519989,560.223999
669.536011,482.144012,552.416016
673.440002,489.951996,560.223999
675.392029,497.760010,558.271973
673.440002,472.384003,558.271973
673.440002,484.096008,556.320007
663.679993,489.951996,544.607971
673.440002,474.335999,548.512024
669.536011,480.191986,546.559998
665.632019,480.191986,534.848022
655.872009,488.000000,540.703979
659.776001,482.144012,534.848022
651.968018,478.239990,530.943970
657.823975,476.287994,538.752014
655.872009,488.000000,534.848022
648.064026,462.623993,532.895996
653.919983,452.864014,530.943970
653.919983,474.335999,536.799988
657.823975,458.720001,538.752014
653.919983,450.911987,536.799988
655.872009,466.528015,540.703979
650.015991,458.720001,546.559998
659.776001,443.104004,550.463989
648.064026,445.056000,542.656006
659.776001,445.056000,544.607971
657.823975,445.056000,536.799988
653.919983,448.959991,540.703979
659.776001,443.104004,536.799988
657.823975,441.152008,534.848022
665.632019,445.056000,532.895996
661.728027,443.104004,532.895996
659.776001,443.104004,530.943970
655.872009,437.247986,540.703979
659.776001,441.152008,546.559998
653.919983,425.536011,540.703979
661.728027,429.440002,550.463989
659.776001,433.343994,546.559998
655.872009,433.343994,548.512024
657.823975,423.584015,544.607971
659.776001,421.631989,552.416016
655.872009,427.488007,542.656006
659.776001,413.824005,550.463989
673.440002,409.920013,558.271973
663.679993,411.872009,566.080017
669.536011,406.015991,562.176025
663.679993,411.872009,566.080017
663.679993,398.208008,566.080017
659.776001,394.303986,568.031982
669.536011,390.399994,566.080017
671.487976,386.496002,569.984009
673.440002,396.256012,568.031982
667.583984,394.303986,562.176025
661.728027,384.544006,566.080017
663.679993,386.496002,571.935974
665.632019,378.687988,571.935974
659.776001,384.544006,581.695984
663.679993,378.687988,583.648010
659.776001,380.640015,579.744019
667.583984,370.880005,581.695984
671.487976,363.071991,581.695984
681.247986,359.167999,579.744019
675.392029,376.735992,569.984009
675.392029,361.119995,568.031982
671.487976,359.167999,573.888000
679.296021,353.312012,568.031982
675.392029,365.023987,558.271973
671.487976,365.023987,568.031982
659.776001,366.976013,564.127991
659.776001,374.783997,564.127991
665.632019,376.735992,558.271973
659.776001,357.216003,564.127991
663.679993,357.216003,566.080017
671.487976,349.407990,556.320007
661.728027,351.359985,554.367981
661.728027,357.216003,568.031982
669.536011,341.600006,556.320007
691.007996,292.799988,562.176025
784.703979,251.807999,591.455994
698.815979,392.351990,620.736023
671.487976,470.432007,671.487976
698.815979,353.312012,702.719971
681.247986,220.576004,726.143982
739.807983,261.567993,749.567993
751.520020,261.567993,774.943970
767.135986,292.799988,771.039978
683.200012,306.463989,769.088013
673.440002,300.608002,765.184021
700.768005,320.127991,751.520020
825.695984,388.447998,743.711975
794.463989,376.735992,765.184021
841.312012,343.552002,790.559998
784.703979,325.984009,812.031982
772.992004,335.743988,839.359985
706.624023,357.216003,849.119995
679.296021,392.351990,847.168030
735.903992,400.160004,833.504028
761.280029,370.880005,808.127991
722.239990,337.696014,790.559998
478.239990,107.360001,757.375977
733.952026,130.783997,673.440002
687.104004,187.391998,622.687988
739.807983,343.552002,575.840027
689.056030,345.503998,542.656006
692.960022,400.160004,536.799988
636.351990,437.247986,528.992004
610.976013,466.528015,509.471985
607.072021,439.200012,488.000000
712.479980,351.359985,482.144012
651.968018,181.535995,484.096008
694.911987,138.591995,501.664001
700.768005,132.735992,519.231995
663.679993,154.207993,542.656006
663.679993,203.007996,569.984009
642.208008,236.192001,593.408020
607.072021,247.904007,612.927979
622.687988,234.240005,616.831970
618.783997,208.863998,609.023987
609.023987,162.016006,597.312012
616.831970,134.688004,601.216003
618.783997,122.975998,603.168030
626.591980,121.024002,595.359985
620.736023,122.975998,591.455994
632.447998,130.783997,595.359985
636.351990,105.407997,585.599976
636.351990,91.744003,591.455994
636.351990,81.984001,581.695984
628.544006,72.223999,589.504028
653.919983,70.272003,587.552002
646.112000,62.464001,587.552002
646.112000,48.799999,587.552002
650.015991,7.808000,589.504028
663.679993,-40.992001,589.504028
667.583984,-119.071999,591.455994
681.247986,-228.384003,587.552002
691.007996,-298.656006,585.599976
716.383972,-380.640015,581.695984
726.143982,-454.816010,581.695984
685.151978,-462.623993,589.504028
519.231995,72.223999,610.976013
532.895996,724.192017,661.728027
527.039978,681.247986,655.872009
509.471985,409.920013,601.216003
550.463989,517.280029,569.984009
573.888000,712.479980,591.455994
544.607971,638.304016,562.176025
577.791992,552.416016,527.039978
581.695984,685.151978,525.088013
564.127991,837.408020,528.992004
568.031982,854.976013,491.903992
566.080017,854.976013,472.384003
566.080017,923.296021,472.384003
589.504028,936.960022,482.144012
573.888000,796.416016,484.096008
610.976013,476.287994,486.048004
607.072021,290.847992,484.096008
610.976013,443.104004,493.855988
593.408020,579.744019,499.712006
599.263977,515.328003,505.567993
587.552002,407.967987,499.712006
569.984009,443.104004,505.567993
571.935974,488.000000,503.615997
573.888000,491.903992,493.855988
575.840027,445.056000,484.096008
573.888000,429.440002,486.048004
571.935974,447.007996,489.951996
575.840027,445.056000,482.144012
579.744019,431.391998,476.287994
579.744019,400.160004,466.528015
571.935974,366.976013,456.768005
577.791992,353.312012,458.720001
581.695984,331.839996,452.864014
569.984009,292.799988,454.816010
573.888000,244.000000,452.864014
577.791992,228.384003,450.911987
568.031982,208.863998,458.720001
573.888000,177.632004,454.816010
577.791992,148.352005,448.959991
581.695984,148.352005,448.959991
583.648010,128.832001,448.959991
585.599976,105.407997,445.056000
595.359985,109.311996,452.864014
593.408020,91.744003,450.911987
591.455994,85.888000,448.959991
591.455994,87.839996,448.959991
597.312012,89.792000,445.056000
605.119995,91.744003,443.104004
599.263977,105.407997,441.152008
597.312012,111.264000,447.007996
599.263977,128.832001,447.007996
622.687988,132.735992,450.911987
618.783997,165.919998,462.623993
620.736023,179.584000,470.432007
632.447998,199.104004,484.096008
650.015991,236.192001,507.519989
653.919983,261.567993,528.992004
665.632019,286.944000,564.127991
675.392029,322.079987,577.791992
679.296021,355.264008,605.119995
700.768005,372.832001,609.023987
702.719971,384.544006,634.400024
710.528015,398.208008,646.112000
720.288025,404.063995,648.064026
722.239990,413.824005,653.919983
728.096008,398.208008,661.728027
732.000000,386.496002,655.872009
737.856018,361.119995,665.632019
732.000000,341.600006,661.728027
741.760010,308.415985,651.968018
737.856018,281.088013,644.159973
739.807983,253.759995,642.208008
735.903992,234.240005,634.400024
732.000000,199.104004,620.736023
735.903992,189.343994,618.783997
730.047974,177.632004,612.927979
732.000000,175.679993,610.976013
722.239990,177.632004,605.119995
726.143982,189.343994,599.263977
732.000000,203.007996,603.168030
730.047974,218.623993,612.927979
739.807983,247.904007,605.119995
741.760010,265.471985,610.976013
741.760010,292.799988,614.880005
749.567993,314.272003,612.927979
747.616028,316.223999,618.783997
767.135986,341.600006,632.447998
761.280029,347.455994,642.208008
774.943970,343.552002,642.208008
782.752014,337.696014,650.015991
790.559998,331.839996,657.823975
792.512024,333.791992,663.679993
786.656006,310.368011,665.632019
790.559998,292.799988,667.583984
796.416016,290.847992,659.776001
790.559998,286.944000,657.823975
794.463989,269.376007,653.919983
802.271973,257.664001,636.351990
792.512024,251.807999,636.351990
784.703979,263.519989,634.400024
788.607971,257.664001,628.544006
784.703979,259.615997,626.591980
780.799988,286.944000,614.880005
794.463989,296.704010,607.072021
776.895996,300.608002,605.119995
790.559998,302.559998,614.880005
780.799988,314.272003,607.072021
780.799988,318.175995,607.072021
784.703979,327.936005,614.880005
786.656006,329.888000,616.831970
790.559998,337.696014,618.783997
790.559998,324.032013,616.831970
788.607971,329.888000,626.591980
788.607971,318.175995,628.544006
790.559998,312.320007,630.495972
780.799988,314.272003,618.783997
776.895996,302.559998,616.831970
778.848022,296.704010,616.831970
772.992004,284.992004,607.072021
769.088013,283.040009,605.119995
761.280029,286.944000,593.408020
769.088013,294.752014,585.599976
767.135986,306.463989,583.648010
763.231995,314.272003,569.984009
761.280029,314.272003,569.984009
757.375977,324.032013,566.080017
759.328003,325.984009,566.080017
753.471985,337.696014,560.223999
753.471985,339.648010,564.127991
759.328003,345.503998,575.840027
757.375977,345.503998,573.888000
765.184021,341.600006,569.984009
757.375977,351.359985,583.648010
757.375977,351.359985,583.648010
757.375977,345.503998,579.744019
747.616028,345.503998,587.552002
759.328003,351.359985,587.552002
757.375977,349.407990,575.840027
751.520020,349.407990,579.744019
757.375977,345.503998,575.840027
755.424011,339.648010,569.984009
755.424011,349.407990,571.935974
749.567993,345.503998,562.176025
741.760010,343.552002,542.656006
747.616028,351.359985,550.463989
749.567993,361.119995,552.416016
735.903992,368.928009,552.416016
745.664001,361.119995,550.463989
749.567993,359.167999,552.416016
759.328003,368.928009,550.463989
753.471985,370.880005,552.416016
749.567993,374.783997,546.559998
759.328003,380.640015,556.320007
753.471985,376.735992,560.223999
765.184021,372.832001,568.031982
771.039978,372.832001,568.031982
771.039978,370.880005,564.127991
776.895996,374.783997,573.888000
772.992004,370.880005,575.840027
765.184021,376.735992,571.935974
772.992004,372.832001,571.935974
776.895996,374.783997,564.127991
776.895996,370.880005,564.127991
784.703979,376.735992,566.080017
774.943970,388.447998,562.176025
782.752014,382.592010,566.080017
784.703979,376.735992,564.127991
790.559998,382.592010,556.320007
788.607971,386.496002,566.080017
786.656006,388.447998,554.367981
794.463989,382.592010,564.127991
788.607971,394.303986,558.271973
804.223999,404.063995,560.223999
794.463989,394.303986,554.367981
788.607971,402.112000,562.176025
792.512024,394.303986,564.127991
796.416016,394.303986,568.031982
794.463989,382.592010,568.031982
798.367981,392.351990,564.127991
800.320007,394.303986,554.367981
800.320007,388.447998,564.127991
800.320007,394.303986,558.271973
796.416016,394.303986,560.223999
792.512024,398.208008,550.463989
798.367981,400.160004,552.416016
796.416016,404.063995,560.223999
796.416016,404.063995,554.367981
810.080017,419.679993,550.463989
808.127991,411.872009,538.752014
806.176025,415.776001,550.463989
810.080017,417.727997,550.463989
804.223999,423.584015,548.512024
800.320007,417.727997,556.320007
808.127991,417.727997,558.271973
804.223999,427.488007,558.271973
808.127991,425.536011,546.559998
808.127991,419.679993,552.416016
808.127991,423.584015,548.512024
804.223999,425.536011,548.512024
806.176025,425.536011,544.607971
798.367981,423.584015,534.848022
800.320007,427.488007,536.799988
800.320007,435.295990,538.752014
800.320007,427.488007,538.752014
806.176025,433.343994,534.848022
800.320007,433.343994,527.039978
802.271973,435.295990,534.848022
804.223999,437.247986,538.752014
806.176025,429.440002,542.656006
802.271973,439.200012,540.703979
808.127991,441.152008,532.895996
796.416016,441.152008,542.656006
806.176025,447.007996,550.463989
819.840027,429.440002,538.752014
806.176025,443.104004,544.607971
806.176025,443.104004,546.559998
800.320007,452.864014,550.463989
802.271973,454.816010,538.752014
808.127991,456.768005,540.703979
800.320007,448.959991,538.752014
798.367981,452.864014,530.943970
806.176025,454.816010,534.848022
804.223999,452.864014,521.184021
798.367981,458.720001,538.752014
802.271973,456.768005,525.088013
804.223999,454.816010,519.231995
804.223999,460.671997,523.135986
796.416016,468.480011,525.088013
802.271973,464.575989,532.895996
792.512024,476.287994,534.848022
792.512024,478.239990,532.895996
790.559998,468.480011,528.992004
788.607971,474.335999,536.799988
788.607971,478.239990,534.848022
792.512024,476.287994,534.848022
800.320007,486.048004,527.039978
794.463989,480.191986,528.992004
794.463989,480.191986,523.135986
798.367981,482.144012,523.135986
788.607971,493.855988,530.943970
786.656006,489.951996,536.799988
794.463989,486.048004,528.992004
792.512024,488.000000,532.895996
790.559998,488.000000,528.992004
788.607971,480.191986,527.039978
788.607971,491.903992,536.799988
788.607971,488.000000,527.039978
784.703979,489.951996,527.039978
780.799988,484.096008,527.039978
782.752014,486.048004,528.992004
782.752014,491.903992,530.943970
784.703979,486.048004,528.992004
778.848022,482.144012,530.943970
780.799988,478.239990,528.992004
780.799988,484.096008,528.992004
788.607971,478.239990,534.848022
790.559998,468.480011,525.088013
790.559998,468.480011,527.039978
792.512024,462.623993,532.895996
798.367981,472.384003,530.943970
788.607971,464.575989,538.752014
798.367981,466.528015,542.656006
790.559998,460.671997,540.703979
796.416016,456.768005,538.752014
808.127991,448.959991,544.607971
796.416016,460.671997,552.416016
794.463989,456.768005,550.463989
802.271973,452.864014,544.607971
804.223999,445.056000,548.512024
802.271973,443.104004,550.463989
810.080017,437.247986,540.703979
802.271973,448.959991,556.320007
796.416016,445.056000,552.416016
796.416016,429.440002,554.367981
794.463989,448.959991,558.271973
798.367981,441.152008,558.271973
792.512024,437.247986,554.367981
794.463989,450.911987,544.607971
798.367981,441.152008,550.463989
788.607971,441.152008,552.416016
792.512024,435.295990,552.416016
788.607971,443.104004,552.416016
786.656006,433.343994,542.656006
792.512024,443.104004,554.367981
790.559998,427.488007,546.559998
784.703979,431.391998,550.463989
778.848022,425.536011,542.656006
776.895996,425.536011,544.607971
782.752014,419.679993,536.799988
778.848022,425.536011,534.848022
765.184021,423.584015,538.752014
763.231995,423.584015,534.848022
763.231995,421.631989,538.752014
757.375977,415.776001,534.848022
751.520020,419.679993,534.848022
755.424011,425.536011,540.703979
747.616028,423.584015,538.752014
753.471985,417.727997,534.848022
747.616028,419.679993,525.088013
749.567993,411.872009,527.039978
743.711975,415.776001,528.992004
747.616028,409.920013,525.088013
739.807983,409.920013,528.992004
745.664001,409.920013,523.135986
737.856018,409.920013,525.088013
739.807983,411.872009,519.231995
720.288025,413.824005,517.280029
722.239990,407.967987,528.992004
732.000000,398.208008,528.992004
722.239990,409.920013,515.328003
728.096008,409.920013,521.184021
728.096008,404.063995,519.231995
730.047974,402.112000,519.231995
728.096008,404.063995,525.088013
730.047974,398.208008,525.088013
730.047974,394.303986,523.135986
730.047974,394.303986,519.231995
732.000000,384.544006,523.135986
730.047974,386.496002,527.039978
730.047974,388.447998,527.039978
722.239990,394.303986,530.943970
726.143982,392.351990,528.992004
735.903992,392.351990,523.135986
724.192017,386.496002,523.135986
732.000000,394.303986,530.943970
726.143982,384.544006,527.039978
730.047974,378.687988,536.799988
728.096008,382.592010,540.703979
728.096008,374.783997,530.943970
722.239990,378.687988,540.703979
722.239990,390.399994,534.848022
718.335999,378.687988,536.799988
726.143982,376.735992,544.607971
735.903992,386.496002,540.703979
726.143982,386.496002,540.703979
726.143982,370.880005,536.799988
730.047974,370.880005,528.992004
720.288025,363.071991,530.943970
722.239990,368.928009,528.992004
724.192017,384.544006,530.943970
728.096008,370.880005,540.703979
720.288025,368.928009,534.848022
732.000000,370.880005,536.799988
726.143982,366.976013,548.512024
726.143982,376.735992,538.752014
735.903992,378.687988,542.656006
739.807983,384.544006,544.607971
728.096008,372.832001,548.512024
726.143982,366.976013,548.512024
732.000000,374.783997,550.463989
728.096008,380.640015,544.607971
724.192017,374.783997,544.607971
732.000000,376.735992,542.656006
724.192017,376.735992,542.656006
735.903992,376.735992,544.607971
730.047974,376.735992,548.512024
737.856018,370.880005,542.656006
730.047974,370.880005,544.607971
724.192017,372.832001,544.607971
726.143982,366.976013,550.463989
730.047974,357.216003,552.416016
737.856018,365.023987,538.752014
739.807983,361.119995,530.943970
730.047974,355.264008,532.895996
724.192017,361.119995,534.848022
730.047974,359.167999,540.703979
732.000000,361.119995,528.992004
728.096008,361.119995,538.752014
730.047974,359.167999,534.848022
728.096008,363.071991,532.895996
733.952026,357.216003,540.703979
741.760010,361.119995,542.656006
732.000000,359.167999,546.559998
739.807983,353.312012,548.512024
743.711975,363.071991,552.416016
737.856018,353.312012,556.320007
739.807983,347.455994,540.703979
741.760010,349.407990,548.512024
745.664001,345.503998,546.559998
747.616028,335.743988,552.416016
741.760010,345.503998,554.367981
747.616028,343.552002,544.607971
747.616028,341.600006,546.559998
741.760010,339.648010,554.367981
743.711975,339.648010,552.416016
737.856018,345.503998,538.752014
735.903992,335.743988,542.656006
741.760010,337.696014,534.848022
745.664001,341.600006,540.703979
747.616028,333.791992,534.848022
741.760010,331.839996,552.416016
739.807983,324.032013,548.512024
741.760010,339.648010,534.848022
743.711975,337.696014,546.559998
737.856018,331.839996,552.416016
739.807983,331.839996,556.320007
741.760010,339.648010,554.367981
745.664001,329.888000,548.512024
739.807983,335.743988,554.367981
741.760010,333.791992,548.512024
741.760010,333.791992,542.656006
737.856018,337.696014,552.416016
741.760010,333.791992,554.367981
735.903992,337.696014,556.320007
741.760010,333.791992,562.176025
733.952026,320.127991,550.463989
733.952026,327.936005,552.416016
730.047974,329.888000,560.223999
735.903992,331.839996,552.416016
735.903992,329.888000,548.512024
732.000000,331.839996,550.463989
733.952026,314.272003,538.752014
732.000000,325.984009,544.607971
732.000000,325.984009,542.656006
735.903992,314.272003,538.752014
735.903992,312.320007,546.559998
728.096008,316.223999,550.463989
726.143982,318.175995,542.656006
728.096008,324.032013,552.416016
733.952026,316.223999,542.656006
730.047974,316.223999,552.416016
726.143982,320.127991,554.367981
720.288025,316.223999,546.559998
728.096008,314.272003,550.463989
726.143982,318.175995,554.367981
730.047974,318.175995,556.320007
722.239990,308.415985,558.271973
722.239990,316.223999,560.223999
720.288025,312.320007,556.320007
726.143982,314.272003,550.463989
728.096008,318.175995,546.559998
724.192017,310.368011,552.416016
714.432007,310.368011,564.127991
722.239990,304.511993,560.223999
722.239990,302.559998,554.367981
718.335999,312.320007,552.416016
714.432007,314.272003,554.367981
718.335999,298.656006,564.127991
718.335999,302.559998,556.320007
714.432007,306.463989,562.176025
710.528015,308.415985,558.271973
714.432007,308.415985,564.127991
708.575989,314.272003,562.176025
710.528015,308.415985,552.416016
700.768005,300.608002,556.320007
696.864014,300.608002,556.320007
712.479980,300.608002,552.416016
704.671997,298.656006,552.416016
712.479980,290.847992,556.320007
700.768005,298.656006,550.463989
706.624023,288.895996,548.512024
704.671997,290.847992,560.223999
698.815979,288.895996,560.223999
704.671997,290.847992,556.320007
700.768005,294.752014,564.127991
685.151978,284.992004,558.271973
694.911987,286.944000,564.127991
692.960022,290.847992,550.463989
691.007996,290.847992,546.559998
704.671997,288.895996,554.367981
700.768005,294.752014,552.416016
696.864014,290.847992,552.416016
694.911987,292.799988,554.367981
694.911987,296.704010,548.512024
692.960022,283.040009,546.559998
692.960022,284.992004,548.512024
683.200012,281.088013,548.512024
689.056030,284.992004,552.416016
685.151978,290.847992,548.512024
691.007996,288.895996,542.656006
685.151978,281.088013,546.559998
691.007996,284.992004,542.656006
683.200012,286.944000,538.752014
691.007996,281.088013,548.512024
689.056030,290.847992,544.607971
679.296021,281.088013,542.656006
685.151978,279.135986,544.607971
683.200012,281.088013,540.703979
687.104004,279.135986,544.607971
689.056030,279.135986,544.607971
689.056030,283.040009,528.992004
687.104004,279.135986,540.703979
687.104004,279.135986,542.656006
689.056030,275.231995,530.943970
683.200012,277.183990,532.895996
683.200012,277.183990,532.895996
685.151978,273.279999,532.895996
683.200012,273.279999,532.895996
696.864014,283.040009,527.039978
696.864014,281.088013,528.992004
689.056030,277.183990,523.135986
696.864014,283.040009,536.799988
683.200012,283.040009,532.895996
692.960022,290.847992,532.895996
694.911987,283.040009,517.280029
689.056030,288.895996,523.135986
692.960022,288.895996,523.135986
696.864014,284.992004,521.184021
698.815979,292.799988,523.135986
691.007996,290.847992,521.184021
696.864014,284.992004,521.184021
704.671997,288.895996,528.992004
696.864014,292.799988,523.135986
694.911987,296.704010,523.135986
694.911987,302.559998,517.280029
698.815979,294.752014,513.375977
702.719971,292.799988,517.280029
700.768005,290.847992,509.471985
694.911987,302.559998,505.567993
706.624023,300.608002,509.471985
708.575989,298.656006,519.231995
706.624023,298.656006,513.375977
710.528015,298.656006,513.375977
710.528015,296.704010,511.424011
706.624023,296.704010,513.375977
708.575989,298.656006,507.519989
712.479980,310.368011,511.424011
712.479980,304.511993,515.328003
712.479980,300.608002,511.424011
710.528015,304.511993,509.471985
718.335999,310.368011,511.424011
724.192017,312.320007,521.184021
716.383972,310.368011,513.375977
714.432007,320.127991,517.280029
718.335999,314.272003,517.280029
722.239990,314.272003,513.375977
726.143982,304.511993,513.375977
732.000000,312.320007,519.231995
730.047974,324.032013,503.615997
728.096008,322.079987,515.328003
733.952026,318.175995,507.519989
728.096008,324.032013,505.567993
739.807983,329.888000,505.567993
733.952026,316.223999,501.664001
737.856018,322.079987,505.567993
732.000000,320.127991,503.615997
749.567993,320.127991,505.567993
751.520020,318.175995,509.471985
745.664001,333.791992,497.760010
741.760010,335.743988,503.615997
745.664001,327.936005,505.567993
747.616028,329.888000,505.567993
753.471985,331.839996,499.712006
757.375977,333.791992,507.519989
757.375977,337.696014,507.519989
757.375977,337.696014,507.519989
763.231995,327.936005,507.519989
763.231995,327.936005,517.280029
759.328003,327.936005,517.280029
761.280029,329.888000,521.184021
765.184021,329.888000,519.231995
763.231995,335.743988,519.231995
771.039978,329.888000,513.375977
771.039978,331.839996,525.088013
772.992004,339.648010,527.039978
772.992004,333.791992,523.135986
782.752014,333.791992,523.135986
771.039978,335.743988,521.184021
774.943970,333.791992,530.943970
778.848022,333.791992,525.088013
778.848022,335.743988,523.135986
772.992004,345.503998,523.135986
778.848022,335.743988,532.895996
782.752014,341.600006,527.039978
774.943970,335.743988,532.895996
782.752014,341.600006,523.135986
788.607971,341.600006,528.992004
786.656006,331.839996,527.039978
776.895996,341.600006,521.184021
782.752014,341.600006,519.231995
782.752014,339.648010,523.135986
786.656006,339.648010,519.231995
782.752014,335.743988,515.328003
782.752014,343.552002,525.088013
778.848022,337.696014,523.135986
782.752014,347.455994,515.328003
772.992004,339.648010,523.135986
774.943970,337.696014,515.328003
771.039978,339.648010,523.135986
772.992004,345.503998,523.135986
782.752014,343.552002,525.088013
774.943970,349.407990,509.471985
774.943970,343.552002,511.424011
780.799988,343.552002,509.471985
771.039978,349.407990,513.375977
763.231995,339.648010,507.519989
772.992004,349.407990,511.424011
763.231995,347.455994,511.424011
771.039978,349.407990,511.424011
771.039978,353.312012,507.519989
769.088013,347.455994,505.567993
761.280029,345.503998,511.424011
767.135986,345.503998,507.519989
765.184021,345.503998,509.471985
767.135986,335.743988,507.519989
757.375977,347.455994,503.615997
767.135986,341.600006,505.567993
767.135986,347.455994,499.712006
757.375977,341.600006,499.712006
757.375977,333.791992,499.712006
759.328003,343.552002,499.712006
761.280029,343.552002,499.712006
755.424011,351.359985,493.855988
759.328003,341.600006,497.760010
765.184021,343.552002,499.712006
763.231995,343.552002,495.808014
757.375977,349.407990,491.903992
755.424011,349.407990,491.903992
759.328003,349.407990,499.712006
757.375977,349.407990,495.808014
755.424011,347.455994,493.855988
755.424011,349.407990,495.808014
759.328003,343.552002,497.760010
753.471985,343.552002,495.808014
759.328003,345.503998,495.808014
759.328003,343.552002,493.855988
751.520020,349.407990,495.808014
745.664001,345.503998,497.760010
749.567993,357.216003,491.903992
745.664001,353.312012,505.567993
753.471985,341.600006,493.855988
751.520020,347.455994,491.903992
753.471985,357.216003,489.951996
749.567993,345.503998,495.808014
743.711975,347.455994,488.000000
741.760010,345.503998,489.951996
741.760010,341.600006,488.000000
747.616028,337.696014,484.096008
747.616028,343.552002,484.096008
741.760010,343.552002,491.903992
741.760010,339.648010,489.951996
739.807983,341.600006,491.903992
737.856018,339.648010,480.191986
732.000000,339.648010,486.048004
728.096008,343.552002,474.335999
735.903992,339.648010,480.191986
726.143982,327.936005,480.191986
726.143982,337.696014,476.287994
735.903992,337.696014,482.144012
737.856018,331.839996,482.144012
739.807983,345.503998,472.384003
733.952026,333.791992,472.384003
726.143982,335.743988,468.480011
728.096008,337.696014,468.480011
732.000000,331.839996,466.528015
733.952026,335.743988,464.575989
728.096008,331.839996,466.528015
728.096008,337.696014,462.623993
733.952026,335.743988,462.623993
728.096008,331.839996,458.720001
733.952026,331.839996,464.575989
739.807983,333.791992,466.528015
733.952026,341.600006,462.623993
732.000000,341.600006,462.623993
733.952026,337.696014,456.768005
733.952026,339.648010,456.768005
739.807983,335.743988,460.671997
745.664001,345.503998,464.575989
739.807983,345.503998,462.623993
739.807983,343.552002,464.575989
743.711975,343.552002,458.720001
745.664001,345.503998,466.528015
751.520020,345.503998,452.864014
745.664001,339.648010,460.671997
749.567993,347.455994,462.623993
757.375977,351.359985,460.671997
753.471985,343.552002,462.623993
745.664001,351.359985,456.768005
747.616028,353.312012,468.480011
753.471985,347.455994,464.575989
757.375977,349.407990,458.720001
769.088013,341.600006,452.864014
753.471985,347.455994,452.864014
759.328003,355.264008,458.720001
757.375977,339.648010,445.056000
767.135986,345.503998,448.959991
774.943970,343.552002,452.864014
771.039978,345.503998,452.864014
771.039978,343.552002,445.056000
767.135986,339.648010,445.056000
776.895996,341.600006,454.816010
771.039978,339.648010,458.720001
778.848022,331.839996,450.911987
774.943970,331.839996,452.864014
778.848022,343.552002,447.007996
780.799988,349.407990,456.768005
786.656006,343.552002,454.816010
782.752014,345.503998,458.720001
780.799988,339.648010,458.720001
780.799988,345.503998,450.911987
784.703979,343.552002,456.768005
792.512024,341.600006,454.816010
792.512024,345.503998,454.816010
788.607971,345.503998,454.816010
788.607971,349.407990,458.720001
792.512024,345.503998,450.911987
796.416016,347.455994,452.864014
798.367981,341.600006,445.056000
792.512024,353.312012,452.864014
800.320007,343.552002,450.911987
792.512024,345.503998,456.768005
790.559998,339.648010,454.816010
800.320007,345.503998,456.768005
802.271973,343.552002,460.671997
792.512024,353.312012,460.671997
810.080017,347.455994,462.623993
800.320007,335.743988,458.720001
800.320007,345.503998,456.768005
800.320007,339.648010,458.720001
798.367981,345.503998,454.816010
796.416016,349.407990,456.768005
800.320007,339.648010,458.720001
802.271973,349.407990,462.623993
796.416016,339.648010,466.528015
804.223999,341.600006,466.528015
804.223999,341.600006,464.575989
810.080017,339.648010,464.575989
804.223999,345.503998,466.528015
804.223999,335.743988,464.575989
808.127991,343.552002,474.335999
806.176025,337.696014,458.720001
806.176025,325.984009,462.623993
810.080017,333.791992,460.671997
804.223999,335.743988,464.575989
804.223999,335.743988,470.432007
804.223999,331.839996,478.239990
806.176025,331.839996,472.384003
800.320007,322.079987,462.623993
804.223999,333.791992,472.384003
800.320007,318.175995,468.480011
804.223999,322.079987,470.432007
810.080017,329.888000,480.191986
798.367981,329.888000,470.432007
810.080017,325.984009,464.575989
806.176025,322.079987,474.335999
802.271973,324.032013,474.335999
806.176025,333.791992,474.335999
800.320007,320.127991,466.528015
798.367981,324.032013,470.432007
813.984009,324.032013,474.335999
798.367981,316.223999,468.480011
804.223999,314.272003,466.528015
806.176025,324.032013,472.384003
802.271973,314.272003,478.239990
802.271973,316.223999,472.384003
796.416016,312.320007,468.480011
802.271973,322.079987,472.384003
796.416016,316.223999,472.384003
792.512024,314.272003,476.287994
796.416016,318.175995,474.335999
798.367981,308.415985,468.480011
804.223999,304.511993,470.432007
804.223999,310.368011,470.432007
792.512024,310.368011,468.480011
798.367981,310.368011,456.768005
796.416016,304.511993,466.528015
794.463989,312.320007,470.432007
794.463989,300.608002,468.480011
794.463989,306.463989,470.432007
794.463989,306.463989,464.575989
804.223999,314.272003,460.671997
790.559998,298.656006,466.528015
804.223999,304.511993,466.528015
798.367981,306.463989,474.335999
802.271973,302.559998,470.432007
796.416016,304.511993,466.528015
794.463989,292.799988,470.432007
796.416016,306.463989,474.335999
806.176025,310.368011,478.239990
792.512024,302.559998,476.287994
792.512024,300.608002,472.384003
800.320007,300.608002,470.432007
800.320007,294.752014,468.480011
788.607971,302.559998,468.480011
792.512024,298.656006,470.432007
792.512024,288.895996,468.480011
790.559998,288.895996,472.384003
798.367981,286.944000,468.480011
790.559998,288.895996,472.384003
798.367981,292.799988,464.575989
792.512024,286.944000,466.528015
796.416016,284.992004,472.384003
790.559998,292.799988,472.384003
794.463989,290.847992,478.239990
790.559998,281.088013,474.335999
786.656006,286.944000,460.671997
780.799988,273.279999,478.239990
784.703979,273.279999,464.575989
784.703979,283.040009,460.671997
782.752014,279.135986,468.480011
784.703979,275.231995,464.575989
776.895996,279.135986,466.528015
784.703979,277.183990,468.480011
782.752014,271.328003,460.671997
782.752014,273.279999,464.575989
774.943970,275.231995,460.671997
778.848022,265.471985,468.480011
784.703979,275.231995,462.623993
784.703979,269.376007,466.528015
784.703979,269.376007,454.816010
774.943970,267.424011,452.864014
776.895996,271.328003,460.671997
782.752014,269.376007,462.623993
780.799988,263.519989,464.575989
782.752014,265.471985,460.671997
780.799988,265.471985,462.623993
776.895996,257.664001,448.959991
774.943970,261.567993,456.768005
786.656006,259.615997,458.720001
788.607971,267.424011,466.528015
776.895996,259.615997,474.335999
774.943970,261.567993,468.480011
776.895996,267.424011,462.623993
778.848022,263.519989,456.768005
778.848022,263.519989,462.623993
790.559998,255.712006,466.528015
786.656006,259.615997,460.671997
778.848022,267.424011,456.768005
790.559998,263.519989,452.864014
788.607971,259.615997,466.528015
786.656006,259.615997,466.528015
786.656006,261.567993,460.671997
774.943970,257.664001,456.768005
782.752014,265.471985,458.720001
786.656006,261.567993,462.623993
790.559998,275.231995,468.480011
786.656006,271.328003,452.864014
784.703979,259.615997,458.720001
784.703979,261.567993,448.959991
790.559998,271.328003,452.864014
784.703979,267.424011,462.623993
786.656006,277.183990,458.720001
788.607971,265.471985,456.768005
788.607971,253.759995,447.007996
788.607971,257.664001,452.864014
792.512024,265.471985,452.864014
780.799988,279.135986,447.007996
790.559998,265.471985,452.864014
790.559998,265.471985,448.959991
798.367981,279.135986,454.816010
784.703979,275.231995,456.768005
790.559998,267.424011,443.104004
788.607971,271.328003,445.056000
790.559998,275.231995,443.104004
788.607971,273.279999,450.911987
786.656006,275.231995,443.104004
788.607971,275.231995,443.104004
790.559998,265.471985,443.104004
790.559998,269.376007,445.056000
796.416016,263.519989,441.152008
794.463989,259.615997,447.007996
782.752014,261.567993,448.959991
786.656006,271.328003,443.104004
794.463989,271.328003,441.152008
790.559998,267.424011,437.247986
790.559998,277.183990,443.104004
792.512024,269.376007,437.247986
784.703979,269.376007,443.104004
794.463989,279.135986,437.247986
792.512024,275.231995,445.056000
796.416016,275.231995,443.104004
788.607971,275.231995,443.104004
802.271973,273.279999,429.440002
794.463989,279.135986,435.295990
790.559998,279.135986,425.536011
792.512024,267.424011,429.440002
794.463989,265.471985,441.152008
794.463989,267.424011,435.295990
796.416016,269.376007,439.200012
808.127991,283.040009,433.343994
800.320007,286.944000,433.343994
802.271973,281.088013,435.295990
808.127991,273.279999,429.440002
804.223999,273.279999,433.343994
806.176025,290.847992,435.295990
806.176025,283.040009,431.391998
808.127991,283.040009,429.440002
812.031982,284.992004,425.536011
808.127991,279.135986,435.295990
810.080017,284.992004,435.295990
812.031982,283.040009,421.631989
812.031982,277.183990,421.631989
812.031982,283.040009,435.295990
819.840027,279.135986,431.391998
817.888000,267.424011,429.440002
817.888000,269.376007,423.584015
817.888000,283.040009,425.536011
823.744019,283.040009,419.679993
819.840027,284.992004,417.727997
825.695984,273.279999,423.584015
829.599976,277.183990,417.727997
825.695984,273.279999,423.584015
825.695984,281.088013,425.536011
833.504028,281.088013,437.247986
835.455994,281.088013,443.104004
829.599976,275.231995,439.200012
831.552002,283.040009,450.911987
841.312012,281.088013,443.104004
835.455994,281.088013,448.959991
835.455994,286.944000,456.768005
837.408020,279.135986,448.959991
843.263977,267.424011,452.864014
835.455994,267.424011,454.816010
841.312012,259.615997,456.768005
841.312012,251.807999,460.671997
847.168030,249.856003,462.623993
845.216003,244.000000,470.432007
856.927979,228.384003,478.239990
849.119995,228.384003,478.239990
847.168030,222.528000,482.144012
853.023987,222.528000,497.760010
851.072021,228.384003,491.903992
860.831970,226.432007,491.903992
856.927979,236.192001,501.664001
856.927979,236.192001,501.664001
860.831970,234.240005,505.567993
860.831970,251.807999,505.567993
862.783997,253.759995,505.567993
868.640015,263.519989,507.519989
862.783997,261.567993,499.712006
868.640015,271.328003,497.760010
860.831970,269.376007,497.760010
860.831970,279.135986,493.855988
864.736023,277.183990,497.760010
866.687988,277.183990,495.808014
854.976013,267.424011,501.664001
860.831970,267.424011,491.903992
866.687988,267.424011,486.048004
858.880005,267.424011,486.048004
856.927979,267.424011,486.048004
856.927979,259.615997,482.144012
853.023987,259.615997,472.384003
853.023987,247.904007,466.528015
860.831970,251.807999,476.287994
854.976013,255.712006,468.480011
853.023987,249.856003,466.528015
851.072021,253.759995,468.480011
851.072021,255.712006,456.768005
860.831970,261.567993,460.671997
849.119995,269.376007,448.959991
851.072021,275.231995,456.768005
853.023987,283.040009,458.720001
856.927979,284.992004,450.911987
854.976013,284.992004,448.959991
853.023987,288.895996,450.911987
853.023987,286.944000,441.152008
849.119995,296.704010,448.959991
845.216003,290.847992,448.959991
849.119995,290.847992,437.247986
851.072021,298.656006,441.152008
858.880005,296.704010,447.007996
860.831970,288.895996,433.343994
860.831970,290.847992,443.104004
843.263977,281.088013,439.200012
851.072021,286.944000,433.343994
853.023987,286.944000,431.391998
856.927979,290.847992,423.584015
854.976013,292.799988,435.295990
856.927979,281.088013,429.440002
856.927979,300.608002,431.391998
856.927979,310.368011,435.295990
860.831970,304.511993,431.391998
860.831970,308.415985,425.536011
864.736023,316.223999,427.488007
864.736023,318.175995,425.536011
870.591980,325.984009,433.343994
874.495972,320.127991,431.391998
876.447998,314.272003,435.295990
880.351990,318.175995,429.440002
880.351990,312.320007,427.488007
888.159973,325.984009,433.343994
890.112000,316.223999,433.343994
888.159973,322.079987,419.679993
894.015991,312.320007,425.536011
894.015991,324.032013,433.343994
892.064026,314.272003,425.536011
894.015991,320.127991,429.440002
907.679993,316.223999,435.295990
905.728027,318.175995,431.391998
901.823975,324.032013,443.104004
897.919983,324.032013,431.391998
915.487976,335.743988,433.343994
903.776001,333.791992,435.295990
913.536011,325.984009,427.488007
913.536011,324.032013,439.200012
915.487976,331.839996,435.295990
913.536011,329.888000,429.440002
905.728027,339.648010,425.536011
917.440002,341.600006,433.343994
923.296021,339.648010,431.391998
921.343994,331.839996,437.247986
923.296021,331.839996,429.440002
927.200012,337.696014,429.440002
927.200012,337.696014,439.200012
929.151978,345.503998,439.200012
936.960022,343.552002,433.343994
933.056030,331.839996,443.104004
933.056030,337.696014,441.152008
931.104004,339.648010,439.200012
940.864014,341.600006,435.295990
931.104004,351.359985,437.247986
935.007996,347.455994,437.247986
940.864014,349.407990,454.816010
942.815979,343.552002,447.007996
936.960022,355.264008,458.720001
940.864014,353.312012,450.911987
933.056030,351.359985,447.007996
931.104004,355.264008,441.152008
938.911987,357.216003,448.959991
933.056030,351.359985,445.056000
940.864014,353.312012,456.768005
933.056030,351.359985,454.816010
931.104004,343.552002,450.911987
933.056030,347.455994,458.720001
938.911987,361.119995,456.768005
933.056030,351.359985,454.816010
936.960022,355.264008,460.671997
929.151978,357.216003,454.816010
933.056030,353.312012,448.959991
929.151978,355.264008,447.007996
933.056030,351.359985,448.959991
929.151978,349.407990,450.911987
931.104004,361.119995,450.911987
917.440002,347.455994,445.056000
921.343994,359.167999,450.911987
923.296021,366.976013,448.959991
927.200012,361.119995,445.056000
917.440002,363.071991,439.200012
919.392029,363.071991,443.104004
915.487976,359.167999,439.200012
917.440002,363.071991,441.152008
919.392029,366.976013,443.104004
909.632019,372.832001,443.104004
909.632019,370.880005,439.200012
909.632019,363.071991,431.391998
911.583984,366.976013,443.104004
915.487976,368.928009,437.247986
907.679993,374.783997,437.247986
909.632019,368.928009,433.343994
909.632019,368.928009,435.295990
905.728027,359.167999,435.295990
905.728027,366.976013,431.391998
901.823975,368.928009,429.440002
909.632019,368.928009,435.295990
915.487976,374.783997,435.295990
909.632019,370.880005,431.391998
907.679993,363.071991,435.295990
905.728027,374.783997,427.488007
905.728027,363.071991,421.631989
915.487976,370.880005,431.391998
909.632019,368.928009,431.391998
907.679993,372.832001,435.295990
913.536011,368.928009,425.536011
909.632019,366.976013,439.200012
909.632019,370.880005,437.247986
907.679993,372.832001,423.584015
901.823975,361.119995,425.536011
909.632019,365.023987,427.488007
915.487976,363.071991,437.247986
905.728027,359.167999,431.391998
907.679993,366.976013,429.440002
907.679993,370.880005,431.391998
907.679993,366.976013,431.391998
903.776001,365.023987,435.295990
901.823975,353.312012,435.295990
897.919983,365.023987,435.295990
903.776001,365.023987,433.343994
907.679993,353.312012,417.727997
911.583984,359.167999,425.536011
911.583984,345.503998,423.584015
907.679993,353.312012,425.536011
905.728027,347.455994,425.536011
905.728027,351.359985,427.488007
897.919983,349.407990,425.536011
915.487976,347.455994,429.440002
915.487976,343.552002,425.536011
905.728027,353.312012,429.440002
899.872009,347.455994,431.391998
907.679993,339.648010,443.104004
897.919983,341.600006,439.200012
897.919983,343.552002,433.343994
911.583984,333.791992,425.536011
907.679993,337.696014,421.631989
907.679993,349.407990,417.727997
903.776001,347.455994,431.391998
911.583984,341.600006,419.679993
915.487976,345.503998,421.631989
905.728027,331.839996,421.631989
901.823975,335.743988,429.440002
915.487976,343.552002,431.391998
911.583984,339.648010,425.536011
915.487976,341.600006,431.391998
909.632019,341.600006,437.247986
915.487976,341.600006,431.391998
913.536011,333.791992,423.584015
915.487976,339.648010,431.391998
919.392029,337.696014,433.343994
919.392029,337.696014,437.247986
919.392029,337.696014,435.295990
923.296021,331.839996,447.007996
913.536011,345.503998,443.104004
919.392029,331.839996,437.247986
921.343994,331.839996,437.247986
913.536011,329.888000,437.247986
923.296021,331.839996,433.343994
919.392029,337.696014,437.247986
923.296021,333.791992,435.295990
915.487976,335.743988,431.391998
919.392029,349.407990,439.200012
919.392029,339.648010,431.391998
919.392029,329.888000,433.343994
919.392029,341.600006,431.391998
929.151978,335.743988,427.488007
935.007996,335.743988,427.488007
933.056030,335.743988,433.343994
938.911987,331.839996,425.536011
936.960022,335.743988,433.343994
929.151978,333.791992,425.536011
927.200012,339.648010,435.295990
933.056030,341.600006,429.440002
929.151978,337.696014,431.391998
938.911987,329.888000,427.488007
938.911987,341.600006,427.488007
940.864014,335.743988,437.247986
942.815979,335.743988,443.104004
933.056030,333.791992,433.343994
946.719971,343.552002,431.391998
938.911987,335.743988,435.295990
944.768005,337.696014,431.391998
940.864014,341.600006,435.295990
946.719971,341.600006,437.247986
948.671997,329.888000,429.440002
946.719971,331.839996,437.247986
950.624023,333.791992,447.007996
952.575989,341.600006,437.247986
956.479980,327.936005,425.536011
952.575989,339.648010,433.343994
948.671997,333.791992,445.056000
960.383972,335.743988,439.200012
946.719971,333.791992,431.391998
962.335999,333.791992,439.200012
954.528015,341.600006,427.488007
948.671997,331.839996,435.295990
954.528015,331.839996,443.104004
956.479980,329.888000,429.440002
962.335999,333.791992,431.391998
962.335999,339.648010,429.440002
954.528015,324.032013,429.440002
948.671997,331.839996,429.440002
958.432007,335.743988,429.440002
960.383972,333.791992,431.391998
958.432007,335.743988,433.343994
970.143982,333.791992,429.440002
962.335999,327.936005,425.536011
962.335999,333.791992,435.295990
956.479980,327.936005,437.247986
966.239990,327.936005,437.247986
960.383972,327.936005,431.391998
962.335999,333.791992,437.247986
956.479980,329.888000,439.200012
962.335999,322.079987,443.104004
958.432007,308.415985,439.200012
948.671997,324.032013,439.200012
956.479980,325.984009,435.295990
962.335999,325.984009,437.247986
956.479980,324.032013,443.104004
952.575989,327.936005,435.295990
954.528015,325.984009,433.343994
952.575989,324.032013,441.152008
956.479980,327.936005,437.247986
954.528015,322.079987,437.247986
948.671997,327.936005,441.152008
962.335999,322.079987,431.391998
948.671997,324.032013,439.200012
950.624023,312.320007,431.391998
948.671997,322.079987,433.343994
952.575989,316.223999,441.152008
950.624023,320.127991,437.247986
948.671997,322.079987,433.343994
948.671997,322.079987,441.152008
944.768005,322.079987,439.200012
946.719971,312.320007,439.200012
940.864014,325.984009,439.200012
940.864014,316.223999,441.152008
940.864014,312.320007,443.104004
935.007996,314.272003,437.247986
938.911987,316.223999,447.007996
935.007996,316.223999,443.104004
944.768005,322.079987,439.200012
946.719971,310.368011,437.247986
940.864014,312.320007,437.247986
940.864014,318.175995,437.247986
931.104004,310.368011,447.007996
938.911987,316.223999,437.247986
929.151978,310.368011,439.200012
929.151978,314.272003,429.440002
921.343994,316.223999,429.440002
931.104004,312.320007,441.152008
936.960022,314.272003,443.104004
935.007996,312.320007,441.152008
919.392029,308.415985,431.391998
919.392029,312.320007,439.200012
923.296021,296.704010,435.295990
921.343994,314.272003,435.295990
919.392029,306.463989,437.247986
915.487976,300.608002,433.343994
915.487976,300.608002,433.343994
911.583984,300.608002,427.488007
899.872009,296.704010,435.295990
901.823975,316.223999,433.343994
907.679993,308.415985,433.343994
901.823975,302.559998,429.440002
899.872009,302.559998,425.536011
899.872009,288.895996,431.391998
905.728027,298.656006,433.343994
899.872009,300.608002,421.631989
901.823975,290.847992,431.391998
901.823975,302.559998,429.440002
897.919983,302.559998,435.295990
899.872009,296.704010,435.295990
903.776001,302.559998,421.631989
899.872009,302.559998,431.391998
890.112000,300.608002,431.391998
895.968018,302.559998,425.536011
892.064026,298.656006,427.488007
886.208008,292.799988,427.488007
886.208008,292.799988,427.488007
888.159973,294.752014,421.631989
888.159973,288.895996,421.631989
888.159973,281.088013,431.391998
886.208008,290.847992,429.440002
882.304016,292.799988,427.488007
882.304016,286.944000,427.488007
888.159973,290.847992,421.631989
888.159973,292.799988,421.631989
888.159973,292.799988,427.488007
890.112000,300.608002,431.391998
892.064026,288.895996,429.440002
890.112000,304.511993,429.440002
892.064026,292.799988,429.440002
882.304016,298.656006,435.295990
880.351990,290.847992,431.391998
882.304016,290.847992,431.391998
888.159973,290.847992,421.631989
882.304016,294.752014,421.631989
884.255981,290.847992,421.631989
882.304016,290.847992,427.488007
882.304016,286.944000,427.488007
882.304016,286.944000,439.200012
884.255981,286.944000,425.536011
884.255981,292.799988,435.295990
884.255981,288.895996,427.488007
878.400024,279.135986,429.440002
880.351990,288.895996,433.343994
878.400024,286.944000,437.247986
888.159973,284.992004,427.488007
886.208008,281.088013,427.488007
886.208008,286.944000,435.295990
888.159973,279.135986,425.536011
882.304016,279.135986,429.440002
884.255981,283.040009,425.536011
884.255981,277.183990,431.391998
882.304016,286.944000,429.440002
884.255981,281.088013,433.343994
880.351990,286.944000,441.152008
888.159973,275.231995,431.391998
890.112000,279.135986,443.104004
878.400024,281.088013,435.295990
876.447998,277.183990,433.343994
884.255981,281.088013,433.343994
892.064026,283.040009,433.343994
884.255981,283.040009,447.007996
888.159973,283.040009,437.247986
892.064026,286.944000,439.200012
884.255981,281.088013,431.391998
888.159973,277.183990,435.295990
888.159973,281.088013,443.104004
882.304016,277.183990,445.056000
884.255981,286.944000,443.104004
886.208008,281.088013,437.247986
878.400024,279.135986,437.247986
884.255981,281.088013,435.295990
888.159973,281.088013,437.247986
888.159973,286.944000,435.295990
884.255981,269.376007,437.247986
884.255981,279.135986,431.391998
884.255981,275.231995,435.295990
884.255981,279.135986,431.391998
878.400024,277.183990,437.247986
878.400024,277.183990,435.295990
882.304016,269.376007,435.295990
886.208008,267.424011,433.343994
876.447998,273.279999,437.247986
870.591980,279.135986,435.295990
878.400024,279.135986,427.488007
884.255981,273.279999,443.104004
880.351990,261.567993,435.295990
876.447998,279.135986,433.343994
888.159973,281.088013,433.343994
878.400024,273.279999,439.200012
880.351990,265.471985,431.391998
878.400024,279.135986,443.104004
876.447998,283.040009,441.152008
876.447998,273.279999,435.295990
876.447998,279.135986,429.440002
878.400024,269.376007,425.536011
880.351990,267.424011,435.295990
870.591980,265.471985,433.343994
870.591980,273.279999,427.488007
874.495972,265.471985,425.536011
870.591980,269.376007,425.536011
870.591980,279.135986,431.391998
872.544006,269.376007,421.631989
858.880005,269.376007,435.295990
858.880005,277.183990,431.391998
868.640015,277.183990,421.631989
860.831970,281.088013,429.440002
860.831970,273.279999,423.584015
862.783997,271.328003,423.584015
854.976013,279.135986,425.536011
858.880005,275.231995,423.584015
858.880005,273.279999,413.824005
858.880005,279.135986,425.536011
854.976013,275.231995,425.536011
862.783997,275.231995,421.631989
860.831970,275.231995,431.391998
862.783997,271.328003,419.679993
864.736023,267.424011,423.584015
853.023987,267.424011,425.536011
854.976013,271.328003,421.631989
860.831970,263.519989,413.824005
856.927979,265.471985,415.776001
856.927979,253.759995,419.679993
854.976013,257.664001,429.440002
858.880005,269.376007,425.536011
856.927979,263.519989,417.727997
851.072021,261.567993,427.488007
853.023987,259.615997,419.679993
856.927979,263.519989,423.584015
856.927979,261.567993,421.631989
851.072021,253.759995,423.584015
851.072021,257.664001,421.631989
860.831970,253.759995,419.679993
856.927979,263.519989,421.631989
860.831970,257.664001,435.295990
853.023987,257.664001,427.488007
858.880005,263.519989,427.488007
864.736023,263.519989,423.584015
847.168030,253.759995,421.631989
853.023987,253.759995,427.488007
868.640015,253.759995,431.391998
860.831970,259.615997,429.440002
854.976013,261.567993,427.488007
856.927979,249.856003,431.391998
866.687988,253.759995,429.440002
862.783997,257.664001,421.631989
854.976013,259.615997,427.488007
856.927979,249.856003,431.391998
856.927979,249.856003,423.584015
864.736023,259.615997,427.488007
858.880005,257.664001,421.631989
866.687988,249.856003,415.776001
858.880005,251.807999,433.343994
864.736023,249.856003,425.536011
854.976013,255.712006,427.488007
860.831970,244.000000,419.679993
866.687988,242.048004,433.343994
866.687988,247.904007,433.343994
860.831970,242.048004,419.679993
862.783997,245.951996,427.488007
858.880005,251.807999,433.343994
864.736023,245.951996,429.440002
858.880005,245.951996,433.343994
864.736023,242.048004,429.440002
866.687988,245.951996,427.488007
854.976013,245.951996,425.536011
856.927979,249.856003,429.440002
856.927979,253.759995,427.488007
853.023987,263.519989,421.631989
856.927979,253.759995,421.631989
854.976013,253.759995,429.440002
864.736023,251.807999,427.488007
856.927979,247.904007,425.536011
860.831970,257.664001,419.679993
851.072021,251.807999,421.631989
853.023987,261.567993,421.631989
862.783997,255.712006,431.391998
851.072021,251.807999,425.536011
851.072021,245.951996,417.727997
853.023987,249.856003,431.391998
847.168030,253.759995,427.488007
849.119995,253.759995,423.584015
849.119995,245.951996,417.727997
851.072021,244.000000,419.679993
843.263977,245.951996,419.679993
849.119995,251.807999,413.824005
849.119995,255.712006,413.824005
853.023987,263.519989,415.776001
845.216003,257.664001,417.727997
851.072021,257.664001,409.920013
845.216003,267.424011,415.776001
847.168030,261.567993,423.584015
841.312012,257.664001,419.679993
841.312012,257.664001,409.920013
843.263977,257.664001,419.679993
845.216003,261.567993,411.872009
843.263977,273.279999,411.872009
847.168030,265.471985,415.776001
845.216003,265.471985,409.920013
839.359985,269.376007,421.631989
845.216003,263.519989,419.679993
847.168030,269.376007,413.824005
849.119995,271.328003,413.824005
843.263977,271.328003,413.824005
843.263977,275.231995,415.776001
843.263977,275.231995,409.920013
847.168030,265.471985,407.967987
843.263977,269.376007,409.920013
835.455994,271.328003,402.112000
851.072021,265.471985,415.776001
843.263977,265.471985,406.015991
853.023987,269.376007,406.015991
851.072021,283.040009,413.824005
853.023987,269.376007,409.920013
853.023987,269.376007,406.015991
849.119995,265.471985,411.872009
849.119995,269.376007,407.967987
853.023987,275.231995,411.872009
843.263977,271.328003,413.824005
853.023987,261.567993,415.776001
839.359985,261.567993,411.872009
845.216003,275.231995,407.967987
843.263977,271.328003,402.112000
847.168030,253.759995,409.920013
847.168030,261.567993,409.920013
849.119995,261.567993,404.063995
854.976013,263.519989,398.208008
851.072021,261.567993,406.015991
841.312012,259.615997,411.872009
856.927979,267.424011,404.063995
849.119995,265.471985,402.112000
849.119995,261.567993,411.872009
851.072021,273.279999,413.824005
845.216003,269.376007,406.015991
845.216003,263.519989,407.967987
847.168030,267.424011,413.824005
856.927979,267.424011,406.015991
854.976013,265.471985,409.920013
860.831970,265.471985,406.015991
854.976013,271.328003,413.824005
862.783997,275.231995,415.776001
856.927979,265.471985,415.776001
853.023987,257.664001,415.776001
856.927979,261.567993,415.776001
860.831970,271.328003,409.920013
854.976013,271.328003,419.679993
853.023987,265.471985,421.631989
858.880005,261.567993,419.679993
866.687988,269.376007,413.824005
862.783997,273.279999,415.776001
860.831970,273.279999,409.920013
860.831970,267.424011,409.920013
864.736023,257.664001,423.584015
872.544006,277.183990,415.776001
862.783997,273.279999,423.584015
866.687988,275.231995,421.631989
856.927979,277.183990,431.391998
866.687988,267.424011,413.824005
862.783997,269.376007,419.679993
868.640015,269.376007,419.679993
862.783997,271.328003,419.679993
864.736023,257.664001,417.727997
858.880005,269.376007,413.824005
868.640015,277.183990,415.776001
856.927979,275.231995,411.872009
858.880005,277.183990,407.967987
854.976013,286.944000,415.776001
856.927979,281.088013,409.920013
856.927979,269.376007,423.584015
854.976013,283.040009,417.727997
856.927979,279.135986,406.015991
860.831970,273.279999,411.872009
851.072021,277.183990,419.679993
860.831970,279.135986,415.776001
853.023987,279.135986,413.824005
856.927979,273.279999,406.015991
854.976013,265.471985,419.679993
864.736023,273.279999,402.112000
860.831970,283.040009,411.872009
853.023987,281.088013,402.112000
854.976013,277.183990,411.872009
854.976013,277.183990,411.872009
849.119995,283.040009,409.920013
854.976013,279.135986,402.112000
856.927979,281.088013,411.872009
864.736023,283.040009,407.967987
858.880005,279.135986,406.015991
856.927979,275.231995,411.872009
856.927979,283.040009,411.872009
858.880005,286.944000,411.872009
856.927979,277.183990,411.872009
853.023987,279.135986,404.063995
851.072021,283.040009,413.824005
856.927979,286.944000,404.063995
851.072021,288.895996,402.112000
856.927979,275.231995,402.112000
854.976013,275.231995,411.872009
851.072021,286.944000,406.015991
854.976013,283.040009,411.872009
853.023987,281.088013,402.112000
856.927979,286.944000,407.967987
847.168030,279.135986,402.112000
851.072021,277.183990,392.351990
853.023987,281.088013,404.063995
851.072021,279.135986,404.063995
849.119995,286.944000,404.063995
856.927979,281.088013,400.160004
849.119995,273.279999,394.303986
858.880005,277.183990,404.063995
851.072021,277.183990,406.015991
856.927979,281.088013,404.063995
853.023987,281.088013,400.160004
854.976013,283.040009,394.303986
862.783997,283.040009,406.015991
858.880005,281.088013,404.063995
854.976013,279.135986,404.063995
860.831970,281.088013,407.967987
854.976013,273.279999,394.303986
860.831970,281.088013,390.399994
847.168030,273.279999,398.208008
853.023987,277.183990,402.112000
862.783997,277.183990,396.256012
849.119995,286.944000,396.256012
851.072021,288.895996,402.112000
858.880005,277.183990,398.208008
858.880005,275.231995,400.160004
860.831970,271.328003,392.351990
858.880005,277.183990,388.447998
856.927979,273.279999,402.112000
864.736023,283.040009,398.208008
851.072021,281.088013,398.208008
853.023987,279.135986,402.112000
862.783997,279.135986,394.303986
868.640015,265.471985,394.303986
866.687988,273.279999,396.256012
862.783997,273.279999,390.399994
862.783997,271.328003,400.160004
856.927979,279.135986,400.160004
856.927979,269.376007,394.303986
860.831970,273.279999,392.351990
862.783997,275.231995,394.303986
866.687988,271.328003,398.208008
868.640015,275.231995,398.208008
868.640015,263.519989,402.112000
872.544006,271.328003,396.256012
866.687988,269.376007,398.208008
868.640015,275.231995,404.063995
870.591980,281.088013,411.872009
862.783997,267.424011,404.063995
868.640015,275.231995,409.920013
864.736023,273.279999,407.967987
866.687988,279.135986,402.112000
872.544006,273.279999,398.208008
870.591980,273.279999,407.967987
866.687988,273.279999,400.160004
872.544006,261.567993,402.112000
870.591980,273.279999,409.920013
866.687988,273.279999,409.920013
876.447998,273.279999,407.967987
872.544006,279.135986,402.112000
870.591980,269.376007,404.063995
866.687988,279.135986,404.063995
874.495972,273.279999,400.160004
878.400024,273.279999,404.063995
878.400024,275.231995,406.015991
882.304016,275.231995,402.112000
870.591980,283.040009,402.112000
884.255981,279.135986,407.967987
876.447998,277.183990,407.967987
876.447998,284.992004,402.112000
884.255981,279.135986,402.112000
876.447998,275.231995,406.015991
870.591980,277.183990,409.920013
882.304016,273.279999,406.015991
884.255981,281.088013,406.015991
894.015991,283.040009,411.872009
886.208008,286.944000,407.967987
880.351990,283.040009,406.015991
880.351990,286.944000,409.920013
878.400024,286.944000,413.824005
882.304016,286.944000,402.112000
884.255981,277.183990,411.872009
882.304016,281.088013,398.208008
884.255981,277.183990,406.015991
884.255981,286.944000,402.112000
878.400024,279.135986,400.160004
884.255981,281.088013,402.112000
884.255981,286.944000,406.015991
876.447998,296.704010,415.776001
882.304016,286.944000,415.776001
880.351990,279.135986,413.824005
880.351990,284.992004,406.015991
880.351990,283.040009,406.015991
886.208008,286.944000,407.967987
882.304016,292.799988,398.208008
874.495972,286.944000,404.063995
878.400024,281.088013,404.063995
878.400024,283.040009,398.208008
872.544006,290.847992,411.872009
882.304016,286.944000,407.967987
874.495972,294.752014,404.063995
876.447998,298.656006,394.303986
878.400024,284.992004,396.256012
870.591980,283.040009,398.208008
880.351990,286.944000,396.256012
876.447998,290.847992,394.303986
880.351990,290.847992,400.160004
884.255981,281.088013,404.063995
876.447998,283.040009,402.112000
882.304016,286.944000,396.256012
880.351990,286.944000,400.160004
874.495972,281.088013,386.496002
870.591980,279.135986,398.208008
876.447998,283.040009,396.256012
872.544006,279.135986,396.256012
876.447998,284.992004,388.447998
880.351990,273.279999,392.351990
880.351990,283.040009,386.496002
882.304016,283.040009,394.303986
878.400024,286.944000,394.303986
876.447998,284.992004,388.447998
880.351990,281.088013,388.447998
880.351990,283.040009,388.447998
874.495972,286.944000,390.399994
882.304016,277.183990,394.303986
874.495972,284.992004,400.160004
884.255981,283.040009,386.496002
884.255981,294.752014,396.256012
882.304016,283.040009,394.303986
884.255981,284.992004,390.399994
888.159973,284.992004,392.351990
884.255981,281.088013,400.160004
884.255981,290.847992,396.256012
895.968018,277.183990,400.160004
888.159973,281.088013,400.160004
892.064026,292.799988,402.112000
886.208008,292.799988,398.208008
888.159973,290.847992,396.256012
880.351990,286.944000,398.208008
884.255981,279.135986,396.256012
884.255981,284.992004,390.399994
878.400024,286.944000,386.496002
892.064026,273.279999,396.256012
892.064026,273.279999,394.303986
886.208008,281.088013,404.063995
895.968018,273.279999,398.208008
899.872009,277.183990,396.256012
884.255981,290.847992,396.256012
880.351990,283.040009,392.351990
884.255981,290.847992,386.496002
886.208008,283.040009,386.496002
884.255981,294.752014,390.399994
888.159973,284.992004,390.399994
895.968018,271.328003,396.256012
895.968018,277.183990,398.208008
894.015991,257.664001,400.160004
894.015991,253.759995,400.160004
895.968018,249.856003,400.160004
886.208008,255.712006,398.208008
888.159973,275.231995,406.015991
897.919983,273.279999,406.015991
895.968018,265.471985,409.920013
899.872009,259.615997,409.920013
899.872009,259.615997,406.015991
894.015991,261.567993,409.920013
899.872009,259.615997,411.872009
894.015991,255.712006,407.967987
911.583984,253.759995,404.063995
897.919983,245.951996,407.967987
901.823975,249.856003,406.015991
895.968018,249.856003,406.015991
894.015991,257.664001,409.920013
909.632019,255.712006,402.112000
901.823975,261.567993,411.872009
894.015991,263.519989,402.112000
897.919983,245.951996,407.967987
911.583984,253.759995,413.824005
899.872009,253.759995,411.872009
901.823975,245.951996,404.063995
903.776001,249.856003,415.776001
913.536011,245.951996,411.872009
905.728027,247.904007,415.776001
909.632019,253.759995,415.776001
909.632019,251.807999,415.776001
915.487976,263.519989,409.920013
903.776001,247.904007,415.776001
911.583984,259.615997,419.679993
905.728027,247.904007,415.776001
901.823975,255.712006,423.584015
907.679993,255.712006,413.824005
903.776001,247.904007,413.824005
909.632019,259.615997,409.920013
913.536011,257.664001,404.063995
901.823975,251.807999,409.920013
905.728027,249.856003,406.015991
911.583984,249.856003,415.776001
903.776001,247.904007,419.679993
907.679993,253.759995,407.967987
901.823975,251.807999,402.112000
899.872009,244.000000,409.920013
901.823975,255.712006,411.872009
911.583984,242.048004,406.015991
903.776001,257.664001,411.872009
897.919983,253.759995,409.920013
905.728027,245.951996,413.824005
907.679993,245.951996,411.872009
897.919983,255.712006,411.872009
894.015991,253.759995,411.872009
890.112000,253.759995,407.967987
894.015991,249.856003,415.776001
892.064026,245.951996,402.112000
890.112000,255.712006,406.015991
890.112000,242.048004,407.967987
895.968018,251.807999,404.063995
882.304016,249.856003,406.015991
882.304016,257.664001,396.256012
888.159973,249.856003,400.160004
892.064026,255.712006,396.256012
895.968018,255.712006,394.303986
884.255981,249.856003,400.160004
882.304016,249.856003,407.967987
886.208008,255.712006,404.063995
880.351990,255.712006,409.920013
886.208008,255.712006,398.208008
882.304016,257.664001,402.112000
880.351990,257.664001,402.112000
874.495972,257.664001,394.303986
872.544006,253.759995,402.112000
874.495972,261.567993,398.208008
882.304016,253.759995,406.015991
878.400024,247.904007,404.063995
880.351990,253.759995,407.967987
882.304016,251.807999,400.160004
878.400024,247.904007,400.160004
880.351990,253.759995,402.112000
878.400024,255.712006,392.351990
872.544006,259.615997,392.351990
876.447998,251.807999,398.208008
878.400024,249.856003,398.208008
870.591980,251.807999,402.112000
876.447998,251.807999,398.208008
872.544006,259.615997,402.112000
874.495972,249.856003,396.256012
872.544006,259.615997,400.160004
872.544006,265.471985,402.112000
870.591980,271.328003,402.112000
866.687988,253.759995,396.256012
866.687988,259.615997,400.160004
872.544006,259.615997,404.063995
870.591980,263.519989,400.160004
872.544006,263.519989,400.160004
876.447998,269.376007,402.112000
872.544006,263.519989,411.872009
872.544006,259.615997,402.112000
872.544006,265.471985,404.063995
866.687988,273.279999,398.208008
866.687988,263.519989,386.496002
864.736023,267.424011,392.351990
858.880005,269.376007,400.160004
862.783997,261.567993,394.303986
864.736023,253.759995,396.256012
866.687988,271.328003,398.208008
862.783997,271.328003,392.351990
858.880005,265.471985,392.351990
860.831970,265.471985,400.160004
856.927979,269.376007,392.351990
851.072021,269.376007,398.208008
860.831970,265.471985,394.303986
866.687988,265.471985,404.063995
862.783997,267.424011,400.160004
860.831970,267.424011,390.399994
858.880005,265.471985,390.399994
862.783997,275.231995,390.399994
862.783997,265.471985,394.303986
856.927979,267.424011,402.112000
858.880005,269.376007,400.160004
864.736023,267.424011,404.063995
864.736023,263.519989,398.208008
858.880005,263.519989,392.351990
860.831970,267.424011,396.256012
860.831970,267.424011,398.208008
864.736023,263.519989,396.256012
872.544006,275.231995,390.399994
870.591980,259.615997,394.303986
862.783997,259.615997,400.160004
862.783997,261.567993,394.303986
854.976013,283.040009,386.496002
851.072021,283.040009,388.447998
851.072021,277.183990,394.303986
854.976013,267.424011,404.063995
864.736023,279.135986,400.160004
854.976013,269.376007,396.256012
856.927979,257.664001,400.160004
856.927979,253.759995,386.496002
866.687988,251.807999,402.112000
866.687988,267.424011,392.351990
858.880005,257.664001,392.351990
858.880005,267.424011,392.351990
860.831970,271.328003,394.303986
847.168030,275.231995,400.160004
853.023987,269.376007,404.063995
858.880005,269.376007,400.160004
860.831970,277.183990,392.351990
854.976013,279.135986,392.351990
858.880005,275.231995,394.303986
854.976013,273.279999,394.303986
860.831970,269.376007,388.447998
864.736023,279.135986,394.303986
860.831970,279.135986,394.303986
860.831970,277.183990,382.592010
862.783997,279.135986,390.399994
854.976013,281.088013,386.496002
860.831970,281.088013,384.544006
856.927979,284.992004,386.496002
853.023987,283.040009,388.447998
868.640015,275.231995,384.544006
854.976013,271.328003,386.496002
862.783997,269.376007,390.399994
862.783997,279.135986,396.256012
860.831970,279.135986,390.399994
858.880005,267.424011,400.160004
868.640015,281.088013,396.256012
862.783997,288.895996,392.351990
862.783997,283.040009,400.160004
864.736023,283.040009,407.967987
860.831970,286.944000,404.063995
862.783997,292.799988,407.967987
862.783997,290.847992,398.208008
851.072021,290.847992,398.208008
862.783997,290.847992,407.967987
856.927979,290.847992,398.208008
854.976013,286.944000,398.208008
856.927979,284.992004,384.544006
854.976013,283.040009,394.303986
853.023987,283.040009,392.351990
854.976013,283.040009,392.351990
856.927979,277.183990,400.160004
849.119995,281.088013,384.544006
851.072021,286.944000,396.256012
843.263977,286.944000,388.447998
847.168030,290.847992,384.544006
853.023987,281.088013,382.592010
839.359985,288.895996,390.399994
849.119995,283.040009,394.303986
845.216003,290.847992,388.447998
841.312012,294.752014,374.783997
839.359985,294.752014,382.592010
835.455994,286.944000,380.640015
843.263977,288.895996,382.592010
835.455994,286.944000,386.496002
837.408020,292.799988,400.160004
839.359985,283.040009,390.399994
831.552002,284.992004,404.063995
839.359985,279.135986,390.399994
831.552002,281.088013,386.496002
837.408020,275.231995,388.447998
841.312012,277.183990,384.544006
839.359985,277.183990,390.399994
841.312012,277.183990,384.544006
831.552002,277.183990,378.687988
833.504028,281.088013,386.496002
829.599976,284.992004,380.640015
823.744019,283.040009,380.640015
829.599976,286.944000,376.735992
825.695984,284.992004,390.399994
831.552002,283.040009,374.783997
831.552002,292.799988,370.880005
829.599976,286.944000,370.880005
823.744019,290.847992,384.544006
825.695984,284.992004,384.544006
819.840027,275.231995,374.783997
825.695984,294.752014,392.351990
825.695984,273.279999,382.592010
813.984009,269.376007,376.735992
817.888000,275.231995,384.544006
821.791992,279.135986,372.832001
804.223999,283.040009,366.976013
815.935974,283.040009,366.976013
819.840027,286.944000,370.880005
812.031982,284.992004,363.071991
812.031982,279.135986,355.264008
810.080017,269.376007,353.312012
813.984009,269.376007,363.071991
810.080017,277.183990,359.167999
806.176025,271.328003,359.167999
804.223999,265.471985,366.976013
810.080017,269.376007,365.023987
808.127991,269.376007,368.928009
804.223999,273.279999,366.976013
817.888000,253.759995,374.783997
813.984009,273.279999,366.976013
808.127991,269.376007,380.640015
808.127991,267.424011,382.592010
812.031982,257.664001,380.640015
800.320007,265.471985,388.447998
817.888000,271.328003,392.351990
810.080017,269.376007,384.544006
813.984009,267.424011,390.399994
806.176025,269.376007,388.447998
817.888000,271.328003,388.447998
810.080017,261.567993,390.399994
813.984009,259.615997,388.447998
817.888000,263.519989,392.351990
819.840027,263.519989,396.256012
815.935974,273.279999,384.544006
821.791992,265.471985,390.399994
813.984009,281.088013,384.544006
813.984009,273.279999,374.783997
812.031982,265.471985,378.687988
819.840027,265.471985,382.592010
815.935974,267.424011,392.351990
821.791992,267.424011,394.303986
819.840027,265.471985,392.351990
817.888000,255.712006,386.496002
819.840027,265.471985,394.303986
829.599976,259.615997,402.112000
817.888000,265.471985,392.351990
813.984009,267.424011,394.303986
819.840027,255.712006,398.208008
823.744019,263.519989,409.920013
831.552002,261.567993,400.160004
823.744019,257.664001,407.967987
827.648010,265.471985,409.920013
833.504028,263.519989,409.920013
831.552002,257.664001,407.967987
825.695984,257.664001,407.967987
827.648010,257.664001,413.824005
825.695984,255.712006,409.920013
833.504028,257.664001,425.536011
843.263977,257.664001,413.824005
841.312012,259.615997,413.824005
841.312012,255.712006,413.824005
847.168030,247.904007,411.872009
837.408020,244.000000,415.776001
835.455994,251.807999,409.920013
841.312012,249.856003,415.776001
831.552002,244.000000,409.920013
833.504028,249.856003,411.872009
827.648010,249.856003,404.063995
835.455994,245.951996,398.208008
835.455994,251.807999,398.208008
835.455994,251.807999,398.208008
839.359985,245.951996,409.920013
849.119995,245.951996,400.160004
839.359985,242.048004,407.967987
847.168030,242.048004,402.112000
835.455994,240.095993,407.967987
837.408020,244.000000,415.776001
839.359985,240.095993,409.920013
837.408020,247.904007,409.920013
837.408020,244.000000,415.776001
841.312012,238.143997,409.920013
841.312012,238.143997,415.776001
853.023987,234.240005,419.679993
841.312012,236.192001,413.824005
837.408020,236.192001,415.776001
833.504028,226.432007,415.776001
841.312012,224.479996,415.776001
837.408020,228.384003,406.015991
831.552002,232.287994,407.967987
841.312012,228.384003,404.063995
841.312012,228.384003,402.112000
835.455994,220.576004,394.303986
837.408020,226.432007,400.160004
833.504028,228.384003,384.544006
835.455994,224.479996,394.303986
837.408020,228.384003,380.640015
835.455994,224.479996,388.447998
835.455994,226.432007,390.399994
835.455994,232.287994,380.640015
837.408020,224.479996,386.496002
835.455994,226.432007,382.592010
833.504028,230.335999,384.544006
827.648010,230.335999,388.447998
831.552002,218.623993,386.496002
835.455994,228.384003,382.592010
839.359985,214.720001,390.399994
835.455994,230.335999,382.592010
839.359985,224.479996,392.351990
839.359985,226.432007,392.351990
837.408020,210.815994,398.208008
833.504028,216.671997,394.303986
833.504028,208.863998,398.208008
837.408020,206.912003,388.447998
833.504028,212.768005,394.303986
827.648010,204.960007,394.303986
833.504028,210.815994,398.208008
827.648010,204.960007,396.256012
827.648010,201.056000,390.399994
833.504028,199.104004,392.351990
827.648010,191.296005,396.256012
825.695984,195.199997,388.447998
823.744019,204.960007,376.735992
819.840027,212.768005,378.687988
821.791992,218.623993,368.928009
819.840027,206.912003,366.976013
815.935974,208.863998,366.976013
825.695984,210.815994,359.167999
823.744019,204.960007,366.976013
821.791992,210.815994,370.880005
817.888000,204.960007,365.023987
821.791992,201.056000,357.216003
823.744019,201.056000,365.023987
821.791992,197.151993,359.167999
821.791992,203.007996,355.264008
821.791992,201.056000,359.167999
825.695984,201.056000,353.312012
825.695984,197.151993,355.264008
821.791992,197.151993,353.312012
829.599976,191.296005,351.359985
829.599976,203.007996,349.407990
825.695984,193.248001,345.503998
833.504028,197.151993,347.455994
829.599976,201.056000,347.455994
821.791992,216.671997,343.552002
823.744019,206.912003,345.503998
825.695984,212.768005,343.552002
821.791992,208.863998,343.552002
823.744019,212.768005,349.407990
827.648010,214.720001,349.407990
831.552002,208.863998,349.407990
837.408020,210.815994,353.312012
837.408020,206.912003,357.216003
835.455994,204.960007,359.167999
843.263977,203.007996,361.119995
841.312012,201.056000,361.119995
847.168030,206.912003,370.880005
843.263977,208.863998,374.783997
835.455994,208.863998,370.880005
847.168030,206.912003,366.976013
845.216003,210.815994,372.832001
845.216003,214.720001,370.880005
853.023987,206.912003,368.928009
849.119995,206.912003,376.735992
845.216003,218.623993,380.640015
847.168030,210.815994,374.783997
849.119995,210.815994,388.447998
847.168030,212.768005,396.256012
851.072021,208.863998,392.351990
862.783997,212.768005,396.256012
870.591980,216.671997,390.399994
856.927979,216.671997,394.303986
866.687988,210.815994,398.208008
864.736023,220.576004,398.208008
856.927979,218.623993,406.015991
853.023987,208.863998,407.967987
858.880005,214.720001,404.063995
853.023987,220.576004,394.303986
856.927979,218.623993,404.063995
864.736023,210.815994,396.256012
868.640015,218.623993,390.399994
862.783997,214.720001,388.447998
868.640015,206.912003,392.351990
856.927979,228.384003,388.447998
866.687988,226.432007,382.592010
868.640015,226.432007,392.351990
866.687988,236.192001,392.351990
858.880005,234.240005,396.256012
870.591980,230.335999,394.303986
862.783997,230.335999,400.160004
872.544006,228.384003,394.303986
856.927979,234.240005,396.256012
874.495972,232.287994,396.256012
862.783997,244.000000,392.351990
862.783997,240.095993,400.160004
868.640015,232.287994,394.303986
868.640015,230.335999,394.303986
868.640015,236.192001,392.351990
866.687988,232.287994,380.640015
872.544006,230.335999,382.592010
876.447998,236.192001,382.592010
872.544006,234.240005,392.351990
864.736023,224.479996,378.687988
858.880005,238.143997,382.592010
862.783997,230.335999,380.640015
862.783997,234.240005,380.640015
872.544006,244.000000,384.544006
870.591980,230.335999,378.687988
862.783997,232.287994,368.928009
870.591980,228.384003,370.880005
862.783997,232.287994,365.023987
853.023987,232.287994,351.359985
860.831970,220.576004,357.216003
864.736023,224.479996,357.216003
853.023987,222.528000,357.216003
860.831970,220.576004,349.407990
858.880005,214.720001,343.552002
856.927979,224.479996,337.696014
860.831970,216.671997,341.600006
868.640015,214.720001,353.312012
866.687988,214.720001,335.743988
866.687988,214.720001,341.600006
864.736023,216.671997,341.600006
866.687988,208.863998,337.696014
854.976013,216.671997,349.407990
854.976013,210.815994,351.359985
858.880005,210.815994,341.600006
860.831970,206.912003,343.552002
858.880005,212.768005,343.552002
858.880005,216.671997,349.407990
864.736023,212.768005,343.552002
870.591980,210.815994,351.359985
866.687988,208.863998,347.455994
872.544006,199.104004,349.407990
876.447998,204.960007,351.359985
876.447998,214.720001,355.264008
888.159973,203.007996,359.167999
870.591980,204.960007,361.119995
862.783997,208.863998,357.216003
862.783997,203.007996,351.359985
868.640015,195.199997,359.167999
874.495972,195.199997,366.976013
864.736023,181.535995,365.023987
870.591980,171.776001,370.880005
864.736023,181.535995,363.071991
866.687988,169.824005,366.976013
851.072021,150.304001,363.071991
843.263977,165.919998,374.783997
866.687988,156.160004,374.783997
868.640015,138.591995,374.783997
884.255981,156.160004,372.832001
886.208008,173.727997,370.880005
897.919983,158.112000,366.976013
895.968018,183.488007,363.071991
915.487976,208.863998,366.976013
909.632019,204.960007,363.071991
913.536011,240.095993,376.735992
917.440002,257.664001,386.496002
923.296021,247.904007,392.351990
929.151978,273.279999,404.063995
933.056030,275.231995,400.160004
927.200012,245.951996,400.160004
931.104004,255.712006,390.399994
929.151978,255.712006,392.351990
923.296021,232.287994,386.496002
917.440002,228.384003,384.544006
927.200012,220.576004,394.303986
913.536011,181.535995,392.351990
931.104004,179.584000,400.160004
929.151978,173.727997,394.303986
923.296021,156.160004,398.208008
929.151978,160.063995,409.920013
931.104004,162.016006,409.920013
917.440002,148.352005,423.584015
923.296021,152.255997,421.631989
921.343994,156.160004,433.343994
925.247986,160.063995,441.152008
927.200012,171.776001,425.536011
929.151978,189.343994,435.295990
933.056030,189.343994,439.200012
935.007996,210.815994,439.200012
936.960022,208.863998,437.247986
940.864014,208.863998,447.007996
936.960022,218.623993,439.200012
942.815979,218.623993,433.343994
929.151978,220.576004,431.391998
927.200012,226.432007,423.584015
921.343994,220.576004,417.727997
915.487976,214.720001,413.824005
915.487976,208.863998,415.776001
913.536011,204.960007,407.967987
907.679993,189.343994,417.727997
903.776001,171.776001,400.160004
917.440002,169.824005,378.687988
907.679993,152.255997,378.687988
899.872009,160.063995,372.832001
897.919983,160.063995,366.976013
895.968018,150.304001,355.264008
894.015991,152.255997,349.407990
897.919983,191.296005,345.503998
890.112000,175.679993,341.600006
894.015991,179.584000,331.839996
892.064026,210.815994,329.888000
880.351990,201.056000,331.839996
878.400024,199.104004,327.936005
886.208008,220.576004,318.175995
874.495972,212.768005,320.127991
874.495972,212.768005,316.223999
884.255981,195.199997,314.272003
876.447998,181.535995,312.320007
880.351990,199.104004,306.463989
884.255981,193.248001,302.559998
872.544006,156.160004,302.559998
860.831970,163.968002,294.752014
866.687988,163.968002,288.895996
860.831970,162.016006,290.847992
862.783997,146.399994,288.895996
851.072021,138.591995,271.328003
864.736023,128.832001,257.664001
876.447998,113.216003,253.759995
880.351990,105.407997,244.000000
886.208008,101.503998,234.240005
876.447998,105.407997,222.528000
858.880005,130.783997,222.528000
845.216003,150.304001,214.720001
841.312012,152.255997,201.056000
835.455994,183.488007,204.960007
825.695984,208.863998,201.056000
821.791992,201.056000,183.488007
819.840027,214.720001,181.535995
819.840027,216.671997,171.776001
823.744019,199.104004,152.255997
843.263977,206.912003,148.352005
839.359985,201.056000,156.160004
843.263977,187.391998,146.399994
833.504028,204.960007,142.496002
837.408020,212.768005,128.832001
823.744019,197.151993,128.832001
819.840027,201.056000,124.928001
813.984009,206.912003,130.783997
808.127991,187.391998,142.496002
810.080017,185.440002,128.832001
808.127991,191.296005,117.120003
810.080017,197.151993,122.975998
804.223999,179.584000,115.167999
810.080017,193.248001,109.311996
821.791992,197.151993,109.311996
819.840027,187.391998,99.552002
817.888000,197.151993,93.695999
817.888000,199.104004,93.695999
821.791992,191.296005,85.888000
813.984009,203.007996,81.984001
815.935974,222.528000,85.888000
819.840027,242.048004,91.744003
808.127991,230.335999,81.984001
808.127991,251.807999,83.935997
825.695984,249.856003,81.984001
815.935974,226.432007,78.080002
827.648010,224.479996,74.176003
833.504028,226.432007,70.272003
831.552002,210.815994,72.223999
825.695984,218.623993,54.655998
815.935974,228.384003,40.992001
833.504028,224.479996,46.848000
835.455994,220.576004,52.703999
829.599976,238.143997,33.183998
821.791992,242.048004,31.232000
841.312012,220.576004,39.040001
829.599976,212.768005,23.424000
835.455994,249.856003,7.808000
829.599976,234.240005,3.904000
825.695984,218.623993,-3.904000
751.520020,333.791992,76.127998
767.135986,390.399994,388.447998
745.664001,-99.552002,402.112000
763.231995,29.280001,99.552002
884.255981,484.096008,-140.544006
942.815979,130.783997,-169.824005
872.544006,-54.655998,-3.904000
866.687988,167.871994,191.296005
821.791992,33.183998,177.632004
878.400024,119.071999,33.183998
909.632019,325.984009,-19.520000
913.536011,83.935997,13.664000
905.728027,99.552002,97.599998
913.536011,292.799988,134.688004
919.392029,242.048004,74.176003
927.200012,292.799988,52.703999
929.151978,365.023987,78.080002
931.104004,271.328003,89.792000
946.719971,308.415985,95.648003
956.479980,355.264008,70.272003
940.864014,296.704010,50.751999
952.575989,327.936005,81.984001
944.768005,257.664001,85.888000
970.143982,197.151993,80.031998
987.711975,255.712006,78.080002
1003.328003,191.296005,78.080002
979.903992,105.407997,81.984001
979.903992,185.440002,105.407997
999.424011,154.207993,119.071999
1003.328003,119.071999,111.264000
1007.231995,177.632004,128.832001
1009.184021,181.535995,144.447998
1020.895996,183.488007,152.255997
1024.800049,236.192001,156.160004
1030.656006,279.135986,158.112000
1022.848022,359.167999,154.207993
1034.560059,417.727997,140.544006
1038.463989,427.488007,142.496002
1040.416016,445.056000,152.255997
1057.984009,482.144012,163.968002
1054.079956,482.144012,181.535995
1059.936035,507.519989,199.104004
1057.984009,515.328003,187.391998
1065.791992,499.712006,169.824005
1083.359985,466.528015,156.160004
1067.744019,445.056000,158.112000
1056.031982,482.144012,136.639999
1056.031982,493.855988,138.591995
1038.463989,394.303986,165.919998
1050.176025,-70.272003,195.199997
1104.832031,-556.320007,228.384003
1143.871948,-726.143982,275.231995
1132.160034,-612.927979,283.040009
1032.608032,-331.839996,329.888000
1231.712036,80.031998,355.264008
1143.871948,402.112000,452.864014
1220.000000,554.367981,499.712006
1200.479980,532.895996,499.712006
1194.624023,372.832001,517.280029
1223.904053,232.287994,493.855988
1227.807983,160.063995,470.432007
1225.855957,179.584000,439.200012
1214.144043,232.287994,380.640015
1192.671997,251.807999,325.984009
1202.432007,-142.496002,308.415985
1145.823975,-472.384003,337.696014
1122.400024,-197.151993,337.696014
1136.063965,558.271973,384.544006
1165.343994,1118.495972,396.256012
1143.871948,1173.151978,384.544006
1130.208008,681.247986,355.264008
1149.728027,27.327999,345.503998
1165.343994,-267.424011,312.320007
1149.728027,-163.968002,273.279999
1157.536011,160.063995,242.048004
1147.776001,482.144012,234.240005
1145.823975,530.943970,208.863998
1132.160034,351.359985,197.151993
1120.447998,87.839996,191.296005
1122.400024,-105.407997,193.248001
1120.447998,-111.264000,185.440002
1116.543945,81.984001,177.632004
1104.832031,294.752014,167.871994
1091.167969,439.200012,156.160004
1093.119995,429.440002,138.591995
1089.215942,341.600006,121.024002
1069.696045,249.856003,105.407997
1071.647949,214.720001,89.792000
1056.031982,267.424011,72.223999
1048.223999,333.791992,66.367996
1024.800049,359.167999,56.608002
1022.848022,335.743988,50.751999
1022.848022,302.559998,42.944000
1022.848022,253.759995,42.944000
1005.280029,230.335999,33.183998
1001.375977,210.815994,31.232000
977.952026,156.160004,13.664000
970.143982,189.343994,0.000000
976.000000,199.104004,-5.856000
958.432007,191.296005,-17.568001
964.288025,148.352005,-15.616000
956.479980,117.120003,-21.472000
956.479980,146.399994,-37.088001
968.192017,148.352005,-46.848000
977.952026,160.063995,-60.512001
968.192017,173.727997,-64.416000
956.479980,199.104004,-66.367996
944.768005,521.184021,-78.080002
942.815979,1005.280029,-33.183998
950.624023,1202.432007,29.280001
950.624023,923.296021,68.320000
956.479980,220.576004,89.792000
989.664001,-517.280029,89.792000
1024.800049,-802.271973,109.311996
1020.895996,-569.984009,119.071999
1015.039978,-101.503998,140.544006
999.424011,251.807999,199.104004
1028.703979,335.743988,230.335999
1036.511963,199.104004,240.095993
1046.271973,19.520000,255.712006
1054.079956,-52.703999,214.720001
1057.984009,91.744003,212.768005
1057.984009,427.488007,191.296005
1048.223999,704.671997,167.871994
1048.223999,806.176025,162.016006
1042.368042,753.471985,122.975998
1036.511963,599.263977,93.695999
1036.511963,423.584015,80.031998
1040.416016,304.511993,50.751999
1024.800049,335.743988,42.944000
1001.375977,407.967987,11.712000
976.000000,409.920013,-42.944000
964.288025,347.455994,-91.744003
935.007996,210.815994,-109.311996
915.487976,56.608002,-111.264000
911.583984,-109.311996,-103.456001
915.487976,-140.544006,-111.264000
917.440002,-78.080002,-128.832001
913.536011,31.232000,-128.832001
917.440002,122.975998,-134.688004
913.536011,173.727997,-128.832001
923.296021,175.679993,-132.735992
925.247986,179.584000,-130.783997
952.575989,343.552002,-93.695999
954.528015,638.304016,-35.136002
940.864014,849.119995,17.568001
931.104004,757.375977,31.232000
983.807983,337.696014,44.896000
1018.943970,-203.007996,35.136002
1028.703979,-610.976013,37.088001
1032.608032,-702.719971,76.127998
972.096008,-370.880005,103.456001
938.911987,314.272003,115.167999
931.104004,882.304016,107.360001
952.575989,1085.312012,101.503998
964.288025,942.815979,83.935997
958.432007,571.935974,62.464001
983.807983,236.192001,29.280001
991.616028,132.735992,-5.856000
991.616028,292.799988,-21.472000
995.520020,542.656006,-56.608002
979.903992,669.536011,-101.503998
946.719971,571.935974,-148.352005
950.624023,283.040009,-191.296005
940.864014,1.952000,-230.335999
931.104004,-197.151993,-257.664001
884.255981,-193.248001,-281.088013
841.312012,76.127998,-288.895996
808.127991,396.256012,-302.559998
782.752014,681.247986,-325.984009
776.895996,837.408020,-283.040009
778.848022,677.343994,-226.432007
812.031982,218.623993,-191.296005
872.544006,-199.104004,-152.255997
921.343994,-404.063995,-130.783997
933.056030,-568.031982,-140.544006
909.632019,-603.168030,-119.071999
901.823975,-441.152008,-72.223999
858.880005,-42.944000,-37.088001
839.359985,374.783997,-33.183998
880.351990,698.815979,-35.136002
886.208008,878.400024,-44.896000
919.392029,894.015991,-85.888000
921.343994,849.119995,-124.928001
958.432007,757.375977,-156.160004
931.104004,655.872009,-181.535995
911.583984,478.239990,-220.576004
913.536011,294.752014,-249.856003
897.919983,50.751999,-292.799988
911.583984,-245.951996,-324.032013
876.447998,-552.416016,-310.368011
829.599976,-691.007996,-206.912003
726.143982,-445.056000,-46.848000
704.671997,357.216003,101.503998
806.176025,1040.416016,201.056000
960.383972,1259.040039,234.240005
1050.176025,1052.128052,216.671997
1091.167969,464.575989,179.584000
1061.887939,-247.904007,169.824005
1054.079956,-569.984009,175.679993
1032.608032,-316.223999,193.248001
1134.112061,83.935997,304.511993
1423.008057,208.863998,833.504028
1858.303955,-117.120003,1752.895996
2084.736084,-415.776001,2203.808105
1608.447998,-144.447998,1465.952026
964.288025,333.791992,271.328003
679.296021,964.288025,-511.424011
659.776001,1680.671997,-868.640015
702.719971,2326.783936,-954.528015
810.080017,2707.424072,-853.023987
913.536011,2826.496094,-657.823975
733.952026,1403.488037,-363.071991
952.575989,-1540.128052,-185.440002
1003.328003,-3447.231934,-117.120003
923.296021,-3546.783936,-179.584000
732.000000,-1585.024048,-249.856003
683.200012,1001.375977,-298.656006
806.176025,2346.303955,-320.127991
911.583984,2299.456055,-277.183990
950.624023,1063.839966,-240.095993
993.567993,-464.575989,-244.000000
1015.039978,-1423.008057,-288.895996
993.567993,-1376.160034,-331.839996
942.815979,-558.271973,-339.648010
911.583984,470.432007,-353.312012
903.776001,1110.687988,-353.312012
956.479980,999.424011,-300.608002
1032.608032,296.704010,-203.007996
1009.184021,-445.056000,-39.040001
954.528015,-528.992004,74.176003
938.911987,103.456001,154.207993
1001.375977,726.143982,179.584000
1108.735962,1069.696045,152.255997
1100.927979,1286.368042,154.207993
1077.504028,1376.160034,140.544006
1038.463989,1315.647949,122.975998
1011.135986,650.015991,93.695999
1095.072021,-361.119995,46.848000
1095.072021,-901.823975,-13.664000
1040.416016,-681.247986,-46.848000
997.471985,89.792000,-76.127998
985.760010,833.504028,-111.264000
1020.895996,1237.567993,-138.591995
991.616028,1071.647949,-150.304001
950.624023,324.032013,-163.968002
938.911987,-591.455994,-195.199997
995.520020,-1056.031982,-224.479996
1009.184021,-938.911987,-228.384003
991.616028,-306.463989,-238.143997
960.383972,372.832001,-238.143997
929.151978,745.664001,-245.951996
950.624023,710.528015,-236.192001
991.616028,281.088013,-251.807999
1009.184021,-257.664001,-232.287994
1024.800049,-493.855988,-185.440002
1007.231995,-357.216003,-115.167999
964.288025,-48.799999,-78.080002
952.575989,275.231995,-58.560001
966.239990,396.256012,-52.703999
962.335999,228.384003,-64.416000
966.239990,-74.176003,-107.360001
987.711975,-324.032013,-150.304001
1032.608032,-380.640015,-158.112000
1065.791992,-238.143997,-169.824005
1069.696045,-19.520000,-179.584000
1100.927979,167.871994,-158.112000
1120.447998,271.328003,-148.352005
1149.728027,197.151993,-119.071999
1196.576050,-5.856000,-105.407997
1220.000000,-183.488007,-68.320000
1251.232056,-216.671997,-40.992001
1255.135986,-80.031998,-9.760000
1264.895996,89.792000,-7.808000
1272.703979,261.567993,-5.856000
1280.511963,324.032013,9.760000
1280.511963,269.376007,17.568001
1272.703979,162.016006,21.472000
1257.088013,68.320000,27.327999
1251.232056,-9.760000,40.992001
1216.095947,-44.896000,74.176003
1173.151978,17.568001,115.167999
1102.880005,218.623993,175.679993
1108.735962,392.351990,236.192001
1122.400024,484.096008,275.231995
1194.624023,634.400024,255.712006
1220.000000,833.504028,236.192001
1231.712036,1036.511963,208.863998
1227.807983,1163.391968,162.016006
1212.192017,1280.511963,122.975998
1286.368042,1307.839966,76.127998
1282.463989,730.047974,76.127998
1376.160034,-632.447998,44.896000
1436.671997,-1479.615967,13.664000
1391.776001,-1411.296021,62.464001
1253.183960,-474.335999,138.591995
1161.439941,726.143982,191.296005
1100.927979,1331.264038,208.863998
1114.592041,1450.336060,193.248001
1097.024048,1266.848022,177.632004
1083.359985,610.976013,138.591995
1130.208008,-318.175995,72.223999
1196.576050,-987.711975,-1.952000
1210.239990,-1139.968018,-27.327999
1196.576050,-751.520020,-3.904000
1149.728027,132.735992,23.424000
1134.112061,952.575989,42.944000
1136.063965,1317.599976,37.088001
1134.112061,1378.112061,40.992001
1104.832031,1147.776001,27.327999
1098.975952,528.992004,33.183998
1126.303955,-187.391998,-3.904000
1118.495972,-646.112000,-39.040001
1056.031982,-675.392029,-74.176003
981.856018,-249.856003,-117.120003
942.815979,386.496002,-179.584000
935.007996,856.927979,-204.960007
960.383972,1016.992004,-212.768005
976.000000,878.400024,-222.528000
997.471985,546.559998,-220.576004
1007.231995,122.975998,-216.671997
1016.992004,-165.919998,-242.048004
995.520020,-247.904007,-259.615997
974.047974,-134.688004,-273.279999
950.624023,138.591995,-294.752014
923.296021,390.399994,-296.704010
915.487976,513.375977,-306.463989
915.487976,499.712006,-316.223999
927.200012,382.592010,-329.888000
917.440002,216.671997,-341.600006
921.343994,121.024002,-378.687988
899.872009,128.832001,-384.544006
899.872009,210.815994,-404.063995
895.968018,308.415985,-423.584015
882.304016,376.735992,-433.343994
872.544006,357.216003,-439.200012
868.640015,298.656006,-431.391998
864.736023,220.576004,-415.776001
856.927979,167.871994,-409.920013
854.976013,154.207993,-413.824005
854.976013,134.688004,-419.679993
860.831970,201.056000,-431.391998
841.312012,263.519989,-454.816010
845.216003,327.936005,-470.432007
821.791992,378.687988,-497.760010
815.935974,400.160004,-536.799988
802.271973,275.231995,-569.984009
784.703979,-13.664000,-544.607971
769.088013,-148.352005,-489.951996
1018.943970,-5.856000,-521.184021
755.424011,327.936005,-421.631989
784.703979,558.271973,-368.928009
921.343994,648.064026,-339.648010
1005.280029,933.056030,-306.463989
970.143982,1202.432007,-220.576004
1038.463989,1344.927979,-181.535995
956.479980,1487.423950,-171.776001
946.719971,1098.975952,-210.815994
940.864014,-128.832001,-222.528000
974.047974,-1085.312012,-251.807999
1044.319946,-1333.215942,-284.992004
921.343994,-1009.184021,-222.528000
940.864014,109.311996,-204.960007
940.864014,1036.511963,-189.343994
933.056030,1259.040039,-195.199997
913.536011,974.047974,-220.576004
966.239990,318.175995,-296.704010
1018.943970,-324.032013,-359.167999
1030.656006,-571.935974,-388.447998
1015.039978,-380.640015,-400.160004
997.471985,113.216003,-398.208008
983.807983,610.976013,-409.920013
1013.088013,839.359985,-415.776001
991.616028,728.096008,-433.343994
940.864014,396.256012,-421.631989
987.711975,-7.808000,-439.200012
964.288025,-201.056000,-421.631989
976.000000,-152.255997,-413.824005
956.479980,93.695999,-400.160004
903.776001,476.287994,-372.832001
935.007996,659.776001,-376.735992
905.728027,681.247986,-376.735992
933.056030,632.447998,-402.112000
907.679993,513.375977,-402.112000
925.247986,365.023987,-404.063995
1044.319946,204.960007,-288.895996
1278.560059,-111.264000,115.167999
1612.352051,-751.520020,628.544006
1682.624023,-1901.248047,817.888000
1426.911987,-2588.352051,482.144012
954.528015,-1631.871948,31.232000
648.064026,130.783997,-646.112000
677.343994,1249.280029,-1198.527954
698.815979,1296.128052,-1288.319946
730.047974,1065.791992,-1071.647949
847.168030,1048.223999,-841.312012
1104.832031,1022.848022,-538.752014
1300.031982,839.359985,-191.296005
1514.751953,732.000000,25.375999
1561.599976,763.231995,119.071999
1545.984009,774.943970,128.832001
1467.904053,808.127991,101.503998
1387.871948,823.744019,60.512001
1335.167969,794.463989,27.327999
1309.791992,710.528015,-1.952000
1317.599976,638.304016,-7.808000
1305.887939,554.367981,3.904000
1300.031982,480.191986,50.751999
1298.079956,437.247986,78.080002
1339.072021,398.208008,64.416000
1339.072021,407.967987,19.520000
1305.887939,441.152008,-23.424000
1251.232056,445.056000,-99.552002
1200.479980,458.720001,-187.391998
1147.776001,493.855988,-261.567993
1097.024048,474.335999,-302.559998
1044.319946,411.872009,-324.032013
1013.088013,366.976013,-355.264008
993.567993,339.648010,-390.399994
972.096008,296.704010,-407.967987
968.192017,263.519989,-433.343994
933.056030,230.335999,-478.239990
919.392029,224.479996,-499.712006
921.343994,234.240005,-497.760010
921.343994,232.287994,-480.191986
935.007996,244.000000,-441.152008
960.383972,290.847992,-390.399994
979.903992,286.944000,-316.223999
995.520020,271.328003,-242.048004
999.424011,257.664001,-222.528000
1024.800049,210.815994,-214.720001
1013.088013,204.960007,-230.335999
981.856018,199.104004,-279.135986
942.815979,218.623993,-327.936005
909.632019,247.904007,-372.832001
913.536011,286.944000,-388.447998
903.776001,308.415985,-390.399994
909.632019,308.415985,-372.832001
905.728027,318.175995,-392.351990
874.495972,365.023987,-491.903992
827.648010,448.959991,-601.216003
772.992004,542.656006,-679.296021
743.711975,657.823975,-722.239990
663.679993,735.903992,-763.231995
671.487976,763.231995,-782.752014
691.007996,726.143982,-655.872009
687.104004,607.072021,-568.031982
802.271973,402.112000,-493.855988
894.015991,169.824005,-343.552002
952.575989,-66.367996,-247.904007
1052.128052,-199.104004,-165.919998
1056.031982,-203.007996,-107.360001
1079.456055,-224.479996,-158.112000
1020.895996,-165.919998,-234.240005
964.288025,78.080002,-316.223999
936.960022,183.488007,-417.727997
872.544006,283.040009,-448.959991
880.351990,294.752014,-464.575989
894.015991,244.000000,-433.343994
909.632019,218.623993,-378.687988
936.960022,197.151993,-355.264008
950.624023,179.584000,-339.648010
938.911987,208.863998,-335.743988
933.056030,236.192001,-370.880005
911.583984,275.231995,-390.399994
884.255981,308.415985,-433.343994
854.976013,343.552002,-462.623993
837.408020,363.071991,-480.191986
821.791992,324.032013,-478.239990
812.031982,216.671997,-456.768005
821.791992,109.311996,-413.824005
823.744019,29.280001,-392.351990
849.119995,-25.375999,-366.976013
835.455994,-19.520000,-343.552002
835.455994,-54.655998,-357.216003
827.648010,-238.143997,-347.455994
837.408020,-382.592010,-357.216003
888.159973,-388.447998,-370.880005
886.208008,-152.255997,-365.023987
899.872009,189.343994,-333.791992
890.112000,407.967987,-322.079987
882.304016,484.096008,-333.791992
872.544006,365.023987,-382.592010
874.495972,185.440002,-433.343994
862.783997,83.935997,-488.000000
851.072021,60.512001,-515.328003
835.455994,119.071999,-515.328003
835.455994,189.343994,-517.280029
823.744019,244.000000,-499.712006
827.648010,257.664001,-478.239990
821.791992,226.432007,-480.191986
835.455994,195.199997,-454.816010
833.504028,195.199997,-431.391998
839.359985,173.727997,-419.679993
858.880005,195.199997,-431.391998
864.736023,204.960007,-394.303986
895.968018,175.679993,-366.976013
892.064026,179.584000,-349.407990
907.679993,144.447998,-365.023987
911.583984,111.264000,-349.407990
935.007996,93.695999,-355.264008
917.440002,83.935997,-368.928009
919.392029,80.031998,-382.592010
903.776001,113.216003,-366.976013
909.632019,171.776001,-361.119995
899.872009,201.056000,-355.264008
911.583984,224.479996,-361.119995
899.872009,238.143997,-390.399994
907.679993,242.048004,-413.824005
897.919983,242.048004,-458.720001
894.015991,238.143997,-491.903992
892.064026,214.720001,-511.424011
897.919983,197.151993,-505.567993
895.968018,160.063995,-468.480011
929.151978,144.447998,-417.727997
940.864014,150.304001,-349.407990
972.096008,171.776001,-333.791992
972.096008,216.671997,-333.791992
956.479980,271.328003,-339.648010
960.383972,304.511993,-314.272003
964.288025,312.320007,-296.704010
976.000000,304.511993,-312.320007
952.575989,302.559998,-357.216003
935.007996,292.799988,-411.872009
909.632019,300.608002,-454.816010
901.823975,304.511993,-513.375977
895.968018,325.984009,-558.271973
897.919983,351.359985,-579.744019
903.776001,325.984009,-517.280029
919.392029,199.104004,-427.488007
954.528015,17.568001,-327.936005
1011.135986,-152.255997,-232.287994
1050.176025,-226.432007,-187.391998
1056.031982,-242.048004,-189.343994
1018.943970,-181.535995,-253.759995
962.335999,-31.232000,-351.359985
913.536011,171.776001,-464.575989
882.304016,380.640015,-528.992004
884.255981,501.664001,-552.416016
901.823975,552.416016,-523.135986
950.624023,511.424011,-458.720001
981.856018,357.216003,-384.544006
1005.280029,187.391998,-333.791992
993.567993,109.311996,-324.032013
979.903992,138.591995,-365.023987
966.239990,263.519989,-437.247986
925.247986,374.783997,-501.664001
903.776001,458.720001,-540.703979
882.304016,435.295990,-538.752014
886.208008,363.071991,-507.519989
919.392029,271.328003,-456.768005
964.288025,148.352005,-384.544006
991.616028,42.944000,-324.032013
1013.088013,-56.608002,-298.656006
999.424011,-68.320000,-325.984009
964.288025,-5.856000,-388.447998
923.296021,150.304001,-482.144012
886.208008,329.888000,-564.127991
868.640015,484.096008,-587.552002
886.208008,530.943970,-517.280029
915.487976,462.623993,-423.584015
936.960022,281.088013,-343.552002
976.000000,103.456001,-316.223999
977.952026,-19.520000,-302.559998
968.192017,-52.703999,-339.648010
940.864014,27.327999,-404.063995
907.679993,144.447998,-458.720001
876.447998,306.463989,-513.375977
864.736023,386.496002,-530.943970
868.640015,437.247986,-507.519989
874.495972,394.303986,-464.575989
901.823975,300.608002,-400.160004
936.960022,193.248001,-347.455994
958.432007,87.839996,-308.415985
952.575989,58.560001,-331.839996
919.392029,85.888000,-409.920013
872.544006,201.056000,-493.855988
841.312012,318.175995,-550.463989
815.935974,407.967987,-597.312012
815.935974,470.432007,-605.119995
819.840027,470.432007,-568.031982
849.119995,396.256012,-517.280029
864.736023,324.032013,-454.816010
886.208008,214.720001,-466.528015
884.255981,158.112000,-445.056000
878.400024,183.488007,-495.808014
849.119995,214.720001,-515.328003
835.455994,298.656006,-542.656006
835.455994,322.079987,-558.271973
833.504028,366.976013,-540.703979
845.216003,366.976013,-558.271973
833.504028,353.312012,-558.271973
851.072021,353.312012,-552.416016
870.591980,286.944000,-484.096008
927.200012,187.391998,-363.071991
1003.328003,68.320000,-286.944000
1016.992004,-3.904000,-257.664001
1013.088013,-70.272003,-281.088013
962.335999,-97.599998,-378.687988
901.823975,-64.416000,-488.000000
851.072021,35.136002,-595.359985
804.223999,212.768005,-659.776001
806.176025,327.936005,-683.200012
796.416016,390.399994,-679.296021
819.840027,429.440002,-650.015991
815.935974,464.575989,-630.495972
808.127991,484.096008,-677.343994
788.607971,495.808014,-689.056030
776.895996,511.424011,-696.864014
778.848022,527.039978,-659.776001
802.271973,497.760010,-589.504028
839.359985,454.816010,-501.664001
874.495972,437.247986,-407.967987
886.208008,417.727997,-384.544006
870.591980,396.256012,-458.720001
839.359985,386.496002,-566.080017
812.031982,380.640015,-630.495972
780.799988,368.928009,-681.247986
772.992004,349.407990,-706.624023
757.375977,341.600006,-687.104004
771.039978,341.600006,-696.864014
763.231995,349.407990,-679.296021
751.520020,359.167999,-677.343994
767.135986,372.832001,-671.487976
767.135986,386.496002,-644.159973
794.463989,386.496002,-661.728027
798.367981,374.783997,-675.392029
802.271973,378.687988,-673.440002
829.599976,382.592010,-663.679993
841.312012,380.640015,-640.255981
958.432007,181.535995,-536.799988
1419.104004,-226.432007,109.311996
940.864014,396.256012,-747.616028
1071.647949,-212.768005,-495.808014
1303.936035,140.544006,-80.031998
1036.511963,351.359985,-554.367981
1153.631958,124.928001,-228.384003
1104.832031,569.984009,-370.880005
1247.328003,95.648003,-33.183998
1233.663940,452.864014,-175.679993
1202.432007,300.608002,-97.599998
1134.112061,530.943970,-292.799988
1284.416016,197.151993,-152.255997
1173.151978,458.720001,-249.856003
1015.039978,406.015991,-566.080017
1139.968018,126.879997,-85.888000
958.432007,540.703979,-603.168030
1028.703979,81.984001,-466.528015
970.143982,368.928009,-425.536011
923.296021,150.304001,-655.872009
1018.943970,17.568001,-384.544006
860.831970,390.399994,-644.159973
886.208008,105.407997,-585.599976
1093.119995,44.896000,-167.871994
894.015991,353.312012,-659.776001
950.624023,-15.616000,-470.432007
829.599976,538.752014,-761.280029
808.127991,226.432007,-751.520020
1063.839966,146.399994,-273.279999
845.216003,482.144012,-757.375977
874.495972,136.639999,-599.263977
868.640015,468.480011,-628.544006
856.927979,232.287994,-648.064026
946.719971,156.160004,-472.384003
798.367981,484.096008,-685.151978
657.823975,505.567993,-884.255981
864.736023,271.328003,-642.208008
905.728027,337.696014,-556.320007
899.872009,-1.952000,-558.271973
749.567993,497.760010,-808.127991
644.159973,515.328003,-936.960022
636.351990,575.840027,-915.487976
774.943970,304.511993,-745.664001
942.815979,140.544006,-464.575989
784.703979,327.936005,-687.104004
737.856018,359.167999,-759.328003
804.223999,308.415985,-716.383972
780.799988,413.824005,-732.000000
732.000000,347.455994,-782.752014
735.903992,366.976013,-757.375977
728.096008,394.303986,-788.607971
833.504028,191.296005,-609.023987
761.280029,398.208008,-728.096008
648.064026,409.920013,-894.015991
614.880005,427.488007,-923.296021
605.119995,417.727997,-931.104004
607.072021,337.696014,-890.112000
700.768005,160.063995,-757.375977
784.703979,132.735992,-597.312012
646.112000,253.759995,-882.304016
634.400024,185.440002,-886.208008
636.351990,216.671997,-907.679993
630.495972,152.255997,-919.392029
626.591980,109.311996,-948.671997
640.255981,113.216003,-944.768005
607.072021,121.024002,-1003.328003
605.119995,105.407997,-995.520020
661.728027,29.280001,-933.056030
755.424011,-19.520000,-755.424011
691.007996,48.799999,-935.007996
657.823975,27.327999,-936.960022
675.392029,60.512001,-868.640015
704.671997,113.216003,-804.223999
747.616028,199.104004,-730.047974
866.687988,427.488007,-667.583984
1028.703979,489.951996,-534.848022
1161.439941,505.567993,-357.216003
1268.800049,552.416016,-210.815994
1313.696045,628.544006,-52.703999
1372.255981,650.015991,48.799999
1421.056030,657.823975,109.311996
1440.576050,675.392029,140.544006
1444.479980,696.864014,115.167999
1424.959961,642.208008,70.272003
1421.056030,593.408020,42.944000
1411.296021,443.104004,7.808000
1395.680054,234.240005,-5.856000
1374.208008,44.896000,-13.664000
1368.352051,-136.639999,-33.183998
1356.640015,-302.559998,-58.560001
1350.784058,-398.208008,-56.608002
1339.072021,-460.671997,-70.272003
1333.215942,-509.471985,-87.839996
1323.456055,-540.703979,-119.071999
1296.128052,-530.943970,-122.975998
1298.079956,-489.951996,-136.639999
1274.656006,-468.480011,-156.160004
1255.135986,-378.687988,-177.632004
1210.239990,-269.376007,-195.199997
1190.719971,-138.591995,-224.479996
1151.680054,17.568001,-240.095993
1134.112061,169.824005,-288.895996
1104.832031,333.791992,-327.936005
1089.215942,493.855988,-365.023987
1087.264038,603.168030,-382.592010
1073.599976,694.911987,-392.351990
1065.791992,739.807983,-378.687988
1079.456055,745.664001,-359.167999
1100.927979,720.288025,-335.743988
1095.072021,663.679993,-312.320007
1116.543945,605.119995,-308.415985
1110.687988,530.943970,-312.320007
1095.072021,447.007996,-322.079987
1079.456055,347.455994,-339.648010
1046.271973,269.376007,-365.023987
1022.848022,173.727997,-402.112000
999.424011,99.552002,-437.247986
981.856018,35.136002,-476.287994
954.528015,-19.520000,-489.951996
942.815979,-50.751999,-497.760010
936.960022,-50.751999,-499.712006
940.864014,-27.327999,-507.519989
938.911987,7.808000,-491.903992
946.719971,76.127998,-470.432007
944.768005,140.544006,-458.720001
950.624023,203.007996,-470.432007
946.719971,253.759995,-480.191986
940.864014,296.704010,-495.808014
927.200012,306.463989,-486.048004
901.823975,306.463989,-509.471985
890.112000,284.992004,-515.328003
895.968018,251.807999,-530.943970
892.064026,203.007996,-546.559998
890.112000,171.776001,-534.848022
870.591980,140.544006,-527.039978
860.831970,122.975998,-519.231995
868.640015,113.216003,-519.231995
864.736023,124.928001,-519.231995
874.495972,136.639999,-523.135986
876.447998,169.824005,-519.231995
862.783997,181.535995,-517.280029
866.687988,204.960007,-505.567993
862.783997,212.768005,-515.328003
858.880005,224.479996,-530.943970
860.831970,224.479996,-528.992004
858.880005,222.528000,-523.135986
856.927979,203.007996,-519.231995
843.263977,216.671997,-523.135986
847.168030,191.296005,-527.039978
841.312012,175.679993,-527.039978
845.216003,163.968002,-523.135986
843.263977,163.968002,-525.088013
849.119995,163.968002,-530.943970
845.216003,171.776001,-519.231995
833.504028,177.632004,-519.231995
837.408020,187.391998,-517.280029
841.312012,201.056000,-519.231995
841.312012,208.863998,-534.848022
823.744019,214.720001,-519.231995
817.888000,220.576004,-517.280029
804.223999,226.432007,-521.184021
802.271973,218.623993,-532.895996
788.607971,214.720001,-550.463989
782.752014,201.056000,-558.271973
771.039978,201.056000,-566.080017
763.231995,187.391998,-575.840027
767.135986,187.391998,-569.984009
774.943970,195.199997,-571.935974
780.799988,201.056000,-568.031982
774.943970,199.104004,-566.080017
790.559998,224.479996,-560.223999
802.271973,226.432007,-548.512024
810.080017,232.287994,-542.656006
802.271973,236.192001,-544.607971
806.176025,247.904007,-546.559998
802.271973,236.192001,-546.559998
800.320007,242.048004,-550.463989
802.271973,242.048004,-564.127991
794.463989,240.095993,-569.984009
786.656006,244.000000,-571.935974
788.607971,230.335999,-583.648010
794.463989,238.143997,-569.984009
788.607971,245.951996,-568.031982
800.320007,249.856003,-552.416016
804.223999,244.000000,-558.271973
808.127991,253.759995,-550.463989
815.935974,257.664001,-546.559998
815.935974,273.279999,-534.848022
837.408020,281.088013,-546.559998
815.935974,284.992004,-550.463989
808.127991,273.279999,-546.559998
810.080017,286.944000,-552.416016
819.840027,281.088013,-566.080017
808.127991,284.992004,-560.223999
813.984009,284.992004,-571.935974
812.031982,288.895996,-573.888000
813.984009,283.040009,-560.223999
