ACC_X,ACC_Y,ACC_Z
724.192017,452.864014,525.088013
718.335999,462.623993,517.280029
720.288025,466.528015,521.184021
728.096008,460.671997,525.088013
712.479980,452.864014,519.231995
720.288025,460.671997,523.135986
720.288025,466.528015,519.231995
724.192017,460.671997,519.231995
722.239990,456.768005,527.039978
730.047974,456.768005,523.135986
724.192017,454.816010,523.135986
722.239990,458.720001,528.992004
732.000000,462.623993,525.088013
726.143982,452.864014,519.231995
722.239990,458.720001,528.992004
732.000000,454.816010,527.039978
728.096008,462.623993,525.088013
722.239990,462.623993,527.039978
718.335999,462.623993,521.184021
732.000000,470.432007,515.328003
732.000000,458.720001,525.088013
728.096008,462.623993,517.280029
726.143982,458.720001,519.231995
730.047974,462.623993,517.280029
730.047974,460.671997,515.328003
735.903992,460.671997,517.280029
732.000000,464.575989,525.088013
722.239990,464.575989,523.135986
732.000000,468.480011,528.992004
732.000000,456.768005,519.231995
726.143982,466.528015,525.088013
733.952026,460.671997,519.231995
733.952026,464.575989,525.088013
735.903992,466.528015,519.231995
728.096008,472.384003,515.328003
732.000000,466.528015,519.231995
722.239990,468.480011,525.088013
739.807983,464.575989,515.328003
732.000000,466.528015,505.567993
737.856018,460.671997,517.280029
730.047974,456.768005,525.088013
730.047974,464.575989,519.231995
726.143982,470.432007,513.375977
735.903992,468.480011,521.184021
737.856018,468.480011,521.184021
728.096008,466.528015,525.088013
735.903992,476.287994,521.184021
735.903992,476.287994,521.184021
733.952026,478.239990,511.424011
735.903992,464.575989,511.424011
733.952026,472.384003,515.328003
732.000000,478.239990,515.328003
733.952026,468.480011,527.039978
733.952026,466.528015,519.231995
741.760010,474.335999,525.088013
737.856018,468.480011,521.184021
739.807983,456.768005,519.231995
739.807983,466.528015,521.184021
733.952026,460.671997,519.231995
735.903992,464.575989,517.280029
743.711975,478.239990,517.280029
745.664001,472.384003,521.184021
745.664001,478.239990,525.088013
743.711975,476.287994,525.088013
735.903992,480.191986,525.088013
735.903992,476.287994,521.184021
743.711975,472.384003,525.088013
741.760010,474.335999,519.231995
745.664001,470.432007,523.135986
741.760010,472.384003,525.088013
741.760010,472.384003,525.088013
737.856018,484.096008,525.088013
741.760010,476.287994,530.943970
741.760010,489.951996,523.135986
737.856018,476.287994,523.135986
745.664001,478.239990,525.088013
745.664001,470.432007,528.992004
743.711975,482.144012,530.943970
747.616028,472.384003,525.088013
747.616028,476.287994,525.088013
747.616028,482.144012,527.039978
743.711975,472.384003,527.039978
739.807983,468.480011,525.088013
741.760010,470.432007,528.992004
743.711975,482.144012,523.135986
745.664001,488.000000,521.184021
743.711975,484.096008,528.992004
747.616028,480.191986,530.943970
737.856018,484.096008,523.135986
737.856018,482.144012,527.039978
743.711975,480.191986,525.088013
737.856018,482.144012,527.039978
735.903992,482.144012,532.895996
737.856018,476.287994,528.992004
735.903992,474.335999,527.039978
737.856018,484.096008,525.088013
735.903992,476.287994,521.184021
741.760010,480.191986,519.231995
735.903992,486.048004,523.135986
735.903992,470.432007,513.375977
730.047974,474.335999,527.039978
730.047974,480.191986,527.039978
733.952026,468.480011,525.088013
724.192017,478.239990,525.088013
733.952026,472.384003,534.848022
741.760010,478.239990,536.799988
733.952026,468.480011,536.799988
735.903992,474.335999,530.943970
733.952026,468.480011,532.895996
732.000000,468.480011,530.943970
728.096008,468.480011,536.799988
733.952026,466.528015,530.943970
735.903992,474.335999,532.895996
732.000000,478.239990,530.943970
722.239990,478.239990,530.943970
724.192017,468.480011,540.703979
728.096008,474.335999,527.039978
724.192017,468.480011,534.848022
726.143982,476.287994,534.848022
722.239990,470.432007,540.703979
728.096008,472.384003,534.848022
724.192017,474.335999,532.895996
722.239990,470.432007,527.039978
728.096008,482.144012,540.703979
730.047974,472.384003,544.607971
728.096008,472.384003,540.703979
726.143982,468.480011,532.895996
722.239990,470.432007,544.607971
726.143982,478.239990,534.848022
722.239990,472.384003,540.703979
722.239990,472.384003,540.703979
728.096008,470.432007,534.848022
728.096008,462.623993,538.752014
724.192017,464.575989,540.703979
718.335999,468.480011,544.607971
724.192017,470.432007,530.943970
724.192017,474.335999,523.135986
722.239990,472.384003,534.848022
724.192017,464.575989,538.752014
722.239990,468.480011,534.848022
722.239990,464.575989,534.848022
728.096008,474.335999,540.703979
728.096008,472.384003,540.703979
728.096008,464.575989,538.752014
730.047974,472.384003,536.799988
720.288025,470.432007,534.848022
716.383972,470.432007,538.752014
714.432007,472.384003,532.895996
710.528015,464.575989,532.895996
718.335999,468.480011,534.848022
724.192017,468.480011,534.848022
716.383972,472.384003,528.992004
720.288025,470.432007,534.848022
714.432007,470.432007,523.135986
712.479980,468.480011,532.895996
724.192017,470.432007,536.799988
716.383972,464.575989,532.895996
728.096008,460.671997,536.799988
710.528015,464.575989,532.895996
720.288025,476.287994,528.992004
724.192017,470.432007,530.943970
718.335999,470.432007,525.088013
722.239990,466.528015,525.088013
716.383972,470.432007,532.895996
714.432007,472.384003,530.943970
720.288025,468.480011,525.088013
712.479980,468.480011,521.184021
714.432007,472.384003,527.039978
724.192017,476.287994,523.135986
720.288025,472.384003,521.184021
720.288025,476.287994,517.280029
710.528015,482.144012,521.184021
718.335999,482.144012,523.135986
724.192017,478.239990,525.088013
716.383972,468.480011,521.184021
714.432007,470.432007,525.088013
716.383972,470.432007,528.992004
718.335999,482.144012,519.231995
716.383972,468.480011,515.328003
718.335999,468.480011,515.328003
714.432007,484.096008,519.231995
710.528015,476.287994,517.280029
716.383972,478.239990,525.088013
718.335999,474.335999,513.375977
728.096008,482.144012,515.328003
714.432007,476.287994,517.280029
720.288025,472.384003,519.231995
724.192017,476.287994,523.135986
722.239990,472.384003,523.135986
714.432007,486.048004,511.424011
714.432007,474.335999,511.424011
708.575989,472.384003,509.471985
718.335999,474.335999,523.135986
706.624023,466.528015,513.375977
706.624023,470.432007,519.231995
708.575989,472.384003,515.328003
714.432007,478.239990,513.375977
706.624023,470.432007,519.231995
710.528015,464.575989,521.184021
716.383972,466.528015,507.519989
710.528015,460.671997,515.328003
716.383972,464.575989,507.519989
708.575989,464.575989,515.328003
718.335999,468.480011,515.328003
706.624023,468.480011,511.424011
708.575989,456.768005,517.280029
710.528015,464.575989,509.471985
708.575989,462.623993,511.424011
704.671997,466.528015,517.280029
700.768005,460.671997,511.424011
706.624023,466.528015,513.375977
712.479980,464.575989,517.280029
710.528015,456.768005,519.231995
714.432007,458.720001,521.184021
712.479980,464.575989,509.471985
704.671997,460.671997,513.375977
700.768005,460.671997,513.375977
702.719971,464.575989,503.615997
696.864014,460.671997,509.471985
700.768005,462.623993,517.280029
702.719971,462.623993,507.519989
708.575989,460.671997,513.375977
704.671997,468.480011,509.471985
692.960022,464.575989,511.424011
700.768005,458.720001,511.424011
694.911987,460.671997,513.375977
700.768005,466.528015,519.231995
696.864014,458.720001,513.375977
698.815979,456.768005,515.328003
694.911987,470.432007,507.519989
689.056030,460.671997,523.135986
694.911987,464.575989,519.231995
691.007996,454.816010,517.280029
694.911987,448.959991,521.184021
696.864014,452.864014,513.375977
691.007996,452.864014,523.135986
696.864014,454.816010,515.328003
689.056030,447.007996,513.375977
691.007996,452.864014,511.424011
692.960022,454.816010,521.184021
692.960022,454.816010,523.135986
687.104004,447.007996,525.088013
681.247986,452.864014,525.088013
691.007996,437.247986,517.280029
689.056030,437.247986,519.231995
687.104004,435.295990,515.328003
689.056030,433.343994,521.184021
687.104004,443.104004,523.135986
683.200012,439.200012,528.992004
681.247986,441.152008,527.039978
685.151978,437.247986,523.135986
685.151978,427.488007,525.088013
679.296021,431.391998,515.328003
675.392029,439.200012,519.231995
671.487976,435.295990,519.231995
683.200012,429.440002,521.184021
685.151978,433.343994,523.135986
685.151978,445.056000,525.088013
679.296021,443.104004,517.280029
673.440002,435.295990,513.375977
681.247986,435.295990,521.184021
675.392029,445.056000,525.088013
681.247986,435.295990,515.328003
679.296021,439.200012,523.135986
681.247986,431.391998,513.375977
677.343994,425.536011,519.231995
687.104004,431.391998,515.328003
675.392029,435.295990,521.184021
671.487976,437.247986,519.231995
675.392029,429.440002,517.280029
675.392029,431.391998,517.280029
677.343994,431.391998,519.231995
679.296021,431.391998,525.088013
681.247986,427.488007,519.231995
677.343994,425.536011,517.280029
679.296021,441.152008,525.088013
683.200012,429.440002,523.135986
677.343994,435.295990,521.184021
677.343994,431.391998,523.135986
673.440002,435.295990,519.231995
671.487976,429.440002,521.184021
671.487976,433.343994,521.184021
671.487976,435.295990,519.231995
677.343994,419.679993,513.375977
681.247986,435.295990,515.328003
673.440002,425.536011,523.135986
671.487976,431.391998,519.231995
677.343994,431.391998,521.184021
677.343994,419.679993,513.375977
675.392029,433.343994,517.280029
671.487976,423.584015,511.424011
679.296021,417.727997,517.280029
677.343994,421.631989,515.328003
685.151978,425.536011,511.424011
673.440002,429.440002,515.328003
683.200012,429.440002,515.328003
675.392029,425.536011,515.328003
671.487976,427.488007,511.424011
673.440002,431.391998,521.184021
675.392029,431.391998,513.375977
681.247986,429.440002,509.471985
685.151978,435.295990,515.328003
675.392029,429.440002,517.280029
683.200012,423.584015,511.424011
685.151978,425.536011,515.328003
689.056030,425.536011,517.280029
687.104004,433.343994,507.519989
677.343994,423.584015,515.328003
681.247986,431.391998,515.328003
681.247986,435.295990,507.519989
685.151978,431.391998,521.184021
687.104004,429.440002,511.424011
692.960022,435.295990,507.519989
683.200012,437.247986,511.424011
689.056030,433.343994,509.471985
696.864014,441.152008,515.328003
694.911987,431.391998,515.328003
692.960022,431.391998,511.424011
692.960022,437.247986,517.280029
687.104004,437.247986,521.184021
691.007996,429.440002,523.135986
692.960022,441.152008,517.280029
692.960022,431.391998,513.375977
694.911987,429.440002,517.280029
692.960022,429.440002,511.424011
694.911987,439.200012,507.519989
692.960022,429.440002,511.424011
694.911987,435.295990,511.424011
704.671997,439.200012,517.280029
698.815979,429.440002,521.184021
696.864014,439.200012,515.328003
698.815979,443.104004,521.184021
696.864014,435.295990,525.088013
700.768005,433.343994,519.231995
698.815979,447.007996,521.184021
706.624023,439.200012,515.328003
706.624023,447.007996,521.184021
708.575989,439.200012,523.135986
702.719971,437.247986,517.280029
708.575989,443.104004,519.231995
698.815979,443.104004,519.231995
712.479980,433.343994,521.184021
708.575989,439.200012,528.992004
710.528015,433.343994,521.184021
710.528015,439.200012,523.135986
714.432007,439.200012,525.088013
716.383972,439.200012,532.895996
720.288025,443.104004,513.375977
710.528015,439.200012,523.135986
720.288025,445.056000,525.088013
714.432007,441.152008,521.184021
712.479980,439.200012,525.088013
728.096008,433.343994,525.088013
722.239990,439.200012,532.895996
720.288025,439.200012,527.039978
712.479980,441.152008,525.088013
728.096008,445.056000,525.088013
722.239990,448.959991,519.231995
724.192017,445.056000,523.135986
718.335999,445.056000,515.328003
728.096008,448.959991,511.424011
724.192017,443.104004,517.280029
728.096008,447.007996,521.184021
730.047974,439.200012,525.088013
733.952026,439.200012,521.184021
732.000000,445.056000,511.424011
728.096008,445.056000,509.471985
737.856018,447.007996,521.184021
726.143982,443.104004,523.135986
726.143982,439.200012,517.280029
733.952026,443.104004,525.088013
732.000000,443.104004,523.135986
737.856018,447.007996,528.992004
739.807983,448.959991,519.231995
733.952026,441.152008,521.184021
739.807983,441.152008,521.184021
739.807983,447.007996,517.280029
733.952026,439.200012,532.895996
732.000000,445.056000,523.135986
735.903992,445.056000,525.088013
730.047974,429.440002,519.231995
735.903992,443.104004,521.184021
733.952026,447.007996,517.280029
737.856018,441.152008,517.280029
737.856018,445.056000,523.135986
733.952026,447.007996,515.328003
747.616028,441.152008,525.088013
739.807983,445.056000,519.231995
745.664001,447.007996,519.231995
749.567993,443.104004,521.184021
741.760010,447.007996,519.231995
747.616028,441.152008,525.088013
741.760010,429.440002,523.135986
749.567993,433.343994,519.231995
743.711975,433.343994,523.135986
751.520020,439.200012,523.135986
753.471985,433.343994,525.088013
747.616028,431.391998,511.424011
749.567993,435.295990,521.184021
741.760010,439.200012,521.184021
743.711975,435.295990,515.328003
753.471985,437.247986,517.280029
755.424011,437.247986,515.328003
751.520020,435.295990,515.328003
751.520020,448.959991,517.280029
749.567993,441.152008,525.088013
741.760010,450.911987,521.184021
747.616028,441.152008,521.184021
757.375977,450.911987,513.375977
751.520020,447.007996,515.328003
747.616028,450.911987,507.519989
751.520020,454.816010,517.280029
745.664001,441.152008,519.231995
749.567993,437.247986,509.471985
747.616028,443.104004,509.471985
741.760010,443.104004,505.567993
745.664001,454.816010,511.424011
747.616028,447.007996,511.424011
743.711975,437.247986,503.615997
741.760010,448.959991,505.567993
745.664001,454.816010,507.519989
741.760010,454.816010,507.519989
751.520020,447.007996,515.328003
737.856018,458.720001,511.424011
747.616028,462.623993,509.471985
741.760010,447.007996,507.519989
735.903992,448.959991,503.615997
733.952026,458.720001,515.328003
745.664001,456.768005,515.328003
743.711975,456.768005,509.471985
739.807983,452.864014,513.375977
747.616028,445.056000,505.567993
751.520020,454.816010,507.519989
739.807983,445.056000,507.519989
743.711975,454.816010,509.471985
739.807983,454.816010,507.519989
745.664001,450.911987,507.519989
751.520020,448.959991,505.567993
735.903992,450.911987,501.664001
747.616028,456.768005,511.424011
749.567993,452.864014,511.424011
743.711975,460.671997,509.471985
737.856018,460.671997,513.375977
743.711975,456.768005,509.471985
749.567993,466.528015,521.184021
747.616028,456.768005,513.375977
749.567993,456.768005,513.375977
747.616028,466.528015,509.471985
741.760010,470.432007,503.615997
745.664001,470.432007,503.615997
743.711975,470.432007,499.712006
745.664001,460.671997,503.615997
741.760010,460.671997,503.615997
745.664001,460.671997,495.808014
755.424011,456.768005,501.664001
753.471985,466.528015,499.712006
751.520020,460.671997,501.664001
747.616028,458.720001,499.712006
755.424011,464.575989,517.280029
745.664001,474.335999,517.280029
751.520020,464.575989,495.808014
759.328003,472.384003,499.712006
749.567993,474.335999,503.615997
757.375977,466.528015,507.519989
751.520020,468.480011,495.808014
753.471985,468.480011,495.808014
761.280029,472.384003,501.664001
751.520020,468.480011,497.760010
755.424011,478.239990,497.760010
759.328003,468.480011,493.855988
759.328003,472.384003,501.664001
767.135986,476.287994,497.760010
757.375977,474.335999,491.903992
761.280029,472.384003,493.855988
759.328003,480.191986,499.712006
757.375977,486.048004,491.903992
767.135986,480.191986,495.808014
761.280029,474.335999,497.760010
763.231995,480.191986,489.951996
761.280029,482.144012,495.808014
761.280029,474.335999,497.760010
761.280029,480.191986,501.664001
761.280029,486.048004,501.664001
761.280029,486.048004,491.903992
767.135986,476.287994,499.712006
769.088013,480.191986,499.712006
769.088013,482.144012,495.808014
767.135986,482.144012,493.855988
774.943970,478.239990,488.000000
769.088013,478.239990,497.760010
769.088013,482.144012,495.808014
769.088013,480.191986,495.808014
774.943970,480.191986,499.712006
767.135986,482.144012,488.000000
769.088013,474.335999,491.903992
778.848022,478.239990,488.000000
774.943970,476.287994,493.855988
771.039978,470.432007,491.903992
774.943970,478.239990,491.903992
774.943970,478.239990,497.760010
774.943970,482.144012,493.855988
778.848022,472.384003,495.808014
772.992004,482.144012,503.615997
780.799988,474.335999,491.903992
767.135986,474.335999,493.855988
774.943970,482.144012,493.855988
767.135986,476.287994,489.951996
767.135986,474.335999,495.808014
765.184021,480.191986,491.903992
759.328003,486.048004,497.760010
772.992004,472.384003,491.903992
759.328003,472.384003,489.951996
763.231995,480.191986,489.951996
761.280029,474.335999,488.000000
765.184021,470.432007,484.096008
778.848022,470.432007,484.096008
769.088013,478.239990,497.760010
761.280029,468.480011,491.903992
767.135986,472.384003,501.664001
763.231995,474.335999,499.712006
761.280029,474.335999,495.808014
767.135986,468.480011,491.903992
769.088013,474.335999,497.760010
765.184021,470.432007,495.808014
767.135986,478.239990,491.903992
767.135986,478.239990,489.951996
774.943970,472.384003,493.855988
765.184021,484.096008,491.903992
767.135986,486.048004,501.664001
767.135986,464.575989,499.712006
757.375977,482.144012,491.903992
774.943970,482.144012,499.712006
767.135986,478.239990,497.760010
772.992004,476.287994,499.712006
765.184021,472.384003,501.664001
769.088013,472.384003,499.712006
767.135986,474.335999,501.664001
763.231995,468.480011,497.760010
761.280029,470.432007,507.519989
769.088013,470.432007,509.471985
765.184021,470.432007,501.664001
776.895996,470.432007,501.664001
765.184021,472.384003,507.519989
765.184021,468.480011,505.567993
765.184021,458.720001,509.471985
763.231995,464.575989,499.712006
751.520020,468.480011,499.712006
769.088013,470.432007,499.712006
765.184021,456.768005,499.712006
767.135986,460.671997,499.712006
759.328003,470.432007,507.519989
763.231995,464.575989,499.712006
757.375977,468.480011,503.615997
763.231995,464.575989,515.328003
759.328003,460.671997,507.519989
759.328003,452.864014,511.424011
763.231995,454.816010,513.375977
755.424011,458.720001,513.375977
767.135986,456.768005,509.471985
755.424011,456.768005,505.567993
749.567993,447.007996,507.519989
749.567993,462.623993,517.280029
755.424011,460.671997,507.519989
761.280029,452.864014,513.375977
763.231995,445.056000,517.280029
751.520020,452.864014,509.471985
749.567993,456.768005,515.328003
751.520020,450.911987,511.424011
753.471985,456.768005,519.231995
745.664001,458.720001,509.471985
749.567993,456.768005,515.328003
745.664001,456.768005,509.471985
747.616028,456.768005,511.424011
747.616028,456.768005,509.471985
747.616028,450.911987,505.567993
757.375977,458.720001,513.375977
749.567993,454.816010,521.184021
749.567993,456.768005,521.184021
759.328003,445.056000,515.328003
741.760010,448.959991,519.231995
741.760010,448.959991,517.280029
745.664001,437.247986,513.375977
747.616028,447.007996,499.712006
751.520020,445.056000,509.471985
759.328003,441.152008,513.375977
753.471985,443.104004,519.231995
755.424011,441.152008,505.567993
751.520020,452.864014,515.328003
749.567993,443.104004,513.375977
747.616028,433.343994,511.424011
745.664001,443.104004,509.471985
753.471985,433.343994,509.471985
761.280029,435.295990,507.519989
755.424011,448.959991,521.184021
751.520020,443.104004,517.280029
757.375977,439.200012,507.519989
759.328003,441.152008,509.471985
763.231995,441.152008,513.375977
759.328003,447.007996,511.424011
753.471985,441.152008,517.280029
757.375977,439.200012,507.519989
761.280029,435.295990,517.280029
767.135986,445.056000,515.328003
759.328003,441.152008,515.328003
757.375977,441.152008,525.088013
767.135986,447.007996,517.280029
765.184021,441.152008,513.375977
757.375977,439.200012,511.424011
753.471985,445.056000,515.328003
757.375977,427.488007,519.231995
761.280029,429.440002,511.424011
771.039978,443.104004,519.231995
761.280029,433.343994,519.231995
761.280029,435.295990,517.280029
765.184021,431.391998,525.088013
763.231995,435.295990,519.231995
772.992004,439.200012,523.135986
776.895996,437.247986,515.328003
765.184021,439.200012,523.135986
769.088013,431.391998,515.328003
769.088013,439.200012,515.328003
771.039978,433.343994,515.328003
774.943970,437.247986,517.280029
765.184021,439.200012,517.280029
769.088013,429.440002,515.328003
772.992004,439.200012,523.135986
774.943970,443.104004,515.328003
774.943970,441.152008,519.231995
772.992004,433.343994,517.280029
767.135986,439.200012,519.231995
763.231995,437.247986,525.088013
763.231995,435.295990,519.231995
763.231995,433.343994,517.280029
769.088013,435.295990,521.184021
774.943970,433.343994,521.184021
776.895996,439.200012,523.135986
782.752014,433.343994,517.280029
765.184021,445.056000,519.231995
763.231995,439.200012,519.231995
761.280029,431.391998,519.231995
763.231995,433.343994,517.280029
765.184021,443.104004,519.231995
767.135986,435.295990,513.375977
765.184021,439.200012,527.039978
757.375977,433.343994,527.039978
747.616028,429.440002,519.231995
757.375977,433.343994,519.231995
753.471985,435.295990,528.992004
753.471985,435.295990,523.135986
759.328003,423.584015,525.088013
759.328003,431.391998,525.088013
753.471985,429.440002,527.039978
749.567993,427.488007,519.231995
751.520020,429.440002,525.088013
751.520020,429.440002,521.184021
751.520020,425.536011,517.280029
741.760010,431.391998,528.992004
751.520020,427.488007,521.184021
751.520020,431.391998,523.135986
741.760010,423.584015,521.184021
739.807983,423.584015,517.280029
737.856018,429.440002,521.184021
741.760010,421.631989,525.088013
733.952026,429.440002,517.280029
737.856018,425.536011,523.135986
741.760010,415.776001,511.424011
743.711975,419.679993,517.280029
733.952026,427.488007,515.328003
735.903992,421.631989,519.231995
733.952026,419.679993,515.328003
732.000000,415.776001,515.328003
730.047974,427.488007,509.471985
737.856018,425.536011,521.184021
737.856018,409.920013,519.231995
726.143982,419.679993,513.375977
726.143982,413.824005,521.184021
739.807983,419.679993,515.328003
732.000000,415.776001,507.519989
726.143982,427.488007,507.519989
732.000000,417.727997,507.519989
722.239990,413.824005,509.471985
722.239990,413.824005,511.424011
728.096008,421.631989,513.375977
726.143982,421.631989,505.567993
718.335999,425.536011,509.471985
722.239990,415.776001,511.424011
728.096008,415.776001,503.615997
724.192017,415.776001,515.328003
722.239990,421.631989,507.519989
724.192017,409.920013,507.519989
718.335999,409.920013,505.567993
722.239990,411.872009,513.375977
726.143982,419.679993,509.471985
732.000000,411.872009,503.615997
724.192017,409.920013,495.808014
726.143982,417.727997,509.471985
728.096008,415.776001,509.471985
722.239990,407.967987,511.424011
722.239990,407.967987,503.615997
720.288025,407.967987,503.615997
732.000000,407.967987,503.615997
724.192017,402.112000,505.567993
728.096008,404.063995,505.567993
726.143982,402.112000,507.519989
726.143982,394.303986,503.615997
718.335999,404.063995,507.519989
724.192017,404.063995,509.471985
732.000000,406.015991,501.664001
732.000000,406.015991,497.760010
732.000000,400.160004,507.519989
726.143982,400.160004,501.664001
730.047974,404.063995,497.760010
730.047974,394.303986,501.664001
733.952026,404.063995,497.760010
732.000000,402.112000,497.760010
733.952026,400.160004,499.712006
741.760010,398.208008,495.808014
741.760010,406.015991,501.664001
741.760010,402.112000,495.808014
741.760010,398.208008,497.760010
747.616028,400.160004,497.760010
741.760010,398.208008,491.903992
745.664001,404.063995,501.664001
753.471985,406.015991,497.760010
745.664001,407.967987,491.903992
751.520020,407.967987,497.760010
751.520020,407.967987,501.664001
751.520020,404.063995,491.903992
753.471985,409.920013,497.760010
753.471985,404.063995,505.567993
755.424011,407.967987,488.000000
755.424011,423.584015,503.615997
755.424011,413.824005,497.760010
757.375977,411.872009,497.760010
755.424011,417.727997,501.664001
751.520020,407.967987,491.903992
753.471985,407.967987,495.808014
763.231995,406.015991,501.664001
757.375977,419.679993,509.471985
765.184021,417.727997,507.519989
767.135986,423.584015,491.903992
761.280029,423.584015,491.903992
759.328003,419.679993,509.471985
763.231995,415.776001,501.664001
774.943970,417.727997,505.567993
765.184021,415.776001,509.471985
771.039978,411.872009,505.567993
769.088013,419.679993,499.712006
761.280029,419.679993,501.664001
774.943970,413.824005,505.567993
769.088013,419.679993,505.567993
772.992004,417.727997,499.712006
772.992004,411.872009,505.567993
772.992004,413.824005,513.375977
782.752014,413.824005,507.519989
776.895996,413.824005,507.519989
772.992004,415.776001,511.424011
774.943970,419.679993,499.712006
772.992004,409.920013,501.664001
778.848022,419.679993,505.567993
765.184021,421.631989,503.615997
772.992004,417.727997,513.375977
776.895996,421.631989,505.567993
769.088013,423.584015,511.424011
776.895996,423.584015,503.615997
774.943970,421.631989,509.471985
774.943970,423.584015,511.424011
771.039978,423.584015,513.375977
771.039978,421.631989,509.471985
778.848022,415.776001,511.424011
769.088013,427.488007,517.280029
772.992004,417.727997,507.519989
769.088013,425.536011,511.424011
774.943970,423.584015,507.519989
769.088013,406.015991,515.328003
772.992004,421.631989,521.184021
767.135986,421.631989,519.231995
774.943970,425.536011,511.424011
771.039978,423.584015,513.375977
771.039978,419.679993,507.519989
774.943970,425.536011,515.328003
769.088013,417.727997,523.135986
765.184021,417.727997,517.280029
769.088013,415.776001,519.231995
763.231995,415.776001,523.135986
771.039978,425.536011,525.088013
757.375977,419.679993,523.135986
767.135986,417.727997,515.328003
759.328003,417.727997,515.328003
763.231995,421.631989,521.184021
767.135986,421.631989,515.328003
759.328003,417.727997,521.184021
759.328003,425.536011,525.088013
763.231995,419.679993,515.328003
763.231995,415.776001,515.328003
763.231995,419.679993,521.184021
757.375977,419.679993,519.231995
761.280029,413.824005,515.328003
767.135986,413.824005,527.039978
757.375977,415.776001,515.328003
759.328003,413.824005,511.424011
755.424011,407.967987,517.280029
757.375977,411.872009,521.184021
759.328003,413.824005,521.184021
751.520020,407.967987,523.135986
753.471985,409.920013,527.039978
759.328003,404.063995,527.039978
763.231995,406.015991,525.088013
759.328003,415.776001,521.184021
757.375977,404.063995,511.424011
757.375977,411.872009,523.135986
755.424011,409.920013,519.231995
751.520020,400.160004,521.184021
757.375977,394.303986,528.992004
759.328003,404.063995,525.088013
753.471985,398.208008,527.039978
753.471985,402.112000,532.895996
755.424011,392.351990,523.135986
749.567993,386.496002,528.992004
757.375977,396.256012,530.943970
755.424011,392.351990,523.135986
763.231995,400.160004,528.992004
767.135986,386.496002,532.895996
761.280029,388.447998,525.088013
765.184021,394.303986,527.039978
767.135986,386.496002,528.992004
761.280029,392.351990,534.848022
757.375977,392.351990,532.895996
761.280029,382.592010,532.895996
753.471985,394.303986,530.943970
761.280029,382.592010,528.992004
767.135986,378.687988,530.943970
761.280029,372.832001,519.231995
769.088013,384.544006,532.895996
759.328003,380.640015,530.943970
771.039978,376.735992,523.135986
767.135986,374.783997,523.135986
763.231995,382.592010,525.088013
763.231995,376.735992,521.184021
767.135986,382.592010,528.992004
767.135986,382.592010,523.135986
759.328003,376.735992,536.799988
761.280029,382.592010,523.135986
757.375977,382.592010,527.039978
771.039978,378.687988,527.039978
761.280029,374.783997,528.992004
761.280029,380.640015,534.848022
763.231995,372.832001,528.992004
761.280029,380.640015,523.135986
771.039978,376.735992,523.135986
765.184021,376.735992,532.895996
771.039978,374.783997,525.088013
763.231995,368.928009,528.992004
772.992004,366.976013,532.895996
771.039978,378.687988,528.992004
763.231995,370.880005,530.943970
761.280029,374.783997,525.088013
765.184021,370.880005,527.039978
765.184021,368.928009,525.088013
769.088013,378.687988,525.088013
765.184021,370.880005,523.135986
765.184021,376.735992,523.135986
757.375977,372.832001,519.231995
763.231995,370.880005,527.039978
763.231995,374.783997,525.088013
772.992004,372.832001,534.848022
765.184021,372.832001,532.895996
769.088013,363.071991,534.848022
761.280029,363.071991,532.895996
765.184021,363.071991,536.799988
771.039978,370.880005,530.943970
771.039978,368.928009,536.799988
771.039978,366.976013,523.135986
763.231995,368.928009,528.992004
772.992004,376.735992,534.848022
771.039978,365.023987,523.135986
761.280029,363.071991,527.039978
763.231995,372.832001,527.039978
763.231995,372.832001,536.799988
772.992004,366.976013,534.848022
763.231995,374.783997,536.799988
763.231995,378.687988,534.848022
763.231995,359.167999,534.848022
767.135986,372.832001,538.752014
755.424011,370.880005,530.943970
761.280029,372.832001,536.799988
763.231995,372.832001,530.943970
759.328003,372.832001,532.895996
755.424011,374.783997,542.656006
761.280029,376.735992,538.752014
751.520020,380.640015,536.799988
751.520020,376.735992,534.848022
755.424011,376.735992,538.752014
747.616028,368.928009,534.848022
749.567993,374.783997,540.703979
751.520020,374.783997,536.799988
755.424011,382.592010,534.848022
745.664001,368.928009,532.895996
743.711975,376.735992,534.848022
751.520020,388.447998,536.799988
741.760010,376.735992,532.895996
737.856018,370.880005,536.799988
739.807983,376.735992,527.039978
737.856018,366.976013,538.752014
728.096008,365.023987,536.799988
726.143982,388.447998,532.895996
730.047974,378.687988,540.703979
732.000000,374.783997,527.039978
730.047974,374.783997,525.088013
726.143982,374.783997,534.848022
724.192017,378.687988,534.848022
724.192017,380.640015,527.039978
728.096008,380.640015,527.039978
724.192017,380.640015,530.943970
726.143982,378.687988,528.992004
728.096008,374.783997,528.992004
722.239990,376.735992,521.184021
726.143982,384.544006,528.992004
722.239990,384.544006,544.607971
722.239990,382.592010,536.799988
728.096008,380.640015,527.039978
720.288025,376.735992,532.895996
716.383972,384.544006,530.943970
712.479980,376.735992,528.992004
724.192017,380.640015,532.895996
718.335999,384.544006,532.895996
726.143982,380.640015,534.848022
718.335999,372.832001,534.848022
726.143982,370.880005,536.799988
724.192017,380.640015,534.848022
720.288025,370.880005,532.895996
726.143982,370.880005,538.752014
718.335999,374.783997,542.656006
726.143982,376.735992,542.656006
724.192017,380.640015,540.703979
724.192017,368.928009,546.559998
724.192017,384.544006,542.656006
724.192017,372.832001,542.656006
726.143982,368.928009,540.703979
726.143982,366.976013,538.752014
724.192017,366.976013,542.656006
728.096008,365.023987,548.512024
726.143982,372.832001,548.512024
735.903992,374.783997,534.848022
728.096008,366.976013,540.703979
724.192017,376.735992,538.752014
732.000000,365.023987,548.512024
722.239990,365.023987,546.559998
724.192017,366.976013,550.463989
730.047974,368.928009,538.752014
733.952026,361.119995,544.607971
722.239990,368.928009,542.656006
724.192017,365.023987,538.752014
730.047974,357.216003,542.656006
732.000000,359.167999,540.703979
728.096008,368.928009,548.512024
726.143982,372.832001,538.752014
730.047974,365.023987,546.559998
730.047974,365.023987,542.656006
730.047974,366.976013,550.463989
726.143982,366.976013,536.799988
730.047974,368.928009,536.799988
732.000000,368.928009,538.752014
735.903992,365.023987,552.416016
726.143982,370.880005,538.752014
718.335999,366.976013,542.656006
726.143982,368.928009,532.895996
728.096008,368.928009,530.943970
722.239990,368.928009,536.799988
728.096008,366.976013,536.799988
724.192017,372.832001,536.799988
720.288025,374.783997,540.703979
716.383972,372.832001,544.607971
718.335999,366.976013,532.895996
730.047974,370.880005,532.895996
720.288025,380.640015,536.799988
724.192017,374.783997,534.848022
720.288025,382.592010,538.752014
720.288025,382.592010,542.656006
720.288025,380.640015,538.752014
714.432007,376.735992,532.895996
724.192017,370.880005,536.799988
722.239990,374.783997,530.943970
720.288025,380.640015,532.895996
712.479980,380.640015,544.607971
714.432007,388.447998,536.799988
724.192017,380.640015,532.895996
718.335999,378.687988,536.799988
722.239990,378.687988,540.703979
712.479980,374.783997,532.895996
712.479980,380.640015,534.848022
712.479980,384.544006,527.039978
716.383972,378.687988,530.943970
718.335999,384.544006,528.992004
718.335999,382.592010,532.895996
720.288025,378.687988,532.895996
712.479980,390.399994,528.992004
710.528015,394.303986,536.799988
714.432007,390.399994,532.895996
712.479980,378.687988,528.992004
716.383972,390.399994,528.992004
716.383972,388.447998,530.943970
712.479980,390.399994,525.088013
720.288025,396.256012,527.039978
718.335999,390.399994,532.895996
714.432007,390.399994,532.895996
714.432007,392.351990,528.992004
712.479980,390.399994,527.039978
710.528015,392.351990,519.231995
714.432007,396.256012,523.135986
698.815979,406.015991,534.848022
708.575989,398.208008,523.135986
702.719971,394.303986,525.088013
710.528015,407.967987,523.135986
710.528015,402.112000,523.135986
712.479980,396.256012,527.039978
708.575989,402.112000,523.135986
710.528015,402.112000,532.895996
704.671997,411.872009,527.039978
708.575989,407.967987,521.184021
704.671997,411.872009,528.992004
720.288025,407.967987,532.895996
712.479980,413.824005,527.039978
712.479980,413.824005,532.895996
704.671997,413.824005,523.135986
704.671997,423.584015,528.992004
710.528015,421.631989,532.895996
712.479980,423.584015,528.992004
710.528015,427.488007,528.992004
704.671997,421.631989,525.088013
700.768005,421.631989,521.184021
704.671997,423.584015,523.135986
708.575989,409.920013,528.992004
706.624023,421.631989,532.895996
698.815979,423.584015,532.895996
702.719971,435.295990,525.088013
700.768005,425.536011,530.943970
704.671997,423.584015,528.992004
702.719971,425.536011,519.231995
700.768005,425.536011,528.992004
698.815979,433.343994,538.752014
706.624023,425.536011,540.703979
698.815979,427.488007,528.992004
700.768005,425.536011,530.943970
702.719971,429.440002,532.895996
700.768005,425.536011,528.992004
694.911987,425.536011,525.088013
696.864014,437.247986,528.992004
700.768005,429.440002,525.088013
694.911987,429.440002,525.088013
700.768005,435.295990,528.992004
696.864014,425.536011,528.992004
689.056030,433.343994,528.992004
692.960022,441.152008,528.992004
692.960022,447.007996,527.039978
689.056030,437.247986,527.039978
691.007996,435.295990,536.799988
696.864014,437.247986,532.895996
691.007996,443.104004,528.992004
696.864014,437.247986,536.799988
700.768005,441.152008,534.848022
700.768005,435.295990,530.943970
683.200012,435.295990,532.895996
696.864014,437.247986,528.992004
694.911987,447.007996,538.752014
694.911987,445.056000,532.895996
687.104004,447.007996,527.039978
694.911987,443.104004,534.848022
700.768005,437.247986,530.943970
698.815979,439.200012,530.943970
691.007996,439.200012,523.135986
689.056030,429.440002,534.848022
687.104004,441.152008,528.992004
683.200012,439.200012,532.895996
694.911987,445.056000,530.943970
683.200012,441.152008,534.848022
691.007996,439.200012,532.895996
698.815979,443.104004,538.752014
685.151978,447.007996,536.799988
687.104004,441.152008,530.943970
687.104004,443.104004,532.895996
687.104004,443.104004,540.703979
702.719971,447.007996,532.895996
696.864014,443.104004,536.799988
689.056030,450.911987,540.703979
696.864014,439.200012,530.943970
691.007996,437.247986,530.943970
687.104004,445.056000,536.799988
691.007996,439.200012,527.039978
689.056030,443.104004,525.088013
692.960022,450.911987,528.992004
696.864014,441.152008,540.703979
696.864014,437.247986,528.992004
687.104004,447.007996,530.943970
681.247986,439.200012,523.135986
687.104004,443.104004,521.184021
694.911987,448.959991,523.135986
700.768005,447.007996,521.184021
698.815979,443.104004,528.992004
692.960022,454.816010,523.135986
692.960022,445.056000,523.135986
694.911987,454.816010,534.848022
687.104004,447.007996,530.943970
694.911987,439.200012,517.280029
692.960022,448.959991,530.943970
691.007996,456.768005,536.799988
694.911987,450.911987,523.135986
702.719971,439.200012,528.992004
694.911987,450.911987,523.135986
692.960022,447.007996,527.039978
692.960022,447.007996,523.135986
698.815979,447.007996,521.184021
704.671997,452.864014,525.088013
704.671997,443.104004,515.328003
704.671997,443.104004,511.424011
694.911987,450.911987,523.135986
700.768005,447.007996,515.328003
694.911987,439.200012,511.424011
691.007996,447.007996,521.184021
694.911987,439.200012,507.519989
698.815979,443.104004,515.328003
698.815979,439.200012,511.424011
694.911987,447.007996,517.280029
691.007996,447.007996,515.328003
698.815979,447.007996,511.424011
702.719971,441.152008,503.615997
700.768005,445.056000,509.471985
698.815979,447.007996,509.471985
708.575989,450.911987,507.519989
704.671997,437.247986,509.471985
704.671997,437.247986,509.471985
702.719971,448.959991,513.375977
696.864014,447.007996,515.328003
706.624023,448.959991,507.519989
712.479980,437.247986,509.471985
706.624023,448.959991,495.808014
704.671997,447.007996,493.855988
702.719971,450.911987,509.471985
708.575989,458.720001,491.903992
700.768005,447.007996,491.903992
706.624023,454.816010,503.615997
712.479980,452.864014,499.712006
706.624023,450.911987,491.903992
714.432007,458.720001,497.760010
706.624023,466.528015,495.808014
712.479980,464.575989,501.664001
702.719971,452.864014,495.808014
710.528015,462.623993,501.664001
712.479980,452.864014,505.567993
720.288025,460.671997,499.712006
714.432007,462.623993,497.760010
720.288025,462.623993,501.664001
710.528015,460.671997,491.903992
716.383972,452.864014,493.855988
712.479980,472.384003,493.855988
728.096008,468.480011,501.664001
718.335999,462.623993,501.664001
728.096008,474.335999,495.808014
728.096008,480.191986,503.615997
726.143982,480.191986,491.903992
724.192017,486.048004,501.664001
722.239990,484.096008,501.664001
718.335999,482.144012,493.855988
728.096008,472.384003,503.615997
718.335999,476.287994,503.615997
730.047974,486.048004,497.760010
728.096008,472.384003,503.615997
735.903992,482.144012,503.615997
732.000000,489.951996,499.712006
735.903992,478.239990,499.712006
737.856018,489.951996,495.808014
730.047974,489.951996,505.567993
743.711975,489.951996,497.760010
737.856018,484.096008,499.712006
733.952026,486.048004,493.855988
743.711975,495.808014,515.328003
745.664001,501.664001,495.808014
739.807983,495.808014,503.615997
743.711975,507.519989,517.280029
741.760010,505.567993,505.567993
741.760010,489.951996,497.760010
743.711975,491.903992,499.712006
745.664001,491.903992,511.424011
745.664001,497.760010,509.471985
745.664001,497.760010,509.471985
747.616028,503.615997,495.808014
743.711975,497.760010,509.471985
741.760010,501.664001,503.615997
745.664001,501.664001,503.615997
745.664001,493.855988,507.519989
745.664001,495.808014,503.615997
745.664001,493.855988,513.375977
739.807983,501.664001,515.328003
747.616028,497.760010,511.424011
737.856018,493.855988,509.471985
743.711975,488.000000,509.471985
737.856018,489.951996,511.424011
743.711975,493.855988,501.664001
741.760010,505.567993,507.519989
745.664001,493.855988,509.471985
755.424011,491.903992,507.519989
747.616028,495.808014,513.375977
747.616028,499.712006,515.328003
745.664001,501.664001,521.184021
749.567993,493.855988,513.375977
743.711975,488.000000,511.424011
751.520020,489.951996,515.328003
749.567993,489.951996,517.280029
745.664001,497.760010,503.615997
749.567993,495.808014,507.519989
749.567993,493.855988,509.471985
749.567993,493.855988,515.328003
755.424011,503.615997,513.375977
749.567993,497.760010,507.519989
743.711975,493.855988,509.471985
745.664001,495.808014,503.615997
751.520020,501.664001,503.615997
741.760010,493.855988,507.519989
749.567993,495.808014,509.471985
749.567993,495.808014,509.471985
755.424011,501.664001,505.567993
747.616028,497.760010,515.328003
751.520020,503.615997,511.424011
763.231995,493.855988,517.280029
753.471985,495.808014,525.088013
765.184021,501.664001,511.424011
753.471985,501.664001,521.184021
757.375977,495.808014,517.280029
761.280029,501.664001,507.519989
757.375977,501.664001,517.280029
757.375977,505.567993,523.135986
751.520020,495.808014,521.184021
763.231995,501.664001,519.231995
759.328003,499.712006,519.231995
761.280029,489.951996,517.280029
761.280029,495.808014,517.280029
761.280029,495.808014,507.519989
757.375977,493.855988,517.280029
755.424011,497.760010,513.375977
763.231995,489.951996,507.519989
749.567993,495.808014,513.375977
755.424011,493.855988,511.424011
751.520020,488.000000,517.280029
747.616028,486.048004,511.424011
743.711975,493.855988,521.184021
751.520020,497.760010,515.328003
747.616028,488.000000,511.424011
745.664001,493.855988,503.615997
745.664001,480.191986,511.424011
747.616028,493.855988,521.184021
745.664001,488.000000,515.328003
749.567993,484.096008,519.231995
749.567993,482.144012,517.280029
743.711975,488.000000,515.328003
730.047974,486.048004,523.135986
743.711975,484.096008,528.992004
747.616028,489.951996,525.088013
749.567993,486.048004,515.328003
741.760010,486.048004,519.231995
741.760010,493.855988,521.184021
743.711975,486.048004,521.184021
743.711975,476.287994,525.088013
737.856018,476.287994,525.088013
737.856018,476.287994,513.375977
735.903992,486.048004,515.328003
735.903992,486.048004,517.280029
741.760010,476.287994,517.280029
732.000000,476.287994,523.135986
730.047974,480.191986,521.184021
735.903992,474.335999,523.135986
733.952026,468.480011,525.088013
730.047974,476.287994,532.895996
735.903992,480.191986,528.992004
733.952026,456.768005,528.992004
730.047974,474.335999,528.992004
732.000000,474.335999,523.135986
735.903992,476.287994,528.992004
730.047974,482.144012,527.039978
732.000000,468.480011,530.943970
732.000000,470.432007,530.943970
728.096008,468.480011,528.992004
732.000000,474.335999,527.039978
726.143982,474.335999,523.135986
728.096008,466.528015,532.895996
722.239990,464.575989,532.895996
732.000000,468.480011,528.992004
724.192017,464.575989,530.943970
714.432007,468.480011,540.703979
724.192017,472.384003,527.039978
728.096008,466.528015,530.943970
722.239990,474.335999,536.799988
724.192017,464.575989,538.752014
722.239990,460.671997,534.848022
730.047974,464.575989,530.943970
726.143982,470.432007,536.799988
726.143982,462.623993,538.752014
730.047974,462.623993,548.512024
722.239990,462.623993,530.943970
724.192017,460.671997,540.703979
724.192017,464.575989,538.752014
710.528015,460.671997,532.895996
724.192017,456.768005,532.895996
724.192017,456.768005,527.039978
722.239990,462.623993,532.895996
720.288025,454.816010,528.992004
718.335999,452.864014,530.943970
720.288025,452.864014,532.895996
720.288025,454.816010,544.607971
724.192017,454.816010,534.848022
718.335999,454.816010,540.703979
728.096008,450.911987,534.848022
714.432007,445.056000,538.752014
726.143982,456.768005,538.752014
720.288025,447.007996,544.607971
718.335999,454.816010,536.799988
714.432007,441.152008,538.752014
718.335999,445.056000,544.607971
720.288025,448.959991,536.799988
716.383972,447.007996,527.039978
712.479980,437.247986,544.607971
724.192017,437.247986,540.703979
712.479980,439.200012,536.799988
710.528015,441.152008,534.848022
710.528015,445.056000,548.512024
720.288025,445.056000,538.752014
714.432007,441.152008,540.703979
712.479980,450.911987,536.799988
710.528015,450.911987,538.752014
710.528015,439.200012,532.895996
708.575989,448.959991,536.799988
710.528015,448.959991,538.752014
710.528015,443.104004,538.752014
712.479980,437.247986,534.848022
712.479980,437.247986,534.848022
702.719971,441.152008,540.703979
702.719971,441.152008,540.703979
706.624023,437.247986,534.848022
712.479980,437.247986,540.703979
706.624023,439.200012,532.895996
708.575989,431.391998,530.943970
704.671997,439.200012,538.752014
706.624023,437.247986,523.135986
702.719971,431.391998,527.039978
704.671997,439.200012,528.992004
706.624023,441.152008,536.799988
700.768005,437.247986,525.088013
704.671997,447.007996,532.895996
700.768005,437.247986,525.088013
702.719971,435.295990,528.992004
694.911987,443.104004,527.039978
698.815979,435.295990,527.039978
698.815979,443.104004,527.039978
700.768005,431.391998,525.088013
691.007996,435.295990,525.088013
691.007996,437.247986,525.088013
694.911987,443.104004,521.184021
696.864014,437.247986,525.088013
696.864014,435.295990,525.088013
696.864014,433.343994,528.992004
700.768005,439.200012,521.184021
698.815979,437.247986,523.135986
692.960022,433.343994,517.280029
692.960022,435.295990,519.231995
700.768005,431.391998,517.280029
694.911987,427.488007,519.231995
694.911987,431.391998,525.088013
694.911987,433.343994,517.280029
689.056030,427.488007,521.184021
691.007996,429.440002,519.231995
700.768005,429.440002,521.184021
704.671997,433.343994,519.231995
704.671997,433.343994,519.231995
702.719971,427.488007,521.184021
700.768005,441.152008,515.328003
702.719971,425.536011,525.088013
712.479980,429.440002,534.848022
708.575989,427.488007,523.135986
706.624023,435.295990,519.231995
700.768005,439.200012,511.424011
704.671997,429.440002,521.184021
712.479980,431.391998,513.375977
704.671997,435.295990,517.280029
702.719971,437.247986,513.375977
704.671997,431.391998,517.280029
706.624023,437.247986,515.328003
704.671997,429.440002,513.375977
708.575989,425.536011,511.424011
704.671997,435.295990,513.375977
698.815979,439.200012,507.519989
702.719971,439.200012,511.424011
712.479980,435.295990,511.424011
702.719971,429.440002,511.424011
698.815979,427.488007,513.375977
704.671997,423.584015,515.328003
698.815979,427.488007,513.375977
700.768005,427.488007,511.424011
704.671997,433.343994,507.519989
706.624023,431.391998,509.471985
704.671997,433.343994,503.615997
706.624023,429.440002,507.519989
712.479980,431.391998,515.328003
704.671997,435.295990,507.519989
700.768005,429.440002,503.615997
702.719971,427.488007,503.615997
710.528015,427.488007,515.328003
704.671997,437.247986,513.375977
704.671997,439.200012,511.424011
712.479980,437.247986,509.471985
706.624023,433.343994,513.375977
708.575989,443.104004,507.519989
704.671997,433.343994,511.424011
710.528015,433.343994,523.135986
712.479980,431.391998,511.424011
712.479980,433.343994,509.471985
720.288025,435.295990,517.280029
716.383972,437.247986,511.424011
710.528015,445.056000,507.519989
716.383972,435.295990,513.375977
716.383972,437.247986,509.471985
716.383972,445.056000,505.567993
714.432007,443.104004,513.375977
718.335999,433.343994,511.424011
718.335999,447.007996,499.712006
716.383972,437.247986,511.424011
716.383972,437.247986,509.471985
720.288025,447.007996,515.328003
722.239990,441.152008,515.328003
720.288025,447.007996,513.375977
720.288025,443.104004,511.424011
710.528015,450.911987,513.375977
720.288025,447.007996,509.471985
718.335999,447.007996,495.808014
720.288025,445.056000,507.519989
720.288025,445.056000,511.424011
720.288025,450.911987,511.424011
718.335999,448.959991,499.712006
718.335999,454.816010,503.615997
720.288025,452.864014,509.471985
722.239990,452.864014,509.471985
728.096008,452.864014,503.615997
722.239990,452.864014,503.615997
726.143982,448.959991,491.903992
732.000000,445.056000,495.808014
718.335999,447.007996,491.903992
724.192017,448.959991,489.951996
724.192017,445.056000,497.760010
722.239990,456.768005,493.855988
722.239990,466.528015,501.664001
726.143982,454.816010,501.664001
732.000000,456.768005,499.712006
718.335999,450.911987,495.808014
724.192017,448.959991,501.664001
726.143982,450.911987,501.664001
724.192017,456.768005,497.760010
728.096008,460.671997,493.855988
722.239990,460.671997,495.808014
724.192017,452.864014,499.712006
718.335999,454.816010,497.760010
724.192017,445.056000,495.808014
726.143982,454.816010,497.760010
732.000000,448.959991,499.712006
718.335999,452.864014,501.664001
732.000000,456.768005,499.712006
718.335999,458.720001,505.567993
722.239990,452.864014,489.951996
722.239990,445.056000,489.951996
726.143982,456.768005,491.903992
722.239990,454.816010,505.567993
732.000000,452.864014,503.615997
722.239990,456.768005,499.712006
728.096008,456.768005,497.760010
722.239990,462.623993,495.808014
728.096008,466.528015,505.567993
732.000000,460.671997,499.712006
728.096008,462.623993,499.712006
728.096008,460.671997,493.855988
722.239990,464.575989,497.760010
728.096008,468.480011,497.760010
722.239990,452.864014,495.808014
728.096008,466.528015,493.855988
722.239990,462.623993,488.000000
724.192017,456.768005,488.000000
722.239990,466.528015,493.855988
726.143982,462.623993,493.855988
720.288025,458.720001,495.808014
728.096008,456.768005,493.855988
732.000000,462.623993,497.760010
722.239990,452.864014,489.951996
733.952026,462.623993,493.855988
733.952026,462.623993,493.855988
732.000000,460.671997,493.855988
728.096008,454.816010,489.951996
728.096008,460.671997,495.808014
728.096008,456.768005,491.903992
728.096008,456.768005,493.855988
733.952026,456.768005,495.808014
730.047974,456.768005,493.855988
730.047974,454.816010,491.903992
726.143982,458.720001,495.808014
722.239990,460.671997,503.615997
735.903992,456.768005,499.712006
726.143982,450.911987,503.615997
739.807983,441.152008,495.808014
735.903992,466.528015,493.855988
735.903992,448.959991,495.808014
737.856018,448.959991,491.903992
730.047974,443.104004,491.903992
732.000000,445.056000,501.664001
735.903992,443.104004,495.808014
733.952026,437.247986,493.855988
733.952026,439.200012,497.760010
739.807983,439.200012,495.808014
747.616028,439.200012,497.760010
743.711975,439.200012,497.760010
739.807983,439.200012,501.664001
741.760010,427.488007,497.760010
732.000000,425.536011,501.664001
733.952026,425.536011,499.712006
730.047974,423.584015,501.664001
739.807983,429.440002,495.808014
739.807983,429.440002,495.808014
739.807983,431.391998,493.855988
739.807983,431.391998,491.903992
735.903992,417.727997,484.096008
745.664001,425.536011,489.951996
749.567993,421.631989,493.855988
743.711975,421.631989,495.808014
737.856018,417.727997,497.760010
747.616028,421.631989,493.855988
743.711975,419.679993,497.760010
751.520020,423.584015,491.903992
741.760010,419.679993,493.855988
735.903992,409.920013,488.000000
735.903992,413.824005,491.903992
743.711975,413.824005,493.855988
743.711975,417.727997,491.903992
730.047974,415.776001,491.903992
730.047974,411.872009,489.951996
726.143982,407.967987,486.048004
730.047974,411.872009,489.951996
724.192017,406.015991,482.144012
720.288025,407.967987,489.951996
718.335999,404.063995,482.144012
730.047974,398.208008,476.287994
720.288025,394.303986,480.191986
724.192017,396.256012,486.048004
716.383972,400.160004,478.239990
718.335999,396.256012,476.287994
722.239990,388.447998,478.239990
718.335999,400.160004,478.239990
720.288025,394.303986,486.048004
712.479980,388.447998,486.048004
706.624023,396.256012,486.048004
704.671997,398.208008,480.191986
706.624023,394.303986,489.951996
708.575989,384.544006,486.048004
702.719971,378.687988,484.096008
702.719971,384.544006,482.144012
700.768005,382.592010,484.096008
696.864014,380.640015,486.048004
698.815979,388.447998,480.191986
691.007996,378.687988,472.384003
692.960022,378.687988,474.335999
692.960022,372.832001,484.096008
689.056030,374.783997,482.144012
687.104004,376.735992,474.335999
683.200012,368.928009,482.144012
687.104004,366.976013,482.144012
671.487976,366.976013,476.287994
681.247986,365.023987,464.575989
679.296021,365.023987,470.432007
675.392029,366.976013,478.239990
673.440002,363.071991,470.432007
669.536011,374.783997,466.528015
671.487976,355.264008,478.239990
673.440002,361.119995,470.432007
675.392029,361.119995,460.671997
671.487976,368.928009,468.480011
671.487976,359.167999,460.671997
665.632019,359.167999,472.384003
667.583984,361.119995,464.575989
669.536011,361.119995,464.575989
667.583984,363.071991,464.575989
663.679993,351.359985,470.432007
667.583984,353.312012,466.528015
663.679993,351.359985,468.480011
665.632019,349.407990,468.480011
667.583984,349.407990,470.432007
661.728027,359.167999,470.432007
667.583984,351.359985,464.575989
673.440002,349.407990,472.384003
663.679993,351.359985,470.432007
665.632019,341.600006,474.335999
673.440002,347.455994,476.287994
667.583984,349.407990,466.528015
673.440002,335.743988,474.335999
673.440002,349.407990,464.575989
679.296021,345.503998,470.432007
685.151978,339.648010,468.480011
673.440002,343.552002,472.384003
681.247986,331.839996,472.384003
681.247986,333.791992,474.335999
675.392029,339.648010,476.287994
679.296021,347.455994,474.335999
683.200012,333.791992,470.432007
681.247986,341.600006,472.384003
694.911987,339.648010,476.287994
691.007996,341.600006,470.432007
694.911987,337.696014,466.528015
691.007996,345.503998,466.528015
691.007996,339.648010,474.335999
704.671997,341.600006,468.480011
702.719971,339.648010,470.432007
694.911987,339.648010,476.287994
696.864014,345.503998,478.239990
702.719971,337.696014,468.480011
698.815979,324.032013,478.239990
704.671997,329.888000,470.432007
706.624023,333.791992,474.335999
706.624023,337.696014,472.384003
710.528015,335.743988,472.384003
710.528015,333.791992,472.384003
720.288025,337.696014,474.335999
720.288025,335.743988,472.384003
714.432007,333.791992,472.384003
714.432007,333.791992,464.575989
716.383972,339.648010,472.384003
714.432007,327.936005,464.575989
722.239990,331.839996,474.335999
720.288025,327.936005,470.432007
724.192017,324.032013,460.671997
726.143982,325.984009,460.671997
726.143982,325.984009,470.432007
730.047974,325.984009,466.528015
730.047974,329.888000,470.432007
730.047974,324.032013,464.575989
737.856018,322.079987,474.335999
743.711975,327.936005,468.480011
733.952026,327.936005,466.528015
737.856018,331.839996,472.384003
739.807983,337.696014,470.432007
741.760010,325.984009,474.335999
737.856018,325.984009,462.623993
737.856018,320.127991,464.575989
737.856018,324.032013,468.480011
741.760010,333.791992,470.432007
741.760010,333.791992,460.671997
749.567993,329.888000,466.528015
745.664001,325.984009,456.768005
747.616028,337.696014,458.720001
751.520020,333.791992,460.671997
757.375977,335.743988,456.768005
761.280029,337.696014,462.623993
763.231995,339.648010,474.335999
761.280029,337.696014,464.575989
761.280029,343.552002,464.575989
765.184021,345.503998,470.432007
761.280029,337.696014,474.335999
772.992004,341.600006,472.384003
778.848022,343.552002,474.335999
765.184021,343.552002,464.575989
774.943970,343.552002,482.144012
778.848022,343.552002,472.384003
782.752014,343.552002,468.480011
780.799988,343.552002,458.720001
776.895996,335.743988,466.528015
782.752014,335.743988,470.432007
780.799988,349.407990,472.384003
780.799988,347.455994,464.575989
782.752014,357.216003,474.335999
782.752014,347.455994,472.384003
784.703979,349.407990,482.144012
786.656006,351.359985,460.671997
788.607971,361.119995,464.575989
790.559998,347.455994,478.239990
780.799988,357.216003,474.335999
798.367981,351.359985,472.384003
792.512024,349.407990,472.384003
798.367981,355.264008,460.671997
798.367981,355.264008,474.335999
786.656006,372.832001,472.384003
802.271973,361.119995,476.287994
802.271973,365.023987,472.384003
810.080017,359.167999,468.480011
808.127991,357.216003,474.335999
802.271973,359.167999,478.239990
806.176025,359.167999,468.480011
806.176025,359.167999,468.480011
804.223999,365.023987,466.528015
804.223999,378.687988,458.720001
804.223999,376.735992,468.480011
808.127991,372.832001,464.575989
808.127991,376.735992,460.671997
813.984009,370.880005,474.335999
810.080017,384.544006,474.335999
817.888000,378.687988,474.335999
817.888000,376.735992,474.335999
804.223999,376.735992,460.671997
812.031982,382.592010,474.335999
821.791992,374.783997,474.335999
827.648010,380.640015,474.335999
829.599976,370.880005,468.480011
819.840027,374.783997,474.335999
829.599976,378.687988,476.287994
831.552002,378.687988,474.335999
825.695984,386.496002,472.384003
819.840027,384.544006,472.384003
825.695984,392.351990,478.239990
827.648010,384.544006,478.239990
825.695984,384.544006,478.239990
829.599976,396.256012,476.287994
825.695984,384.544006,480.191986
825.695984,396.256012,476.287994
829.599976,394.303986,474.335999
827.648010,400.160004,472.384003
827.648010,394.303986,482.144012
833.504028,394.303986,476.287994
825.695984,388.447998,482.144012
819.840027,396.256012,480.191986
827.648010,390.399994,478.239990
831.552002,394.303986,476.287994
829.599976,396.256012,482.144012
829.599976,378.687988,480.191986
835.455994,390.399994,486.048004
825.695984,396.256012,484.096008
827.648010,392.351990,482.144012
827.648010,384.544006,478.239990
825.695984,390.399994,480.191986
819.840027,388.447998,480.191986
821.791992,388.447998,484.096008
819.840027,390.399994,476.287994
821.791992,396.256012,482.144012
823.744019,396.256012,480.191986
817.888000,396.256012,476.287994
812.031982,394.303986,476.287994
819.840027,396.256012,482.144012
815.935974,382.592010,470.432007
823.744019,388.447998,476.287994
825.695984,386.496002,480.191986
825.695984,384.544006,486.048004
821.791992,384.544006,480.191986
819.840027,376.735992,476.287994
815.935974,390.399994,482.144012
821.791992,382.592010,482.144012
821.791992,384.544006,478.239990
821.791992,384.544006,486.048004
821.791992,386.496002,486.048004
823.744019,396.256012,486.048004
815.935974,388.447998,484.096008
821.791992,378.687988,482.144012
825.695984,390.399994,484.096008
815.935974,376.735992,480.191986
821.791992,390.399994,472.384003
825.695984,386.496002,482.144012
821.791992,388.447998,478.239990
825.695984,382.592010,480.191986
819.840027,388.447998,478.239990
815.935974,390.399994,484.096008
827.648010,388.447998,484.096008
825.695984,378.687988,484.096008
837.408020,374.783997,478.239990
835.455994,382.592010,486.048004
831.552002,382.592010,478.239990
835.455994,386.496002,478.239990
833.504028,388.447998,470.432007
833.504028,386.496002,476.287994
835.455994,392.351990,482.144012
835.455994,382.592010,476.287994
835.455994,392.351990,476.287994
845.216003,386.496002,486.048004
843.263977,380.640015,476.287994
839.359985,386.496002,476.287994
835.455994,388.447998,480.191986
839.359985,386.496002,476.287994
845.216003,392.351990,486.048004
835.455994,386.496002,476.287994
835.455994,386.496002,484.096008
851.072021,396.256012,474.335999
845.216003,386.496002,476.287994
849.119995,388.447998,472.384003
847.168030,376.735992,472.384003
854.976013,376.735992,482.144012
856.927979,382.592010,476.287994
854.976013,386.496002,480.191986
856.927979,390.399994,472.384003
853.023987,384.544006,472.384003
851.072021,378.687988,472.384003
864.736023,384.544006,478.239990
860.831970,390.399994,474.335999
854.976013,396.256012,476.287994
854.976013,378.687988,480.191986
864.736023,382.592010,478.239990
856.927979,384.544006,480.191986
858.880005,386.496002,478.239990
858.880005,388.447998,482.144012
860.831970,376.735992,482.144012
868.640015,384.544006,476.287994
858.880005,384.544006,484.096008
853.023987,380.640015,468.480011
862.783997,384.544006,464.575989
853.023987,390.399994,472.384003
851.072021,378.687988,476.287994
860.831970,382.592010,478.239990
858.880005,382.592010,472.384003
860.831970,378.687988,476.287994
856.927979,376.735992,480.191986
862.783997,390.399994,470.432007
856.927979,378.687988,478.239990
856.927979,384.544006,472.384003
858.880005,390.399994,458.720001
860.831970,378.687988,460.671997
851.072021,388.447998,460.671997
860.831970,388.447998,466.528015
860.831970,380.640015,472.384003
851.072021,392.351990,464.575989
856.927979,386.496002,452.864014
862.783997,392.351990,460.671997
854.976013,392.351990,466.528015
860.831970,394.303986,468.480011
854.976013,392.351990,464.575989
856.927979,386.496002,470.432007
851.072021,386.496002,470.432007
851.072021,382.592010,466.528015
858.880005,392.351990,458.720001
849.119995,392.351990,460.671997
858.880005,380.640015,456.768005
858.880005,382.592010,468.480011
851.072021,392.351990,464.575989
860.831970,388.447998,456.768005
860.831970,390.399994,462.623993
853.023987,400.160004,462.623993
853.023987,400.160004,464.575989
853.023987,396.256012,470.432007
858.880005,396.256012,464.575989
851.072021,394.303986,464.575989
856.927979,394.303986,466.528015
853.023987,394.303986,462.623993
853.023987,390.399994,460.671997
851.072021,392.351990,458.720001
853.023987,394.303986,464.575989
854.976013,398.208008,456.768005
854.976013,394.303986,466.528015
849.119995,392.351990,464.575989
847.168030,394.303986,462.623993
843.263977,392.351990,464.575989
849.119995,388.447998,464.575989
853.023987,394.303986,464.575989
856.927979,398.208008,474.335999
853.023987,392.351990,462.623993
853.023987,394.303986,456.768005
854.976013,392.351990,458.720001
853.023987,394.303986,468.480011
854.976013,398.208008,464.575989
853.023987,394.303986,462.623993
847.168030,392.351990,456.768005
849.119995,394.303986,460.671997
841.312012,382.592010,470.432007
841.312012,388.447998,468.480011
849.119995,396.256012,468.480011
847.168030,390.399994,472.384003
845.216003,394.303986,462.623993
853.023987,394.303986,464.575989
853.023987,386.496002,458.720001
851.072021,394.303986,464.575989
843.263977,398.208008,468.480011
853.023987,394.303986,468.480011
843.263977,390.399994,470.432007
841.312012,390.399994,466.528015
835.455994,396.256012,460.671997
843.263977,396.256012,464.575989
839.359985,396.256012,464.575989
845.216003,398.208008,460.671997
835.455994,398.208008,460.671997
839.359985,398.208008,470.432007
845.216003,400.160004,474.335999
843.263977,402.112000,464.575989
837.408020,411.872009,458.720001
845.216003,398.208008,460.671997
839.359985,396.256012,460.671997
835.455994,398.208008,458.720001
839.359985,396.256012,456.768005
835.455994,402.112000,458.720001
833.504028,400.160004,448.959991
837.408020,398.208008,450.911987
835.455994,394.303986,452.864014
839.359985,402.112000,458.720001
843.263977,406.015991,458.720001
845.216003,400.160004,462.623993
835.455994,394.303986,454.816010
829.599976,390.399994,456.768005
837.408020,390.399994,456.768005
837.408020,394.303986,458.720001
841.312012,402.112000,460.671997
841.312012,398.208008,452.864014
841.312012,394.303986,458.720001
829.599976,394.303986,452.864014
841.312012,398.208008,462.623993
841.312012,409.920013,462.623993
839.359985,398.208008,460.671997
835.455994,402.112000,460.671997
835.455994,406.015991,472.384003
847.168030,406.015991,464.575989
839.359985,402.112000,464.575989
839.359985,390.399994,458.720001
853.023987,404.063995,462.623993
847.168030,396.256012,458.720001
847.168030,398.208008,466.528015
853.023987,402.112000,464.575989
845.216003,400.160004,458.720001
853.023987,400.160004,464.575989
843.263977,396.256012,462.623993
841.312012,398.208008,452.864014
853.023987,400.160004,466.528015
843.263977,400.160004,458.720001
843.263977,404.063995,460.671997
849.119995,400.160004,466.528015
843.263977,392.351990,464.575989
839.359985,407.967987,460.671997
835.455994,400.160004,460.671997
843.263977,390.399994,462.623993
835.455994,402.112000,460.671997
839.359985,409.920013,458.720001
835.455994,398.208008,458.720001
841.312012,407.967987,466.528015
835.455994,402.112000,470.432007
841.312012,390.399994,462.623993
845.216003,398.208008,460.671997
839.359985,400.160004,458.720001
839.359985,394.303986,456.768005
837.408020,396.256012,462.623993
837.408020,390.399994,456.768005
837.408020,384.544006,462.623993
833.504028,388.447998,458.720001
837.408020,382.592010,456.768005
825.695984,386.496002,458.720001
831.552002,396.256012,454.816010
819.840027,390.399994,456.768005
833.504028,398.208008,458.720001
835.455994,386.496002,450.911987
837.408020,390.399994,462.623993
829.599976,398.208008,454.816010
833.504028,396.256012,460.671997
821.791992,386.496002,458.720001
829.599976,398.208008,462.623993
827.648010,390.399994,458.720001
829.599976,388.447998,460.671997
825.695984,394.303986,460.671997
825.695984,388.447998,452.864014
829.599976,392.351990,460.671997
829.599976,392.351990,460.671997
837.408020,390.399994,464.575989
829.599976,392.351990,460.671997
833.504028,398.208008,464.575989
831.552002,382.592010,460.671997
841.312012,390.399994,462.623993
829.599976,390.399994,464.575989
833.504028,388.447998,472.384003
831.552002,390.399994,452.864014
827.648010,392.351990,462.623993
825.695984,396.256012,456.768005
827.648010,394.303986,462.623993
833.504028,396.256012,464.575989
831.552002,384.544006,462.623993
837.408020,394.303986,458.720001
835.455994,396.256012,460.671997
833.504028,402.112000,468.480011
835.455994,396.256012,470.432007
829.599976,388.447998,466.528015
829.599976,386.496002,470.432007
829.599976,388.447998,472.384003
829.599976,382.592010,468.480011
827.648010,382.592010,466.528015
827.648010,394.303986,462.623993
827.648010,392.351990,456.768005
825.695984,394.303986,458.720001
821.791992,382.592010,458.720001
819.840027,384.544006,470.432007
819.840027,392.351990,458.720001
819.840027,380.640015,460.671997
819.840027,380.640015,460.671997
825.695984,380.640015,458.720001
819.840027,386.496002,454.816010
812.031982,382.592010,456.768005
812.031982,374.783997,452.864014
806.176025,384.544006,462.623993
810.080017,378.687988,464.575989
808.127991,378.687988,466.528015
808.127991,386.496002,460.671997
812.031982,396.256012,462.623993
806.176025,382.592010,456.768005
813.984009,386.496002,452.864014
802.271973,374.783997,445.056000
810.080017,380.640015,445.056000
806.176025,382.592010,447.007996
810.080017,382.592010,443.104004
808.127991,382.592010,454.816010
802.271973,392.351990,443.104004
806.176025,382.592010,437.247986
802.271973,382.592010,443.104004
808.127991,380.640015,450.911987
804.223999,392.351990,450.911987
804.223999,392.351990,445.056000
804.223999,388.447998,452.864014
804.223999,384.544006,445.056000
808.127991,388.447998,445.056000
804.223999,392.351990,445.056000
804.223999,382.592010,445.056000
796.416016,384.544006,450.911987
806.176025,394.303986,445.056000
808.127991,388.447998,450.911987
815.935974,382.592010,441.152008
810.080017,388.447998,437.247986
804.223999,388.447998,448.959991
810.080017,382.592010,437.247986
813.984009,382.592010,445.056000
813.984009,386.496002,445.056000
815.935974,382.592010,447.007996
813.984009,382.592010,447.007996
812.031982,372.832001,450.911987
813.984009,380.640015,454.816010
817.888000,384.544006,447.007996
804.223999,378.687988,441.152008
812.031982,374.783997,452.864014
817.888000,376.735992,445.056000
821.791992,374.783997,437.247986
813.984009,380.640015,445.056000
821.791992,363.071991,443.104004
817.888000,384.544006,445.056000
817.888000,378.687988,450.911987
817.888000,378.687988,443.104004
823.744019,374.783997,437.247986
813.984009,370.880005,441.152008
819.840027,376.735992,445.056000
821.791992,374.783997,443.104004
808.127991,376.735992,433.343994
808.127991,376.735992,439.200012
806.176025,384.544006,435.295990
810.080017,376.735992,437.247986
808.127991,378.687988,433.343994
810.080017,374.783997,439.200012
810.080017,376.735992,435.295990
815.935974,366.976013,439.200012
808.127991,376.735992,433.343994
815.935974,374.783997,433.343994
813.984009,378.687988,441.152008
819.840027,374.783997,425.536011
815.935974,386.496002,433.343994
812.031982,392.351990,429.440002
813.984009,384.544006,427.488007
806.176025,390.399994,439.200012
821.791992,394.303986,431.391998
815.935974,388.447998,439.200012
810.080017,396.256012,437.247986
815.935974,396.256012,433.343994
815.935974,392.351990,433.343994
813.984009,390.399994,435.295990
815.935974,402.112000,433.343994
825.695984,386.496002,447.007996
825.695984,402.112000,443.104004
815.935974,400.160004,437.247986
808.127991,402.112000,447.007996
821.791992,400.160004,443.104004
821.791992,404.063995,437.247986
821.791992,406.015991,437.247986
827.648010,411.872009,443.104004
823.744019,402.112000,445.056000
825.695984,415.776001,448.959991
829.599976,406.015991,447.007996
819.840027,409.920013,445.056000
821.791992,409.920013,450.911987
821.791992,413.824005,447.007996
821.791992,413.824005,447.007996
827.648010,409.920013,450.911987
819.840027,407.967987,448.959991
815.935974,409.920013,450.911987
821.791992,409.920013,447.007996
821.791992,406.015991,443.104004
812.031982,411.872009,443.104004
815.935974,411.872009,450.911987
804.223999,404.063995,441.152008
804.223999,413.824005,445.056000
812.031982,402.112000,445.056000
808.127991,398.208008,441.152008
810.080017,404.063995,439.200012
813.984009,407.967987,447.007996
812.031982,402.112000,445.056000
806.176025,404.063995,447.007996
796.416016,390.399994,448.959991
806.176025,406.015991,447.007996
796.416016,400.160004,437.247986
808.127991,390.399994,433.343994
804.223999,407.967987,439.200012
802.271973,398.208008,439.200012
794.463989,407.967987,439.200012
796.416016,398.208008,441.152008
794.463989,402.112000,443.104004
794.463989,392.351990,439.200012
794.463989,390.399994,448.959991
802.271973,402.112000,433.343994
794.463989,396.256012,433.343994
798.367981,400.160004,443.104004
802.271973,402.112000,441.152008
792.512024,396.256012,447.007996
800.320007,394.303986,447.007996
804.223999,398.208008,439.200012
802.271973,392.351990,443.104004
794.463989,380.640015,445.056000
790.559998,376.735992,454.816010
794.463989,374.783997,454.816010
788.607971,378.687988,454.816010
790.559998,378.687988,441.152008
784.703979,378.687988,445.056000
794.463989,378.687988,445.056000
792.512024,368.928009,450.911987
792.512024,368.928009,448.959991
788.607971,370.880005,445.056000
788.607971,376.735992,450.911987
788.607971,365.023987,454.816010
780.799988,363.071991,450.911987
784.703979,355.264008,450.911987
788.607971,365.023987,450.911987
790.559998,365.023987,447.007996
784.703979,359.167999,447.007996
790.559998,351.359985,452.864014
788.607971,359.167999,454.816010
780.799988,355.264008,456.768005
784.703979,349.407990,454.816010
788.607971,345.503998,456.768005
780.799988,339.648010,456.768005
780.799988,341.600006,458.720001
786.656006,337.696014,448.959991
786.656006,335.743988,450.911987
786.656006,335.743988,448.959991
782.752014,324.032013,445.056000
786.656006,335.743988,447.007996
788.607971,335.743988,445.056000
778.848022,320.127991,445.056000
786.656006,327.936005,456.768005
782.752014,322.079987,456.768005
786.656006,314.272003,448.959991
776.895996,318.175995,454.816010
778.848022,312.320007,447.007996
778.848022,322.079987,454.816010
776.895996,320.127991,454.816010
776.895996,310.368011,452.864014
776.895996,306.463989,448.959991
776.895996,298.656006,448.959991
776.895996,300.608002,462.623993
782.752014,300.608002,454.816010
782.752014,294.752014,448.959991
786.656006,292.799988,466.528015
776.895996,284.992004,466.528015
778.848022,294.752014,456.768005
776.895996,290.847992,462.623993
780.799988,294.752014,464.575989
772.992004,283.040009,466.528015
776.895996,288.895996,462.623993
782.752014,279.135986,464.575989
780.799988,284.992004,456.768005
782.752014,284.992004,472.384003
776.895996,277.183990,470.432007
776.895996,275.231995,460.671997
784.703979,277.183990,466.528015
788.607971,277.183990,466.528015
782.752014,277.183990,472.384003
778.848022,281.088013,478.239990
778.848022,281.088013,472.384003
774.943970,290.847992,462.623993
774.943970,283.040009,462.623993
771.039978,273.279999,458.720001
771.039978,275.231995,450.911987
774.943970,279.135986,452.864014
767.135986,271.328003,448.959991
769.088013,271.328003,454.816010
769.088013,271.328003,448.959991
765.184021,267.424011,447.007996
771.039978,261.567993,445.056000
774.943970,265.471985,450.911987
774.943970,269.376007,452.864014
772.992004,263.519989,454.816010
782.752014,259.615997,452.864014
780.799988,271.328003,460.671997
776.895996,273.279999,456.768005
780.799988,267.424011,458.720001
784.703979,275.231995,466.528015
782.752014,269.376007,462.623993
778.848022,277.183990,454.816010
782.752014,267.424011,458.720001
774.943970,263.519989,456.768005
780.799988,271.328003,454.816010
780.799988,273.279999,452.864014
786.656006,269.376007,448.959991
784.703979,269.376007,443.104004
782.752014,269.376007,448.959991
784.703979,273.279999,443.104004
790.559998,281.088013,437.247986
782.752014,271.328003,439.200012
788.607971,267.424011,441.152008
794.463989,259.615997,450.911987
784.703979,257.664001,454.816010
784.703979,267.424011,448.959991
794.463989,265.471985,441.152008
790.559998,265.471985,447.007996
794.463989,273.279999,443.104004
786.656006,275.231995,445.056000
788.607971,271.328003,445.056000
792.512024,281.088013,443.104004
802.271973,267.424011,448.959991
806.176025,267.424011,447.007996
796.416016,269.376007,437.247986
800.320007,265.471985,437.247986
796.416016,277.183990,431.391998
802.271973,271.328003,439.200012
802.271973,277.183990,429.440002
794.463989,267.424011,439.200012
794.463989,269.376007,429.440002
802.271973,269.376007,423.584015
798.367981,277.183990,421.631989
796.416016,267.424011,429.440002
798.367981,261.567993,421.631989
804.223999,271.328003,429.440002
808.127991,261.567993,419.679993
804.223999,253.759995,425.536011
808.127991,269.376007,427.488007
804.223999,257.664001,423.584015
800.320007,269.376007,419.679993
808.127991,261.567993,423.584015
810.080017,261.567993,421.631989
815.935974,259.615997,417.727997
812.031982,269.376007,413.824005
812.031982,275.231995,407.967987
813.984009,265.471985,415.776001
817.888000,257.664001,407.967987
821.791992,259.615997,409.920013
810.080017,259.615997,411.872009
812.031982,253.759995,406.015991
815.935974,259.615997,404.063995
825.695984,263.519989,407.967987
821.791992,249.856003,407.967987
823.744019,251.807999,419.679993
829.599976,251.807999,417.727997
823.744019,253.759995,415.776001
829.599976,253.759995,417.727997
827.648010,251.807999,409.920013
829.599976,255.712006,409.920013
823.744019,249.856003,407.967987
827.648010,249.856003,406.015991
837.408020,249.856003,407.967987
831.552002,253.759995,411.872009
831.552002,255.712006,409.920013
829.599976,251.807999,413.824005
837.408020,249.856003,409.920013
837.408020,253.759995,411.872009
837.408020,253.759995,407.967987
837.408020,255.712006,409.920013
841.312012,255.712006,423.584015
845.216003,251.807999,404.063995
835.455994,249.856003,415.776001
843.263977,245.951996,415.776001
843.263977,234.240005,404.063995
839.359985,251.807999,409.920013
841.312012,247.904007,421.631989
843.263977,238.143997,415.776001
847.168030,242.048004,415.776001
851.072021,238.143997,406.015991
843.263977,245.951996,415.776001
853.023987,238.143997,411.872009
858.880005,238.143997,400.160004
853.023987,247.904007,400.160004
853.023987,242.048004,406.015991
860.831970,247.904007,417.727997
853.023987,247.904007,406.015991
856.927979,255.712006,409.920013
853.023987,242.048004,411.872009
856.927979,247.904007,411.872009
851.072021,247.904007,419.679993
856.927979,253.759995,419.679993
854.976013,240.095993,419.679993
860.831970,245.951996,417.727997
860.831970,242.048004,419.679993
862.783997,244.000000,421.631989
858.880005,247.904007,421.631989
858.880005,234.240005,427.488007
858.880005,238.143997,425.536011
866.687988,238.143997,411.872009
858.880005,234.240005,415.776001
868.640015,244.000000,409.920013
866.687988,247.904007,407.967987
862.783997,230.335999,409.920013
864.736023,242.048004,407.967987
858.880005,249.856003,411.872009
864.736023,244.000000,407.967987
862.783997,253.759995,413.824005
866.687988,242.048004,407.967987
876.447998,249.856003,404.063995
862.783997,249.856003,409.920013
864.736023,242.048004,402.112000
870.591980,240.095993,411.872009
870.591980,247.904007,409.920013
868.640015,244.000000,409.920013
862.783997,234.240005,394.303986
872.544006,234.240005,398.208008
866.687988,234.240005,402.112000
860.831970,238.143997,402.112000
866.687988,234.240005,396.256012
862.783997,240.095993,404.063995
872.544006,230.335999,394.303986
866.687988,242.048004,402.112000
872.544006,228.384003,394.303986
878.400024,226.432007,390.399994
874.495972,230.335999,400.160004
868.640015,228.384003,400.160004
872.544006,232.287994,394.303986
866.687988,230.335999,394.303986
872.544006,230.335999,400.160004
868.640015,234.240005,402.112000
872.544006,232.287994,406.015991
874.495972,238.143997,398.208008
876.447998,232.287994,394.303986
866.687988,224.479996,388.447998
870.591980,236.192001,392.351990
862.783997,240.095993,388.447998
858.880005,232.287994,394.303986
864.736023,228.384003,390.399994
868.640015,228.384003,400.160004
858.880005,228.384003,386.496002
866.687988,226.432007,394.303986
862.783997,224.479996,388.447998
866.687988,226.432007,394.303986
862.783997,218.623993,384.544006
866.687988,226.432007,392.351990
858.880005,224.479996,394.303986
868.640015,222.528000,400.160004
854.976013,226.432007,398.208008
864.736023,224.479996,394.303986
868.640015,220.576004,396.256012
866.687988,230.335999,400.160004
860.831970,226.432007,398.208008
858.880005,222.528000,398.208008
864.736023,226.432007,390.399994
860.831970,222.528000,400.160004
864.736023,222.528000,390.399994
864.736023,226.432007,394.303986
858.880005,222.528000,390.399994
862.783997,218.623993,388.447998
864.736023,222.528000,386.496002
862.783997,220.576004,392.351990
854.976013,212.768005,392.351990
854.976013,214.720001,382.592010
853.023987,208.863998,386.496002
860.831970,208.863998,394.303986
854.976013,216.671997,394.303986
860.831970,212.768005,398.208008
854.976013,212.768005,386.496002
862.783997,214.720001,390.399994
864.736023,220.576004,396.256012
862.783997,216.671997,390.399994
868.640015,218.623993,384.544006
866.687988,218.623993,396.256012
851.072021,222.528000,384.544006
860.831970,220.576004,386.496002
856.927979,216.671997,380.640015
868.640015,230.335999,386.496002
858.880005,222.528000,386.496002
868.640015,218.623993,378.687988
862.783997,228.384003,380.640015
854.976013,220.576004,382.592010
864.736023,222.528000,384.544006
866.687988,224.479996,382.592010
860.831970,224.479996,376.735992
862.783997,222.528000,370.880005
868.640015,234.240005,368.928009
860.831970,216.671997,361.119995
866.687988,220.576004,368.928009
862.783997,230.335999,363.071991
864.736023,224.479996,363.071991
864.736023,228.384003,361.119995
860.831970,228.384003,355.264008
864.736023,234.240005,353.312012
876.447998,236.192001,351.359985
876.447998,238.143997,343.552002
870.591980,236.192001,349.407990
878.400024,240.095993,351.359985
880.351990,238.143997,347.455994
878.400024,247.904007,347.455994
880.351990,247.904007,349.407990
876.447998,247.904007,347.455994
880.351990,255.712006,347.455994
882.304016,244.000000,349.407990
884.255981,253.759995,351.359985
892.064026,251.807999,349.407990
888.159973,245.951996,337.696014
892.064026,242.048004,331.839996
884.255981,244.000000,335.743988
890.112000,249.856003,331.839996
894.015991,251.807999,329.888000
892.064026,245.951996,333.791992
892.064026,245.951996,345.503998
882.304016,255.712006,333.791992
884.255981,253.759995,325.984009
895.968018,267.424011,325.984009
899.872009,253.759995,337.696014
894.015991,257.664001,333.791992
894.015991,261.567993,335.743988
897.919983,255.712006,324.032013
899.872009,269.376007,325.984009
897.919983,277.183990,333.791992
897.919983,275.231995,333.791992
907.679993,279.135986,333.791992
903.776001,277.183990,331.839996
903.776001,275.231995,333.791992
903.776001,284.992004,337.696014
909.632019,273.279999,335.743988
911.583984,269.376007,335.743988
911.583984,269.376007,339.648010
911.583984,263.519989,337.696014
907.679993,275.231995,341.600006
897.919983,277.183990,335.743988
907.679993,273.279999,333.791992
899.872009,269.376007,327.936005
901.823975,267.424011,320.127991
899.872009,269.376007,325.984009
888.159973,269.376007,314.272003
884.255981,275.231995,306.463989
888.159973,273.279999,310.368011
895.968018,275.231995,304.511993
890.112000,277.183990,310.368011
888.159973,277.183990,312.320007
892.064026,269.376007,316.223999
894.015991,271.328003,300.608002
888.159973,279.135986,318.175995
880.351990,281.088013,314.272003
882.304016,279.135986,300.608002
886.208008,286.944000,304.511993
882.304016,288.895996,304.511993
882.304016,281.088013,306.463989
886.208008,286.944000,308.415985
884.255981,290.847992,298.656006
874.495972,283.040009,300.608002
878.400024,288.895996,298.656006
870.591980,290.847992,294.752014
874.495972,283.040009,290.847992
866.687988,286.944000,288.895996
872.544006,281.088013,290.847992
872.544006,277.183990,296.704010
872.544006,275.231995,290.847992
866.687988,267.424011,298.656006
872.544006,259.615997,306.463989
854.976013,271.328003,292.799988
858.880005,263.519989,292.799988
864.736023,263.519989,292.799988
864.736023,267.424011,298.656006
856.927979,271.328003,300.608002
856.927979,269.376007,288.895996
851.072021,271.328003,292.799988
847.168030,281.088013,288.895996
853.023987,294.752014,284.992004
843.263977,281.088013,296.704010
847.168030,294.752014,292.799988
849.119995,304.511993,294.752014
851.072021,290.847992,283.040009
860.831970,298.656006,284.992004
854.976013,286.944000,284.992004
853.023987,281.088013,281.088013
843.263977,281.088013,283.040009
856.927979,279.135986,277.183990
847.168030,277.183990,277.183990
847.168030,283.040009,273.279999
847.168030,279.135986,277.183990
841.312012,279.135986,271.328003
845.216003,275.231995,279.135986
839.359985,277.183990,265.471985
839.359985,273.279999,281.088013
847.168030,275.231995,275.231995
851.072021,267.424011,273.279999
853.023987,275.231995,283.040009
853.023987,286.944000,281.088013
851.072021,275.231995,279.135986
851.072021,294.752014,273.279999
853.023987,290.847992,265.471985
851.072021,286.944000,273.279999
854.976013,281.088013,275.231995
854.976013,294.752014,271.328003
860.831970,294.752014,273.279999
864.736023,296.704010,273.279999
856.927979,286.944000,271.328003
856.927979,286.944000,275.231995
864.736023,281.088013,273.279999
868.640015,283.040009,271.328003
864.736023,277.183990,273.279999
868.640015,271.328003,277.183990
862.783997,267.424011,277.183990
866.687988,257.664001,269.376007
860.831970,265.471985,275.231995
862.783997,269.376007,273.279999
866.687988,259.615997,279.135986
864.736023,253.759995,277.183990
860.831970,259.615997,279.135986
864.736023,253.759995,277.183990
866.687988,259.615997,271.328003
862.783997,257.664001,271.328003
868.640015,267.424011,283.040009
866.687988,259.615997,279.135986
868.640015,273.279999,267.424011
872.544006,265.471985,277.183990
862.783997,265.471985,279.135986
870.591980,271.328003,281.088013
872.544006,271.328003,275.231995
876.447998,267.424011,267.424011
866.687988,261.567993,267.424011
868.640015,257.664001,271.328003
876.447998,249.856003,267.424011
876.447998,251.807999,279.135986
884.255981,247.904007,267.424011
870.591980,236.192001,267.424011
872.544006,234.240005,269.376007
872.544006,236.192001,271.328003
872.544006,238.143997,265.471985
874.495972,218.623993,263.519989
880.351990,220.576004,275.231995
878.400024,232.287994,267.424011
888.159973,230.335999,267.424011
880.351990,218.623993,265.471985
874.495972,238.143997,261.567993
874.495972,234.240005,281.088013
880.351990,234.240005,269.376007
872.544006,226.432007,257.664001
872.544006,249.856003,269.376007
868.640015,255.712006,275.231995
866.687988,230.335999,261.567993
878.400024,236.192001,263.519989
858.880005,240.095993,271.328003
882.304016,240.095993,275.231995
872.544006,222.528000,269.376007
872.544006,222.528000,275.231995
876.447998,228.384003,271.328003
868.640015,222.528000,269.376007
870.591980,206.912003,271.328003
874.495972,216.671997,261.567993
868.640015,210.815994,263.519989
862.783997,204.960007,251.807999
858.880005,216.671997,242.048004
876.447998,214.720001,251.807999
862.783997,220.576004,238.143997
854.976013,220.576004,236.192001
868.640015,210.815994,222.528000
858.880005,226.432007,216.671997
862.783997,222.528000,214.720001
862.783997,230.335999,204.960007
856.927979,232.287994,204.960007
864.736023,226.432007,203.007996
858.880005,240.095993,191.296005
858.880005,230.335999,195.199997
864.736023,236.192001,195.199997
858.880005,238.143997,193.248001
872.544006,226.432007,187.391998
866.687988,222.528000,183.488007
860.831970,228.384003,179.584000
870.591980,214.720001,185.440002
862.783997,220.576004,181.535995
870.591980,210.815994,169.824005
868.640015,210.815994,163.968002
866.687988,204.960007,160.063995
874.495972,195.199997,154.207993
862.783997,203.007996,144.447998
870.591980,206.912003,142.496002
870.591980,203.007996,148.352005
868.640015,212.768005,146.399994
862.783997,220.576004,136.639999
866.687988,224.479996,132.735992
866.687988,228.384003,144.447998
868.640015,224.479996,138.591995
876.447998,230.335999,138.591995
862.783997,226.432007,140.544006
870.591980,234.240005,148.352005
872.544006,228.384003,150.304001
868.640015,222.528000,150.304001
870.591980,214.720001,148.352005
872.544006,222.528000,156.160004
876.447998,216.671997,152.255997
872.544006,216.671997,146.399994
870.591980,212.768005,148.352005
882.304016,208.863998,142.496002
878.400024,216.671997,140.544006
878.400024,210.815994,150.304001
878.400024,206.912003,148.352005
868.640015,224.479996,156.160004
876.447998,214.720001,152.255997
888.159973,206.912003,156.160004
884.255981,212.768005,158.112000
882.304016,220.576004,173.727997
884.255981,220.576004,167.871994
880.351990,222.528000,177.632004
892.064026,224.479996,179.584000
888.159973,214.720001,197.151993
890.112000,228.384003,208.863998
895.968018,228.384003,199.104004
890.112000,222.528000,204.960007
882.304016,222.528000,210.815994
895.968018,214.720001,212.768005
895.968018,214.720001,218.623993
899.872009,222.528000,206.912003
903.776001,208.863998,220.576004
895.968018,218.623993,218.623993
895.968018,220.576004,222.528000
897.919983,212.768005,216.671997
888.159973,218.623993,212.768005
890.112000,220.576004,216.671997
897.919983,216.671997,220.576004
890.112000,220.576004,212.768005
884.255981,208.863998,201.056000
882.304016,220.576004,203.007996
880.351990,206.912003,203.007996
874.495972,206.912003,197.151993
880.351990,214.720001,193.248001
862.783997,203.007996,187.391998
866.687988,208.863998,185.440002
870.591980,208.863998,179.584000
868.640015,212.768005,171.776001
862.783997,212.768005,169.824005
866.687988,204.960007,165.919998
868.640015,201.056000,162.016006
864.736023,193.248001,163.968002
862.783997,208.863998,150.304001
862.783997,199.104004,154.207993
854.976013,199.104004,148.352005
856.927979,197.151993,138.591995
854.976013,195.199997,146.399994
847.168030,193.248001,130.783997
847.168030,187.391998,121.024002
847.168030,193.248001,119.071999
841.312012,185.440002,115.167999
835.455994,183.488007,115.167999
833.504028,169.824005,97.599998
839.359985,175.679993,95.648003
841.312012,171.776001,93.695999
837.408020,177.632004,91.744003
831.552002,169.824005,81.984001
833.504028,167.871994,78.080002
831.552002,156.160004,76.127998
833.504028,169.824005,74.176003
837.408020,162.016006,72.223999
849.119995,152.255997,72.223999
851.072021,154.207993,60.512001
845.216003,148.352005,68.320000
837.408020,152.255997,74.176003
843.263977,152.255997,74.176003
841.312012,154.207993,72.223999
837.408020,150.304001,76.127998
837.408020,156.160004,72.223999
843.263977,136.639999,76.127998
845.216003,142.496002,80.031998
849.119995,136.639999,81.984001
851.072021,132.735992,85.888000
847.168030,148.352005,85.888000
854.976013,142.496002,91.744003
854.976013,140.544006,99.552002
854.976013,132.735992,97.599998
864.736023,136.639999,113.216003
866.687988,136.639999,99.552002
866.687988,146.399994,89.792000
851.072021,136.639999,87.839996
860.831970,138.591995,93.695999
868.640015,138.591995,95.648003
866.687988,136.639999,99.552002
866.687988,134.688004,99.552002
872.544006,132.735992,91.744003
872.544006,138.591995,99.552002
866.687988,130.783997,99.552002
870.591980,128.832001,91.744003
876.447998,122.975998,87.839996
870.591980,126.879997,83.935997
870.591980,117.120003,78.080002
870.591980,113.216003,74.176003
872.544006,115.167999,62.464001
870.591980,115.167999,54.655998
870.591980,121.024002,52.703999
870.591980,109.311996,56.608002
876.447998,103.456001,40.992001
878.400024,111.264000,37.088001
886.208008,109.311996,17.568001
890.112000,111.264000,7.808000
878.400024,105.407997,3.904000
884.255981,113.216003,-11.712000
884.255981,111.264000,-13.664000
882.304016,113.216003,-27.327999
892.064026,109.311996,-37.088001
897.919983,101.503998,-44.896000
895.968018,113.216003,-62.464001
878.400024,115.167999,-80.031998
882.304016,115.167999,-89.792000
886.208008,99.552002,-101.503998
878.400024,103.456001,-111.264000
892.064026,111.264000,-132.735992
895.968018,111.264000,-144.447998
909.632019,105.407997,-138.591995
897.919983,111.264000,-138.591995
905.728027,109.311996,-138.591995
913.536011,111.264000,-154.207993
915.487976,111.264000,-142.496002
917.440002,97.599998,-136.639999
940.864014,95.648003,-122.975998
942.815979,99.552002,-140.544006
952.575989,99.552002,-150.304001
960.383972,83.935997,-162.016006
958.432007,80.031998,-179.584000
960.383972,95.648003,-185.440002
964.288025,93.695999,-175.679993
974.047974,95.648003,-169.824005
979.903992,103.456001,-169.824005
991.616028,101.503998,-167.871994
993.567993,99.552002,-175.679993
997.471985,105.407997,-175.679993
999.424011,113.216003,-167.871994
1003.328003,105.407997,-173.727997
987.711975,121.024002,-181.535995
966.239990,126.879997,-214.720001
974.047974,140.544006,-224.479996
995.520020,124.928001,-240.095993
1040.416016,134.688004,-244.000000
1057.984009,117.120003,-236.192001
1071.647949,109.311996,-234.240005
1081.407959,126.879997,-230.335999
1089.215942,109.311996,-204.960007
1079.456055,103.456001,-193.248001
1077.504028,117.120003,-177.632004
1061.887939,126.879997,-169.824005
1061.887939,142.496002,-185.440002
1061.887939,140.544006,-181.535995
1063.839966,150.304001,-177.632004
1067.744019,148.352005,-187.391998
1083.359985,162.016006,-193.248001
1087.264038,146.399994,-197.151993
1100.927979,138.591995,-203.007996
1112.640015,128.832001,-212.768005
1114.592041,128.832001,-201.056000
1138.015991,121.024002,-191.296005
1153.631958,130.783997,-167.871994
1132.160034,72.223999,-136.639999
1202.432007,146.399994,-119.071999
1139.968018,220.576004,-130.783997
1102.880005,128.832001,-134.688004
1171.199951,179.584000,-136.639999
1157.536011,167.871994,-144.447998
1220.000000,189.343994,-134.688004
1243.423950,199.104004,-117.120003
1292.223999,89.792000,-103.456001
1278.560059,130.783997,-83.935997
1272.703979,160.063995,-78.080002
1262.943970,93.695999,-58.560001
1233.663940,122.975998,-54.655998
1216.095947,156.160004,-48.799999
1186.816040,138.591995,-64.416000
1182.911987,189.343994,-81.984001
1169.248047,187.391998,-83.935997
1179.008057,156.160004,-91.744003
1200.479980,203.007996,-91.744003
1212.192017,193.248001,-87.839996
1223.904053,158.112000,-87.839996
1247.328003,169.824005,-81.984001
1237.567993,169.824005,-70.272003
1245.375977,162.016006,-62.464001
1241.472046,183.488007,-44.896000
1253.183960,130.783997,-35.136002
1235.615967,152.255997,-33.183998
1229.760010,177.632004,-19.520000
1227.807983,140.544006,-15.616000
1218.047974,167.871994,0.000000
1229.760010,154.207993,1.952000
1235.615967,142.496002,1.952000
1249.280029,148.352005,9.760000
1259.040039,138.591995,17.568001
1262.943970,105.407997,29.280001
1264.895996,126.879997,39.040001
1249.280029,136.639999,68.320000
1235.615967,124.928001,64.416000
1214.144043,152.255997,56.608002
1145.823975,72.223999,103.456001
1013.088013,-372.832001,353.312012
1157.536011,99.552002,370.880005
1221.952026,589.504028,253.759995
1227.807983,390.399994,187.391998
1134.112061,318.175995,107.360001
1157.536011,40.992001,9.760000
1071.647949,132.735992,-66.367996
1134.112061,603.168030,-132.735992
1202.432007,126.879997,-152.255997
1216.095947,-95.648003,-132.735992
1190.719971,138.591995,-138.591995
1268.800049,134.688004,-160.063995
1319.552002,81.984001,-148.352005
1300.031982,-11.712000,-132.735992
1251.232056,15.616000,-111.264000
1147.776001,158.112000,-115.167999
1124.352051,163.968002,-95.648003
1122.400024,85.888000,-33.183998
1237.567993,177.632004,-33.183998
1022.848022,296.704010,-25.375999
1056.031982,115.167999,1.952000
1042.368042,224.479996,-21.472000
1067.744019,208.863998,-52.703999
1075.552002,156.160004,-58.560001
1132.160034,220.576004,-91.744003
1159.488037,177.632004,-109.311996
1134.112061,56.608002,-109.311996
1153.631958,66.367996,-117.120003
1163.391968,81.984001,-109.311996
1155.583984,97.599998,-111.264000
1161.439941,124.928001,-103.456001
1141.920044,121.024002,-93.695999
1110.687988,99.552002,-91.744003
1083.359985,162.016006,-97.599998
1077.504028,167.871994,-89.792000
1063.839966,169.824005,-83.935997
1071.647949,167.871994,-81.984001
1071.647949,167.871994,-87.839996
1083.359985,175.679993,-91.744003
1075.552002,134.688004,-103.456001
1071.647949,91.744003,-113.216003
1056.031982,85.888000,-121.024002
1069.696045,85.888000,-132.735992
1075.552002,119.071999,-136.639999
1056.031982,99.552002,-156.160004
1048.223999,66.367996,-160.063995
1056.031982,83.935997,-162.016006
1034.560059,101.503998,-165.919998
1028.703979,93.695999,-185.440002
1030.656006,83.935997,-206.912003
1016.992004,58.560001,-218.623993
1003.328003,54.655998,-216.671997
1016.992004,68.320000,-232.287994
995.520020,62.464001,-236.192001
1005.280029,60.512001,-244.000000
989.664001,78.080002,-259.615997
989.664001,85.888000,-286.944000
966.239990,60.512001,-308.415985
958.432007,60.512001,-327.936005
979.903992,54.655998,-359.167999
913.536011,58.560001,-361.119995
788.607971,35.136002,-376.735992
913.536011,-81.984001,-429.440002
819.840027,-197.151993,-402.112000
940.864014,-23.424000,-431.391998
935.007996,247.904007,-460.671997
1108.735962,35.136002,-435.295990
1204.384033,-66.367996,-415.776001
1159.488037,23.424000,-425.536011
1098.975952,-60.512001,-365.023987
1093.119995,-115.167999,-316.223999
1026.751953,-72.223999,-275.231995
1020.895996,-89.792000,-228.384003
976.000000,-105.407997,-195.199997
1024.800049,-74.176003,-193.248001
1022.848022,-119.071999,-175.679993
1026.751953,-187.391998,-138.591995
1073.599976,-117.120003,-117.120003
1132.160034,-81.984001,-93.695999
1122.400024,-89.792000,-70.272003
1157.536011,-9.760000,-56.608002
1169.248047,83.935997,-42.944000
1194.624023,189.343994,23.424000
991.616028,189.343994,152.255997
1411.296021,-50.751999,197.151993
1077.504028,81.984001,320.127991
1067.744019,345.503998,575.840027
1173.151978,1173.151978,751.520020
1522.560059,1089.215942,1272.703979
1762.656006,421.631989,1959.807983
1573.312012,197.151993,1489.375977
1393.728027,83.935997,466.528015
1221.952026,513.375977,1.952000
997.471985,585.599976,-244.000000
960.383972,493.855988,-329.888000
1272.703979,386.496002,-365.023987
1344.927979,265.471985,-302.559998
1401.536011,70.272003,-197.151993
1382.015991,-146.399994,-83.935997
1329.312012,-265.471985,0.000000
1229.760010,-279.135986,23.424000
1091.167969,-122.975998,15.616000
993.567993,148.352005,-7.808000
970.143982,413.824005,-25.375999
995.520020,519.231995,-17.568001
1114.592041,448.959991,-13.664000
1177.056030,242.048004,-11.712000
1212.192017,78.080002,-9.760000
1190.719971,1.952000,-13.664000
1159.488037,60.512001,11.712000
1149.728027,152.255997,46.848000
1151.680054,87.839996,87.839996
1188.767944,-251.807999,162.016006
1249.280029,-599.263977,218.623993
1272.703979,-691.007996,271.328003
1288.319946,-454.816010,292.799988
1294.176025,-72.223999,296.704010
1290.271973,253.759995,296.704010
1270.751953,345.503998,298.656006
1235.615967,224.479996,275.231995
1218.047974,0.000000,216.671997
1202.432007,-130.783997,156.160004
1177.056030,-62.464001,78.080002
1145.823975,179.584000,3.904000
1110.687988,411.872009,-40.992001
1077.504028,472.384003,-103.456001
1061.887939,355.264008,-160.063995
1054.079956,189.343994,-185.440002
1046.271973,27.327999,-228.384003
1028.703979,-44.896000,-247.904007
1018.943970,-37.088001,-267.424011
997.471985,31.232000,-300.608002
972.096008,58.560001,-331.839996
954.528015,39.040001,-341.600006
940.864014,-54.655998,-353.312012
942.815979,-169.824005,-359.167999
933.056030,-216.671997,-380.640015
929.151978,-179.584000,-409.920013
927.200012,-78.080002,-421.631989
938.911987,15.616000,-445.056000
929.151978,74.176003,-458.720001
921.343994,40.992001,-474.335999
905.728027,7.808000,-462.623993
919.392029,-37.088001,-429.440002
919.392029,-105.407997,-396.256012
925.247986,-80.031998,-331.839996
940.864014,40.992001,-257.664001
958.432007,267.424011,-203.007996
1007.231995,462.623993,-152.255997
1040.416016,532.895996,-105.407997
1042.368042,409.920013,-91.744003
1057.984009,130.783997,-89.792000
1095.072021,-165.919998,-101.503998
1104.832031,-304.511993,-115.167999
1091.167969,-220.576004,-126.879997
1069.696045,-15.616000,-156.160004
1040.416016,165.919998,-173.727997
1032.608032,197.151993,-201.056000
1024.800049,93.695999,-228.384003
1042.368042,-60.512001,-273.279999
1052.128052,-160.063995,-310.368011
1057.984009,-122.975998,-337.696014
876.447998,-37.088001,-325.984009
739.807983,46.848000,-357.216003
687.104004,128.832001,-425.536011
808.127991,226.432007,-493.855988
827.648010,175.679993,-511.424011
681.247986,70.272003,-450.911987
712.479980,-5.856000,-439.200012
1233.663940,-269.376007,-632.447998
1139.968018,-255.712006,-646.112000
921.343994,-103.456001,-626.591980
936.960022,80.031998,-624.640015
825.695984,226.432007,-609.023987
745.664001,318.175995,-595.359985
653.919983,376.735992,-568.031982
595.359985,429.440002,-493.855988
704.671997,468.480011,-423.584015
837.408020,271.328003,-376.735992
872.544006,-101.503998,-376.735992
972.096008,-365.023987,-468.480011
1159.488037,-402.112000,-575.840027
1169.248047,-281.088013,-663.679993
874.495972,-80.031998,-589.504028
833.504028,195.199997,-538.752014
948.671997,343.552002,-571.935974
1016.992004,255.712006,-607.072021
954.528015,35.136002,-603.168030
835.455994,-203.007996,-607.072021
927.200012,-259.615997,-644.159973
1190.719971,-238.143997,-700.768005
1134.112061,-105.407997,-673.440002
1138.015991,60.512001,-671.487976
1071.647949,208.863998,-630.495972
1056.031982,335.743988,-575.840027
1081.407959,333.791992,-536.799988
1136.063965,222.528000,-511.424011
1208.287964,27.327999,-458.720001
1294.176025,-56.608002,-378.687988
1341.024048,19.520000,-220.576004
1356.640015,304.511993,-50.751999
1301.984009,687.104004,121.024002
1307.839966,892.064026,212.768005
1331.264038,931.104004,271.328003
1372.255981,790.559998,288.895996
1419.104004,433.343994,249.856003
1354.687988,64.416000,232.287994
1475.712036,-81.984001,113.216003
1428.864014,-64.416000,54.655998
1538.176025,107.360001,33.183998
1553.791992,177.632004,93.695999
1626.015991,-191.296005,466.528015
2155.008057,-1339.072021,1399.583984
2469.280029,-2369.728027,2141.343994
1991.040039,-2201.855957,1432.767944
1331.264038,-1415.199951,206.912003
1054.079956,-191.296005,-310.368011
1077.504028,782.752014,-443.104004
1089.215942,798.367981,-581.695984
925.247986,970.143982,-874.495972
927.200012,1077.504028,-1079.456055
1106.784058,708.575989,-718.335999
1506.943970,25.375999,70.272003
1708.000000,-187.391998,413.824005
1448.384033,238.143997,-21.472000
1095.072021,650.015991,-501.664001
1032.608032,808.127991,-624.640015
1149.728027,790.559998,-515.328003
1196.576050,769.088013,-429.440002
1190.719971,798.367981,-380.640015
1212.192017,735.903992,-271.328003
1323.456055,560.223999,-87.839996
1382.015991,452.864014,3.904000
1346.880005,486.048004,-54.655998
1259.040039,503.615997,-162.016006
1198.527954,427.488007,-228.384003
1190.719971,325.984009,-284.992004
1206.336060,216.671997,-347.455994
1206.336060,81.984001,-394.303986
1184.864014,-1.952000,-398.208008
1204.384033,-117.120003,-374.783997
1239.520020,-171.776001,-409.920013
1235.615967,-130.783997,-417.727997
1208.287964,-76.127998,-402.112000
1200.479980,-64.416000,-345.503998
1186.816040,-89.792000,-292.799988
1180.959961,-154.207993,-267.424011
1194.624023,-201.056000,-281.088013
1179.008057,-204.960007,-271.328003
1171.199951,-115.167999,-284.992004
1179.008057,35.136002,-286.944000
1180.959961,140.544006,-290.847992
1182.911987,191.296005,-298.656006
1186.816040,236.192001,-314.272003
1192.671997,245.951996,-339.648010
1196.576050,245.951996,-324.032013
1188.767944,230.335999,-337.696014
1175.104004,210.815994,-359.167999
1161.439941,204.960007,-394.303986
1145.823975,187.391998,-439.200012
1136.063965,158.112000,-464.575989
1130.208008,107.360001,-488.000000
1122.400024,60.512001,-499.712006
1114.592041,19.520000,-497.760010
1110.687988,-13.664000,-488.000000
1114.592041,-50.751999,-491.903992
1112.640015,-72.223999,-482.144012
1110.687988,-50.751999,-482.144012
1110.687988,-33.183998,-488.000000
1106.784058,-21.472000,-480.191986
1112.640015,-15.616000,-466.528015
1118.495972,7.808000,-458.720001
1126.303955,29.280001,-472.384003
1120.447998,46.848000,-460.671997
1118.495972,70.272003,-458.720001
1112.640015,95.648003,-448.959991
1112.640015,107.360001,-452.864014
1098.975952,117.120003,-450.911987
1098.975952,124.928001,-464.575989
1087.264038,132.735992,-454.816010
1075.552002,117.120003,-460.671997
1059.936035,109.311996,-462.623993
1044.319946,113.216003,-470.432007
1034.560059,113.216003,-468.480011
1032.608032,97.599998,-484.096008
1032.608032,95.648003,-470.432007
1036.511963,78.080002,-474.335999
1034.560059,70.272003,-482.144012
1034.560059,76.127998,-480.191986
1030.656006,89.792000,-480.191986
1026.751953,97.599998,-472.384003
1024.800049,126.879997,-464.575989
1016.992004,130.783997,-460.671997
1005.280029,144.447998,-466.528015
999.424011,152.255997,-468.480011
985.760010,154.207993,-464.575989
977.952026,146.399994,-474.335999
964.288025,152.255997,-486.048004
960.383972,167.871994,-489.951996
948.671997,148.352005,-486.048004
948.671997,148.352005,-488.000000
940.864014,146.399994,-505.567993
933.056030,160.063995,-515.328003
991.616028,146.399994,-546.559998
1095.072021,162.016006,-624.640015
673.440002,206.912003,-536.799988
597.312012,-80.031998,-294.752014
288.895996,-134.688004,-244.000000
866.687988,-296.704010,-425.536011
1383.968018,312.320007,-835.455994
819.840027,185.440002,-706.624023
894.015991,-85.888000,-603.168030
866.687988,-105.407997,-642.208008
806.176025,119.071999,-771.039978
661.728027,27.327999,-673.440002
745.664001,-218.623993,-482.144012
911.583984,-277.183990,-441.152008
936.960022,-167.871994,-548.512024
948.671997,29.280001,-698.815979
847.168030,193.248001,-733.952026
651.968018,206.912003,-622.687988
636.351990,165.919998,-597.312012
657.823975,140.544006,-638.304016
735.903992,140.544006,-708.575989
837.408020,101.503998,-702.719971
892.064026,74.176003,-677.343994
815.935974,111.264000,-665.632019
829.599976,144.447998,-679.296021
940.864014,103.456001,-679.296021
987.711975,138.591995,-640.255981
1013.088013,212.768005,-607.072021
948.671997,269.376007,-554.367981
948.671997,304.511993,-511.424011
958.432007,308.415985,-507.519989
991.616028,232.287994,-497.760010
979.903992,204.960007,-489.951996
956.479980,208.863998,-501.664001
929.151978,163.968002,-495.808014
933.056030,134.688004,-482.144012
958.432007,122.975998,-503.615997
966.239990,87.839996,-503.615997
946.719971,46.848000,-484.096008
935.007996,13.664000,-482.144012
940.864014,56.608002,-509.471985
936.960022,83.935997,-519.231995
935.007996,101.503998,-513.375977
915.487976,167.871994,-523.135986
929.151978,218.623993,-546.559998
942.815979,247.904007,-556.320007
944.768005,216.671997,-564.127991
940.864014,142.496002,-538.752014
935.007996,78.080002,-499.712006
929.151978,37.088001,-474.335999
925.247986,5.856000,-435.295990
919.392029,-21.472000,-417.727997
942.815979,23.424000,-396.256012
956.479980,99.552002,-388.447998
987.711975,156.160004,-386.496002
1011.135986,214.720001,-386.496002
1038.463989,294.752014,-386.496002
1065.791992,349.407990,-378.687988
1081.407959,374.783997,-382.592010
1087.264038,376.735992,-386.496002
1104.832031,337.696014,-390.399994
1112.640015,283.040009,-411.872009
1100.927979,238.143997,-419.679993
1081.407959,195.199997,-445.056000
1075.552002,162.016006,-460.671997
1065.791992,142.496002,-468.480011
1048.223999,124.928001,-486.048004
1046.271973,117.120003,-501.664001
1044.319946,107.360001,-517.280029
1030.656006,93.695999,-521.184021
1028.703979,99.552002,-528.992004
1028.703979,89.792000,-546.559998
1028.703979,80.031998,-552.416016
987.711975,93.695999,-560.223999
921.343994,109.311996,-556.320007
968.192017,175.679993,-577.791992
1054.079956,201.056000,-640.255981
1087.264038,130.783997,-648.064026
1071.647949,146.399994,-599.263977
1011.135986,115.167999,-550.463989
976.000000,122.975998,-527.039978
958.432007,158.112000,-554.367981
981.856018,148.352005,-595.359985
1038.463989,154.207993,-646.112000
1061.887939,185.440002,-667.583984
1040.416016,169.824005,-626.591980
1042.368042,121.024002,-573.888000
1050.176025,109.311996,-536.799988
1079.456055,85.888000,-534.848022
1097.024048,62.464001,-536.799988
1100.927979,81.984001,-558.271973
1056.031982,117.120003,-589.504028
1016.992004,142.496002,-597.312012
1011.135986,134.688004,-583.648010
1030.656006,91.744003,-589.504028
1038.463989,74.176003,-597.312012
1040.416016,62.464001,-599.263977
1020.895996,58.560001,-609.023987
1013.088013,83.935997,-609.023987
1013.088013,89.792000,-607.072021
1018.943970,76.127998,-628.544006
1015.039978,107.360001,-644.159973
1001.375977,134.688004,-646.112000
974.047974,152.255997,-657.823975
964.288025,169.824005,-687.104004
960.383972,162.016006,-706.624023
968.192017,152.255997,-710.528015
952.575989,160.063995,-726.143982
929.151978,158.112000,-728.096008
931.104004,154.207993,-735.903992
935.007996,140.544006,-753.471985
935.007996,122.975998,-772.992004
921.343994,128.832001,-788.607971
927.200012,115.167999,-782.752014
942.815979,74.176003,-763.231995
972.096008,39.040001,-722.239990
1003.328003,17.568001,-692.960022
1038.463989,15.616000,-642.208008
1079.456055,15.616000,-593.408020
1122.400024,11.712000,-517.280029
1159.488037,11.712000,-458.720001
1206.336060,7.808000,-398.208008
1225.855957,17.568001,-363.071991
1218.047974,19.520000,-339.648010
1204.384033,48.799999,-343.552002
1177.056030,101.503998,-357.216003
1141.920044,130.783997,-378.687988
1106.784058,128.832001,-392.351990
1079.456055,128.832001,-419.679993
1071.647949,113.216003,-443.104004
1054.079956,91.744003,-464.575989
1052.128052,80.031998,-480.191986
1044.319946,78.080002,-497.760010
1030.656006,85.888000,-523.135986
1009.184021,95.648003,-542.656006
989.664001,105.407997,-562.176025
985.760010,99.552002,-566.080017
983.807983,89.792000,-577.791992
1003.328003,58.560001,-569.984009
1013.088013,29.280001,-564.127991
1020.895996,7.808000,-550.463989
1034.560059,-9.760000,-532.895996
1050.176025,-25.375999,-528.992004
1050.176025,-35.136002,-513.375977
1052.128052,-13.664000,-515.328003
1036.511963,-3.904000,-503.615997
1028.703979,9.760000,-505.567993
1026.751953,3.904000,-501.664001
1018.943970,1.952000,-493.855988
1015.039978,1.952000,-497.760010
1009.184021,0.000000,-505.567993
991.616028,-1.952000,-507.519989
993.567993,5.856000,-513.375977
972.096008,0.000000,-530.943970
977.952026,11.712000,-527.039978
977.952026,13.664000,-540.703979
964.288025,15.616000,-538.752014
968.192017,15.616000,-530.943970
968.192017,7.808000,-528.992004
977.952026,-5.856000,-525.088013
979.903992,-9.760000,-517.280029
974.047974,-7.808000,-513.375977
985.760010,-5.856000,-509.471985
968.192017,-19.520000,-507.519989
974.047974,-21.472000,-497.760010
966.239990,-31.232000,-495.808014
966.239990,-25.375999,-488.000000
974.047974,-39.040001,-482.144012
960.383972,-42.944000,-482.144012
956.479980,-31.232000,-478.239990
950.624023,-33.183998,-480.191986
962.335999,-39.040001,-491.903992
944.768005,-33.183998,-484.096008
942.815979,-39.040001,-482.144012
940.864014,-40.992001,-484.096008
948.671997,-27.327999,-482.144012
942.815979,-29.280001,-488.000000
940.864014,-21.472000,-484.096008
946.719971,-27.327999,-488.000000
938.911987,-21.472000,-486.048004
938.911987,-15.616000,-486.048004
935.007996,-5.856000,-482.144012
929.151978,-11.712000,-491.903992
931.104004,-7.808000,-488.000000
923.296021,-5.856000,-484.096008
923.296021,-5.856000,-484.096008
915.487976,-15.616000,-484.096008
915.487976,-11.712000,-480.191986
923.296021,-21.472000,-480.191986
915.487976,-17.568001,-476.287994
919.392029,-21.472000,-478.239990
905.728027,-21.472000,-474.335999
905.728027,-21.472000,-472.384003
905.728027,-13.664000,-484.096008
903.776001,-21.472000,-493.855988
899.872009,-9.760000,-480.191986
895.968018,-15.616000,-482.144012
894.015991,-9.760000,-468.480011
892.064026,-5.856000,-484.096008
880.351990,-7.808000,-491.903992
886.208008,13.664000,-489.951996
882.304016,9.760000,-486.048004
884.255981,9.760000,-484.096008
892.064026,1.952000,-486.048004
878.400024,3.904000,-489.951996
884.255981,3.904000,-484.096008
876.447998,15.616000,-484.096008
888.159973,9.760000,-489.951996
895.968018,17.568001,-480.191986
895.968018,15.616000,-482.144012
890.112000,13.664000,-488.000000
897.919983,13.664000,-480.191986
894.015991,15.616000,-480.191986
897.919983,17.568001,-482.144012
907.679993,27.327999,-482.144012
909.632019,27.327999,-472.384003
907.679993,31.232000,-472.384003
907.679993,31.232000,-472.384003
911.583984,37.088001,-478.239990
911.583984,48.799999,-484.096008
915.487976,46.848000,-484.096008
913.536011,50.751999,-478.239990
905.728027,54.655998,-480.191986
901.823975,52.703999,-484.096008
915.487976,52.703999,-488.000000
909.632019,50.751999,-488.000000
913.536011,52.703999,-486.048004
911.583984,52.703999,-474.335999
921.343994,52.703999,-470.432007
917.440002,52.703999,-474.335999
921.343994,42.944000,-484.096008
921.343994,52.703999,-470.432007
921.343994,39.040001,-466.528015
917.440002,37.088001,-476.287994
923.296021,48.799999,-478.239990
925.247986,44.896000,-476.287994
921.343994,31.232000,-474.335999
929.151978,33.183998,-478.239990
929.151978,44.896000,-480.191986
927.200012,44.896000,-474.335999
931.104004,40.992001,-470.432007
923.296021,46.848000,-470.432007
917.440002,44.896000,-470.432007
911.583984,46.848000,-470.432007
931.104004,52.703999,-480.191986
921.343994,54.655998,-474.335999
917.440002,64.416000,-480.191986
921.343994,50.751999,-474.335999
921.343994,44.896000,-478.239990
931.104004,46.848000,-470.432007
921.343994,52.703999,-478.239990
923.296021,44.896000,-472.384003
921.343994,52.703999,-466.528015
929.151978,52.703999,-464.575989
925.247986,48.799999,-464.575989
923.296021,50.751999,-464.575989
917.440002,44.896000,-466.528015
923.296021,48.799999,-466.528015
915.487976,37.088001,-468.480011
921.343994,33.183998,-456.768005
907.679993,21.472000,-466.528015
917.440002,27.327999,-460.671997
917.440002,25.375999,-462.623993
919.392029,35.136002,-464.575989
931.104004,31.232000,-464.575989
907.679993,35.136002,-464.575989
909.632019,33.183998,-464.575989
913.536011,27.327999,-462.623993
913.536011,35.136002,-454.816010
913.536011,40.992001,-462.623993
913.536011,52.703999,-454.816010
915.487976,42.944000,-452.864014
907.679993,52.703999,-460.671997
901.823975,54.655998,-470.432007
899.872009,52.703999,-466.528015
903.776001,62.464001,-478.239990
894.015991,76.127998,-480.191986
897.919983,80.031998,-480.191986
897.919983,52.703999,-470.432007
899.872009,42.944000,-472.384003
903.776001,54.655998,-472.384003
901.823975,58.560001,-464.575989
903.776001,54.655998,-470.432007
901.823975,58.560001,-478.239990
894.015991,48.799999,-458.720001
897.919983,42.944000,-460.671997
895.968018,40.992001,-458.720001
895.968018,46.848000,-458.720001
897.919983,37.088001,-460.671997
901.823975,40.992001,-454.816010
897.919983,37.088001,-454.816010
899.872009,19.520000,-452.864014
894.015991,27.327999,-462.623993
886.208008,31.232000,-464.575989
894.015991,31.232000,-456.768005
890.112000,27.327999,-454.816010
892.064026,29.280001,-454.816010
882.304016,29.280001,-464.575989
880.351990,23.424000,-462.623993
882.304016,17.568001,-464.575989
878.400024,15.616000,-464.575989
866.687988,23.424000,-466.528015
866.687988,21.472000,-466.528015
870.591980,13.664000,-468.480011
866.687988,9.760000,-476.287994
862.783997,9.760000,-470.432007
858.880005,15.616000,-478.239990
862.783997,17.568001,-476.287994
868.640015,7.808000,-462.623993
858.880005,7.808000,-460.671997
866.687988,11.712000,-460.671997
864.736023,5.856000,-456.768005
862.783997,11.712000,-448.959991
872.544006,11.712000,-443.104004
872.544006,15.616000,-448.959991
862.783997,9.760000,-443.104004
862.783997,0.000000,-456.768005
868.640015,5.856000,-452.864014
858.880005,13.664000,-445.056000
851.072021,3.904000,-443.104004
854.976013,1.952000,-450.911987
851.072021,-7.808000,-450.911987
849.119995,-7.808000,-464.575989
841.312012,-13.664000,-464.575989
843.263977,-11.712000,-458.720001
841.312012,0.000000,-458.720001
851.072021,9.760000,-458.720001
856.927979,3.904000,-454.816010
851.072021,-7.808000,-460.671997
860.831970,1.952000,-450.911987
856.927979,-7.808000,-443.104004
854.976013,5.856000,-445.056000
858.880005,-3.904000,-437.247986
872.544006,-7.808000,-445.056000
868.640015,-15.616000,-431.391998
862.783997,-15.616000,-435.295990
864.736023,-9.760000,-441.152008
862.783997,-19.520000,-441.152008
862.783997,-15.616000,-437.247986
866.687988,-19.520000,-429.440002
868.640015,-21.472000,-431.391998
862.783997,-15.616000,-441.152008
854.976013,-13.664000,-439.200012
856.927979,-11.712000,-439.200012
860.831970,-19.520000,-439.200012
851.072021,-17.568001,-435.295990
851.072021,-19.520000,-439.200012
862.783997,-21.472000,-437.247986
860.831970,-19.520000,-433.343994
851.072021,-19.520000,-435.295990
854.976013,-23.424000,-433.343994
847.168030,-27.327999,-425.536011
856.927979,-21.472000,-419.679993
856.927979,-21.472000,-423.584015
858.880005,-21.472000,-423.584015
864.736023,-15.616000,-425.536011
864.736023,-17.568001,-423.584015
853.023987,-15.616000,-427.488007
853.023987,-17.568001,-421.631989
853.023987,-27.327999,-421.631989
858.880005,-39.040001,-433.343994
851.072021,-29.280001,-419.679993
851.072021,-33.183998,-429.440002
847.168030,-29.280001,-419.679993
845.216003,-35.136002,-411.872009
843.263977,-25.375999,-421.631989
841.312012,-37.088001,-427.488007
843.263977,-29.280001,-425.536011
841.312012,-31.232000,-421.631989
839.359985,-33.183998,-425.536011
837.408020,-31.232000,-421.631989
831.552002,-31.232000,-423.584015
833.504028,-39.040001,-427.488007
827.648010,-42.944000,-423.584015
829.599976,-39.040001,-419.679993
825.695984,-39.040001,-411.872009
823.744019,-39.040001,-423.584015
831.552002,-33.183998,-415.776001
839.359985,-33.183998,-407.967987
845.216003,-44.896000,-417.727997
847.168030,-37.088001,-406.015991
851.072021,-48.799999,-407.967987
843.263977,-48.799999,-406.015991
843.263977,-44.896000,-409.920013
847.168030,-37.088001,-407.967987
845.216003,-52.703999,-411.872009
845.216003,-58.560001,-411.872009
843.263977,-54.655998,-413.824005
833.504028,-44.896000,-400.160004
835.455994,-40.992001,-404.063995
835.455994,-44.896000,-419.679993
839.359985,-42.944000,-425.536011
837.408020,-42.944000,-415.776001
837.408020,-37.088001,-425.536011
839.359985,-52.703999,-417.727997
843.263977,-50.751999,-411.872009
845.216003,-44.896000,-419.679993
839.359985,-50.751999,-417.727997
841.312012,-48.799999,-407.967987
843.263977,-46.848000,-400.160004
849.119995,-46.848000,-400.160004
839.359985,-56.608002,-396.256012
839.359985,-50.751999,-417.727997
837.408020,-46.848000,-406.015991
839.359985,-40.992001,-409.920013
853.023987,-33.183998,-419.679993
843.263977,-50.751999,-419.679993
847.168030,-50.751999,-425.536011
847.168030,-52.703999,-419.679993
845.216003,-54.655998,-419.679993
851.072021,-39.040001,-419.679993
854.976013,-39.040001,-421.631989
854.976013,-39.040001,-419.679993
860.831970,-46.848000,-417.727997
864.736023,-37.088001,-404.063995
864.736023,-40.992001,-404.063995
872.544006,-48.799999,-409.920013
866.687988,-46.848000,-404.063995
862.783997,-46.848000,-406.015991
868.640015,-46.848000,-409.920013
864.736023,-40.992001,-404.063995
858.880005,-42.944000,-407.967987
864.736023,-44.896000,-425.536011
872.544006,-46.848000,-411.872009
864.736023,-48.799999,-415.776001
854.976013,-42.944000,-415.776001
860.831970,-46.848000,-421.631989
868.640015,-33.183998,-421.631989
872.544006,-27.327999,-413.824005
874.495972,-35.136002,-407.967987
880.351990,-33.183998,-406.015991
880.351990,-35.136002,-407.967987
878.400024,-29.280001,-409.920013
876.447998,-33.183998,-402.112000
880.351990,-31.232000,-407.967987
876.447998,-39.040001,-404.063995
866.687988,-29.280001,-409.920013
868.640015,-37.088001,-419.679993
868.640015,-48.799999,-417.727997
874.495972,-33.183998,-415.776001
868.640015,-42.944000,-419.679993
868.640015,-40.992001,-409.920013
866.687988,-35.136002,-407.967987
874.495972,-35.136002,-411.872009
878.400024,-37.088001,-417.727997
866.687988,-33.183998,-413.824005
866.687988,-40.992001,-411.872009
880.351990,-39.040001,-411.872009
882.304016,-25.375999,-409.920013
870.591980,-39.040001,-409.920013
876.447998,-33.183998,-409.920013
870.591980,-40.992001,-415.776001
872.544006,-33.183998,-419.679993
874.495972,-25.375999,-413.824005
872.544006,-39.040001,-411.872009
874.495972,-39.040001,-411.872009
870.591980,-37.088001,-421.631989
862.783997,-29.280001,-417.727997
866.687988,-37.088001,-425.536011
860.831970,-27.327999,-417.727997
866.687988,-39.040001,-421.631989
866.687988,-42.944000,-404.063995
866.687988,-42.944000,-415.776001
878.400024,-35.136002,-409.920013
880.351990,-35.136002,-419.679993
876.447998,-40.992001,-407.967987
878.400024,-40.992001,-404.063995
880.351990,-46.848000,-407.967987
878.400024,-35.136002,-413.824005
886.208008,-39.040001,-419.679993
882.304016,-40.992001,-417.727997
878.400024,-40.992001,-404.063995
882.304016,-35.136002,-406.015991
880.351990,-39.040001,-411.872009
884.255981,-40.992001,-421.631989
880.351990,-42.944000,-421.631989
880.351990,-40.992001,-419.679993
870.591980,-50.751999,-423.584015
870.591980,-44.896000,-419.679993
882.304016,-33.183998,-419.679993
884.255981,-46.848000,-415.776001
884.255981,-37.088001,-409.920013
884.255981,-33.183998,-411.872009
884.255981,-37.088001,-411.872009
884.255981,-50.751999,-415.776001
880.351990,-29.280001,-421.631989
888.159973,-31.232000,-417.727997
886.208008,-39.040001,-417.727997
888.159973,-40.992001,-415.776001
892.064026,-35.136002,-411.872009
888.159973,-25.375999,-409.920013
886.208008,-33.183998,-417.727997
886.208008,-27.327999,-417.727997
886.208008,-25.375999,-415.776001
878.400024,-29.280001,-417.727997
880.351990,-29.280001,-419.679993
880.351990,-39.040001,-419.679993
884.255981,-21.472000,-421.631989
880.351990,-21.472000,-411.872009
882.304016,-23.424000,-409.920013
882.304016,-23.424000,-421.631989
888.159973,-21.472000,-415.776001
886.208008,-27.327999,-423.584015
894.015991,-27.327999,-423.584015
899.872009,-17.568001,-411.872009
884.255981,-19.520000,-415.776001
888.159973,-17.568001,-415.776001
884.255981,-27.327999,-423.584015
890.112000,-21.472000,-415.776001
890.112000,-27.327999,-421.631989
892.064026,-25.375999,-419.679993
888.159973,-23.424000,-413.824005
886.208008,-23.424000,-415.776001
888.159973,-23.424000,-417.727997
882.304016,-23.424000,-413.824005
890.112000,-21.472000,-415.776001
882.304016,-29.280001,-417.727997
894.015991,-17.568001,-407.967987
884.255981,-33.183998,-413.824005
886.208008,-23.424000,-413.824005
878.400024,-29.280001,-413.824005
878.400024,-35.136002,-411.872009
878.400024,-25.375999,-409.920013
878.400024,-33.183998,-411.872009
882.304016,-31.232000,-411.872009
886.208008,-27.327999,-415.776001
882.304016,-25.375999,-407.967987
878.400024,-31.232000,-409.920013
878.400024,-31.232000,-411.872009
882.304016,-33.183998,-409.920013
