ACC_X,ACC_Y,ACC_Z
761.280029,333.791992,569.984009
757.375977,339.648010,568.031982
759.328003,337.696014,562.176025
757.375977,339.648010,569.984009
761.280029,335.743988,569.984009
761.280029,339.648010,568.031982
755.424011,329.888000,560.223999
759.328003,337.696014,564.127991
753.471985,347.455994,564.127991
753.471985,335.743988,564.127991
753.471985,339.648010,560.223999
757.375977,339.648010,562.176025
755.424011,347.455994,560.223999
751.520020,341.600006,564.127991
745.664001,341.600006,554.367981
757.375977,339.648010,558.271973
759.328003,335.743988,562.176025
753.471985,335.743988,556.320007
759.328003,337.696014,558.271973
753.471985,341.600006,562.176025
751.520020,343.552002,554.367981
745.664001,345.503998,560.223999
755.424011,347.455994,568.031982
753.471985,343.552002,560.223999
753.471985,345.503998,554.367981
759.328003,345.503998,560.223999
749.567993,353.312012,560.223999
759.328003,339.648010,556.320007
757.375977,351.359985,560.223999
757.375977,349.407990,564.127991
749.567993,349.407990,564.127991
759.328003,339.648010,568.031982
751.520020,345.503998,554.367981
757.375977,349.407990,564.127991
753.471985,353.312012,560.223999
747.616028,355.264008,556.320007
757.375977,349.407990,564.127991
749.567993,359.167999,558.271973
749.567993,361.119995,568.031982
749.567993,359.167999,568.031982
749.567993,359.167999,564.127991
755.424011,347.455994,562.176025
751.520020,343.552002,560.223999
745.664001,349.407990,562.176025
745.664001,355.264008,562.176025
747.616028,359.167999,558.271973
751.520020,361.119995,568.031982
749.567993,357.216003,562.176025
757.375977,353.312012,566.080017
757.375977,361.119995,560.223999
757.375977,361.119995,554.367981
753.471985,361.119995,564.127991
759.328003,363.071991,562.176025
745.664001,363.071991,568.031982
757.375977,361.119995,558.271973
761.280029,357.216003,554.367981
759.328003,368.928009,568.031982
759.328003,363.071991,562.176025
763.231995,359.167999,566.080017
761.280029,355.264008,566.080017
755.424011,359.167999,562.176025
753.471985,363.071991,560.223999
749.567993,361.119995,556.320007
755.424011,361.119995,564.127991
755.424011,357.216003,568.031982
755.424011,365.023987,569.984009
757.375977,361.119995,558.271973
765.184021,368.928009,564.127991
759.328003,366.976013,562.176025
753.471985,368.928009,558.271973
757.375977,366.976013,550.463989
759.328003,359.167999,571.935974
755.424011,357.216003,558.271973
753.471985,372.832001,562.176025
761.280029,361.119995,558.271973
755.424011,361.119995,558.271973
763.231995,368.928009,556.320007
763.231995,368.928009,560.223999
751.520020,370.880005,571.935974
749.567993,363.071991,566.080017
753.471985,357.216003,566.080017
749.567993,372.832001,564.127991
757.375977,361.119995,560.223999
753.471985,363.071991,564.127991
753.471985,365.023987,564.127991
747.616028,368.928009,564.127991
759.328003,368.928009,558.271973
755.424011,361.119995,562.176025
751.520020,368.928009,560.223999
749.567993,359.167999,568.031982
757.375977,361.119995,558.271973
753.471985,365.023987,566.080017
757.375977,363.071991,564.127991
755.424011,365.023987,566.080017
751.520020,363.071991,562.176025
747.616028,368.928009,566.080017
753.471985,359.167999,568.031982
747.616028,357.216003,562.176025
753.471985,359.167999,571.935974
753.471985,363.071991,568.031982
757.375977,363.071991,558.271973
759.328003,365.023987,566.080017
759.328003,363.071991,568.031982
745.664001,357.216003,560.223999
759.328003,357.216003,569.984009
753.471985,353.312012,575.840027
755.424011,355.264008,564.127991
757.375977,359.167999,568.031982
755.424011,361.119995,564.127991
745.664001,359.167999,564.127991
747.616028,351.359985,568.031982
743.711975,347.455994,564.127991
747.616028,359.167999,564.127991
759.328003,347.455994,571.935974
749.567993,355.264008,566.080017
751.520020,349.407990,568.031982
751.520020,351.359985,569.984009
745.664001,341.600006,566.080017
745.664001,345.503998,566.080017
757.375977,349.407990,558.271973
751.520020,345.503998,560.223999
747.616028,341.600006,571.935974
751.520020,345.503998,554.367981
743.711975,345.503998,568.031982
747.616028,333.791992,556.320007
751.520020,339.648010,568.031982
753.471985,335.743988,566.080017
751.520020,331.839996,568.031982
751.520020,341.600006,566.080017
751.520020,335.743988,558.271973
743.711975,339.648010,566.080017
741.760010,335.743988,571.935974
747.616028,339.648010,566.080017
743.711975,335.743988,566.080017
745.664001,345.503998,566.080017
747.616028,331.839996,566.080017
743.711975,343.552002,571.935974
747.616028,341.600006,566.080017
741.760010,327.936005,564.127991
737.856018,333.791992,562.176025
745.664001,333.791992,564.127991
741.760010,335.743988,566.080017
743.711975,337.696014,573.888000
747.616028,329.888000,571.935974
745.664001,314.272003,566.080017
759.328003,322.079987,571.935974
751.520020,322.079987,571.935974
741.760010,329.888000,569.984009
747.616028,329.888000,569.984009
749.567993,333.791992,569.984009
749.567993,335.743988,568.031982
745.664001,329.888000,569.984009
751.520020,335.743988,566.080017
743.711975,322.079987,568.031982
751.520020,324.032013,568.031982
751.520020,329.888000,569.984009
747.616028,325.984009,568.031982
745.664001,333.791992,562.176025
741.760010,325.984009,568.031982
745.664001,324.032013,575.840027
749.567993,331.839996,569.984009
745.664001,329.888000,579.744019
753.471985,318.175995,573.888000
753.471985,320.127991,573.888000
745.664001,329.888000,569.984009
755.424011,327.936005,569.984009
751.520020,312.320007,568.031982
751.520020,318.175995,575.840027
759.328003,318.175995,568.031982
749.567993,337.696014,571.935974
751.520020,320.127991,579.744019
745.664001,324.032013,569.984009
747.616028,329.888000,575.840027
745.664001,329.888000,569.984009
745.664001,331.839996,577.791992
753.471985,333.791992,573.888000
751.520020,324.032013,571.935974
741.760010,329.888000,569.984009
749.567993,329.888000,566.080017
753.471985,327.936005,571.935974
743.711975,331.839996,573.888000
753.471985,331.839996,573.888000
745.664001,331.839996,571.935974
759.328003,324.032013,571.935974
747.616028,329.888000,569.984009
755.424011,335.743988,571.935974
749.567993,337.696014,575.840027
751.520020,329.888000,568.031982
753.471985,329.888000,569.984009
757.375977,333.791992,581.695984
759.328003,331.839996,568.031982
755.424011,343.552002,577.791992
745.664001,325.984009,569.984009
751.520020,333.791992,564.127991
743.711975,331.839996,571.935974
749.567993,339.648010,571.935974
749.567993,343.552002,577.791992
747.616028,337.696014,573.888000
745.664001,339.648010,575.840027
747.616028,335.743988,571.935974
749.567993,337.696014,573.888000
757.375977,339.648010,569.984009
763.231995,345.503998,577.791992
757.375977,333.791992,579.744019
757.375977,337.696014,571.935974
755.424011,324.032013,577.791992
759.328003,322.079987,575.840027
757.375977,333.791992,579.744019
753.471985,335.743988,569.984009
751.520020,339.648010,571.935974
755.424011,339.648010,575.840027
759.328003,327.936005,571.935974
757.375977,341.600006,569.984009
755.424011,345.503998,573.888000
747.616028,341.600006,566.080017
749.567993,343.552002,571.935974
749.567993,335.743988,569.984009
749.567993,343.552002,573.888000
751.520020,349.407990,573.888000
751.520020,349.407990,569.984009
747.616028,351.359985,562.176025
745.664001,343.552002,573.888000
751.520020,351.359985,573.888000
745.664001,343.552002,568.031982
749.567993,343.552002,571.935974
751.520020,353.312012,571.935974
747.616028,331.839996,571.935974
739.807983,341.600006,562.176025
749.567993,343.552002,566.080017
747.616028,347.455994,568.031982
741.760010,351.359985,575.840027
747.616028,347.455994,568.031982
751.520020,343.552002,571.935974
745.664001,339.648010,566.080017
741.760010,335.743988,566.080017
749.567993,341.600006,566.080017
739.807983,347.455994,571.935974
747.616028,339.648010,573.888000
743.711975,345.503998,575.840027
743.711975,343.552002,571.935974
741.760010,345.503998,566.080017
741.760010,353.312012,568.031982
747.616028,341.600006,571.935974
737.856018,341.600006,566.080017
743.711975,353.312012,568.031982
743.711975,347.455994,562.176025
741.760010,345.503998,571.935974
737.856018,343.552002,573.888000
743.711975,343.552002,571.935974
737.856018,341.600006,566.080017
743.711975,347.455994,568.031982
739.807983,345.503998,566.080017
730.047974,343.552002,562.176025
741.760010,339.648010,566.080017
741.760010,349.407990,556.320007
741.760010,349.407990,556.320007
741.760010,345.503998,566.080017
739.807983,341.600006,568.031982
739.807983,347.455994,571.935974
743.711975,347.455994,560.223999
737.856018,351.359985,564.127991
733.952026,353.312012,566.080017
743.711975,347.455994,560.223999
743.711975,347.455994,562.176025
745.664001,353.312012,562.176025
747.616028,351.359985,566.080017
737.856018,343.552002,564.127991
739.807983,339.648010,564.127991
743.711975,339.648010,558.271973
735.903992,343.552002,556.320007
741.760010,353.312012,569.984009
745.664001,339.648010,554.367981
745.664001,337.696014,564.127991
739.807983,345.503998,558.271973
741.760010,341.600006,564.127991
747.616028,353.312012,558.271973
743.711975,335.743988,571.935974
745.664001,335.743988,564.127991
741.760010,345.503998,552.416016
743.711975,329.888000,564.127991
745.664001,343.552002,568.031982
749.567993,347.455994,560.223999
741.760010,337.696014,554.367981
751.520020,343.552002,560.223999
749.567993,347.455994,558.271973
747.616028,345.503998,558.271973
751.520020,345.503998,564.127991
749.567993,327.936005,560.223999
747.616028,335.743988,554.367981
747.616028,337.696014,552.416016
743.711975,337.696014,546.559998
741.760010,333.791992,556.320007
753.471985,341.600006,556.320007
745.664001,337.696014,554.367981
745.664001,333.791992,554.367981
761.280029,331.839996,554.367981
755.424011,341.600006,554.367981
745.664001,335.743988,554.367981
763.231995,341.600006,560.223999
759.328003,341.600006,560.223999
755.424011,329.888000,554.367981
747.616028,349.407990,550.463989
763.231995,343.552002,550.463989
757.375977,343.552002,556.320007
759.328003,337.696014,564.127991
753.471985,339.648010,558.271973
753.471985,341.600006,564.127991
757.375977,345.503998,568.031982
753.471985,331.839996,568.031982
749.567993,341.600006,564.127991
753.471985,345.503998,562.176025
757.375977,333.791992,568.031982
751.520020,339.648010,566.080017
753.471985,331.839996,560.223999
759.328003,343.552002,562.176025
759.328003,339.648010,556.320007
753.471985,327.936005,566.080017
749.567993,343.552002,571.935974
753.471985,337.696014,564.127991
751.520020,339.648010,564.127991
753.471985,349.407990,562.176025
751.520020,343.552002,566.080017
755.424011,335.743988,562.176025
747.616028,345.503998,564.127991
747.616028,343.552002,566.080017
741.760010,345.503998,564.127991
745.664001,339.648010,566.080017
751.520020,339.648010,566.080017
753.471985,333.791992,554.367981
747.616028,337.696014,571.935974
741.760010,339.648010,564.127991
745.664001,345.503998,566.080017
751.520020,343.552002,568.031982
743.711975,341.600006,560.223999
747.616028,347.455994,558.271973
749.567993,353.312012,560.223999
745.664001,345.503998,566.080017
745.664001,349.407990,568.031982
757.375977,351.359985,566.080017
757.375977,341.600006,573.888000
753.471985,353.312012,566.080017
753.471985,351.359985,569.984009
753.471985,353.312012,571.935974
759.328003,347.455994,566.080017
755.424011,345.503998,569.984009
749.567993,347.455994,562.176025
755.424011,351.359985,562.176025
765.184021,351.359985,566.080017
755.424011,347.455994,566.080017
759.328003,351.359985,575.840027
757.375977,357.216003,571.935974
765.184021,359.167999,575.840027
757.375977,347.455994,571.935974
759.328003,353.312012,566.080017
755.424011,353.312012,562.176025
763.231995,351.359985,571.935974
769.088013,351.359985,566.080017
765.184021,365.023987,573.888000
765.184021,359.167999,573.888000
761.280029,357.216003,575.840027
759.328003,359.167999,575.840027
759.328003,351.359985,573.888000
771.039978,361.119995,573.888000
767.135986,361.119995,577.791992
765.184021,361.119995,579.744019
767.135986,366.976013,575.840027
761.280029,365.023987,569.984009
767.135986,365.023987,579.744019
761.280029,365.023987,575.840027
753.471985,359.167999,573.888000
767.135986,366.976013,577.791992
767.135986,361.119995,571.935974
761.280029,365.023987,568.031982
761.280029,365.023987,573.888000
761.280029,366.976013,579.744019
761.280029,361.119995,564.127991
761.280029,361.119995,568.031982
767.135986,365.023987,577.791992
759.328003,363.071991,577.791992
761.280029,357.216003,577.791992
767.135986,366.976013,579.744019
765.184021,363.071991,581.695984
761.280029,376.735992,581.695984
761.280029,372.832001,593.408020
772.992004,365.023987,583.648010
767.135986,359.167999,581.695984
763.231995,365.023987,585.599976
763.231995,363.071991,587.552002
757.375977,363.071991,587.552002
757.375977,363.071991,585.599976
757.375977,363.071991,585.599976
759.328003,363.071991,593.408020
761.280029,363.071991,589.504028
753.471985,372.832001,595.359985
753.471985,366.976013,593.408020
755.424011,376.735992,593.408020
751.520020,370.880005,595.359985
753.471985,372.832001,595.359985
759.328003,376.735992,589.504028
769.088013,372.832001,583.648010
765.184021,363.071991,587.552002
753.471985,374.783997,591.455994
753.471985,366.976013,593.408020
755.424011,376.735992,593.408020
745.664001,366.976013,595.359985
751.520020,361.119995,593.408020
733.952026,363.071991,593.408020
730.047974,365.023987,579.744019
739.807983,353.312012,577.791992
741.760010,359.167999,562.176025
735.903992,361.119995,558.271973
733.952026,353.312012,569.984009
732.000000,363.071991,556.320007
735.903992,361.119995,558.271973
739.807983,355.264008,566.080017
733.952026,363.071991,556.320007
733.952026,366.976013,558.271973
735.903992,368.928009,554.367981
743.711975,368.928009,571.935974
733.952026,368.928009,569.984009
732.000000,378.687988,571.935974
733.952026,368.928009,568.031982
741.760010,380.640015,575.840027
743.711975,372.832001,575.840027
743.711975,378.687988,589.504028
757.375977,374.783997,595.359985
753.471985,376.735992,591.455994
753.471985,374.783997,593.408020
745.664001,363.071991,593.408020
751.520020,376.735992,585.599976
747.616028,365.023987,591.455994
741.760010,366.976013,585.599976
755.424011,363.071991,575.840027
749.567993,359.167999,579.744019
751.520020,361.119995,569.984009
743.711975,365.023987,564.127991
747.616028,372.832001,566.080017
745.664001,366.976013,566.080017
743.711975,359.167999,560.223999
741.760010,370.880005,564.127991
737.856018,365.023987,560.223999
735.903992,365.023987,562.176025
735.903992,361.119995,564.127991
745.664001,359.167999,560.223999
743.711975,363.071991,566.080017
751.520020,357.216003,575.840027
755.424011,363.071991,573.888000
753.471985,359.167999,577.791992
751.520020,370.880005,591.455994
753.471985,366.976013,589.504028
759.328003,363.071991,587.552002
759.328003,363.071991,587.552002
763.231995,368.928009,581.695984
763.231995,366.976013,589.504028
763.231995,363.071991,591.455994
772.992004,376.735992,591.455994
772.992004,376.735992,589.504028
771.039978,370.880005,585.599976
774.943970,368.928009,575.840027
774.943970,370.880005,577.791992
778.848022,384.544006,581.695984
769.088013,374.783997,583.648010
782.752014,363.071991,583.648010
772.992004,368.928009,591.455994
782.752014,370.880005,585.599976
776.895996,365.023987,585.599976
790.559998,380.640015,589.504028
784.703979,370.880005,589.504028
788.607971,366.976013,581.695984
794.463989,376.735992,583.648010
792.512024,380.640015,585.599976
792.512024,374.783997,587.552002
790.559998,378.687988,583.648010
806.176025,390.399994,589.504028
800.320007,390.399994,579.744019
810.080017,396.256012,587.552002
806.176025,390.399994,581.695984
792.512024,400.160004,585.599976
802.271973,394.303986,579.744019
802.271973,406.015991,587.552002
798.367981,407.967987,587.552002
804.223999,398.208008,591.455994
808.127991,398.208008,589.504028
813.984009,390.399994,591.455994
810.080017,398.208008,585.599976
815.935974,404.063995,587.552002
813.984009,407.967987,585.599976
819.840027,407.967987,579.744019
810.080017,411.872009,573.888000
808.127991,411.872009,573.888000
802.271973,411.872009,569.984009
808.127991,411.872009,569.984009
802.271973,411.872009,562.176025
798.367981,421.631989,568.031982
800.320007,417.727997,568.031982
794.463989,427.488007,558.271973
788.607971,427.488007,568.031982
790.559998,425.536011,556.320007
796.416016,439.200012,560.223999
796.416016,433.343994,560.223999
790.559998,435.295990,562.176025
794.463989,435.295990,562.176025
790.559998,425.536011,558.271973
790.559998,435.295990,564.127991
786.656006,437.247986,566.080017
786.656006,431.391998,571.935974
798.367981,423.584015,564.127991
786.656006,423.584015,566.080017
788.607971,429.440002,568.031982
790.559998,425.536011,568.031982
788.607971,431.391998,569.984009
782.752014,419.679993,575.840027
784.703979,427.488007,566.080017
786.656006,433.343994,568.031982
784.703979,427.488007,558.271973
788.607971,431.391998,562.176025
780.799988,439.200012,558.271973
794.463989,435.295990,562.176025
784.703979,429.440002,568.031982
790.559998,431.391998,558.271973
790.559998,431.391998,562.176025
788.607971,437.247986,562.176025
794.463989,437.247986,562.176025
788.607971,429.440002,569.984009
780.799988,437.247986,571.935974
786.656006,425.536011,577.791992
796.416016,433.343994,587.552002
792.512024,441.152008,595.359985
784.703979,443.104004,605.119995
792.512024,445.056000,622.687988
774.943970,445.056000,646.112000
772.992004,443.104004,677.343994
780.799988,435.295990,704.671997
804.223999,404.063995,730.047974
819.840027,404.063995,737.856018
845.216003,409.920013,747.616028
849.119995,382.592010,737.856018
854.976013,384.544006,726.143982
845.216003,439.200012,714.432007
817.888000,468.480011,679.296021
808.127991,450.911987,665.632019
784.703979,513.375977,640.255981
778.848022,527.039978,618.783997
761.280029,509.471985,597.312012
772.992004,505.567993,573.888000
776.895996,515.328003,560.223999
778.848022,497.760010,542.656006
780.799988,482.144012,536.799988
772.992004,472.384003,515.328003
769.088013,462.623993,513.375977
759.328003,433.343994,507.519989
751.520020,437.247986,497.760010
753.471985,425.536011,497.760010
745.664001,406.015991,505.567993
745.664001,398.208008,503.615997
749.567993,404.063995,513.375977
743.711975,390.399994,525.088013
747.616028,386.496002,536.799988
741.760010,402.112000,542.656006
743.711975,406.015991,552.416016
743.711975,409.920013,568.031982
755.424011,429.440002,568.031982
745.664001,445.056000,575.840027
757.375977,462.623993,581.695984
759.328003,474.335999,591.455994
759.328003,505.567993,595.359985
761.280029,499.712006,595.359985
759.328003,507.519989,599.263977
767.135986,513.375977,599.263977
757.375977,513.375977,597.312012
763.231995,515.328003,607.072021
749.567993,521.184021,605.119995
741.760010,509.471985,607.072021
747.616028,505.567993,599.263977
741.760010,493.855988,595.359985
743.711975,472.384003,591.455994
745.664001,470.432007,585.599976
745.664001,458.720001,585.599976
747.616028,447.007996,589.504028
743.711975,439.200012,585.599976
743.711975,419.679993,593.408020
741.760010,409.920013,581.695984
739.807983,407.967987,585.599976
737.856018,415.776001,579.744019
743.711975,421.631989,587.552002
730.047974,425.536011,566.080017
741.760010,439.200012,558.271973
726.143982,460.671997,544.607971
728.096008,476.287994,530.943970
724.192017,486.048004,530.943970
706.624023,484.096008,527.039978
722.239990,489.951996,523.135986
728.096008,505.567993,528.992004
732.000000,497.760010,525.088013
726.143982,486.048004,530.943970
737.856018,464.575989,538.752014
733.952026,454.816010,538.752014
741.760010,452.864014,527.039978
733.952026,441.152008,530.943970
732.000000,431.391998,536.799988
728.096008,413.824005,530.943970
732.000000,417.727997,544.607971
732.000000,409.920013,534.848022
722.239990,407.967987,532.895996
730.047974,398.208008,538.752014
732.000000,402.112000,548.512024
730.047974,390.399994,538.752014
730.047974,396.256012,544.607971
735.903992,398.208008,542.656006
733.952026,407.967987,552.416016
735.903992,409.920013,550.463989
732.000000,425.536011,560.223999
735.903992,425.536011,558.271973
733.952026,447.007996,573.888000
739.807983,460.671997,562.176025
739.807983,452.864014,577.791992
749.567993,458.720001,575.840027
749.567993,462.623993,577.791992
751.520020,458.720001,579.744019
751.520020,454.816010,569.984009
757.375977,456.768005,583.648010
753.471985,450.911987,579.744019
755.424011,443.104004,599.263977
757.375977,417.727997,585.599976
757.375977,413.824005,587.552002
763.231995,413.824005,607.072021
767.135986,402.112000,605.119995
757.375977,396.256012,599.263977
767.135986,388.447998,601.216003
769.088013,370.880005,614.880005
761.280029,370.880005,605.119995
759.328003,368.928009,620.736023
761.280029,363.071991,612.927979
765.184021,366.976013,616.831970
772.992004,378.687988,614.880005
774.943970,384.544006,620.736023
769.088013,382.592010,616.831970
772.992004,384.544006,609.023987
774.943970,390.399994,622.687988
771.039978,400.160004,610.976013
767.135986,406.015991,612.927979
767.135986,398.208008,609.023987
761.280029,407.967987,610.976013
759.328003,411.872009,607.072021
772.992004,415.776001,605.119995
767.135986,396.256012,599.263977
772.992004,392.351990,610.976013
771.039978,398.208008,618.783997
765.184021,398.208008,612.927979
767.135986,380.640015,616.831970
774.943970,374.783997,626.591980
774.943970,384.544006,632.447998
774.943970,374.783997,634.400024
771.039978,368.928009,630.495972
772.992004,361.119995,632.447998
772.992004,363.071991,632.447998
776.895996,361.119995,636.351990
771.039978,363.071991,638.304016
765.184021,357.216003,640.255981
769.088013,361.119995,650.015991
774.943970,370.880005,640.255981
776.895996,365.023987,651.968018
767.135986,351.359985,657.823975
776.895996,365.023987,661.728027
774.943970,366.976013,655.872009
774.943970,378.687988,655.872009
763.231995,382.592010,648.064026
776.895996,394.303986,626.591980
790.559998,374.783997,607.072021
796.416016,327.936005,589.504028
772.992004,345.503998,569.984009
763.231995,382.592010,560.223999
747.616028,400.160004,544.607971
739.807983,372.832001,540.703979
733.952026,372.832001,542.656006
728.096008,380.640015,532.895996
726.143982,380.640015,527.039978
737.856018,349.407990,530.943970
747.616028,322.079987,540.703979
757.375977,327.936005,552.416016
753.471985,320.127991,579.744019
753.471985,314.272003,585.599976
749.567993,310.368011,607.072021
751.520020,327.936005,620.736023
751.520020,320.127991,630.495972
757.375977,327.936005,638.304016
759.328003,324.032013,640.255981
755.424011,329.888000,646.112000
753.471985,347.455994,644.159973
755.424011,335.743988,642.208008
749.567993,357.216003,650.015991
745.664001,361.119995,644.159973
739.807983,357.216003,638.304016
739.807983,351.359985,638.304016
737.856018,343.552002,636.351990
741.760010,349.407990,644.159973
730.047974,345.503998,632.447998
735.903992,327.936005,636.351990
728.096008,316.223999,646.112000
733.952026,322.079987,653.919983
728.096008,304.511993,642.208008
724.192017,302.559998,642.208008
724.192017,288.895996,646.112000
714.432007,310.368011,648.064026
712.479980,306.463989,638.304016
704.671997,298.656006,648.064026
710.528015,290.847992,653.919983
706.624023,294.752014,650.015991
694.911987,298.656006,648.064026
704.671997,292.799988,646.112000
698.815979,292.799988,650.015991
696.864014,284.992004,634.400024
692.960022,286.944000,646.112000
683.200012,294.752014,644.159973
681.247986,298.656006,644.159973
687.104004,283.040009,646.112000
687.104004,277.183990,644.159973
677.343994,283.040009,653.919983
681.247986,290.847992,650.015991
677.343994,283.040009,646.112000
675.392029,273.279999,644.159973
665.632019,269.376007,648.064026
675.392029,269.376007,648.064026
665.632019,269.376007,650.015991
667.583984,267.424011,646.112000
659.776001,263.519989,640.255981
669.536011,265.471985,646.112000
663.679993,261.567993,648.064026
665.632019,259.615997,634.400024
657.823975,257.664001,644.159973
650.015991,261.567993,632.447998
646.112000,255.712006,630.495972
638.304016,265.471985,628.544006
638.304016,261.567993,636.351990
636.351990,271.328003,642.208008
638.304016,263.519989,638.304016
630.495972,259.615997,638.304016
636.351990,253.759995,650.015991
638.304016,255.712006,659.776001
630.495972,245.951996,661.728027
634.400024,238.143997,650.015991
634.400024,232.287994,665.632019
638.304016,226.432007,671.487976
628.544006,222.528000,665.632019
638.304016,222.528000,659.776001
626.591980,232.287994,659.776001
612.927979,228.384003,640.255981
610.976013,218.623993,640.255981
603.168030,232.287994,620.736023
603.168030,230.335999,620.736023
601.216003,226.432007,618.783997
607.072021,234.240005,601.216003
601.216003,247.904007,603.168030
593.408020,263.519989,589.504028
595.359985,255.712006,573.888000
589.504028,263.519989,564.127991
591.455994,263.519989,550.463989
585.599976,286.944000,558.271973
587.552002,312.320007,542.656006
573.888000,310.368011,538.752014
573.888000,308.415985,532.895996
573.888000,298.656006,527.039978
566.080017,312.320007,525.088013
575.840027,316.223999,507.519989
566.080017,308.415985,499.712006
566.080017,312.320007,488.000000
562.176025,308.415985,486.048004
554.367981,312.320007,480.191986
566.080017,314.272003,472.384003
560.223999,316.223999,482.144012
548.512024,306.463989,478.239990
538.752014,304.511993,482.144012
542.656006,300.608002,474.335999
538.752014,294.752014,486.048004
542.656006,273.279999,486.048004
540.703979,269.376007,468.480011
542.656006,267.424011,464.575989
544.607971,261.567993,472.384003
536.799988,271.328003,474.335999
528.992004,265.471985,462.623993
523.135986,273.279999,470.432007
521.184021,271.328003,464.575989
513.375977,269.376007,462.623993
515.328003,275.231995,464.575989
521.184021,279.135986,468.480011
521.184021,273.279999,460.671997
521.184021,277.183990,466.528015
521.184021,283.040009,472.384003
513.375977,281.088013,474.335999
511.424011,279.135986,468.480011
530.943970,271.328003,468.480011
511.424011,292.799988,486.048004
519.231995,290.847992,489.951996
511.424011,275.231995,488.000000
515.328003,263.519989,489.951996
517.280029,279.135986,488.000000
511.424011,286.944000,491.903992
511.424011,275.231995,488.000000
513.375977,265.471985,491.903992
513.375977,267.424011,497.760010
511.424011,267.424011,503.615997
517.280029,259.615997,501.664001
521.184021,251.807999,501.664001
511.424011,255.712006,495.808014
509.471985,261.567993,503.615997
505.567993,267.424011,509.471985
511.424011,263.519989,507.519989
511.424011,261.567993,509.471985
515.328003,279.135986,511.424011
527.039978,269.376007,507.519989
525.088013,263.519989,519.231995
523.135986,267.424011,517.280029
532.895996,269.376007,517.280029
528.992004,286.944000,521.184021
528.992004,273.279999,513.375977
523.135986,283.040009,521.184021
527.039978,277.183990,513.375977
523.135986,288.895996,517.280029
532.895996,281.088013,519.231995
530.943970,273.279999,509.471985
544.607971,279.135986,517.280029
542.656006,277.183990,505.567993
542.656006,273.279999,511.424011
540.703979,269.376007,499.712006
550.463989,267.424011,503.615997
554.367981,279.135986,501.664001
556.320007,271.328003,501.664001
562.176025,269.376007,503.615997
562.176025,275.231995,511.424011
577.791992,265.471985,521.184021
577.791992,269.376007,525.088013
579.744019,267.424011,534.848022
599.263977,277.183990,548.512024
599.263977,265.471985,550.463989
601.216003,269.376007,560.223999
614.880005,263.519989,569.984009
618.783997,269.376007,577.791992
624.640015,271.328003,607.072021
630.495972,263.519989,614.880005
636.351990,267.424011,626.591980
648.064026,261.567993,644.159973
651.968018,271.328003,648.064026
663.679993,267.424011,655.872009
655.872009,269.376007,667.583984
665.632019,265.471985,671.487976
663.679993,267.424011,677.343994
667.583984,277.183990,673.440002
665.632019,269.376007,675.392029
677.343994,277.183990,671.487976
677.343994,275.231995,675.392029
673.440002,279.135986,665.632019
677.343994,267.424011,659.776001
663.679993,265.471985,655.872009
677.343994,271.328003,653.919983
675.392029,261.567993,646.112000
677.343994,255.712006,630.495972
677.343994,255.712006,630.495972
685.151978,253.759995,620.736023
677.343994,251.807999,628.544006
679.296021,245.951996,616.831970
679.296021,242.048004,622.687988
677.343994,247.904007,628.544006
675.392029,251.807999,618.783997
681.247986,259.615997,630.495972
692.960022,253.759995,626.591980
692.960022,249.856003,636.351990
696.864014,259.615997,640.255981
696.864014,253.759995,640.255981
694.911987,255.712006,648.064026
704.671997,261.567993,651.968018
702.719971,269.376007,650.015991
706.624023,271.328003,661.728027
702.719971,275.231995,657.823975
710.528015,271.328003,657.823975
710.528015,277.183990,659.776001
716.383972,275.231995,665.632019
706.624023,279.135986,671.487976
718.335999,277.183990,663.679993
710.528015,271.328003,677.343994
716.383972,267.424011,675.392029
720.288025,271.328003,677.343994
714.432007,267.424011,667.583984
716.383972,265.471985,651.968018
706.624023,261.567993,661.728027
712.479980,269.376007,665.632019
712.479980,269.376007,659.776001
702.719971,271.328003,665.632019
702.719971,275.231995,673.440002
708.575989,275.231995,661.728027
708.575989,271.328003,651.968018
696.864014,269.376007,655.872009
700.768005,277.183990,650.015991
694.911987,283.040009,638.304016
691.007996,283.040009,651.968018
696.864014,281.088013,646.112000
698.815979,281.088013,646.112000
698.815979,283.040009,642.208008
687.104004,283.040009,644.159973
689.056030,281.088013,644.159973
689.056030,277.183990,648.064026
689.056030,286.944000,636.351990
687.104004,284.992004,650.015991
691.007996,279.135986,653.919983
694.911987,269.376007,653.919983
683.200012,271.328003,653.919983
689.056030,273.279999,648.064026
673.440002,269.376007,646.112000
681.247986,279.135986,646.112000
685.151978,277.183990,646.112000
683.200012,283.040009,648.064026
683.200012,281.088013,636.351990
685.151978,275.231995,636.351990
671.487976,281.088013,650.015991
675.392029,275.231995,640.255981
671.487976,275.231995,642.208008
663.679993,265.471985,642.208008
665.632019,273.279999,644.159973
663.679993,271.328003,642.208008
669.536011,259.615997,640.255981
665.632019,253.759995,638.304016
671.487976,263.519989,648.064026
669.536011,263.519989,640.255981
665.632019,259.615997,640.255981
669.536011,255.712006,650.015991
665.632019,259.615997,634.400024
659.776001,269.376007,644.159973
655.872009,265.471985,632.447998
659.776001,251.807999,628.544006
655.872009,245.951996,628.544006
661.728027,251.807999,636.351990
659.776001,255.712006,642.208008
650.015991,251.807999,630.495972
650.015991,242.048004,626.591980
659.776001,234.240005,626.591980
655.872009,242.048004,624.640015
646.112000,230.335999,630.495972
648.064026,240.095993,620.736023
651.968018,234.240005,626.591980
646.112000,240.095993,620.736023
650.015991,226.432007,612.927979
646.112000,232.287994,605.119995
646.112000,226.432007,601.216003
648.064026,220.576004,609.023987
650.015991,224.479996,597.312012
653.919983,226.432007,589.504028
650.015991,218.623993,601.216003
644.159973,226.432007,595.359985
653.919983,222.528000,599.263977
655.872009,222.528000,593.408020
653.919983,222.528000,591.455994
650.015991,220.576004,587.552002
653.919983,216.671997,583.648010
650.015991,216.671997,577.791992
650.015991,206.912003,575.840027
651.968018,218.623993,571.935974
661.728027,224.479996,585.599976
657.823975,214.720001,577.791992
667.583984,220.576004,579.744019
667.583984,220.576004,575.840027
663.679993,220.576004,569.984009
663.679993,220.576004,581.695984
671.487976,218.623993,568.031982
667.583984,214.720001,562.176025
677.343994,216.671997,581.695984
669.536011,214.720001,579.744019
673.440002,212.768005,573.888000
685.151978,206.912003,575.840027
677.343994,224.479996,569.984009
681.247986,216.671997,571.935974
689.056030,214.720001,566.080017
692.960022,212.768005,571.935974
694.911987,220.576004,569.984009
687.104004,218.623993,571.935974
692.960022,208.863998,569.984009
691.007996,214.720001,566.080017
700.768005,208.863998,566.080017
694.911987,224.479996,562.176025
706.624023,216.671997,556.320007
710.528015,214.720001,562.176025
708.575989,220.576004,554.367981
710.528015,220.576004,564.127991
714.432007,220.576004,556.320007
728.096008,218.623993,556.320007
724.192017,222.528000,556.320007
724.192017,222.528000,556.320007
726.143982,230.335999,558.271973
733.952026,244.000000,556.320007
730.047974,224.479996,560.223999
730.047974,236.192001,560.223999
735.903992,238.143997,560.223999
743.711975,242.048004,560.223999
741.760010,244.000000,554.367981
747.616028,251.807999,560.223999
753.471985,244.000000,560.223999
755.424011,247.904007,566.080017
765.184021,251.807999,564.127991
765.184021,245.951996,562.176025
763.231995,251.807999,562.176025
765.184021,247.904007,558.271973
769.088013,259.615997,562.176025
763.231995,257.664001,564.127991
774.943970,269.376007,566.080017
776.895996,271.328003,564.127991
780.799988,273.279999,579.744019
788.607971,283.040009,573.888000
786.656006,284.992004,569.984009
792.512024,284.992004,569.984009
794.463989,284.992004,571.935974
802.271973,294.752014,575.840027
802.271973,283.040009,571.935974
796.416016,290.847992,575.840027
808.127991,281.088013,575.840027
806.176025,281.088013,573.888000
808.127991,286.944000,569.984009
812.031982,292.799988,568.031982
815.935974,288.895996,575.840027
821.791992,288.895996,569.984009
819.840027,284.992004,568.031982
825.695984,294.752014,558.271973
819.840027,292.799988,558.271973
825.695984,288.895996,564.127991
821.791992,294.752014,566.080017
819.840027,294.752014,558.271973
821.791992,296.704010,564.127991
831.552002,290.847992,568.031982
839.359985,298.656006,569.984009
847.168030,288.895996,575.840027
853.023987,296.704010,571.935974
853.023987,296.704010,571.935974
854.976013,294.752014,585.599976
864.736023,294.752014,581.695984
862.783997,294.752014,583.648010
866.687988,304.511993,585.599976
866.687988,308.415985,595.359985
876.447998,314.272003,595.359985
874.495972,304.511993,601.216003
880.351990,304.511993,599.263977
874.495972,308.415985,607.072021
884.255981,314.272003,605.119995
886.208008,308.415985,605.119995
895.968018,314.272003,605.119995
903.776001,310.368011,609.023987
890.112000,318.175995,605.119995
888.159973,324.032013,614.880005
894.015991,322.079987,616.831970
899.872009,322.079987,618.783997
895.968018,308.415985,616.831970
895.968018,314.272003,628.544006
907.679993,318.175995,624.640015
894.015991,312.320007,634.400024
892.064026,314.272003,624.640015
890.112000,314.272003,634.400024
895.968018,310.368011,634.400024
892.064026,318.175995,640.255981
894.015991,312.320007,634.400024
895.968018,316.223999,640.255981
890.112000,318.175995,636.351990
895.968018,312.320007,651.968018
903.776001,312.320007,640.255981
882.304016,322.079987,640.255981
878.400024,318.175995,644.159973
876.447998,325.984009,642.208008
870.591980,320.127991,632.447998
866.687988,324.032013,630.495972
862.783997,312.320007,628.544006
860.831970,310.368011,626.591980
858.880005,312.320007,624.640015
856.927979,312.320007,622.687988
843.263977,306.463989,614.880005
839.359985,314.272003,609.023987
841.312012,306.463989,601.216003
835.455994,302.559998,589.504028
837.408020,310.368011,585.599976
815.935974,296.704010,571.935974
813.984009,294.752014,573.888000
815.935974,300.608002,562.176025
810.080017,310.368011,569.984009
806.176025,306.463989,566.080017
806.176025,294.752014,562.176025
806.176025,296.704010,558.271973
798.367981,302.559998,550.463989
802.271973,302.559998,558.271973
796.416016,308.415985,554.367981
790.559998,300.608002,556.320007
788.607971,298.656006,550.463989
794.463989,300.608002,562.176025
790.559998,306.463989,568.031982
786.656006,304.511993,571.935974
778.848022,310.368011,571.935974
784.703979,302.559998,564.127991
784.703979,296.704010,571.935974
790.559998,288.895996,571.935974
784.703979,292.799988,579.744019
778.848022,288.895996,581.695984
780.799988,294.752014,579.744019
776.895996,288.895996,579.744019
778.848022,292.799988,568.031982
778.848022,286.944000,573.888000
772.992004,292.799988,569.984009
774.943970,288.895996,568.031982
761.280029,286.944000,564.127991
761.280029,277.183990,569.984009
761.280029,281.088013,558.271973
753.471985,284.992004,554.367981
753.471985,281.088013,556.320007
757.375977,288.895996,554.367981
751.520020,283.040009,546.559998
751.520020,284.992004,542.656006
747.616028,279.135986,546.559998
755.424011,277.183990,546.559998
743.711975,281.088013,542.656006
747.616028,279.135986,540.703979
737.856018,267.424011,540.703979
743.711975,269.376007,540.703979
743.711975,279.135986,540.703979
739.807983,261.567993,538.752014
735.903992,277.183990,540.703979
739.807983,283.040009,532.895996
739.807983,279.135986,530.943970
741.760010,277.183990,527.039978
751.520020,269.376007,527.039978
747.616028,273.279999,532.895996
751.520020,271.328003,528.992004
749.567993,267.424011,540.703979
759.328003,261.567993,548.512024
759.328003,259.615997,540.703979
753.471985,269.376007,536.799988
745.664001,277.183990,532.895996
745.664001,271.328003,536.799988
759.328003,267.424011,530.943970
763.231995,257.664001,532.895996
757.375977,267.424011,532.895996
761.280029,267.424011,527.039978
763.231995,269.376007,530.943970
753.471985,263.519989,534.848022
763.231995,261.567993,532.895996
761.280029,267.424011,530.943970
761.280029,269.376007,532.895996
761.280029,265.471985,534.848022
761.280029,267.424011,534.848022
771.039978,257.664001,530.943970
765.184021,263.519989,519.231995
765.184021,267.424011,536.799988
769.088013,261.567993,534.848022
769.088013,263.519989,530.943970
772.992004,259.615997,525.088013
772.992004,245.951996,527.039978
772.992004,251.807999,528.992004
776.895996,245.951996,528.992004
790.559998,249.856003,528.992004
774.943970,245.951996,519.231995
778.848022,244.000000,515.328003
780.799988,249.856003,511.424011
780.799988,249.856003,509.471985
776.895996,244.000000,509.471985
788.607971,255.712006,513.375977
788.607971,242.048004,505.567993
786.656006,249.856003,509.471985
792.512024,244.000000,507.519989
788.607971,245.951996,507.519989
802.271973,244.000000,517.280029
792.512024,251.807999,511.424011
794.463989,245.951996,507.519989
802.271973,249.856003,513.375977
792.512024,255.712006,515.328003
796.416016,251.807999,515.328003
806.176025,249.856003,515.328003
810.080017,259.615997,519.231995
810.080017,271.328003,523.135986
817.888000,265.471985,517.280029
813.984009,267.424011,519.231995
815.935974,269.376007,525.088013
823.744019,269.376007,525.088013
825.695984,275.231995,527.039978
833.504028,269.376007,538.752014
833.504028,271.328003,525.088013
835.455994,275.231995,527.039978
825.695984,273.279999,530.943970
837.408020,265.471985,527.039978
837.408020,281.088013,542.656006
843.263977,275.231995,548.512024
847.168030,271.328003,552.416016
837.408020,275.231995,552.416016
839.359985,271.328003,552.416016
839.359985,271.328003,554.367981
843.263977,267.424011,546.559998
843.263977,265.471985,556.320007
849.119995,267.424011,554.367981
847.168030,269.376007,556.320007
854.976013,261.567993,564.127991
839.359985,257.664001,562.176025
839.359985,261.567993,562.176025
843.263977,271.328003,558.271973
847.168030,271.328003,564.127991
845.216003,271.328003,558.271973
845.216003,271.328003,571.935974
843.263977,269.376007,566.080017
853.023987,271.328003,568.031982
845.216003,261.567993,562.176025
841.312012,265.471985,568.031982
843.263977,275.231995,573.888000
839.359985,269.376007,573.888000
843.263977,261.567993,579.744019
856.927979,265.471985,575.840027
843.263977,259.615997,587.552002
843.263977,257.664001,583.648010
851.072021,251.807999,579.744019
853.023987,249.856003,587.552002
853.023987,249.856003,583.648010
849.119995,245.951996,573.888000
849.119995,245.951996,579.744019
843.263977,245.951996,573.888000
849.119995,247.904007,571.935974
851.072021,251.807999,579.744019
849.119995,249.856003,577.791992
849.119995,251.807999,579.744019
847.168030,249.856003,579.744019
849.119995,247.904007,575.840027
839.359985,249.856003,575.840027
843.263977,249.856003,571.935974
843.263977,245.951996,579.744019
839.359985,255.712006,569.984009
833.504028,253.759995,566.080017
835.455994,251.807999,566.080017
839.359985,251.807999,564.127991
839.359985,247.904007,571.935974
831.552002,247.904007,571.935974
827.648010,244.000000,562.176025
823.744019,245.951996,558.271973
829.599976,238.143997,564.127991
829.599976,251.807999,562.176025
825.695984,247.904007,558.271973
827.648010,247.904007,558.271973
825.695984,247.904007,560.223999
829.599976,251.807999,550.463989
819.840027,251.807999,550.463989
823.744019,245.951996,556.320007
825.695984,249.856003,556.320007
813.984009,247.904007,550.463989
817.888000,251.807999,546.559998
813.984009,245.951996,554.367981
808.127991,245.951996,554.367981
815.935974,247.904007,550.463989
804.223999,249.856003,544.607971
806.176025,255.712006,546.559998
806.176025,247.904007,544.607971
804.223999,251.807999,554.367981
804.223999,251.807999,554.367981
804.223999,255.712006,550.463989
804.223999,242.048004,554.367981
796.416016,253.759995,544.607971
798.367981,242.048004,538.752014
796.416016,251.807999,534.848022
794.463989,247.904007,542.656006
790.559998,245.951996,536.799988
790.559998,238.143997,536.799988
798.367981,238.143997,527.039978
794.463989,242.048004,536.799988
798.367981,249.856003,523.135986
790.559998,238.143997,527.039978
792.512024,238.143997,525.088013
788.607971,255.712006,525.088013
786.656006,244.000000,513.375977
786.656006,240.095993,532.895996
790.559998,240.095993,521.184021
776.895996,247.904007,513.375977
788.607971,245.951996,507.519989
776.895996,244.000000,515.328003
788.607971,247.904007,513.375977
780.799988,242.048004,511.424011
780.799988,255.712006,515.328003
782.752014,255.712006,517.280029
786.656006,238.143997,509.471985
780.799988,249.856003,501.664001
778.848022,244.000000,503.615997
790.559998,245.951996,495.808014
780.799988,251.807999,507.519989
790.559998,249.856003,505.567993
790.559998,253.759995,503.615997
780.799988,259.615997,497.760010
784.703979,245.951996,503.615997
788.607971,255.712006,495.808014
788.607971,255.712006,495.808014
784.703979,259.615997,505.567993
786.656006,259.615997,499.712006
798.367981,263.519989,499.712006
794.463989,267.424011,505.567993
798.367981,265.471985,505.567993
790.559998,267.424011,505.567993
806.176025,259.615997,497.760010
796.416016,265.471985,501.664001
804.223999,273.279999,501.664001
802.271973,277.183990,501.664001
794.463989,269.376007,499.712006
790.559998,275.231995,499.712006
800.320007,267.424011,491.903992
788.607971,273.279999,499.712006
802.271973,279.135986,501.664001
802.271973,269.376007,499.712006
804.223999,279.135986,491.903992
792.512024,283.040009,505.567993
806.176025,277.183990,484.096008
802.271973,269.376007,488.000000
800.320007,286.944000,489.951996
810.080017,279.135986,484.096008
804.223999,286.944000,486.048004
804.223999,286.944000,488.000000
792.512024,292.799988,497.760010
800.320007,284.992004,493.855988
806.176025,286.944000,482.144012
804.223999,286.944000,486.048004
804.223999,290.847992,486.048004
808.127991,288.895996,488.000000
804.223999,288.895996,480.191986
796.416016,298.656006,480.191986
802.271973,294.752014,484.096008
804.223999,300.608002,486.048004
810.080017,298.656006,484.096008
800.320007,298.656006,484.096008
813.984009,298.656006,476.287994
806.176025,298.656006,480.191986
813.984009,294.752014,480.191986
796.416016,296.704010,480.191986
802.271973,300.608002,480.191986
806.176025,300.608002,480.191986
806.176025,298.656006,482.144012
802.271973,296.704010,478.239990
804.223999,300.608002,476.287994
808.127991,292.799988,486.048004
808.127991,294.752014,478.239990
806.176025,306.463989,482.144012
810.080017,302.559998,478.239990
806.176025,300.608002,484.096008
808.127991,306.463989,474.335999
813.984009,310.368011,464.575989
813.984009,304.511993,470.432007
821.791992,310.368011,468.480011
817.888000,300.608002,476.287994
815.935974,300.608002,474.335999
815.935974,296.704010,482.144012
813.984009,296.704010,478.239990
810.080017,300.608002,484.096008
815.935974,298.656006,476.287994
825.695984,294.752014,478.239990
817.888000,298.656006,482.144012
827.648010,290.847992,472.384003
829.599976,290.847992,478.239990
831.552002,298.656006,470.432007
839.359985,302.559998,466.528015
831.552002,296.704010,468.480011
825.695984,306.463989,474.335999
829.599976,296.704010,462.623993
833.504028,300.608002,466.528015
831.552002,298.656006,478.239990
831.552002,288.895996,468.480011
839.359985,298.656006,474.335999
831.552002,296.704010,474.335999
841.312012,296.704010,474.335999
839.359985,292.799988,478.239990
847.168030,294.752014,476.287994
849.119995,292.799988,472.384003
845.216003,302.559998,484.096008
843.263977,306.463989,476.287994
851.072021,304.511993,476.287994
847.168030,286.944000,478.239990
845.216003,298.656006,488.000000
843.263977,292.799988,488.000000
837.408020,296.704010,488.000000
845.216003,286.944000,480.191986
849.119995,283.040009,486.048004
853.023987,281.088013,488.000000
853.023987,277.183990,488.000000
851.072021,275.231995,493.855988
854.976013,273.279999,486.048004
860.831970,269.376007,489.951996
854.976013,271.328003,488.000000
862.783997,257.664001,491.903992
854.976013,267.424011,493.855988
858.880005,271.328003,493.855988
856.927979,249.856003,497.760010
854.976013,265.471985,505.567993
856.927979,269.376007,493.855988
862.783997,269.376007,491.903992
866.687988,271.328003,503.615997
868.640015,257.664001,505.567993
858.880005,279.135986,499.712006
874.495972,275.231995,501.664001
874.495972,269.376007,513.375977
872.544006,273.279999,515.328003
866.687988,283.040009,515.328003
864.736023,286.944000,513.375977
870.591980,281.088013,515.328003
866.687988,273.279999,521.184021
880.351990,281.088013,521.184021
870.591980,271.328003,523.135986
878.400024,279.135986,527.039978
870.591980,277.183990,523.135986
870.591980,277.183990,528.992004
862.783997,284.992004,525.088013
868.640015,269.376007,534.848022
878.400024,283.040009,532.895996
868.640015,279.135986,534.848022
870.591980,277.183990,523.135986
864.736023,273.279999,523.135986
858.880005,275.231995,528.992004
868.640015,275.231995,521.184021
864.736023,277.183990,523.135986
858.880005,277.183990,527.039978
851.072021,283.040009,521.184021
858.880005,286.944000,517.280029
856.927979,284.992004,509.471985
853.023987,296.704010,513.375977
845.216003,290.847992,513.375977
856.927979,284.992004,507.519989
843.263977,288.895996,501.664001
845.216003,292.799988,505.567993
835.455994,292.799988,505.567993
833.504028,302.559998,497.760010
831.552002,300.608002,489.951996
821.791992,300.608002,493.855988
821.791992,296.704010,484.096008
819.840027,302.559998,480.191986
823.744019,290.847992,478.239990
823.744019,286.944000,468.480011
817.888000,298.656006,472.384003
823.744019,284.992004,472.384003
815.935974,290.847992,472.384003
815.935974,277.183990,466.528015
810.080017,284.992004,468.480011
804.223999,277.183990,460.671997
800.320007,292.799988,466.528015
806.176025,294.752014,462.623993
810.080017,284.992004,456.768005
808.127991,283.040009,460.671997
810.080017,284.992004,462.623993
810.080017,284.992004,462.623993
817.888000,286.944000,472.384003
810.080017,292.799988,474.335999
813.984009,290.847992,474.335999
806.176025,294.752014,478.239990
798.367981,306.463989,480.191986
804.223999,292.799988,476.287994
796.416016,288.895996,486.048004
798.367981,298.656006,489.951996
802.271973,296.704010,484.096008
808.127991,292.799988,486.048004
808.127991,288.895996,480.191986
808.127991,286.944000,480.191986
812.031982,283.040009,474.335999
810.080017,286.944000,484.096008
808.127991,286.944000,480.191986
804.223999,273.279999,476.287994
804.223999,277.183990,470.432007
804.223999,283.040009,460.671997
806.176025,283.040009,468.480011
806.176025,292.799988,468.480011
806.176025,294.752014,462.623993
808.127991,294.752014,462.623993
806.176025,284.992004,468.480011
808.127991,292.799988,456.768005
815.935974,294.752014,456.768005
808.127991,290.847992,456.768005
815.935974,284.992004,472.384003
815.935974,294.752014,464.575989
821.791992,296.704010,472.384003
813.984009,290.847992,476.287994
815.935974,296.704010,478.239990
810.080017,298.656006,482.144012
821.791992,296.704010,484.096008
823.744019,302.559998,484.096008
821.791992,284.992004,482.144012
829.599976,296.704010,480.191986
833.504028,294.752014,476.287994
829.599976,298.656006,478.239990
821.791992,296.704010,476.287994
829.599976,296.704010,472.384003
823.744019,288.895996,472.384003
831.552002,294.752014,466.528015
835.455994,302.559998,458.720001
825.695984,296.704010,472.384003
831.552002,290.847992,468.480011
837.408020,294.752014,470.432007
837.408020,288.895996,466.528015
835.455994,284.992004,458.720001
831.552002,294.752014,464.575989
835.455994,296.704010,460.671997
833.504028,298.656006,454.816010
835.455994,292.799988,454.816010
835.455994,298.656006,445.056000
845.216003,306.463989,454.816010
843.263977,302.559998,450.911987
839.359985,308.415985,460.671997
845.216003,312.320007,462.623993
843.263977,308.415985,460.671997
853.023987,306.463989,462.623993
851.072021,308.415985,454.816010
851.072021,302.559998,450.911987
853.023987,304.511993,456.768005
849.119995,306.463989,448.959991
854.976013,300.608002,460.671997
851.072021,300.608002,462.623993
853.023987,306.463989,462.623993
858.880005,310.368011,456.768005
864.736023,304.511993,460.671997
866.687988,296.704010,458.720001
870.591980,296.704010,462.623993
868.640015,308.415985,452.864014
858.880005,304.511993,445.056000
858.880005,308.415985,458.720001
864.736023,316.223999,452.864014
862.783997,312.320007,447.007996
866.687988,312.320007,454.816010
858.880005,310.368011,456.768005
872.544006,312.320007,448.959991
872.544006,310.368011,458.720001
874.495972,308.415985,452.864014
870.591980,318.175995,456.768005
870.591980,316.223999,460.671997
866.687988,314.272003,460.671997
874.495972,310.368011,448.959991
874.495972,310.368011,452.864014
866.687988,304.511993,460.671997
884.255981,306.463989,454.816010
884.255981,304.511993,450.911987
874.495972,302.559998,445.056000
874.495972,306.463989,447.007996
876.447998,306.463989,456.768005
868.640015,310.368011,450.911987
868.640015,304.511993,452.864014
880.351990,300.608002,447.007996
878.400024,298.656006,456.768005
880.351990,298.656006,460.671997
874.495972,294.752014,460.671997
878.400024,290.847992,456.768005
878.400024,290.847992,458.720001
886.208008,298.656006,464.575989
870.591980,292.799988,456.768005
880.351990,292.799988,466.528015
882.304016,298.656006,460.671997
882.304016,300.608002,468.480011
882.304016,298.656006,470.432007
878.400024,304.511993,470.432007
882.304016,292.799988,464.575989
884.255981,306.463989,464.575989
884.255981,298.656006,468.480011
886.208008,308.415985,474.335999
886.208008,298.656006,464.575989
884.255981,300.608002,466.528015
882.304016,298.656006,470.432007
886.208008,300.608002,470.432007
880.351990,296.704010,468.480011
884.255981,302.559998,478.239990
882.304016,298.656006,472.384003
882.304016,300.608002,464.575989
884.255981,296.704010,472.384003
890.112000,300.608002,466.528015
880.351990,300.608002,460.671997
874.495972,308.415985,468.480011
878.400024,308.415985,468.480011
888.159973,318.175995,474.335999
878.400024,306.463989,468.480011
886.208008,308.415985,456.768005
880.351990,308.415985,456.768005
878.400024,308.415985,462.623993
882.304016,314.272003,474.335999
880.351990,318.175995,470.432007
878.400024,312.320007,458.720001
884.255981,322.079987,458.720001
886.208008,314.272003,450.911987
878.400024,300.608002,450.911987
890.112000,316.223999,452.864014
890.112000,314.272003,448.959991
888.159973,322.079987,447.007996
884.255981,324.032013,452.864014
878.400024,324.032013,441.152008
884.255981,322.079987,445.056000
884.255981,327.936005,447.007996
882.304016,325.984009,441.152008
886.208008,322.079987,447.007996
886.208008,329.888000,441.152008
888.159973,322.079987,447.007996
876.447998,322.079987,448.959991
878.400024,324.032013,448.959991
884.255981,320.127991,445.056000
882.304016,310.368011,445.056000
890.112000,325.984009,452.864014
890.112000,327.936005,454.816010
892.064026,329.888000,441.152008
888.159973,318.175995,443.104004
884.255981,327.936005,450.911987
882.304016,335.743988,456.768005
888.159973,333.791992,445.056000
882.304016,335.743988,447.007996
890.112000,333.791992,447.007996
882.304016,335.743988,445.056000
884.255981,327.936005,450.911987
880.351990,329.888000,447.007996
880.351990,327.936005,443.104004
888.159973,331.839996,454.816010
886.208008,327.936005,454.816010
882.304016,316.223999,454.816010
882.304016,333.791992,450.911987
882.304016,331.839996,450.911987
888.159973,324.032013,450.911987
888.159973,325.984009,458.720001
880.351990,331.839996,458.720001
882.304016,327.936005,456.768005
880.351990,324.032013,458.720001
884.255981,329.888000,462.623993
882.304016,335.743988,454.816010
880.351990,341.600006,448.959991
886.208008,345.503998,450.911987
880.351990,335.743988,450.911987
874.495972,337.696014,458.720001
884.255981,337.696014,462.623993
876.447998,327.936005,450.911987
876.447998,337.696014,462.623993
870.591980,329.888000,445.056000
868.640015,335.743988,452.864014
874.495972,333.791992,448.959991
874.495972,333.791992,445.056000
864.736023,333.791992,452.864014
866.687988,329.888000,445.056000
854.976013,335.743988,445.056000
868.640015,324.032013,445.056000
860.831970,320.127991,441.152008
866.687988,325.984009,445.056000
866.687988,329.888000,445.056000
864.736023,331.839996,443.104004
858.880005,337.696014,437.247986
856.927979,339.648010,443.104004
851.072021,335.743988,450.911987
854.976013,331.839996,441.152008
853.023987,335.743988,445.056000
854.976013,349.407990,441.152008
847.168030,345.503998,447.007996
860.831970,339.648010,445.056000
856.927979,337.696014,437.247986
854.976013,337.696014,445.056000
860.831970,341.600006,450.911987
849.119995,337.696014,447.007996
853.023987,335.743988,447.007996
847.168030,347.455994,441.152008
854.976013,345.503998,445.056000
849.119995,335.743988,447.007996
843.263977,347.455994,443.104004
849.119995,341.600006,447.007996
851.072021,341.600006,445.056000
849.119995,341.600006,448.959991
851.072021,339.648010,445.056000
843.263977,341.600006,445.056000
843.263977,339.648010,452.864014
841.312012,337.696014,447.007996
851.072021,341.600006,445.056000
851.072021,331.839996,441.152008
843.263977,337.696014,452.864014
854.976013,335.743988,445.056000
847.168030,341.600006,441.152008
847.168030,345.503998,445.056000
849.119995,339.648010,450.911987
856.927979,345.503998,448.959991
849.119995,335.743988,445.056000
845.216003,335.743988,441.152008
854.976013,333.791992,454.816010
853.023987,327.936005,450.911987
851.072021,333.791992,448.959991
853.023987,324.032013,452.864014
847.168030,329.888000,456.768005
847.168030,329.888000,448.959991
847.168030,327.936005,448.959991
853.023987,325.984009,447.007996
847.168030,316.223999,450.911987
856.927979,308.415985,445.056000
851.072021,314.272003,450.911987
854.976013,314.272003,454.816010
847.168030,308.415985,452.864014
858.880005,308.415985,445.056000
860.831970,306.463989,445.056000
854.976013,310.368011,450.911987
851.072021,314.272003,450.911987
854.976013,310.368011,456.768005
854.976013,304.511993,454.816010
856.927979,314.272003,456.768005
851.072021,298.656006,452.864014
854.976013,306.463989,454.816010
854.976013,296.704010,450.911987
860.831970,302.559998,454.816010
866.687988,298.656006,452.864014
860.831970,306.463989,454.816010
853.023987,288.895996,448.959991
856.927979,290.847992,447.007996
868.640015,288.895996,450.911987
866.687988,294.752014,448.959991
868.640015,306.463989,458.720001
870.591980,286.944000,454.816010
870.591980,284.992004,450.911987
866.687988,294.752014,452.864014
862.783997,284.992004,456.768005
862.783997,271.328003,456.768005
870.591980,279.135986,445.056000
872.544006,281.088013,450.911987
870.591980,273.279999,458.720001
872.544006,279.135986,458.720001
872.544006,281.088013,452.864014
868.640015,281.088013,458.720001
872.544006,283.040009,454.816010
872.544006,281.088013,458.720001
878.400024,273.279999,470.432007
870.591980,271.328003,458.720001
874.495972,267.424011,448.959991
888.159973,273.279999,462.623993
884.255981,267.424011,456.768005
876.447998,269.376007,452.864014
876.447998,271.328003,464.575989
866.687988,265.471985,460.671997
874.495972,263.519989,460.671997
882.304016,261.567993,460.671997
880.351990,257.664001,466.528015
880.351990,259.615997,460.671997
870.591980,251.807999,460.671997
878.400024,245.951996,464.575989
878.400024,245.951996,458.720001
882.304016,253.759995,456.768005
878.400024,249.856003,456.768005
870.591980,271.328003,458.720001
870.591980,269.376007,460.671997
872.544006,263.519989,464.575989
874.495972,255.712006,460.671997
872.544006,255.712006,450.911987
872.544006,257.664001,456.768005
876.447998,255.712006,454.816010
874.495972,253.759995,462.623993
876.447998,249.856003,462.623993
872.544006,253.759995,462.623993
870.591980,265.471985,466.528015
874.495972,255.712006,460.671997
872.544006,245.951996,458.720001
866.687988,257.664001,466.528015
868.640015,255.712006,460.671997
874.495972,249.856003,458.720001
874.495972,253.759995,462.623993
866.687988,245.951996,460.671997
876.447998,251.807999,466.528015
876.447998,244.000000,462.623993
866.687988,245.951996,458.720001
862.783997,240.095993,456.768005
870.591980,245.951996,460.671997
864.736023,240.095993,462.623993
868.640015,232.287994,462.623993
868.640015,232.287994,466.528015
870.591980,234.240005,466.528015
862.783997,236.192001,466.528015
870.591980,240.095993,456.768005
860.831970,238.143997,458.720001
862.783997,234.240005,464.575989
866.687988,242.048004,464.575989
862.783997,240.095993,470.432007
862.783997,226.432007,462.623993
862.783997,226.432007,460.671997
866.687988,236.192001,454.816010
854.976013,228.384003,458.720001
868.640015,222.528000,462.623993
860.831970,222.528000,460.671997
864.736023,226.432007,456.768005
864.736023,232.287994,456.768005
864.736023,230.335999,458.720001
854.976013,230.335999,466.528015
860.831970,230.335999,460.671997
854.976013,228.384003,460.671997
856.927979,218.623993,460.671997
851.072021,220.576004,456.768005
851.072021,230.335999,460.671997
851.072021,236.192001,452.864014
853.023987,226.432007,458.720001
851.072021,224.479996,460.671997
854.976013,226.432007,460.671997
853.023987,224.479996,466.528015
845.216003,230.335999,454.816010
849.119995,220.576004,468.480011
853.023987,230.335999,450.911987
851.072021,240.095993,456.768005
849.119995,230.335999,460.671997
849.119995,232.287994,454.816010
854.976013,230.335999,460.671997
851.072021,224.479996,458.720001
845.216003,224.479996,462.623993
853.023987,234.240005,452.864014
843.263977,226.432007,466.528015
847.168030,226.432007,456.768005
841.312012,234.240005,460.671997
849.119995,222.528000,456.768005
841.312012,216.671997,458.720001
843.263977,224.479996,458.720001
853.023987,222.528000,458.720001
851.072021,218.623993,458.720001
849.119995,218.623993,458.720001
849.119995,226.432007,460.671997
847.168030,224.479996,452.864014
849.119995,228.384003,456.768005
845.216003,230.335999,454.816010
849.119995,234.240005,456.768005
849.119995,234.240005,454.816010
843.263977,236.192001,460.671997
847.168030,230.335999,458.720001
849.119995,226.432007,452.864014
849.119995,236.192001,458.720001
849.119995,226.432007,458.720001
849.119995,236.192001,462.623993
851.072021,236.192001,460.671997
849.119995,242.048004,456.768005
856.927979,230.335999,464.575989
847.168030,230.335999,452.864014
839.359985,236.192001,456.768005
851.072021,238.143997,456.768005
847.168030,236.192001,454.816010
856.927979,234.240005,450.911987
851.072021,240.095993,445.056000
845.216003,240.095993,458.720001
841.312012,244.000000,450.911987
845.216003,232.287994,458.720001
851.072021,240.095993,454.816010
853.023987,234.240005,447.007996
831.552002,244.000000,441.152008
837.408020,244.000000,448.959991
849.119995,242.048004,454.816010
837.408020,245.951996,450.911987
847.168030,240.095993,441.152008
839.359985,240.095993,441.152008
845.216003,242.048004,439.200012
851.072021,247.904007,445.056000
847.168030,245.951996,443.104004
847.168030,259.615997,445.056000
841.312012,247.904007,441.152008
841.312012,251.807999,437.247986
849.119995,242.048004,443.104004
845.216003,247.904007,447.007996
843.263977,255.712006,441.152008
847.168030,253.759995,445.056000
843.263977,245.951996,450.911987
843.263977,255.712006,447.007996
843.263977,247.904007,441.152008
839.359985,251.807999,447.007996
851.072021,251.807999,445.056000
849.119995,251.807999,443.104004
851.072021,261.567993,460.671997
853.023987,257.664001,450.911987
856.927979,253.759995,447.007996
851.072021,245.951996,445.056000
851.072021,251.807999,445.056000
851.072021,263.519989,450.911987
851.072021,255.712006,441.152008
851.072021,263.519989,441.152008
847.168030,255.712006,443.104004
856.927979,253.759995,447.007996
853.023987,259.615997,450.911987
856.927979,251.807999,450.911987
847.168030,259.615997,441.152008
853.023987,253.759995,450.911987
849.119995,255.712006,441.152008
856.927979,253.759995,447.007996
856.927979,267.424011,443.104004
851.072021,263.519989,441.152008
849.119995,263.519989,431.391998
851.072021,255.712006,435.295990
854.976013,263.519989,441.152008
849.119995,259.615997,435.295990
847.168030,269.376007,433.343994
851.072021,269.376007,433.343994
854.976013,255.712006,439.200012
854.976013,261.567993,429.440002
854.976013,263.519989,429.440002
856.927979,265.471985,427.488007
856.927979,273.279999,443.104004
853.023987,269.376007,435.295990
853.023987,267.424011,435.295990
856.927979,259.615997,427.488007
853.023987,263.519989,427.488007
853.023987,267.424011,435.295990
858.880005,271.328003,427.488007
853.023987,263.519989,429.440002
854.976013,267.424011,429.440002
856.927979,275.231995,435.295990
860.831970,271.328003,417.727997
856.927979,267.424011,431.391998
860.831970,275.231995,437.247986
866.687988,271.328003,429.440002
864.736023,277.183990,429.440002
858.880005,271.328003,427.488007
856.927979,269.376007,431.391998
866.687988,279.135986,433.343994
866.687988,279.135986,429.440002
866.687988,277.183990,429.440002
856.927979,271.328003,429.440002
858.880005,286.944000,431.391998
856.927979,273.279999,435.295990
870.591980,271.328003,441.152008
866.687988,284.992004,433.343994
870.591980,273.279999,433.343994
872.544006,283.040009,441.152008
872.544006,277.183990,441.152008
872.544006,281.088013,447.007996
870.591980,283.040009,441.152008
870.591980,283.040009,439.200012
870.591980,277.183990,441.152008
876.447998,286.944000,443.104004
876.447998,288.895996,445.056000
880.351990,277.183990,447.007996
868.640015,290.847992,443.104004
870.591980,283.040009,439.200012
876.447998,298.656006,445.056000
882.304016,284.992004,445.056000
876.447998,296.704010,433.343994
878.400024,284.992004,441.152008
884.255981,290.847992,439.200012
882.304016,286.944000,435.295990
880.351990,290.847992,445.056000
874.495972,292.799988,443.104004
884.255981,281.088013,437.247986
884.255981,281.088013,443.104004
888.159973,292.799988,447.007996
880.351990,286.944000,441.152008
886.208008,284.992004,450.911987
886.208008,277.183990,445.056000
882.304016,283.040009,445.056000
884.255981,283.040009,458.720001
890.112000,281.088013,454.816010
886.208008,273.279999,445.056000
884.255981,284.992004,441.152008
894.015991,277.183990,448.959991
886.208008,277.183990,445.056000
882.304016,281.088013,452.864014
895.968018,286.944000,454.816010
894.015991,275.231995,445.056000
890.112000,273.279999,448.959991
886.208008,279.135986,443.104004
892.064026,275.231995,454.816010
894.015991,283.040009,454.816010
892.064026,279.135986,452.864014
899.872009,281.088013,458.720001
899.872009,275.231995,452.864014
892.064026,283.040009,450.911987
899.872009,273.279999,452.864014
899.872009,281.088013,447.007996
897.919983,281.088013,456.768005
886.208008,283.040009,448.959991
894.015991,273.279999,445.056000
894.015991,279.135986,448.959991
895.968018,273.279999,454.816010
894.015991,273.279999,441.152008
892.064026,273.279999,443.104004
897.919983,273.279999,441.152008
903.776001,281.088013,450.911987
890.112000,279.135986,443.104004
899.872009,284.992004,435.295990
895.968018,275.231995,431.391998
892.064026,265.471985,429.440002
895.968018,271.328003,433.343994
892.064026,257.664001,435.295990
886.208008,257.664001,429.440002
884.255981,273.279999,421.631989
886.208008,265.471985,429.440002
892.064026,265.471985,419.679993
890.112000,255.712006,417.727997
892.064026,259.615997,417.727997
882.304016,257.664001,415.776001
878.400024,253.759995,421.631989
888.159973,265.471985,417.727997
882.304016,265.471985,413.824005
884.255981,259.615997,419.679993
886.208008,253.759995,417.727997
888.159973,265.471985,421.631989
884.255981,257.664001,429.440002
884.255981,259.615997,421.631989
882.304016,265.471985,413.824005
882.304016,253.759995,413.824005
884.255981,261.567993,419.679993
878.400024,259.615997,417.727997
884.255981,263.519989,421.631989
894.015991,247.904007,419.679993
890.112000,255.712006,431.391998
882.304016,257.664001,429.440002
888.159973,273.279999,431.391998
892.064026,257.664001,427.488007
886.208008,253.759995,419.679993
884.255981,253.759995,417.727997
886.208008,247.904007,413.824005
884.255981,259.615997,417.727997
886.208008,253.759995,417.727997
884.255981,253.759995,417.727997
878.400024,255.712006,413.824005
892.064026,253.759995,404.063995
884.255981,242.048004,406.015991
888.159973,253.759995,413.824005
888.159973,253.759995,417.727997
882.304016,244.000000,413.824005
890.112000,238.143997,419.679993
886.208008,251.807999,423.584015
888.159973,255.712006,435.295990
890.112000,255.712006,445.056000
888.159973,253.759995,452.864014
897.919983,263.519989,450.911987
888.159973,275.231995,462.623993
890.112000,271.328003,462.623993
892.064026,261.567993,470.432007
903.776001,277.183990,472.384003
901.823975,281.088013,489.951996
909.632019,273.279999,491.903992
903.776001,269.376007,484.096008
903.776001,265.471985,493.855988
907.679993,267.424011,486.048004
903.776001,265.471985,489.951996
901.823975,269.376007,486.048004
901.823975,261.567993,486.048004
897.919983,255.712006,476.287994
903.776001,245.951996,478.239990
903.776001,240.095993,468.480011
899.872009,244.000000,472.384003
897.919983,238.143997,462.623993
890.112000,249.856003,466.528015
897.919983,242.048004,460.671997
899.872009,251.807999,456.768005
894.015991,253.759995,448.959991
903.776001,263.519989,450.911987
899.872009,261.567993,456.768005
899.872009,279.135986,460.671997
901.823975,281.088013,458.720001
897.919983,292.799988,452.864014
895.968018,302.559998,458.720001
895.968018,314.272003,458.720001
892.064026,310.368011,456.768005
895.968018,306.463989,466.528015
897.919983,314.272003,458.720001
897.919983,314.272003,460.671997
899.872009,312.320007,458.720001
899.872009,327.936005,466.528015
907.679993,320.127991,454.816010
895.968018,316.223999,454.816010
894.015991,312.320007,447.007996
899.872009,304.511993,450.911987
899.872009,308.415985,447.007996
882.304016,298.656006,437.247986
884.255981,304.511993,445.056000
892.064026,294.752014,445.056000
886.208008,292.799988,433.343994
894.015991,284.992004,423.584015
892.064026,283.040009,425.536011
880.351990,284.992004,431.391998
882.304016,279.135986,423.584015
894.015991,290.847992,417.727997
888.159973,290.847992,421.631989
878.400024,294.752014,425.536011
888.159973,292.799988,427.488007
892.064026,302.559998,425.536011
884.255981,300.608002,437.247986
886.208008,300.608002,431.391998
895.968018,304.511993,429.440002
890.112000,316.223999,429.440002
892.064026,325.984009,433.343994
886.208008,320.127991,435.295990
888.159973,318.175995,437.247986
894.015991,316.223999,443.104004
888.159973,325.984009,447.007996
895.968018,318.175995,448.959991
894.015991,316.223999,450.911987
890.112000,320.127991,443.104004
892.064026,312.320007,441.152008
892.064026,310.368011,437.247986
884.255981,310.368011,431.391998
884.255981,312.320007,437.247986
884.255981,312.320007,433.343994
878.400024,318.175995,437.247986
878.400024,300.608002,439.200012
882.304016,294.752014,433.343994
880.351990,296.704010,431.391998
868.640015,302.559998,433.343994
858.880005,296.704010,427.488007
870.591980,290.847992,431.391998
868.640015,292.799988,431.391998
866.687988,292.799988,431.391998
868.640015,302.559998,431.391998
862.783997,296.704010,435.295990
864.736023,300.608002,443.104004
860.831970,292.799988,433.343994
862.783997,296.704010,431.391998
858.880005,300.608002,425.536011
860.831970,298.656006,429.440002
853.023987,304.511993,429.440002
862.783997,298.656006,433.343994
858.880005,302.559998,427.488007
851.072021,304.511993,423.584015
860.831970,300.608002,433.343994
853.023987,296.704010,427.488007
851.072021,298.656006,421.631989
847.168030,300.608002,431.391998
841.312012,296.704010,423.584015
843.263977,304.511993,421.631989
853.023987,302.559998,413.824005
853.023987,296.704010,421.631989
839.359985,292.799988,423.584015
847.168030,298.656006,411.872009
849.119995,294.752014,404.063995
843.263977,292.799988,407.967987
837.408020,284.992004,406.015991
843.263977,292.799988,400.160004
837.408020,290.847992,404.063995
839.359985,284.992004,402.112000
835.455994,292.799988,394.303986
841.312012,286.944000,390.399994
833.504028,298.656006,394.303986
831.552002,290.847992,392.351990
831.552002,302.559998,400.160004
833.504028,300.608002,402.112000
837.408020,294.752014,400.160004
837.408020,296.704010,402.112000
845.216003,281.088013,396.256012
835.455994,288.895996,394.303986
835.455994,292.799988,388.447998
835.455994,302.559998,396.256012
833.504028,288.895996,392.351990
833.504028,288.895996,392.351990
833.504028,294.752014,390.399994
831.552002,286.944000,398.208008
835.455994,288.895996,394.303986
835.455994,286.944000,392.351990
839.359985,286.944000,394.303986
841.312012,284.992004,394.303986
835.455994,283.040009,390.399994
825.695984,284.992004,390.399994
825.695984,279.135986,392.351990
835.455994,279.135986,396.256012
827.648010,286.944000,384.544006
835.455994,286.944000,382.592010
825.695984,277.183990,388.447998
829.599976,277.183990,386.496002
829.599976,279.135986,378.687988
829.599976,275.231995,384.544006
821.791992,273.279999,374.783997
833.504028,275.231995,366.976013
837.408020,273.279999,376.735992
825.695984,273.279999,366.976013
833.504028,283.040009,366.976013
825.695984,281.088013,368.928009
825.695984,281.088013,365.023987
823.744019,283.040009,363.071991
829.599976,281.088013,361.119995
821.791992,284.992004,365.023987
829.599976,279.135986,366.976013
829.599976,281.088013,365.023987
827.648010,284.992004,359.167999
827.648010,286.944000,355.264008
831.552002,281.088013,353.312012
827.648010,288.895996,349.407990
821.791992,288.895996,347.455994
823.744019,294.752014,353.312012
821.791992,290.847992,357.216003
831.552002,288.895996,349.407990
823.744019,283.040009,351.359985
821.791992,294.752014,347.455994
825.695984,279.135986,343.552002
829.599976,279.135986,353.312012
821.791992,286.944000,347.455994
821.791992,277.183990,339.648010
817.888000,284.992004,349.407990
825.695984,281.088013,347.455994
825.695984,288.895996,339.648010
819.840027,292.799988,335.743988
815.935974,281.088013,349.407990
813.984009,283.040009,339.648010
815.935974,286.944000,341.600006
810.080017,290.847992,339.648010
815.935974,290.847992,351.359985
813.984009,294.752014,343.552002
821.791992,286.944000,341.600006
823.744019,288.895996,335.743988
823.744019,277.183990,331.839996
823.744019,279.135986,324.032013
823.744019,283.040009,318.175995
819.840027,283.040009,324.032013
813.984009,284.992004,322.079987
808.127991,286.944000,322.079987
810.080017,290.847992,318.175995
810.080017,292.799988,308.415985
813.984009,294.752014,318.175995
808.127991,294.752014,331.839996
812.031982,302.559998,335.743988
819.840027,292.799988,341.600006
823.744019,294.752014,347.455994
825.695984,296.704010,353.312012
837.408020,312.320007,366.976013
825.695984,302.559998,365.023987
827.648010,312.320007,372.832001
815.935974,304.511993,372.832001
813.984009,296.704010,376.735992
812.031982,290.847992,380.640015
817.888000,298.656006,384.544006
813.984009,284.992004,390.399994
810.080017,251.807999,404.063995
815.935974,244.000000,398.208008
815.935974,234.240005,404.063995
817.888000,220.576004,411.872009
831.552002,187.391998,404.063995
831.552002,206.912003,415.776001
839.359985,212.768005,415.776001
839.359985,216.671997,409.920013
835.455994,226.432007,425.536011
831.552002,251.807999,417.727997
833.504028,263.519989,413.824005
819.840027,279.135986,413.824005
835.455994,300.608002,411.872009
831.552002,329.888000,402.112000
835.455994,339.648010,396.256012
827.648010,357.216003,384.544006
837.408020,370.880005,388.447998
843.263977,368.928009,386.496002
837.408020,372.832001,384.544006
837.408020,376.735992,376.735992
837.408020,357.216003,368.928009
841.312012,357.216003,368.928009
833.504028,339.648010,366.976013
827.648010,325.984009,366.976013
823.744019,318.175995,376.735992
831.552002,298.656006,376.735992
825.695984,284.992004,376.735992
819.840027,261.567993,376.735992
813.984009,279.135986,376.735992
812.031982,257.664001,372.832001
810.080017,259.615997,380.640015
815.935974,261.567993,378.687988
815.935974,275.231995,374.783997
821.791992,275.231995,368.928009
825.695984,288.895996,366.976013
817.888000,290.847992,368.928009
821.791992,300.608002,366.976013
817.888000,312.320007,368.928009
819.840027,329.888000,366.976013
815.935974,331.839996,368.928009
812.031982,331.839996,365.023987
815.935974,335.743988,366.976013
812.031982,341.600006,363.071991
813.984009,349.407990,351.359985
806.176025,331.839996,353.312012
810.080017,329.888000,357.216003
794.463989,312.320007,343.552002
788.607971,318.175995,337.696014
794.463989,296.704010,349.407990
794.463989,281.088013,345.503998
796.416016,275.231995,339.648010
800.320007,259.615997,339.648010
804.223999,251.807999,335.743988
806.176025,244.000000,345.503998
798.367981,238.143997,347.455994
790.559998,240.095993,339.648010
794.463989,242.048004,343.552002
790.559998,238.143997,341.600006
794.463989,249.856003,339.648010
782.752014,253.759995,341.600006
796.416016,269.376007,337.696014
794.463989,259.615997,325.984009
786.656006,273.279999,329.888000
788.607971,286.944000,331.839996
788.607971,284.992004,320.127991
780.799988,288.895996,316.223999
776.895996,284.992004,320.127991
772.992004,286.944000,325.984009
767.135986,284.992004,312.320007
778.848022,277.183990,316.223999
772.992004,263.519989,316.223999
774.943970,249.856003,298.656006
774.943970,249.856003,302.559998
763.231995,234.240005,296.704010
763.231995,214.720001,298.656006
757.375977,210.815994,286.944000
759.328003,210.815994,269.376007
767.135986,210.815994,263.519989
751.520020,203.007996,257.664001
747.616028,206.912003,253.759995
743.711975,203.007996,247.904007
743.711975,216.671997,234.240005
747.616028,210.815994,236.192001
730.047974,224.479996,234.240005
739.807983,234.240005,236.192001
732.000000,251.807999,226.432007
739.807983,261.567993,230.335999
739.807983,261.567993,224.479996
739.807983,263.519989,230.335999
741.760010,284.992004,234.240005
743.711975,281.088013,234.240005
747.616028,277.183990,228.384003
743.711975,275.231995,230.335999
745.664001,288.895996,232.287994
745.664001,290.847992,234.240005
747.616028,281.088013,236.192001
751.520020,279.135986,220.576004
741.760010,271.328003,220.576004
741.760010,267.424011,224.479996
743.711975,259.615997,218.623993
743.711975,259.615997,218.623993
745.664001,245.951996,218.623993
753.471985,255.712006,232.287994
747.616028,242.048004,234.240005
751.520020,244.000000,242.048004
747.616028,240.095993,240.095993
749.567993,245.951996,247.904007
751.520020,247.904007,242.048004
751.520020,247.904007,247.904007
759.328003,245.951996,251.807999
753.471985,255.712006,249.856003
774.943970,259.615997,244.000000
778.848022,261.567993,245.951996
784.703979,271.328003,253.759995
790.559998,284.992004,253.759995
788.607971,286.944000,253.759995
786.656006,267.424011,267.424011
815.935974,281.088013,275.231995
794.463989,310.368011,267.424011
800.320007,296.704010,279.135986
794.463989,267.424011,284.992004
808.127991,284.992004,304.511993
815.935974,284.992004,302.559998
815.935974,257.664001,298.656006
833.504028,242.048004,304.511993
831.552002,257.664001,304.511993
843.263977,238.143997,312.320007
815.935974,240.095993,314.272003
841.312012,238.143997,322.079987
837.408020,238.143997,324.032013
827.648010,245.951996,335.743988
823.744019,230.335999,341.600006
837.408020,224.479996,345.503998
831.552002,238.143997,345.503998
849.119995,247.904007,347.455994
843.263977,232.287994,343.552002
853.023987,222.528000,353.312012
862.783997,247.904007,349.407990
868.640015,251.807999,343.552002
870.591980,244.000000,341.600006
870.591980,240.095993,331.839996
880.351990,253.759995,341.600006
884.255981,255.712006,343.552002
888.159973,245.951996,363.071991
878.400024,244.000000,370.880005
884.255981,255.712006,380.640015
884.255981,247.904007,370.880005
888.159973,228.384003,384.544006
884.255981,247.904007,390.399994
895.968018,226.432007,390.399994
894.015991,206.912003,386.496002
892.064026,232.287994,404.063995
899.872009,212.768005,402.112000
929.151978,175.679993,413.824005
903.776001,193.248001,419.679993
897.919983,199.104004,413.824005
882.304016,201.056000,409.920013
895.968018,189.343994,415.776001
899.872009,177.632004,402.112000
886.208008,179.584000,409.920013
901.823975,197.151993,425.536011
897.919983,169.824005,429.440002
845.216003,173.727997,431.391998
870.591980,173.727997,423.584015
894.015991,111.264000,413.824005
919.392029,177.632004,417.727997
923.296021,179.584000,413.824005
915.487976,121.024002,415.776001
936.960022,163.968002,409.920013
929.151978,220.576004,398.208008
935.007996,195.199997,404.063995
931.104004,232.287994,384.544006
933.056030,261.567993,388.447998
909.632019,242.048004,378.687988
915.487976,288.895996,380.640015
919.392029,298.656006,372.832001
931.104004,247.904007,374.783997
946.719971,251.807999,368.928009
942.815979,275.231995,359.167999
933.056030,234.240005,351.359985
938.911987,208.863998,347.455994
929.151978,218.623993,343.552002
931.104004,210.815994,353.312012
931.104004,193.248001,357.216003
925.247986,199.104004,365.023987
917.440002,185.440002,359.167999
913.536011,152.255997,361.119995
905.728027,181.535995,357.216003
899.872009,165.919998,353.312012
890.112000,138.591995,335.743988
909.632019,126.879997,341.600006
901.823975,132.735992,329.888000
899.872009,150.304001,327.936005
897.919983,128.832001,335.743988
886.208008,128.832001,329.888000
890.112000,146.399994,327.936005
899.872009,156.160004,322.079987
884.255981,148.352005,312.320007
888.159973,154.207993,308.415985
886.208008,167.871994,306.463989
882.304016,175.679993,304.511993
886.208008,177.632004,298.656006
853.023987,193.248001,308.415985
829.599976,242.048004,448.959991
843.263977,74.176003,527.039978
821.791992,33.183998,409.920013
874.495972,244.000000,253.759995
905.728027,146.399994,191.296005
911.583984,3.904000,236.192001
858.880005,126.879997,341.600006
845.216003,83.935997,365.023987
862.783997,52.703999,302.559998
892.064026,183.488007,238.143997
886.208008,122.975998,226.432007
888.159973,74.176003,265.471985
878.400024,179.584000,298.656006
882.304016,167.871994,283.040009
874.495972,160.063995,253.759995
892.064026,244.000000,259.615997
890.112000,218.623993,273.279999
894.015991,195.199997,277.183990
903.776001,234.240005,269.376007
905.728027,230.335999,273.279999
899.872009,234.240005,277.183990
894.015991,220.576004,283.040009
905.728027,175.679993,284.992004
903.776001,210.815994,281.088013
901.823975,201.056000,277.183990
903.776001,140.544006,263.519989
899.872009,144.447998,275.231995
903.776001,140.544006,273.279999
907.679993,124.928001,275.231995
913.536011,138.591995,279.135986
890.112000,122.975998,286.944000
905.728027,113.216003,290.847992
897.919983,130.783997,286.944000
913.536011,146.399994,292.799988
913.536011,142.496002,296.704010
913.536011,162.016006,306.463989
917.440002,167.871994,308.415985
919.392029,146.399994,292.799988
921.343994,181.535995,298.656006
925.247986,212.768005,302.559998
931.104004,191.296005,318.175995
923.296021,183.488007,329.888000
933.056030,187.391998,333.791992
946.719971,179.584000,329.888000
942.815979,171.776001,345.503998
940.864014,158.112000,366.976013
958.432007,146.399994,386.496002
958.432007,156.160004,402.112000
958.432007,148.352005,398.208008
958.432007,148.352005,402.112000
958.432007,148.352005,398.208008
952.575989,148.352005,398.208008
946.719971,162.016006,394.303986
950.624023,165.919998,388.447998
948.671997,160.063995,386.496002
946.719971,179.584000,382.592010
946.719971,173.727997,394.303986
946.719971,169.824005,390.399994
936.960022,195.199997,378.687988
946.719971,191.296005,376.735992
952.575989,179.584000,374.783997
942.815979,171.776001,368.928009
931.104004,185.440002,359.167999
950.624023,165.919998,361.119995
979.903992,101.503998,366.976013
1042.368042,115.167999,407.967987
1054.079956,234.240005,448.959991
1015.039978,327.936005,443.104004
1028.703979,322.079987,437.247986
1001.375977,304.511993,458.720001
977.952026,273.279999,460.671997
944.768005,308.415985,448.959991
917.440002,337.696014,435.295990
895.968018,261.567993,392.351990
866.687988,245.951996,345.503998
849.119995,296.704010,300.608002
851.072021,288.895996,245.951996
862.783997,230.335999,175.679993
858.880005,197.151993,128.832001
843.263977,185.440002,89.792000
829.599976,144.447998,54.655998
821.791992,52.703999,54.655998
825.695984,-122.975998,87.839996
831.552002,-298.656006,121.024002
847.168030,-318.175995,158.112000
853.023987,-99.552002,179.584000
843.263977,144.447998,193.248001
853.023987,240.095993,204.960007
872.544006,245.951996,210.815994
882.304016,228.384003,214.720001
886.208008,197.151993,220.576004
895.968018,177.632004,220.576004
903.776001,189.343994,220.576004
894.015991,206.912003,201.056000
888.159973,236.192001,191.296005
892.064026,263.519989,183.488007
874.495972,273.279999,163.968002
868.640015,249.856003,162.016006
862.783997,214.720001,144.447998
853.023987,171.776001,113.216003
843.263977,138.591995,85.888000
849.119995,117.120003,66.367996
843.263977,89.792000,40.992001
845.216003,89.792000,25.375999
835.455994,101.503998,5.856000
839.359985,115.167999,-17.568001
837.408020,119.071999,-27.327999
843.263977,144.447998,-39.040001
845.216003,173.727997,-46.848000
851.072021,204.960007,-60.512001
829.599976,201.056000,-66.367996
843.263977,242.048004,-52.703999
845.216003,302.559998,-44.896000
843.263977,347.455994,-52.703999
847.168030,370.880005,-62.464001
876.447998,201.056000,-60.512001
874.495972,-234.240005,-25.375999
895.968018,-489.951996,29.280001
894.015991,-261.567993,70.272003
917.440002,366.976013,93.695999
915.487976,890.112000,107.360001
913.536011,952.575989,130.783997
915.487976,605.119995,134.688004
931.104004,121.024002,130.783997
954.528015,-142.496002,113.216003
964.288025,-97.599998,105.407997
972.096008,160.063995,68.320000
960.383972,454.816010,62.464001
958.432007,540.703979,48.799999
956.479980,388.447998,60.512001
962.335999,152.255997,80.031998
991.616028,-33.183998,93.695999
1001.375977,-50.751999,115.167999
976.000000,101.503998,121.024002
958.432007,306.463989,126.879997
956.479980,394.303986,128.832001
981.856018,406.015991,124.928001
983.807983,386.496002,130.783997
987.711975,310.368011,142.496002
991.616028,218.623993,142.496002
1009.184021,191.296005,138.591995
1024.800049,212.768005,115.167999
1005.280029,302.559998,91.744003
1005.280029,382.592010,62.464001
989.664001,417.727997,37.088001
968.192017,361.119995,5.856000
944.768005,214.720001,-11.712000
936.960022,81.984001,-19.520000
944.768005,-3.904000,-25.375999
948.671997,1.952000,-31.232000
944.768005,81.984001,-33.183998
946.719971,236.192001,-54.655998
985.760010,726.143982,-56.608002
956.479980,1120.447998,13.664000
944.768005,981.856018,80.031998
958.432007,411.872009,119.071999
1015.039978,-263.519989,150.304001
1071.647949,-642.208008,177.632004
1071.647949,-509.471985,206.912003
1079.456055,-189.343994,261.567993
1067.744019,181.535995,322.079987
1077.504028,462.623993,370.880005
1112.640015,612.927979,415.776001
1139.968018,648.064026,431.391998
1159.488037,628.544006,437.247986
1155.583984,620.736023,433.343994
1171.199951,632.447998,413.824005
1171.199951,585.599976,382.592010
1177.056030,530.943970,357.216003
1159.488037,443.104004,329.888000
1143.871948,325.984009,292.799988
1126.303955,220.576004,273.279999
1116.543945,140.544006,251.807999
1091.167969,91.744003,206.912003
1065.791992,68.320000,167.871994
1050.176025,146.399994,121.024002
1056.031982,242.048004,109.311996
1054.079956,300.608002,111.264000
1044.319946,273.279999,117.120003
1044.319946,177.632004,107.360001
1056.031982,117.120003,109.311996
1067.744019,85.888000,111.264000
1069.696045,109.311996,126.879997
1073.599976,185.440002,134.688004
1061.887939,267.424011,140.544006
1079.456055,454.816010,167.871994
1077.504028,679.296021,212.768005
1063.839966,767.135986,265.471985
1052.128052,603.168030,308.415985
1083.359985,242.048004,335.743988
1110.687988,-95.648003,335.743988
1116.543945,-210.815994,294.752014
1089.215942,-122.975998,275.231995
1091.167969,56.608002,283.040009
1050.176025,224.479996,298.656006
1048.223999,281.088013,304.511993
1056.031982,249.856003,347.455994
1054.079956,261.567993,374.783997
1054.079956,376.735992,386.496002
1059.936035,597.312012,374.783997
1048.223999,771.039978,353.312012
1077.504028,798.367981,333.791992
1069.696045,685.151978,298.656006
1067.744019,489.951996,265.471985
1050.176025,318.175995,230.335999
1016.992004,224.479996,195.199997
976.000000,226.432007,144.447998
940.864014,294.752014,95.648003
915.487976,324.032013,44.896000
903.776001,279.135986,9.760000
897.919983,165.919998,-25.375999
894.015991,50.751999,-42.944000
899.872009,37.088001,-60.512001
895.968018,107.360001,-91.744003
888.159973,193.248001,-113.216003
876.447998,249.856003,-124.928001
894.015991,261.567993,-148.352005
919.392029,275.231995,-167.871994
888.159973,242.048004,-179.584000
872.544006,203.007996,-185.440002
866.687988,179.584000,-199.104004
847.168030,197.151993,-179.584000
849.119995,283.040009,-154.207993
817.888000,378.687988,-113.216003
835.455994,462.623993,-68.320000
833.504028,445.056000,-19.520000
843.263977,269.376007,17.568001
845.216003,15.616000,21.472000
864.736023,-212.768005,-5.856000
854.976013,-251.807999,-44.896000
823.744019,5.856000,-83.935997
796.416016,349.407990,-128.832001
786.656006,530.943970,-156.160004
786.656006,413.824005,-191.296005
794.463989,130.783997,-208.863998
821.791992,-195.199997,-201.056000
813.984009,-345.503998,-185.440002
808.127991,-156.160004,-187.391998
794.463989,214.720001,-175.679993
810.080017,521.184021,-171.776001
823.744019,651.968018,-165.919998
843.263977,603.168030,-193.248001
854.976013,439.200012,-226.432007
858.880005,228.384003,-251.807999
856.927979,130.783997,-290.847992
808.127991,136.639999,-329.888000
794.463989,173.727997,-359.167999
778.848022,167.871994,-363.071991
780.799988,175.679993,-376.735992
788.607971,175.679993,-402.112000
798.367981,171.776001,-433.343994
796.416016,113.216003,-443.104004
813.984009,11.712000,-462.623993
827.648010,-162.016006,-460.671997
810.080017,-411.872009,-386.496002
763.231995,-355.264008,-212.768005
755.424011,99.552002,-66.367996
808.127991,634.400024,76.127998
923.296021,931.104004,152.255997
1032.608032,929.151978,165.919998
1079.456055,741.760010,148.352005
1097.024048,415.776001,144.447998
1085.312012,87.839996,158.112000
1061.887939,-23.424000,160.063995
1057.984009,115.167999,156.160004
1067.744019,359.167999,122.975998
1052.128052,495.808014,76.127998
1057.984009,610.976013,29.280001
1032.608032,612.927979,-9.760000
1028.703979,708.575989,-81.984001
966.239990,1089.215942,-89.792000
929.151978,1344.927979,-44.896000
843.263977,950.624023,11.712000
831.552002,-163.968002,78.080002
938.911987,-1280.511963,117.120003
993.567993,-1510.848022,130.783997
1011.135986,-702.719971,126.879997
1022.848022,575.840027,142.496002
1054.079956,1426.911987,126.879997
1079.456055,1544.031982,109.311996
1091.167969,993.567993,83.935997
1110.687988,95.648003,33.183998
1128.255981,-523.135986,-11.712000
1100.927979,-599.263977,-37.088001
1100.927979,-163.968002,-58.560001
1085.312012,392.351990,-87.839996
1073.599976,732.000000,-101.503998
1073.599976,638.304016,-119.071999
1046.271973,228.384003,-146.399994
1036.511963,-261.567993,-163.968002
1034.560059,-607.072021,-163.968002
1046.271973,-702.719971,-175.679993
1036.511963,-597.312012,-183.488007
1032.608032,-347.455994,-148.352005
1024.800049,-70.272003,-76.127998
1013.088013,160.063995,11.712000
1022.848022,283.040009,74.176003
1018.943970,267.424011,121.024002
1034.560059,245.951996,128.832001
1011.135986,103.456001,97.599998
1028.703979,19.520000,83.935997
1040.416016,-27.327999,54.655998
1038.463989,42.944000,27.327999
1036.511963,189.343994,-21.472000
1038.463989,300.608002,-70.272003
1024.800049,388.447998,-107.360001
1042.368042,316.223999,-111.264000
1059.936035,228.384003,-132.735992
1067.744019,146.399994,-128.832001
1059.936035,105.407997,-124.928001
1054.079956,189.343994,-130.783997
1061.887939,331.839996,-144.447998
1046.271973,441.152008,-152.255997
1050.176025,429.440002,-169.824005
1040.416016,327.936005,-187.391998
1050.176025,154.207993,-222.528000
1061.887939,54.655998,-234.240005
1030.656006,52.703999,-257.664001
1022.848022,72.223999,-255.712006
1016.992004,107.360001,-247.904007
1016.992004,226.432007,-206.912003
989.664001,464.575989,-138.591995
972.096008,523.135986,-70.272003
956.479980,341.600006,-19.520000
1048.223999,42.944000,-15.616000
1124.352051,-163.968002,-31.232000
1114.592041,-189.343994,-40.992001
1040.416016,-23.424000,-44.896000
962.335999,212.768005,-46.848000
915.487976,390.399994,-54.655998
1016.992004,447.007996,-101.503998
1270.751953,366.976013,-238.143997
929.151978,109.311996,-185.440002
1124.352051,-117.120003,-310.368011
958.432007,-199.104004,-304.511993
1120.447998,9.760000,-374.783997
1112.640015,175.679993,-380.640015
981.856018,333.791992,-349.407990
1126.303955,441.152008,-382.592010
1126.303955,443.104004,-368.928009
1389.823975,257.664001,-472.384003
962.335999,31.232000,-372.832001
1175.104004,-7.808000,-431.391998
1007.231995,-89.792000,-345.503998
1069.696045,-5.856000,-281.088013
1130.208008,76.127998,-195.199997
1024.800049,240.095993,-58.560001
1128.255981,445.056000,-23.424000
1050.176025,648.064026,23.424000
1083.359985,804.223999,19.520000
1108.735962,913.536011,-5.856000
1136.063965,966.239990,-70.272003
1073.599976,675.392029,-113.216003
1059.936035,0.000000,-163.968002
1048.223999,-618.783997,-208.863998
1100.927979,-774.943970,-273.279999
1106.784058,-394.303986,-314.272003
1059.936035,249.856003,-314.272003
1038.463989,774.943970,-308.415985
1059.936035,950.624023,-290.847992
1065.791992,745.664001,-308.415985
1079.456055,261.567993,-310.368011
1106.784058,-220.576004,-324.032013
1114.592041,-447.007996,-357.216003
1108.735962,-411.872009,-366.976013
1098.975952,-124.928001,-355.264008
1077.504028,302.559998,-310.368011
1069.696045,663.679993,-242.048004
1059.936035,790.559998,-150.304001
1042.368042,566.080017,-97.599998
1022.848022,76.127998,-58.560001
1044.319946,-419.679993,-74.176003
1038.463989,-661.728027,-97.599998
1020.895996,-509.471985,-140.544006
1007.231995,-23.424000,-189.343994
979.903992,517.280029,-224.479996
999.424011,776.895996,-267.424011
999.424011,739.807983,-310.368011
999.424011,445.056000,-351.359985
1005.280029,17.568001,-396.256012
1015.039978,-245.951996,-447.007996
1005.280029,-275.231995,-480.191986
1003.328003,-154.207993,-493.855988
1015.039978,48.799999,-488.000000
1050.176025,177.632004,-413.824005
1514.751953,-519.231995,183.488007
3082.208008,-2830.399902,2285.791992
3556.543945,-3564.352051,3232.511963
1942.239990,-2615.679932,1407.391968
903.776001,-790.559998,-152.255997
464.575989,1362.495972,-655.872009
815.935974,1456.192017,-593.408020
1057.984009,882.304016,-589.504028
954.528015,632.447998,-1069.696045
802.271973,203.007996,-1362.495972
977.952026,76.127998,-1366.400024
1016.992004,335.743988,-1083.359985
1188.767944,597.312012,-888.159973
1282.463989,753.471985,-763.231995
1352.735962,759.328003,-616.831970
1434.719971,704.671997,-407.967987
1444.479980,841.312012,-234.240005
1442.527954,1157.536011,-214.720001
1393.728027,1532.319946,-290.847992
1372.255981,1827.072021,-316.223999
1399.583984,1938.336060,-277.183990
1411.296021,1901.248047,-218.623993
1317.599976,899.872009,-124.928001
1407.391968,-474.335999,-152.255997
1366.400024,-755.424011,-244.000000
1300.031982,-995.520020,-304.511993
1278.560059,-1456.192017,-325.984009
1184.864014,-1823.167969,-318.175995
1169.248047,-1612.352051,-357.216003
1024.800049,-573.888000,-404.063995
985.760010,491.903992,-224.479996
1069.696045,1138.015991,42.944000
1192.671997,1081.407959,228.384003
1342.975952,1018.943970,214.720001
1438.624023,940.864014,60.512001
1477.663940,845.216003,-97.599998
1444.479980,747.616028,-163.968002
1389.823975,609.023987,-160.063995
1360.543945,480.191986,-165.919998
1383.968018,380.640015,-195.199997
1342.975952,290.847992,-208.863998
1286.368042,261.567993,-253.759995
1249.280029,109.311996,-273.279999
1251.232056,-48.799999,-300.608002
1237.567993,-101.503998,-337.696014
1221.952026,-83.935997,-351.359985
1210.239990,11.712000,-378.687988
1190.719971,136.639999,-374.783997
1173.151978,247.904007,-370.880005
1177.056030,279.135986,-378.687988
1147.776001,288.895996,-404.063995
1132.160034,320.127991,-415.776001
1116.543945,329.888000,-411.872009
1126.303955,302.559998,-384.544006
1134.112061,265.471985,-361.119995
1138.015991,236.192001,-339.648010
1149.728027,244.000000,-335.743988
1159.488037,253.759995,-325.984009
1161.439941,251.807999,-290.847992
1161.439941,232.287994,-265.471985
1151.680054,226.432007,-267.424011
1126.303955,245.951996,-286.944000
1108.735962,265.471985,-292.799988
1087.264038,263.519989,-284.992004
1079.456055,251.807999,-292.799988
1069.696045,247.904007,-284.992004
1054.079956,253.759995,-288.895996
1042.368042,245.951996,-300.608002
1050.176025,210.815994,-284.992004
1046.271973,175.679993,-292.799988
1046.271973,160.063995,-296.704010
1032.608032,160.063995,-312.320007
1028.703979,193.248001,-322.079987
1024.800049,177.632004,-310.368011
1015.039978,136.639999,-306.463989
1016.992004,93.695999,-316.223999
1018.943970,48.799999,-333.791992
1020.895996,27.327999,-349.407990
1015.039978,19.520000,-355.264008
1001.375977,23.424000,-370.880005
985.760010,58.560001,-361.119995
981.856018,83.935997,-353.312012
966.239990,101.503998,-335.743988
970.143982,119.071999,-329.888000
981.856018,113.216003,-318.175995
987.711975,99.552002,-308.415985
993.567993,83.935997,-302.559998
997.471985,78.080002,-312.320007
995.520020,72.223999,-304.511993
979.903992,76.127998,-320.127991
989.664001,97.599998,-302.559998
977.952026,111.264000,-308.415985
974.047974,117.120003,-304.511993
972.096008,119.071999,-306.463989
974.047974,121.024002,-306.463989
964.288025,115.167999,-312.320007
968.192017,103.456001,-322.079987
958.432007,115.167999,-314.272003
964.288025,124.928001,-322.079987
968.192017,128.832001,-318.175995
944.768005,134.688004,-335.743988
940.864014,130.783997,-335.743988
944.768005,128.832001,-325.984009
944.768005,132.735992,-333.791992
940.864014,126.879997,-349.407990
936.960022,138.591995,-351.359985
946.719971,134.688004,-359.167999
946.719971,134.688004,-359.167999
946.719971,138.591995,-368.928009
940.864014,142.496002,-366.976013
935.007996,136.639999,-378.687988
936.960022,136.639999,-376.735992
936.960022,144.447998,-384.544006
929.151978,146.399994,-380.640015
925.247986,156.160004,-396.256012
921.343994,156.160004,-400.160004
938.911987,148.352005,-404.063995
958.432007,154.207993,-406.015991
960.383972,154.207993,-407.967987
974.047974,171.776001,-417.727997
968.192017,177.632004,-409.920013
970.143982,183.488007,-402.112000
976.000000,185.440002,-398.208008
981.856018,191.296005,-390.399994
976.000000,179.584000,-398.208008
991.616028,191.296005,-407.967987
993.567993,191.296005,-411.872009
989.664001,197.151993,-419.679993
1001.375977,197.151993,-419.679993
1003.328003,199.104004,-419.679993
1009.184021,199.104004,-421.631989
1005.280029,204.960007,-435.295990
1005.280029,193.248001,-435.295990
1020.895996,185.440002,-431.391998
1022.848022,185.440002,-423.584015
1028.703979,181.535995,-415.776001
1036.511963,187.391998,-415.776001
1040.416016,175.679993,-417.727997
1034.560059,191.296005,-421.631989
1028.703979,199.104004,-421.631989
1040.416016,226.432007,-448.959991
1036.511963,244.000000,-452.864014
1044.319946,251.807999,-443.104004
1052.128052,236.192001,-398.208008
1075.552002,195.199997,-359.167999
1098.975952,134.688004,-325.984009
1118.495972,103.456001,-310.368011
1128.255981,115.167999,-331.839996
1112.640015,163.968002,-366.976013
1108.735962,203.007996,-386.496002
1100.927979,249.856003,-372.832001
1108.735962,267.424011,-343.552002
1122.400024,247.904007,-335.743988
1120.447998,226.432007,-357.216003
1108.735962,234.240005,-382.592010
1098.975952,259.615997,-421.631989
1069.696045,232.287994,-415.776001
1075.552002,212.768005,-386.496002
1077.504028,175.679993,-341.600006
1081.407959,195.199997,-341.600006
1057.984009,228.384003,-396.256012
1032.608032,290.847992,-486.048004
1009.184021,302.559998,-509.471985
1003.328003,304.511993,-495.808014
1011.135986,265.471985,-464.575989
1026.751953,203.007996,-406.015991
1040.416016,171.776001,-390.399994
1026.751953,169.824005,-407.967987
1009.184021,220.576004,-454.816010
974.047974,298.656006,-515.328003
954.528015,345.503998,-562.176025
940.864014,331.839996,-554.367981
952.575989,294.752014,-517.280029
958.432007,232.287994,-493.855988
964.288025,167.871994,-476.287994
964.288025,122.975998,-454.816010
970.143982,117.120003,-466.528015
964.288025,126.879997,-470.432007
956.479980,138.591995,-450.911987
958.432007,173.727997,-454.816010
952.575989,210.815994,-472.384003
966.239990,244.000000,-488.000000
974.047974,275.231995,-488.000000
981.856018,263.519989,-468.480011
983.807983,292.799988,-474.335999
964.288025,300.608002,-503.615997
970.143982,271.328003,-470.432007
964.288025,275.231995,-478.239990
960.383972,257.664001,-499.712006
944.768005,245.951996,-505.567993
958.432007,220.576004,-488.000000
964.288025,203.007996,-450.911987
964.288025,212.768005,-472.384003
964.288025,216.671997,-474.335999
964.288025,193.248001,-448.959991
966.239990,187.391998,-448.959991
966.239990,226.432007,-493.855988
956.479980,249.856003,-507.519989
968.192017,261.567993,-511.424011
952.575989,263.519989,-515.328003
940.864014,242.048004,-478.239990
950.624023,249.856003,-499.712006
931.104004,247.904007,-489.951996
940.864014,238.143997,-468.480011
950.624023,273.279999,-493.855988
948.671997,273.279999,-511.424011
952.575989,284.992004,-491.903992
946.719971,341.600006,-523.135986
946.719971,316.223999,-501.664001
983.807983,208.863998,-365.023987
1013.088013,107.360001,-247.904007
1059.936035,-52.703999,-113.216003
1130.208008,-234.240005,62.464001
1194.624023,-312.320007,138.591995
1223.904053,-308.415985,93.695999
1192.671997,-201.056000,-31.232000
1093.119995,-50.751999,-277.183990
968.192017,146.399994,-546.559998
870.591980,314.272003,-732.000000
829.599976,421.631989,-808.127991
821.791992,458.720001,-823.744019
856.927979,439.200012,-761.280029
903.776001,374.783997,-642.208008
944.768005,325.984009,-558.271973
976.000000,255.712006,-486.048004
991.616028,218.623993,-452.864014
1003.328003,212.768005,-429.440002
1016.992004,214.720001,-409.920013
1040.416016,242.048004,-384.544006
1056.031982,255.712006,-351.359985
1073.599976,283.040009,-316.223999
1093.119995,294.752014,-294.752014
1104.832031,286.944000,-288.895996
1100.927979,288.895996,-288.895996
1104.832031,298.656006,-279.135986
1093.119995,294.752014,-290.847992
1089.215942,300.608002,-290.847992
1083.359985,288.895996,-312.320007
1079.456055,277.183990,-324.032013
1056.031982,257.664001,-343.552002
1054.079956,245.951996,-359.167999
1052.128052,228.384003,-368.928009
1046.271973,220.576004,-378.687988
1036.511963,228.384003,-390.399994
1034.560059,232.287994,-402.112000
1032.608032,245.951996,-407.967987
1013.088013,255.712006,-419.679993
1007.231995,245.951996,-419.679993
1020.895996,249.856003,-437.247986
1013.088013,245.951996,-431.391998
1020.895996,249.856003,-441.152008
1024.800049,242.048004,-431.391998
1024.800049,249.856003,-427.488007
1030.656006,249.856003,-421.631989
1034.560059,263.519989,-419.679993
1026.751953,261.567993,-417.727997
1030.656006,263.519989,-409.920013
1044.319946,255.712006,-402.112000
1046.271973,253.759995,-394.303986
1052.128052,259.615997,-390.399994
1059.936035,257.664001,-388.447998
1054.079956,261.567993,-376.735992
1059.936035,271.328003,-382.592010
1054.079956,271.328003,-384.544006
1054.079956,273.279999,-382.592010
1056.031982,275.231995,-382.592010
1048.223999,265.471985,-378.687988
1040.416016,259.615997,-382.592010
1050.176025,249.856003,-394.303986
1048.223999,255.712006,-384.544006
1050.176025,263.519989,-382.592010
1038.463989,275.231995,-378.687988
1046.271973,284.992004,-372.832001
1048.223999,288.895996,-382.592010
1032.608032,281.088013,-386.496002
1030.656006,255.712006,-376.735992
1034.560059,261.567993,-382.592010
1044.319946,257.664001,-386.496002
1042.368042,253.759995,-390.399994
1032.608032,261.567993,-384.544006
1026.751953,245.951996,-388.447998
1024.800049,247.904007,-376.735992
1020.895996,240.095993,-382.592010
1011.135986,240.095993,-388.447998
1022.848022,236.192001,-394.303986
1032.608032,224.479996,-398.208008
1030.656006,226.432007,-390.399994
1024.800049,216.671997,-394.303986
1024.800049,212.768005,-396.256012
1022.848022,206.912003,-394.303986
1009.184021,203.007996,-394.303986
1020.895996,199.104004,-392.351990
1015.039978,185.440002,-380.640015
1009.184021,177.632004,-396.256012
1016.992004,181.535995,-390.399994
1011.135986,189.343994,-392.351990
1007.231995,189.343994,-388.447998
1003.328003,191.296005,-392.351990
999.424011,183.488007,-390.399994
991.616028,179.584000,-402.112000
987.711975,183.488007,-402.112000
981.856018,181.535995,-406.015991
976.000000,181.535995,-407.967987
985.760010,179.584000,-407.967987
989.664001,183.488007,-415.776001
968.192017,175.679993,-415.776001
958.432007,201.056000,-425.536011
956.479980,189.343994,-437.247986
956.479980,193.248001,-433.343994
950.624023,181.535995,-437.247986
952.575989,189.343994,-437.247986
950.624023,187.391998,-443.104004
940.864014,181.535995,-443.104004
946.719971,185.440002,-437.247986
942.815979,183.488007,-429.440002
942.815979,175.679993,-427.488007
929.151978,171.776001,-437.247986
938.911987,177.632004,-433.343994
938.911987,189.343994,-435.295990
933.056030,189.343994,-447.007996
936.960022,187.391998,-445.056000
950.624023,191.296005,-460.671997
946.719971,197.151993,-456.768005
946.719971,197.151993,-464.575989
946.719971,195.199997,-447.007996
944.768005,193.248001,-452.864014
942.815979,191.296005,-458.720001
940.864014,220.576004,-468.480011
958.432007,197.151993,-468.480011
962.335999,185.440002,-458.720001
970.143982,165.919998,-462.623993
972.096008,165.919998,-443.104004
989.664001,148.352005,-419.679993
993.567993,162.016006,-423.584015
983.807983,195.199997,-448.959991
989.664001,197.151993,-443.104004
987.711975,171.776001,-429.440002
997.471985,177.632004,-439.200012
987.711975,189.343994,-450.911987
991.616028,195.199997,-450.911987
997.471985,187.391998,-447.007996
1001.375977,179.584000,-439.200012
997.471985,163.968002,-441.152008
993.567993,144.447998,-427.488007
1013.088013,150.304001,-407.967987
1005.280029,154.207993,-394.303986
1011.135986,175.679993,-415.776001
999.424011,195.199997,-427.488007
1007.231995,204.960007,-427.488007
1003.328003,197.151993,-419.679993
1007.231995,181.535995,-429.440002
1001.375977,177.632004,-427.488007
1009.184021,171.776001,-435.295990
1009.184021,181.535995,-437.247986
999.424011,167.871994,-439.200012
981.856018,173.727997,-435.295990
993.567993,156.160004,-433.343994
993.567993,169.824005,-441.152008
1005.280029,169.824005,-431.391998
997.471985,160.063995,-431.391998
983.807983,167.871994,-427.488007
989.664001,181.535995,-429.440002
987.711975,175.679993,-433.343994
981.856018,181.535995,-437.247986
979.903992,175.679993,-439.200012
979.903992,183.488007,-423.584015
987.711975,173.727997,-433.343994
989.664001,177.632004,-425.536011
991.616028,175.679993,-419.679993
987.711975,183.488007,-413.824005
985.760010,191.296005,-400.160004
977.952026,185.440002,-411.872009
976.000000,189.343994,-417.727997
964.288025,177.632004,-413.824005
968.192017,165.919998,-413.824005
974.047974,152.255997,-425.536011
964.288025,142.496002,-419.679993
958.432007,136.639999,-417.727997
958.432007,134.688004,-419.679993
954.528015,144.447998,-413.824005
952.575989,140.544006,-392.351990
958.432007,134.688004,-390.399994
966.239990,122.975998,-390.399994
968.192017,134.688004,-394.303986
974.047974,150.304001,-390.399994
964.288025,154.207993,-390.399994
962.335999,144.447998,-394.303986
960.383972,132.735992,-390.399994
954.528015,124.928001,-384.544006
956.479980,128.832001,-380.640015
948.671997,121.024002,-388.447998
948.671997,128.832001,-396.256012
938.911987,128.832001,-396.256012
935.007996,132.735992,-394.303986
946.719971,121.024002,-390.399994
936.960022,124.928001,-390.399994
936.960022,121.024002,-390.399994
923.296021,103.456001,-372.832001
935.007996,93.695999,-370.880005
936.960022,105.407997,-372.832001
935.007996,105.407997,-378.687988
938.911987,101.503998,-366.976013
931.104004,103.456001,-368.928009
935.007996,97.599998,-368.928009
935.007996,93.695999,-363.071991
929.151978,101.503998,-366.976013
925.247986,107.360001,-365.023987
919.392029,103.456001,-363.071991
909.632019,97.599998,-355.264008
915.487976,91.744003,-347.455994
909.632019,95.648003,-349.407990
911.583984,99.552002,-372.832001
899.872009,109.311996,-376.735992
899.872009,107.360001,-374.783997
907.679993,97.599998,-370.880005
899.872009,89.792000,-370.880005
901.823975,91.744003,-376.735992
909.632019,97.599998,-370.880005
899.872009,93.695999,-365.023987
892.064026,85.888000,-363.071991
890.112000,99.552002,-374.783997
886.208008,105.407997,-378.687988
888.159973,87.839996,-368.928009
890.112000,70.272003,-361.119995
882.304016,52.703999,-349.407990
882.304016,60.512001,-349.407990
884.255981,78.080002,-359.167999
884.255981,74.176003,-353.312012
886.208008,87.839996,-357.216003
868.640015,81.984001,-365.023987
868.640015,74.176003,-368.928009
870.591980,72.223999,-361.119995
868.640015,62.464001,-365.023987
860.831970,62.464001,-365.023987
858.880005,60.512001,-368.928009
860.831970,52.703999,-353.312012
866.687988,40.992001,-357.216003
868.640015,68.320000,-370.880005
862.783997,78.080002,-366.976013
868.640015,76.127998,-357.216003
870.591980,68.320000,-361.119995
866.687988,80.031998,-368.928009
872.544006,80.031998,-365.023987
878.400024,74.176003,-353.312012
876.447998,62.464001,-343.552002
870.591980,64.416000,-341.600006
876.447998,76.127998,-343.552002
884.255981,62.464001,-347.455994
886.208008,70.272003,-339.648010
878.400024,74.176003,-339.648010
882.304016,81.984001,-345.503998
880.351990,66.367996,-337.696014
880.351990,70.272003,-339.648010
882.304016,70.272003,-345.503998
874.495972,78.080002,-337.696014
872.544006,78.080002,-345.503998
876.447998,80.031998,-347.455994
872.544006,76.127998,-355.264008
872.544006,66.367996,-347.455994
872.544006,66.367996,-335.743988
870.591980,72.223999,-325.984009
866.687988,70.272003,-335.743988
872.544006,81.984001,-337.696014
866.687988,81.984001,-335.743988
870.591980,85.888000,-347.455994
858.880005,99.552002,-349.407990
854.976013,99.552002,-345.503998
851.072021,93.695999,-345.503998
856.927979,85.888000,-335.743988
851.072021,85.888000,-335.743988
856.927979,87.839996,-347.455994
851.072021,85.888000,-337.696014
843.263977,97.599998,-337.696014
839.359985,103.456001,-337.696014
839.359985,95.648003,-339.648010
831.552002,107.360001,-347.455994
833.504028,115.167999,-341.600006
839.359985,99.552002,-329.888000
837.408020,93.695999,-327.936005
823.744019,91.744003,-335.743988
829.599976,97.599998,-337.696014
829.599976,111.264000,-347.455994
827.648010,115.167999,-351.359985
821.791992,113.216003,-349.407990
821.791992,111.264000,-347.455994
821.791992,119.071999,-355.264008
821.791992,122.975998,-349.407990
821.791992,122.975998,-349.407990
833.504028,113.216003,-343.552002
825.695984,115.167999,-333.791992
819.840027,117.120003,-337.696014
819.840027,126.879997,-337.696014
829.599976,130.783997,-341.600006
821.791992,132.735992,-347.455994
821.791992,144.447998,-351.359985
829.599976,138.591995,-353.312012
837.408020,140.544006,-349.407990
841.312012,146.399994,-351.359985
835.455994,150.304001,-343.552002
835.455994,130.783997,-327.936005
833.504028,138.591995,-331.839996
827.648010,160.063995,-339.648010
819.840027,165.919998,-347.455994
821.791992,160.063995,-351.359985
831.552002,160.063995,-347.455994
823.744019,142.496002,-343.552002
827.648010,144.447998,-341.600006
835.455994,162.016006,-337.696014
823.744019,158.112000,-349.407990
819.840027,158.112000,-355.264008
821.791992,156.160004,-343.552002
810.080017,165.919998,-351.359985
817.888000,162.016006,-351.359985
815.935974,152.255997,-351.359985
821.791992,160.063995,-351.359985
821.791992,165.919998,-361.119995
808.127991,181.535995,-366.976013
810.080017,167.871994,-374.783997
808.127991,162.016006,-366.976013
808.127991,165.919998,-361.119995
815.935974,163.968002,-357.216003
829.599976,163.968002,-366.976013
825.695984,165.919998,-355.264008
825.695984,160.063995,-359.167999
831.552002,160.063995,-355.264008
829.599976,183.488007,-347.455994
823.744019,162.016006,-339.648010
823.744019,169.824005,-349.407990
817.888000,177.632004,-374.783997
819.840027,177.632004,-366.976013
833.504028,175.679993,-357.216003
823.744019,177.632004,-368.928009
821.791992,179.584000,-357.216003
835.455994,162.016006,-355.264008
823.744019,167.871994,-359.167999
831.552002,177.632004,-359.167999
821.791992,162.016006,-345.503998
817.888000,173.727997,-341.600006
815.935974,171.776001,-363.071991
817.888000,191.296005,-366.976013
821.791992,187.391998,-374.783997
829.599976,181.535995,-366.976013
825.695984,167.871994,-376.735992
817.888000,165.919998,-372.832001
812.031982,175.679993,-376.735992
812.031982,162.016006,-372.832001
813.984009,171.776001,-363.071991
806.176025,179.584000,-357.216003
806.176025,175.679993,-374.783997
821.791992,185.440002,-386.496002
819.840027,187.391998,-366.976013
825.695984,175.679993,-374.783997
821.791992,177.632004,-363.071991
817.888000,171.776001,-355.264008
817.888000,169.824005,-349.407990
821.791992,167.871994,-370.880005
815.935974,195.199997,-380.640015
821.791992,187.391998,-378.687988
827.648010,187.391998,-376.735992
827.648010,183.488007,-382.592010
837.408020,175.679993,-357.216003
827.648010,175.679993,-363.071991
808.127991,203.007996,-388.447998
817.888000,220.576004,-380.640015
819.840027,191.296005,-378.687988
817.888000,191.296005,-415.776001
810.080017,206.912003,-394.303986
839.359985,126.879997,-345.503998
851.072021,72.223999,-327.936005
847.168030,126.879997,-341.600006
835.455994,206.912003,-357.216003
829.599976,212.768005,-374.783997
829.599976,177.632004,-378.687988
823.744019,201.056000,-374.783997
812.031982,187.391998,-370.880005
829.599976,173.727997,-384.544006
835.455994,162.016006,-374.783997
831.552002,189.343994,-363.071991
829.599976,183.488007,-363.071991
817.888000,173.727997,-361.119995
825.695984,150.304001,-374.783997
821.791992,158.112000,-392.351990
821.791992,177.632004,-394.303986
819.840027,187.391998,-402.112000
827.648010,179.584000,-386.496002
815.935974,171.776001,-370.880005
821.791992,181.535995,-374.783997
815.935974,197.151993,-390.399994
821.791992,203.007996,-382.592010
808.127991,185.440002,-382.592010
802.271973,197.151993,-396.256012
798.367981,185.440002,-400.160004
804.223999,169.824005,-382.592010
800.320007,173.727997,-413.824005
792.512024,210.815994,-419.679993
790.559998,191.296005,-406.015991
808.127991,152.255997,-415.776001
796.416016,152.255997,-409.920013
812.031982,175.679993,-386.496002
808.127991,177.632004,-394.303986
802.271973,206.912003,-425.536011
808.127991,244.000000,-415.776001
810.080017,214.720001,-384.544006
817.888000,152.255997,-388.447998
819.840027,162.016006,-384.544006
813.984009,195.199997,-384.544006
804.223999,191.296005,-394.303986
815.935974,167.871994,-384.544006
817.888000,177.632004,-388.447998
806.176025,204.960007,-406.015991
802.271973,208.863998,-417.727997
804.223999,206.912003,-419.679993
806.176025,216.671997,-421.631989
796.416016,214.720001,-406.015991
798.367981,203.007996,-380.640015
796.416016,165.919998,-374.783997
806.176025,158.112000,-384.544006
810.080017,191.296005,-407.967987
813.984009,208.863998,-409.920013
817.888000,218.623993,-402.112000
815.935974,204.960007,-392.351990
813.984009,206.912003,-398.208008
796.416016,204.960007,-402.112000
794.463989,210.815994,-404.063995
806.176025,195.199997,-404.063995
815.935974,181.535995,-398.208008
810.080017,179.584000,-394.303986
810.080017,199.104004,-400.160004
808.127991,193.248001,-400.160004
806.176025,185.440002,-396.256012
817.888000,183.488007,-392.351990
810.080017,185.440002,-382.592010
808.127991,195.199997,-396.256012
817.888000,204.960007,-402.112000
808.127991,197.151993,-386.496002
800.320007,181.535995,-382.592010
804.223999,189.343994,-372.832001
817.888000,179.584000,-388.447998
812.031982,193.248001,-390.399994
812.031982,185.440002,-398.208008
806.176025,201.056000,-392.351990
796.416016,201.056000,-390.399994
790.559998,204.960007,-388.447998
804.223999,177.632004,-376.735992
804.223999,189.343994,-394.303986
802.271973,201.056000,-388.447998
796.416016,201.056000,-382.592010
788.607971,185.440002,-366.976013
792.512024,163.968002,-365.023987
796.416016,146.399994,-357.216003
802.271973,158.112000,-376.735992
796.416016,183.488007,-380.640015
806.176025,201.056000,-368.928009
790.559998,169.824005,-353.312012
786.656006,163.968002,-361.119995
790.559998,122.975998,-361.119995
790.559998,154.207993,-376.735992
790.559998,173.727997,-382.592010
784.703979,167.871994,-372.832001
776.895996,144.447998,-355.264008
780.799988,142.496002,-361.119995
776.895996,140.544006,-368.928009
772.992004,150.304001,-384.544006
767.135986,160.063995,-372.832001
778.848022,158.112000,-368.928009
780.799988,150.304001,-365.023987
784.703979,136.639999,-374.783997
784.703979,150.304001,-384.544006
774.943970,158.112000,-368.928009
778.848022,152.255997,-363.071991
778.848022,165.919998,-368.928009
786.656006,173.727997,-372.832001
788.607971,177.632004,-386.496002
786.656006,177.632004,-380.640015
778.848022,165.919998,-366.976013
776.895996,152.255997,-370.880005
790.559998,140.544006,-363.071991
792.512024,138.591995,-370.880005
790.559998,156.160004,-374.783997
792.512024,152.255997,-357.216003
804.223999,128.832001,-351.359985
794.463989,134.688004,-366.976013
792.512024,158.112000,-357.216003
794.463989,163.968002,-349.407990
804.223999,115.167999,-341.600006
808.127991,134.688004,-349.407990
792.512024,167.871994,-370.880005
794.463989,204.960007,-378.687988
798.367981,148.352005,-368.928009
796.416016,134.688004,-378.687988
784.703979,134.688004,-376.735992
792.512024,162.016006,-376.735992
794.463989,121.024002,-363.071991
796.416016,126.879997,-372.832001
792.512024,150.304001,-382.592010
788.607971,160.063995,-366.976013
800.320007,130.783997,-361.119995
804.223999,122.975998,-384.544006
794.463989,162.016006,-402.112000
786.656006,171.776001,-384.544006
804.223999,111.264000,-345.503998
806.176025,89.792000,-365.023987
800.320007,134.688004,-370.880005
808.127991,163.968002,-359.167999
817.888000,115.167999,-359.167999
821.791992,122.975998,-363.071991
821.791992,138.591995,-351.359985
815.935974,165.919998,-366.976013
825.695984,136.639999,-378.687988
825.695984,152.255997,-374.783997
821.791992,165.919998,-370.880005
802.271973,173.727997,-386.496002
804.223999,152.255997,-394.303986
819.840027,128.832001,-368.928009
837.408020,72.223999,-341.600006
833.504028,89.792000,-343.552002
823.744019,138.591995,-351.359985
823.744019,156.160004,-353.312012
831.552002,130.783997,-374.783997
821.791992,146.399994,-372.832001
825.695984,162.016006,-376.735992
821.791992,169.824005,-370.880005
825.695984,142.496002,-376.735992
829.599976,146.399994,-366.976013
819.840027,154.207993,-357.216003
831.552002,148.352005,-361.119995
839.359985,136.639999,-359.167999
837.408020,150.304001,-366.976013
835.455994,158.112000,-382.592010
831.552002,160.063995,-386.496002
831.552002,136.639999,-374.783997
835.455994,160.063995,-378.687988
837.408020,171.776001,-378.687988
827.648010,156.160004,-372.832001
833.504028,136.639999,-368.928009
833.504028,128.832001,-370.880005
833.504028,142.496002,-384.544006
837.408020,150.304001,-392.351990
839.359985,136.639999,-388.447998
851.072021,154.207993,-394.303986
841.312012,156.160004,-394.303986
835.455994,146.399994,-372.832001
837.408020,146.399994,-380.640015
821.791992,140.544006,-390.399994
823.744019,148.352005,-388.447998
823.744019,148.352005,-396.256012
839.359985,156.160004,-411.872009
837.408020,167.871994,-417.727997
827.648010,173.727997,-409.920013
823.744019,165.919998,-409.920013
831.552002,154.207993,-402.112000
839.359985,169.824005,-404.063995
841.312012,158.112000,-406.015991
837.408020,179.584000,-409.920013
825.695984,179.584000,-419.679993
827.648010,193.248001,-413.824005
833.504028,185.440002,-419.679993
823.744019,185.440002,-431.391998
829.599976,195.199997,-452.864014
825.695984,214.720001,-462.623993
819.840027,222.528000,-454.816010
823.744019,214.720001,-460.671997
819.840027,212.768005,-450.911987
812.031982,210.815994,-450.911987
815.935974,208.863998,-464.575989
815.935974,216.671997,-470.432007
813.984009,253.759995,-470.432007
796.416016,281.088013,-480.191986
804.223999,271.328003,-466.528015
800.320007,244.000000,-460.671997
817.888000,199.104004,-445.056000
825.695984,148.352005,-427.488007
833.504028,140.544006,-419.679993
854.976013,134.688004,-398.208008
874.495972,119.071999,-382.592010
890.112000,81.984001,-366.976013
909.632019,50.751999,-345.503998
913.536011,50.751999,-347.455994
905.728027,78.080002,-365.023987
903.776001,122.975998,-378.687988
897.919983,160.063995,-390.399994
894.015991,165.919998,-388.447998
888.159973,175.679993,-386.496002
892.064026,177.632004,-390.399994
886.208008,169.824005,-388.447998
892.064026,154.207993,-384.544006
899.872009,136.639999,-386.496002
901.823975,132.735992,-378.687988
911.583984,150.304001,-392.351990
929.151978,156.160004,-396.256012
921.343994,173.727997,-398.208008
917.440002,177.632004,-390.399994
915.487976,171.776001,-382.592010
905.728027,152.255997,-374.783997
899.872009,148.352005,-388.447998
892.064026,167.871994,-409.920013
888.159973,187.391998,-417.727997
882.304016,185.440002,-411.872009
884.255981,201.056000,-423.584015
880.351990,197.151993,-445.056000
876.447998,210.815994,-437.247986
870.591980,187.391998,-450.911987
880.351990,165.919998,-447.007996
888.159973,152.255997,-445.056000
884.255981,181.535995,-443.104004
892.064026,197.151993,-445.056000
888.159973,204.960007,-439.200012
903.776001,181.535995,-433.343994
892.064026,193.248001,-421.631989
899.872009,201.056000,-437.247986
876.447998,244.000000,-472.384003
864.736023,277.183990,-474.335999
872.544006,271.328003,-458.720001
882.304016,234.240005,-450.911987
899.872009,214.720001,-454.816010
