ACC_X,ACC_Y,ACC_Z
714.432007,495.808014,499.712006
726.143982,501.664001,499.712006
735.903992,505.567993,503.615997
730.047974,509.471985,491.903992
728.096008,507.519989,509.471985
726.143982,509.471985,501.664001
730.047974,513.375977,499.712006
733.952026,505.567993,507.519989
730.047974,499.712006,495.808014
732.000000,499.712006,499.712006
735.903992,509.471985,499.712006
733.952026,507.519989,507.519989
737.856018,515.328003,499.712006
743.711975,515.328003,499.712006
730.047974,513.375977,495.808014
735.903992,517.280029,495.808014
735.903992,517.280029,503.615997
737.856018,515.328003,497.760010
745.664001,521.184021,499.712006
732.000000,523.135986,497.760010
737.856018,517.280029,501.664001
741.760010,517.280029,499.712006
743.711975,521.184021,499.712006
735.903992,521.184021,505.567993
741.760010,521.184021,501.664001
747.616028,521.184021,495.808014
751.520020,521.184021,495.808014
749.567993,519.231995,503.615997
753.471985,519.231995,499.712006
755.424011,515.328003,493.855988
759.328003,517.280029,497.760010
757.375977,521.184021,505.567993
761.280029,517.280029,503.615997
757.375977,517.280029,491.903992
757.375977,511.424011,501.664001
765.184021,517.280029,501.664001
765.184021,511.424011,501.664001
771.039978,507.519989,509.471985
763.231995,519.231995,497.760010
774.943970,515.328003,495.808014
772.992004,513.375977,499.712006
776.895996,517.280029,488.000000
772.992004,521.184021,501.664001
778.848022,511.424011,493.855988
769.088013,523.135986,499.712006
776.895996,519.231995,503.615997
782.752014,523.135986,503.615997
784.703979,527.039978,503.615997
780.799988,523.135986,509.471985
782.752014,525.088013,495.808014
790.559998,519.231995,495.808014
784.703979,525.088013,505.567993
790.559998,528.992004,497.760010
786.656006,530.943970,503.615997
788.607971,527.039978,501.664001
798.367981,527.039978,505.567993
780.799988,523.135986,501.664001
782.752014,523.135986,491.903992
778.848022,532.895996,495.808014
786.656006,523.135986,495.808014
780.799988,528.992004,503.615997
778.848022,532.895996,495.808014
786.656006,532.895996,495.808014
782.752014,527.039978,491.903992
778.848022,525.088013,489.951996
776.895996,523.135986,495.808014
772.992004,521.184021,489.951996
769.088013,521.184021,493.855988
774.943970,515.328003,493.855988
769.088013,515.328003,493.855988
774.943970,519.231995,484.096008
782.752014,521.184021,491.903992
776.895996,507.519989,488.000000
782.752014,521.184021,491.903992
778.848022,519.231995,484.096008
776.895996,517.280029,488.000000
782.752014,521.184021,493.855988
776.895996,527.039978,497.760010
776.895996,527.039978,497.760010
780.799988,521.184021,511.424011
778.848022,519.231995,501.664001
788.607971,517.280029,491.903992
784.703979,517.280029,499.712006
788.607971,517.280029,501.664001
790.559998,519.231995,501.664001
790.559998,525.088013,497.760010
798.367981,509.471985,495.808014
794.463989,503.615997,495.808014
782.752014,507.519989,493.855988
790.559998,521.184021,493.855988
794.463989,507.519989,489.951996
790.559998,507.519989,489.951996
790.559998,495.808014,488.000000
786.656006,507.519989,491.903992
778.848022,511.424011,497.760010
790.559998,511.424011,484.096008
786.656006,521.184021,488.000000
776.895996,528.992004,491.903992
786.656006,523.135986,489.951996
782.752014,523.135986,491.903992
782.752014,528.992004,491.903992
774.943970,532.895996,499.712006
772.992004,527.039978,497.760010
772.992004,530.943970,507.519989
778.848022,532.895996,497.760010
778.848022,527.039978,497.760010
776.895996,523.135986,501.664001
771.039978,521.184021,497.760010
776.895996,528.992004,501.664001
780.799988,527.039978,501.664001
772.992004,521.184021,495.808014
776.895996,521.184021,495.808014
774.943970,527.039978,491.903992
772.992004,528.992004,488.000000
771.039978,530.943970,491.903992
769.088013,534.848022,493.855988
763.231995,536.799988,488.000000
767.135986,538.752014,491.903992
767.135986,548.512024,491.903992
774.943970,544.607971,493.855988
767.135986,546.559998,495.808014
769.088013,548.512024,491.903992
761.280029,540.703979,497.760010
765.184021,550.463989,505.567993
763.231995,560.223999,499.712006
767.135986,548.512024,495.808014
767.135986,550.463989,495.808014
772.992004,560.223999,491.903992
765.184021,564.127991,495.808014
763.231995,554.367981,499.712006
767.135986,552.416016,501.664001
763.231995,562.176025,495.808014
761.280029,550.463989,489.951996
757.375977,558.271973,486.048004
757.375977,564.127991,486.048004
757.375977,564.127991,488.000000
763.231995,566.080017,489.951996
767.135986,558.271973,486.048004
761.280029,560.223999,480.191986
765.184021,560.223999,480.191986
761.280029,554.367981,476.287994
761.280029,560.223999,476.287994
767.135986,552.416016,480.191986
765.184021,554.367981,488.000000
772.992004,552.416016,495.808014
765.184021,546.559998,491.903992
765.184021,550.463989,495.808014
774.943970,546.559998,499.712006
771.039978,552.416016,497.760010
765.184021,552.416016,497.760010
774.943970,546.559998,493.855988
772.992004,542.656006,489.951996
778.848022,542.656006,495.808014
778.848022,534.848022,493.855988
778.848022,546.559998,488.000000
776.895996,560.223999,484.096008
769.088013,542.656006,484.096008
772.992004,540.703979,474.335999
771.039978,540.703979,468.480011
765.184021,542.656006,470.432007
769.088013,544.607971,476.287994
778.848022,542.656006,474.335999
774.943970,546.559998,468.480011
765.184021,538.752014,478.239990
776.895996,530.943970,476.287994
774.943970,540.703979,474.335999
774.943970,536.799988,474.335999
765.184021,536.799988,476.287994
767.135986,546.559998,476.287994
769.088013,550.463989,484.096008
769.088013,552.416016,480.191986
767.135986,554.367981,480.191986
769.088013,556.320007,476.287994
771.039978,548.512024,482.144012
767.135986,560.223999,480.191986
765.184021,568.031982,476.287994
769.088013,556.320007,474.335999
771.039978,566.080017,472.384003
769.088013,571.935974,468.480011
765.184021,571.935974,478.239990
782.752014,562.176025,470.432007
767.135986,575.840027,476.287994
767.135986,571.935974,472.384003
774.943970,575.840027,468.480011
774.943970,575.840027,464.575989
771.039978,571.935974,476.287994
772.992004,575.840027,476.287994
769.088013,581.695984,480.191986
772.992004,573.888000,476.287994
782.752014,579.744019,476.287994
776.895996,579.744019,474.335999
782.752014,573.888000,486.048004
776.895996,587.552002,472.384003
778.848022,581.695984,480.191986
776.895996,573.888000,476.287994
765.184021,581.695984,464.575989
765.184021,579.744019,476.287994
769.088013,587.552002,470.432007
774.943970,589.504028,470.432007
772.992004,583.648010,464.575989
778.848022,591.455994,458.720001
772.992004,593.408020,462.623993
786.656006,589.504028,456.768005
774.943970,581.695984,458.720001
772.992004,595.359985,460.671997
778.848022,589.504028,466.528015
776.895996,599.263977,458.720001
772.992004,595.359985,470.432007
774.943970,589.504028,470.432007
778.848022,591.455994,478.239990
776.895996,587.552002,466.528015
784.703979,589.504028,474.335999
780.799988,593.408020,472.384003
788.607971,595.359985,476.287994
790.559998,595.359985,484.096008
792.512024,591.455994,476.287994
788.607971,591.455994,482.144012
788.607971,597.312012,486.048004
790.559998,591.455994,480.191986
796.416016,605.119995,480.191986
796.416016,607.072021,478.239990
802.271973,605.119995,482.144012
800.320007,595.359985,480.191986
804.223999,599.263977,480.191986
825.695984,607.072021,482.144012
817.888000,616.831970,484.096008
821.791992,609.023987,484.096008
823.744019,610.976013,489.951996
833.504028,614.880005,491.903992
835.455994,599.263977,488.000000
845.216003,605.119995,501.664001
837.408020,626.591980,491.903992
839.359985,614.880005,501.664001
847.168030,626.591980,503.615997
847.168030,632.447998,509.471985
847.168030,636.351990,513.375977
845.216003,628.544006,511.424011
849.119995,622.687988,509.471985
843.263977,624.640015,509.471985
853.023987,628.544006,509.471985
831.552002,620.736023,525.088013
843.263977,624.640015,515.328003
831.552002,628.544006,519.231995
827.648010,626.591980,523.135986
827.648010,612.927979,519.231995
825.695984,612.927979,523.135986
825.695984,624.640015,517.280029
819.840027,618.783997,517.280029
806.176025,610.976013,509.471985
804.223999,612.927979,511.424011
800.320007,620.736023,511.424011
806.176025,601.216003,505.567993
804.223999,605.119995,511.424011
804.223999,599.263977,507.519989
813.984009,599.263977,507.519989
806.176025,601.216003,525.088013
819.840027,595.359985,544.607971
808.127991,593.408020,562.176025
812.031982,599.263977,581.695984
810.080017,605.119995,612.927979
812.031982,599.263977,614.880005
817.888000,601.216003,609.023987
804.223999,591.455994,610.976013
813.984009,569.984009,601.216003
806.176025,575.840027,581.695984
800.320007,564.127991,562.176025
790.559998,552.416016,552.416016
794.463989,546.559998,544.607971
778.848022,544.607971,530.943970
774.943970,536.799988,546.559998
747.616028,519.231995,581.695984
732.000000,513.375977,605.119995
751.520020,489.951996,638.304016
786.656006,458.720001,651.968018
829.599976,443.104004,667.583984
864.736023,435.295990,683.200012
876.447998,427.488007,681.247986
854.976013,447.007996,675.392029
819.840027,474.335999,655.872009
788.607971,495.808014,648.064026
771.039978,532.895996,634.400024
755.424011,538.752014,620.736023
757.375977,550.463989,616.831970
757.375977,560.223999,599.263977
769.088013,552.416016,595.359985
774.943970,534.848022,587.552002
790.559998,523.135986,587.552002
784.703979,505.567993,569.984009
774.943970,489.951996,564.127991
772.992004,482.144012,554.367981
765.184021,458.720001,556.320007
757.375977,452.864014,544.607971
749.567993,445.056000,550.463989
749.567993,425.536011,542.656006
743.711975,423.584015,552.416016
743.711975,413.824005,556.320007
741.760010,400.160004,560.223999
751.520020,392.351990,568.031982
757.375977,400.160004,569.984009
765.184021,390.399994,579.744019
757.375977,398.208008,569.984009
755.424011,404.063995,579.744019
751.520020,411.872009,571.935974
753.471985,415.776001,566.080017
751.520020,429.440002,571.935974
737.856018,443.104004,564.127991
730.047974,431.391998,579.744019
737.856018,431.391998,571.935974
735.903992,433.343994,579.744019
739.807983,423.584015,581.695984
737.856018,413.824005,593.408020
741.760010,411.872009,612.927979
747.616028,386.496002,614.880005
753.471985,363.071991,618.783997
759.328003,368.928009,626.591980
765.184021,363.071991,632.447998
745.664001,341.600006,632.447998
733.952026,339.648010,622.687988
733.952026,345.503998,614.880005
726.143982,335.743988,601.216003
718.335999,357.216003,595.359985
708.575989,351.359985,573.888000
702.719971,349.407990,552.416016
706.624023,355.264008,548.512024
708.575989,363.071991,523.135986
704.671997,357.216003,517.280029
706.624023,351.359985,495.808014
702.719971,372.832001,489.951996
700.768005,374.783997,476.287994
675.392029,363.071991,472.384003
677.343994,365.023987,472.384003
681.247986,378.687988,468.480011
667.583984,370.880005,474.335999
659.776001,368.928009,462.623993
659.776001,368.928009,462.623993
650.015991,361.119995,450.911987
644.159973,357.216003,460.671997
650.015991,357.216003,454.816010
646.112000,355.264008,454.816010
657.823975,335.743988,458.720001
642.208008,327.936005,454.816010
657.823975,329.888000,448.959991
648.064026,341.600006,448.959991
636.351990,347.455994,456.768005
622.687988,329.888000,454.816010
616.831970,345.503998,458.720001
605.119995,341.600006,450.911987
599.263977,368.928009,456.768005
597.312012,372.832001,456.768005
593.408020,359.167999,456.768005
599.263977,374.783997,462.623993
595.359985,378.687988,452.864014
601.216003,380.640015,472.384003
607.072021,374.783997,462.623993
607.072021,372.832001,464.575989
607.072021,372.832001,464.575989
609.023987,372.832001,456.768005
607.072021,372.832001,464.575989
595.359985,374.783997,468.480011
589.504028,370.880005,466.528015
585.599976,378.687988,470.432007
577.791992,374.783997,464.575989
589.504028,376.735992,470.432007
591.455994,372.832001,470.432007
603.168030,366.976013,464.575989
597.312012,365.023987,472.384003
601.216003,359.167999,474.335999
614.880005,361.119995,482.144012
607.072021,357.216003,484.096008
614.880005,351.359985,488.000000
614.880005,353.312012,489.951996
614.880005,366.976013,489.951996
609.023987,378.687988,489.951996
622.687988,390.399994,488.000000
614.880005,390.399994,489.951996
624.640015,402.112000,489.951996
618.783997,419.679993,493.855988
628.544006,413.824005,489.951996
616.831970,409.920013,497.760010
616.831970,407.967987,495.808014
616.831970,435.295990,501.664001
620.736023,421.631989,491.903992
626.591980,398.208008,493.855988
622.687988,404.063995,493.855988
634.400024,398.208008,488.000000
634.400024,372.832001,493.855988
640.255981,374.783997,499.712006
630.495972,374.783997,493.855988
642.208008,355.264008,458.720001
665.632019,343.552002,419.679993
667.583984,318.175995,407.967987
640.255981,324.032013,400.160004
628.544006,388.447998,407.967987
599.263977,392.351990,425.536011
603.168030,366.976013,443.104004
593.408020,390.399994,447.007996
607.072021,431.391998,462.623993
616.831970,413.824005,460.671997
634.400024,392.351990,466.528015
650.015991,400.160004,486.048004
655.872009,406.015991,497.760010
665.632019,406.015991,536.799988
679.296021,396.256012,564.127991
689.056030,392.351990,577.791992
669.536011,392.351990,595.359985
673.440002,374.783997,605.119995
706.624023,224.479996,614.880005
708.575989,76.127998,616.831970
722.239990,64.416000,624.640015
706.624023,72.223999,618.783997
708.575989,93.695999,628.544006
696.864014,103.456001,628.544006
696.864014,99.552002,650.015991
700.768005,83.935997,650.015991
728.096008,44.896000,653.919983
733.952026,7.808000,653.919983
728.096008,-13.664000,665.632019
739.807983,-29.280001,665.632019
753.471985,-37.088001,663.679993
765.184021,-76.127998,651.968018
790.559998,-103.456001,648.064026
798.367981,-124.928001,659.776001
815.935974,-175.679993,659.776001
833.504028,-247.904007,689.056030
870.591980,-378.687988,692.960022
868.640015,-488.000000,698.815979
911.583984,-583.648010,714.432007
903.776001,-653.919983,724.192017
728.096008,-222.528000,767.135986
671.487976,618.783997,835.455994
716.383972,774.943970,851.072021
585.599976,692.960022,812.031982
659.776001,925.247986,837.408020
651.968018,1106.784058,884.255981
732.000000,1141.920044,894.015991
712.479980,1022.848022,868.640015
423.584015,1659.199951,853.023987
530.943970,3704.895996,819.840027
964.288025,2307.263916,841.312012
817.888000,-607.072021,825.695984
919.392029,-1003.328003,804.223999
823.744019,952.575989,759.328003
810.080017,1725.567993,733.952026
769.088013,394.303986,728.096008
728.096008,-495.808014,696.864014
710.528015,333.791992,638.304016
733.952026,1102.880005,616.831970
691.007996,724.192017,628.544006
739.807983,95.648003,644.159973
714.432007,85.888000,644.159973
669.536011,546.559998,626.591980
698.815979,735.903992,616.831970
714.432007,445.056000,626.591980
724.192017,189.343994,634.400024
698.815979,312.320007,640.255981
689.056030,544.607971,644.159973
683.200012,548.512024,630.495972
677.343994,357.216003,642.208008
675.392029,263.519989,650.015991
673.440002,378.687988,648.064026
667.583984,482.144012,651.968018
653.919983,433.343994,642.208008
661.728027,325.984009,648.064026
661.728027,302.559998,644.159973
646.112000,374.783997,626.591980
638.304016,421.631989,607.072021
644.159973,407.967987,616.831970
642.208008,343.552002,632.447998
620.736023,312.320007,651.968018
603.168030,355.264008,671.487976
587.552002,378.687988,687.104004
569.984009,359.167999,694.911987
571.935974,347.455994,702.719971
562.176025,345.503998,694.911987
568.031982,361.119995,685.151978
577.791992,372.832001,683.200012
560.223999,349.407990,675.392029
552.416016,327.936005,679.296021
564.127991,324.032013,671.487976
556.320007,349.407990,667.583984
560.223999,347.455994,653.919983
564.127991,337.696014,640.255981
558.271973,331.839996,640.255981
546.559998,331.839996,634.400024
546.559998,329.888000,616.831970
552.416016,329.888000,599.263977
546.559998,331.839996,587.552002
546.559998,339.648010,587.552002
554.367981,353.312012,585.599976
542.656006,368.928009,581.695984
564.127991,363.071991,595.359985
544.607971,351.359985,599.263977
527.039978,357.216003,601.216003
530.943970,380.640015,597.312012
528.992004,390.399994,581.695984
527.039978,376.735992,564.127991
530.943970,396.256012,562.176025
536.799988,396.256012,562.176025
528.992004,400.160004,575.840027
523.135986,388.447998,568.031982
523.135986,370.880005,566.080017
509.471985,390.399994,566.080017
517.280029,382.592010,566.080017
521.184021,388.447998,571.935974
505.567993,376.735992,573.888000
505.567993,359.167999,579.744019
495.808014,363.071991,575.840027
491.903992,357.216003,564.127991
505.567993,355.264008,562.176025
501.664001,365.023987,554.367981
488.000000,357.216003,558.271973
497.760010,353.312012,542.656006
495.808014,361.119995,548.512024
488.000000,359.167999,556.320007
488.000000,355.264008,558.271973
486.048004,339.648010,550.463989
476.287994,347.455994,548.512024
482.144012,359.167999,542.656006
472.384003,351.359985,519.231995
489.951996,363.071991,528.992004
480.191986,357.216003,515.328003
482.144012,351.359985,509.471985
482.144012,353.312012,513.375977
476.287994,347.455994,519.231995
480.191986,355.264008,523.135986
476.287994,353.312012,530.943970
472.384003,347.455994,534.848022
466.528015,343.552002,534.848022
456.768005,351.359985,530.943970
464.575989,325.984009,528.992004
464.575989,353.312012,528.992004
466.528015,374.783997,521.184021
445.056000,382.592010,523.135986
450.911987,400.160004,519.231995
450.911987,407.967987,513.375977
452.864014,394.303986,519.231995
460.671997,378.687988,511.424011
466.528015,368.928009,515.328003
466.528015,363.071991,503.615997
458.720001,363.071991,511.424011
458.720001,357.216003,499.712006
452.864014,365.023987,495.808014
460.671997,361.119995,486.048004
468.480011,376.735992,486.048004
476.287994,392.351990,470.432007
474.335999,392.351990,460.671997
472.384003,406.015991,468.480011
480.191986,382.592010,497.760010
482.144012,324.032013,525.088013
470.432007,284.992004,513.375977
488.000000,304.511993,505.567993
505.567993,316.223999,499.712006
519.231995,318.175995,499.712006
550.463989,329.888000,501.664001
550.463989,345.503998,505.567993
569.984009,345.503998,497.760010
566.080017,335.743988,497.760010
560.223999,347.455994,484.096008
571.935974,374.783997,474.335999
556.320007,396.256012,462.623993
546.559998,425.536011,448.959991
534.848022,452.864014,441.152008
540.703979,394.303986,421.631989
638.304016,-21.472000,372.832001
706.624023,-361.119995,357.216003
597.312012,-70.272003,394.303986
464.575989,862.783997,470.432007
337.696014,2076.927979,474.335999
630.495972,1249.280029,429.440002
564.127991,-183.488007,417.727997
659.776001,-815.935974,363.071991
653.919983,115.167999,271.328003
636.351990,1245.375977,160.063995
819.840027,1081.407959,136.639999
726.143982,569.984009,257.664001
583.648010,203.007996,435.295990
538.752014,126.879997,536.799988
409.920013,279.135986,562.176025
452.864014,251.807999,474.335999
515.328003,242.048004,355.264008
509.471985,431.391998,357.216003
550.463989,509.471985,411.872009
525.088013,421.631989,452.864014
501.664001,345.503998,448.959991
503.615997,343.552002,421.631989
513.375977,376.735992,406.015991
525.088013,359.167999,386.496002
521.184021,355.264008,423.584015
534.848022,374.783997,437.247986
538.752014,390.399994,425.536011
536.799988,368.928009,417.727997
532.895996,363.071991,406.015991
525.088013,374.783997,429.440002
536.799988,370.880005,454.816010
552.416016,365.023987,460.671997
538.752014,398.208008,454.816010
542.656006,390.399994,448.959991
536.799988,380.640015,470.432007
538.752014,376.735992,488.000000
544.607971,392.351990,493.855988
538.752014,396.256012,499.712006
554.367981,398.208008,503.615997
560.223999,402.112000,515.328003
564.127991,407.967987,530.943970
560.223999,406.015991,552.416016
554.367981,402.112000,554.367981
566.080017,406.015991,568.031982
560.223999,415.776001,581.695984
571.935974,413.824005,587.552002
571.935974,409.920013,603.168030
571.935974,417.727997,616.831970
577.791992,413.824005,634.400024
573.888000,411.872009,650.015991
593.408020,413.824005,648.064026
583.648010,419.679993,644.159973
585.599976,427.488007,659.776001
585.599976,423.584015,671.487976
581.695984,425.536011,679.296021
595.359985,427.488007,685.151978
589.504028,439.200012,683.200012
585.599976,441.152008,689.056030
581.695984,450.911987,683.200012
569.984009,448.959991,685.151978
566.080017,447.007996,692.960022
571.935974,445.056000,681.247986
556.320007,450.911987,667.583984
556.320007,462.623993,659.776001
558.271973,441.152008,653.919983
556.320007,443.104004,632.447998
534.848022,454.816010,626.591980
530.943970,448.959991,605.119995
534.848022,439.200012,601.216003
532.895996,425.536011,587.552002
515.328003,423.584015,575.840027
513.375977,439.200012,568.031982
507.519989,431.391998,550.463989
507.519989,419.679993,544.607971
503.615997,433.343994,546.559998
505.567993,425.536011,552.416016
491.903992,411.872009,548.512024
488.000000,406.015991,542.656006
480.191986,411.872009,532.895996
476.287994,417.727997,532.895996
476.287994,411.872009,532.895996
478.239990,411.872009,530.943970
474.335999,406.015991,527.039978
482.144012,413.824005,523.135986
466.528015,419.679993,525.088013
478.239990,407.967987,528.992004
466.528015,407.967987,525.088013
478.239990,404.063995,527.039978
468.480011,406.015991,532.895996
470.432007,407.967987,523.135986
476.287994,398.208008,519.231995
474.335999,413.824005,523.135986
476.287994,413.824005,528.992004
476.287994,413.824005,528.992004
478.239990,409.920013,515.328003
476.287994,409.920013,525.088013
484.096008,425.536011,528.992004
499.712006,415.776001,530.943970
495.808014,415.776001,538.752014
503.615997,419.679993,550.463989
507.519989,417.727997,554.367981
521.184021,421.631989,573.888000
530.943970,413.824005,585.599976
534.848022,402.112000,597.312012
538.752014,411.872009,610.976013
548.512024,402.112000,634.400024
556.320007,400.160004,648.064026
568.031982,388.447998,663.679993
573.888000,378.687988,671.487976
587.552002,370.880005,677.343994
587.552002,366.976013,694.911987
587.552002,368.928009,708.575989
587.552002,368.928009,710.528015
589.504028,372.832001,708.575989
589.504028,366.976013,708.575989
583.648010,380.640015,694.911987
579.744019,388.447998,683.200012
579.744019,394.303986,671.487976
579.744019,398.208008,661.728027
569.984009,402.112000,655.872009
569.984009,404.063995,636.351990
564.127991,407.967987,648.064026
569.984009,392.351990,626.591980
571.935974,388.447998,620.736023
569.984009,384.544006,616.831970
564.127991,366.976013,618.783997
562.176025,359.167999,626.591980
556.320007,357.216003,622.687988
554.367981,349.407990,630.495972
550.463989,335.743988,626.591980
560.223999,339.648010,624.640015
558.271973,325.984009,630.495972
556.320007,320.127991,618.783997
550.463989,327.936005,626.591980
554.367981,327.936005,626.591980
554.367981,333.791992,626.591980
548.512024,339.648010,614.880005
550.463989,351.359985,610.976013
544.607971,357.216003,610.976013
546.559998,357.216003,601.216003
548.512024,359.167999,607.072021
536.799988,376.735992,601.216003
546.559998,361.119995,601.216003
540.703979,376.735992,607.072021
536.799988,374.783997,603.168030
538.752014,370.880005,603.168030
528.992004,366.976013,605.119995
536.799988,357.216003,618.783997
527.039978,355.264008,612.927979
544.607971,347.455994,620.736023
530.943970,347.455994,618.783997
536.799988,333.791992,601.216003
536.799988,343.552002,603.168030
534.848022,345.503998,609.023987
548.512024,345.503998,612.927979
532.895996,343.552002,605.119995
530.943970,347.455994,601.216003
523.135986,357.216003,601.216003
525.088013,359.167999,599.263977
528.992004,355.264008,599.263977
525.088013,368.928009,577.791992
527.039978,365.023987,591.455994
523.135986,368.928009,573.888000
525.088013,359.167999,589.504028
530.943970,363.071991,583.648010
527.039978,357.216003,587.552002
544.607971,347.455994,599.263977
536.799988,353.312012,595.359985
528.992004,343.552002,607.072021
527.039978,327.936005,595.359985
536.799988,341.600006,601.216003
540.703979,337.696014,595.359985
556.320007,341.600006,607.072021
542.656006,324.032013,601.216003
552.416016,325.984009,607.072021
554.367981,335.743988,616.831970
554.367981,333.791992,609.023987
562.176025,333.791992,612.927979
558.271973,331.839996,605.119995
556.320007,349.407990,620.736023
544.607971,339.648010,609.023987
566.080017,335.743988,605.119995
564.127991,355.264008,610.976013
579.744019,353.312012,605.119995
560.223999,345.503998,610.976013
589.504028,333.791992,610.976013
569.984009,345.503998,612.927979
564.127991,339.648010,616.831970
579.744019,320.127991,614.880005
573.888000,329.888000,616.831970
575.840027,335.743988,618.783997
587.552002,314.272003,612.927979
585.599976,316.223999,610.976013
591.455994,329.888000,614.880005
589.504028,325.984009,618.783997
597.312012,302.559998,616.831970
599.263977,306.463989,614.880005
605.119995,308.415985,618.783997
585.599976,320.127991,605.119995
607.072021,314.272003,610.976013
618.783997,322.079987,618.783997
610.976013,318.175995,616.831970
614.880005,322.079987,616.831970
610.976013,329.888000,612.927979
610.976013,314.272003,612.927979
626.591980,314.272003,618.783997
634.400024,312.320007,618.783997
626.591980,320.127991,610.976013
620.736023,324.032013,618.783997
618.783997,322.079987,618.783997
624.640015,316.223999,626.591980
609.023987,314.272003,628.544006
614.880005,320.127991,618.783997
624.640015,302.559998,601.216003
626.591980,284.992004,622.687988
640.255981,310.368011,618.783997
624.640015,310.368011,620.736023
659.776001,306.463989,620.736023
671.487976,308.415985,618.783997
655.872009,312.320007,614.880005
626.591980,312.320007,628.544006
724.192017,294.752014,630.495972
650.015991,329.888000,626.591980
687.104004,368.928009,630.495972
644.159973,324.032013,646.112000
669.536011,335.743988,640.255981
687.104004,361.119995,650.015991
685.151978,345.503998,630.495972
692.960022,333.791992,628.544006
692.960022,337.696014,640.255981
691.007996,361.119995,653.919983
689.056030,322.079987,644.159973
687.104004,314.272003,632.447998
702.719971,353.312012,642.208008
704.671997,347.455994,642.208008
702.719971,298.656006,636.351990
700.768005,306.463989,644.159973
702.719971,329.888000,636.351990
691.007996,325.984009,636.351990
716.383972,316.223999,653.919983
691.007996,327.936005,640.255981
724.192017,339.648010,632.447998
702.719971,333.791992,632.447998
732.000000,341.600006,620.736023
694.911987,359.167999,630.495972
722.239990,365.023987,632.447998
710.528015,347.455994,638.304016
718.335999,363.071991,620.736023
712.479980,378.687988,642.208008
708.575989,357.216003,650.015991
702.719971,345.503998,653.919983
712.479980,366.976013,653.919983
708.575989,376.735992,642.208008
702.719971,353.312012,634.400024
710.528015,357.216003,644.159973
704.671997,357.216003,650.015991
691.007996,347.455994,634.400024
698.815979,343.552002,624.640015
698.815979,349.407990,634.400024
726.143982,333.791992,630.495972
696.864014,327.936005,632.447998
722.239990,335.743988,634.400024
712.479980,331.839996,628.544006
712.479980,331.839996,632.447998
698.815979,357.216003,634.400024
710.528015,347.455994,624.640015
698.815979,357.216003,622.687988
700.768005,374.783997,620.736023
704.671997,374.783997,616.831970
700.768005,365.023987,622.687988
694.911987,376.735992,618.783997
689.056030,392.351990,624.640015
698.815979,380.640015,616.831970
700.768005,372.832001,624.640015
702.719971,376.735992,616.831970
700.768005,386.496002,616.831970
702.719971,376.735992,622.687988
702.719971,363.071991,622.687988
692.960022,384.544006,622.687988
702.719971,386.496002,616.831970
696.864014,372.832001,612.927979
710.528015,357.216003,605.119995
698.815979,365.023987,614.880005
720.288025,366.976013,622.687988
692.960022,363.071991,618.783997
710.528015,378.687988,618.783997
706.624023,370.880005,612.927979
706.624023,366.976013,605.119995
708.575989,372.832001,616.831970
704.671997,374.783997,624.640015
702.719971,380.640015,605.119995
696.864014,388.447998,607.072021
696.864014,394.303986,616.831970
708.575989,386.496002,605.119995
704.671997,392.351990,616.831970
700.768005,386.496002,614.880005
683.200012,396.256012,616.831970
708.575989,380.640015,612.927979
700.768005,380.640015,614.880005
700.768005,388.447998,605.119995
706.624023,374.783997,607.072021
710.528015,368.928009,620.736023
702.719971,359.167999,609.023987
698.815979,378.687988,607.072021
696.864014,372.832001,612.927979
718.335999,353.312012,616.831970
708.575989,368.928009,609.023987
704.671997,376.735992,609.023987
679.296021,363.071991,614.880005
689.056030,351.359985,616.831970
692.960022,366.976013,612.927979
691.007996,378.687988,607.072021
708.575989,359.167999,603.168030
710.528015,355.264008,601.216003
704.671997,363.071991,603.168030
720.288025,361.119995,599.263977
710.528015,349.407990,601.216003
708.575989,355.264008,597.312012
702.719971,365.023987,585.599976
698.815979,359.167999,603.168030
691.007996,349.407990,601.216003
700.768005,343.552002,593.408020
704.671997,357.216003,597.312012
710.528015,353.312012,607.072021
710.528015,345.503998,601.216003
714.432007,343.552002,603.168030
718.335999,339.648010,607.072021
724.192017,343.552002,597.312012
720.288025,347.455994,593.408020
714.432007,345.503998,603.168030
722.239990,337.696014,599.263977
724.192017,341.600006,612.927979
718.335999,339.648010,601.216003
720.288025,349.407990,607.072021
728.096008,353.312012,609.023987
724.192017,343.552002,607.072021
730.047974,357.216003,595.359985
732.000000,359.167999,605.119995
726.143982,347.455994,601.216003
722.239990,339.648010,597.312012
730.047974,349.407990,593.408020
726.143982,345.503998,605.119995
735.903992,343.552002,597.312012
737.856018,325.984009,593.408020
730.047974,353.312012,585.599976
737.856018,345.503998,591.455994
728.096008,341.600006,595.359985
718.335999,349.407990,585.599976
728.096008,341.600006,585.599976
732.000000,341.600006,591.455994
743.711975,343.552002,585.599976
747.616028,349.407990,579.744019
743.711975,357.216003,579.744019
747.616028,349.407990,577.791992
733.952026,357.216003,568.031982
745.664001,363.071991,571.935974
741.760010,351.359985,573.888000
739.807983,365.023987,571.935974
747.616028,374.783997,575.840027
751.520020,357.216003,569.984009
741.760010,355.264008,569.984009
745.664001,363.071991,569.984009
745.664001,357.216003,569.984009
749.567993,366.976013,564.127991
751.520020,357.216003,579.744019
751.520020,357.216003,575.840027
765.184021,363.071991,569.984009
757.375977,355.264008,566.080017
763.231995,347.455994,564.127991
772.992004,357.216003,573.888000
757.375977,374.783997,577.791992
763.231995,359.167999,575.840027
765.184021,351.359985,571.935974
767.135986,372.832001,566.080017
769.088013,378.687988,568.031982
769.088013,370.880005,569.984009
769.088013,359.167999,558.271973
769.088013,372.832001,568.031982
767.135986,374.783997,564.127991
761.280029,363.071991,556.320007
772.992004,361.119995,569.984009
778.848022,374.783997,566.080017
772.992004,372.832001,558.271973
772.992004,366.976013,558.271973
778.848022,365.023987,558.271973
784.703979,372.832001,558.271973
782.752014,370.880005,564.127991
776.895996,366.976013,558.271973
782.752014,363.071991,568.031982
774.943970,361.119995,562.176025
792.512024,365.023987,562.176025
788.607971,365.023987,568.031982
788.607971,365.023987,569.984009
788.607971,376.735992,569.984009
786.656006,372.832001,566.080017
788.607971,365.023987,564.127991
790.559998,384.544006,575.840027
782.752014,366.976013,571.935974
784.703979,363.071991,568.031982
792.512024,368.928009,568.031982
788.607971,361.119995,554.367981
790.559998,380.640015,562.176025
798.367981,370.880005,566.080017
798.367981,363.071991,564.127991
794.463989,361.119995,564.127991
792.512024,366.976013,569.984009
804.223999,370.880005,562.176025
806.176025,365.023987,566.080017
802.271973,365.023987,560.223999
798.367981,372.832001,566.080017
794.463989,368.928009,564.127991
800.320007,359.167999,556.320007
804.223999,372.832001,558.271973
800.320007,376.735992,558.271973
802.271973,368.928009,556.320007
804.223999,357.216003,550.463989
796.416016,361.119995,556.320007
806.176025,368.928009,546.559998
800.320007,359.167999,556.320007
800.320007,370.880005,552.416016
806.176025,374.783997,552.416016
810.080017,380.640015,538.752014
796.416016,376.735992,554.367981
804.223999,376.735992,558.271973
802.271973,368.928009,556.320007
800.320007,372.832001,546.559998
796.416016,374.783997,548.512024
802.271973,359.167999,542.656006
804.223999,361.119995,538.752014
806.176025,372.832001,554.367981
806.176025,363.071991,552.416016
808.127991,365.023987,554.367981
810.080017,370.880005,554.367981
800.320007,374.783997,542.656006
813.984009,363.071991,542.656006
808.127991,363.071991,544.607971
806.176025,359.167999,550.463989
810.080017,368.928009,544.607971
806.176025,372.832001,540.703979
810.080017,376.735992,544.607971
812.031982,368.928009,538.752014
817.888000,361.119995,540.703979
817.888000,359.167999,548.512024
813.984009,361.119995,542.656006
808.127991,372.832001,546.559998
810.080017,365.023987,534.848022
806.176025,365.023987,538.752014
815.935974,359.167999,536.799988
815.935974,351.359985,534.848022
813.984009,361.119995,530.943970
812.031982,357.216003,536.799988
810.080017,363.071991,532.895996
819.840027,355.264008,523.135986
815.935974,361.119995,528.992004
817.888000,359.167999,528.992004
817.888000,363.071991,528.992004
821.791992,366.976013,527.039978
813.984009,372.832001,528.992004
821.791992,374.783997,528.992004
813.984009,363.071991,536.799988
815.935974,374.783997,525.088013
815.935974,376.735992,527.039978
821.791992,368.928009,525.088013
815.935974,380.640015,536.799988
808.127991,368.928009,528.992004
815.935974,370.880005,527.039978
810.080017,382.592010,532.895996
817.888000,365.023987,527.039978
819.840027,380.640015,527.039978
813.984009,376.735992,523.135986
819.840027,380.640015,532.895996
815.935974,376.735992,528.992004
821.791992,374.783997,528.992004
819.840027,372.832001,528.992004
817.888000,378.687988,528.992004
819.840027,376.735992,525.088013
817.888000,378.687988,528.992004
821.791992,382.592010,515.328003
829.599976,386.496002,523.135986
819.840027,384.544006,523.135986
821.791992,378.687988,521.184021
815.935974,380.640015,519.231995
821.791992,378.687988,521.184021
817.888000,374.783997,513.375977
819.840027,370.880005,507.519989
817.888000,376.735992,507.519989
819.840027,378.687988,507.519989
815.935974,378.687988,503.615997
821.791992,384.544006,505.567993
827.648010,384.544006,509.471985
817.888000,374.783997,501.664001
817.888000,372.832001,507.519989
829.599976,380.640015,501.664001
821.791992,388.447998,501.664001
817.888000,374.783997,503.615997
817.888000,380.640015,503.615997
821.791992,374.783997,501.664001
821.791992,384.544006,509.471985
825.695984,386.496002,503.615997
821.791992,386.496002,509.471985
817.888000,386.496002,491.903992
827.648010,376.735992,501.664001
821.791992,390.399994,509.471985
821.791992,394.303986,505.567993
810.080017,388.447998,497.760010
821.791992,398.208008,493.855988
821.791992,398.208008,505.567993
815.935974,390.399994,503.615997
815.935974,396.256012,497.760010
821.791992,396.256012,503.615997
813.984009,394.303986,505.567993
813.984009,406.015991,493.855988
815.935974,396.256012,501.664001
815.935974,390.399994,509.471985
815.935974,396.256012,503.615997
823.744019,394.303986,497.760010
823.744019,392.351990,501.664001
829.599976,392.351990,495.808014
821.791992,392.351990,497.760010
817.888000,390.399994,501.664001
819.840027,390.399994,501.664001
819.840027,400.160004,491.903992
815.935974,398.208008,497.760010
825.695984,398.208008,493.855988
819.840027,396.256012,489.951996
815.935974,407.967987,499.712006
821.791992,400.160004,495.808014
817.888000,394.303986,495.808014
821.791992,400.160004,493.855988
819.840027,394.303986,497.760010
819.840027,398.208008,507.519989
817.888000,394.303986,495.808014
817.888000,392.351990,501.664001
819.840027,386.496002,493.855988
817.888000,388.447998,501.664001
817.888000,396.256012,488.000000
823.744019,400.160004,488.000000
817.888000,392.351990,491.903992
819.840027,400.160004,486.048004
815.935974,396.256012,478.239990
827.648010,390.399994,482.144012
823.744019,390.399994,480.191986
812.031982,404.063995,484.096008
819.840027,396.256012,474.335999
821.791992,394.303986,474.335999
823.744019,404.063995,480.191986
821.791992,409.920013,484.096008
829.599976,396.256012,486.048004
825.695984,396.256012,480.191986
821.791992,402.112000,476.287994
825.695984,398.208008,480.191986
831.552002,400.160004,480.191986
837.408020,400.160004,476.287994
827.648010,406.015991,480.191986
831.552002,392.351990,478.239990
833.504028,400.160004,476.287994
829.599976,398.208008,470.432007
827.648010,388.447998,478.239990
835.455994,388.447998,472.384003
833.504028,390.399994,472.384003
835.455994,392.351990,474.335999
841.312012,388.447998,468.480011
845.216003,388.447998,472.384003
847.168030,384.544006,478.239990
849.119995,382.592010,470.432007
845.216003,386.496002,476.287994
853.023987,384.544006,478.239990
847.168030,386.496002,486.048004
847.168030,392.351990,476.287994
856.927979,404.063995,486.048004
854.976013,392.351990,484.096008
854.976013,386.496002,482.144012
853.023987,390.399994,484.096008
858.880005,390.399994,489.951996
864.736023,378.687988,489.951996
862.783997,386.496002,493.855988
860.831970,396.256012,486.048004
862.783997,382.592010,493.855988
862.783997,384.544006,495.808014
862.783997,378.687988,505.567993
872.544006,376.735992,503.615997
868.640015,372.832001,501.664001
866.687988,370.880005,501.664001
866.687988,366.976013,503.615997
874.495972,370.880005,507.519989
876.447998,365.023987,497.760010
876.447998,372.832001,505.567993
878.400024,368.928009,501.664001
886.208008,365.023987,507.519989
880.351990,370.880005,507.519989
880.351990,368.928009,509.471985
882.304016,378.687988,517.280029
882.304016,368.928009,521.184021
880.351990,366.976013,517.280029
878.400024,357.216003,507.519989
895.968018,361.119995,519.231995
890.112000,370.880005,517.280029
888.159973,355.264008,521.184021
895.968018,357.216003,519.231995
882.304016,366.976013,525.088013
892.064026,359.167999,525.088013
895.968018,347.455994,527.039978
892.064026,361.119995,530.943970
894.015991,365.023987,530.943970
901.823975,357.216003,528.992004
884.255981,341.600006,536.799988
894.015991,347.455994,538.752014
897.919983,357.216003,544.607971
901.823975,345.503998,546.559998
882.304016,345.503998,548.512024
897.919983,345.503998,532.895996
894.015991,345.503998,538.752014
890.112000,349.407990,530.943970
888.159973,343.552002,519.231995
884.255981,343.552002,525.088013
897.919983,345.503998,532.895996
886.208008,339.648010,519.231995
895.968018,337.696014,527.039978
884.255981,341.600006,527.039978
894.015991,347.455994,536.799988
890.112000,343.552002,530.943970
890.112000,341.600006,527.039978
890.112000,345.503998,528.992004
897.919983,341.600006,534.848022
884.255981,339.648010,536.799988
882.304016,337.696014,527.039978
888.159973,327.936005,540.703979
880.351990,329.888000,534.848022
878.400024,337.696014,530.943970
884.255981,331.839996,532.895996
874.495972,324.032013,523.135986
878.400024,339.648010,528.992004
884.255981,331.839996,527.039978
876.447998,331.839996,530.943970
864.736023,329.888000,517.280029
858.880005,339.648010,530.943970
856.927979,329.888000,523.135986
853.023987,331.839996,519.231995
860.831970,329.888000,507.519989
851.072021,333.791992,513.375977
864.736023,324.032013,513.375977
856.927979,322.079987,521.184021
849.119995,329.888000,515.328003
845.216003,329.888000,511.424011
845.216003,333.791992,501.664001
835.455994,324.032013,507.519989
831.552002,337.696014,513.375977
833.504028,324.032013,517.280029
841.312012,324.032013,517.280029
843.263977,320.127991,503.615997
833.504028,320.127991,505.567993
835.455994,322.079987,507.519989
845.216003,310.368011,493.855988
835.455994,316.223999,503.615997
837.408020,325.984009,499.712006
823.744019,320.127991,499.712006
823.744019,325.984009,499.712006
827.648010,320.127991,499.712006
817.888000,329.888000,495.808014
821.791992,312.320007,501.664001
819.840027,310.368011,497.760010
821.791992,320.127991,509.471985
821.791992,312.320007,505.567993
827.648010,308.415985,509.471985
815.935974,306.463989,505.567993
821.791992,304.511993,507.519989
817.888000,310.368011,503.615997
821.791992,298.656006,501.664001
817.888000,298.656006,499.712006
808.127991,298.656006,511.424011
815.935974,294.752014,509.471985
812.031982,292.799988,499.712006
812.031982,294.752014,505.567993
806.176025,288.895996,505.567993
806.176025,290.847992,497.760010
810.080017,283.040009,493.855988
808.127991,284.992004,505.567993
806.176025,294.752014,488.000000
802.271973,286.944000,488.000000
812.031982,283.040009,488.000000
808.127991,277.183990,489.951996
792.512024,277.183990,488.000000
802.271973,283.040009,491.903992
806.176025,281.088013,489.951996
808.127991,273.279999,491.903992
802.271973,275.231995,499.712006
804.223999,275.231995,491.903992
802.271973,269.376007,491.903992
796.416016,263.519989,488.000000
808.127991,265.471985,491.903992
794.463989,267.424011,488.000000
804.223999,263.519989,493.855988
794.463989,255.712006,489.951996
798.367981,261.567993,497.760010
798.367981,253.759995,495.808014
802.271973,249.856003,493.855988
798.367981,240.095993,486.048004
804.223999,240.095993,497.760010
794.463989,245.951996,488.000000
788.607971,238.143997,484.096008
796.416016,240.095993,489.951996
796.416016,242.048004,491.903992
800.320007,244.000000,486.048004
802.271973,244.000000,493.855988
804.223999,234.240005,489.951996
792.512024,240.095993,486.048004
790.559998,242.048004,488.000000
794.463989,232.287994,484.096008
796.416016,236.192001,489.951996
810.080017,244.000000,489.951996
804.223999,240.095993,499.712006
815.935974,218.623993,493.855988
802.271973,226.432007,486.048004
804.223999,224.479996,488.000000
812.031982,226.432007,493.855988
810.080017,216.671997,489.951996
810.080017,224.479996,488.000000
815.935974,216.671997,497.760010
808.127991,220.576004,501.664001
813.984009,220.576004,499.712006
815.935974,220.576004,501.664001
815.935974,218.623993,493.855988
823.744019,224.479996,495.808014
821.791992,218.623993,497.760010
827.648010,210.815994,501.664001
815.935974,212.768005,497.760010
823.744019,214.720001,499.712006
825.695984,212.768005,499.712006
823.744019,206.912003,488.000000
825.695984,216.671997,493.855988
831.552002,212.768005,503.615997
831.552002,224.479996,501.664001
833.504028,214.720001,499.712006
835.455994,212.768005,491.903992
833.504028,216.671997,491.903992
837.408020,210.815994,503.615997
829.599976,214.720001,507.519989
837.408020,222.528000,489.951996
821.791992,206.912003,495.808014
831.552002,206.912003,509.471985
837.408020,214.720001,509.471985
837.408020,222.528000,505.567993
835.455994,220.576004,503.615997
833.504028,220.576004,501.664001
837.408020,218.623993,509.471985
841.312012,216.671997,515.328003
845.216003,226.432007,505.567993
841.312012,216.671997,507.519989
835.455994,228.384003,503.615997
835.455994,236.192001,505.567993
849.119995,240.095993,519.231995
841.312012,236.192001,509.471985
847.168030,240.095993,521.184021
853.023987,230.335999,519.231995
843.263977,240.095993,519.231995
845.216003,236.192001,519.231995
849.119995,238.143997,515.328003
853.023987,234.240005,515.328003
849.119995,245.951996,517.280029
853.023987,242.048004,517.280029
847.168030,234.240005,521.184021
847.168030,240.095993,523.135986
853.023987,236.192001,509.471985
856.927979,245.951996,513.375977
853.023987,236.192001,499.712006
843.263977,238.143997,503.615997
854.976013,242.048004,507.519989
853.023987,247.904007,509.471985
839.359985,234.240005,499.712006
849.119995,240.095993,505.567993
853.023987,255.712006,493.855988
854.976013,255.712006,501.664001
853.023987,249.856003,499.712006
853.023987,247.904007,491.903992
847.168030,253.759995,489.951996
847.168030,255.712006,493.855988
845.216003,249.856003,493.855988
849.119995,261.567993,497.760010
854.976013,255.712006,491.903992
851.072021,253.759995,484.096008
847.168030,267.424011,493.855988
853.023987,261.567993,484.096008
853.023987,253.759995,484.096008
853.023987,259.615997,484.096008
856.927979,257.664001,484.096008
847.168030,257.664001,488.000000
860.831970,265.471985,488.000000
851.072021,267.424011,501.664001
854.976013,261.567993,489.951996
856.927979,251.807999,486.048004
858.880005,259.615997,484.096008
856.927979,265.471985,474.335999
847.168030,263.519989,482.144012
864.736023,269.376007,486.048004
854.976013,279.135986,476.287994
851.072021,271.328003,476.287994
864.736023,267.424011,476.287994
862.783997,269.376007,478.239990
866.687988,267.424011,476.287994
862.783997,269.376007,484.096008
858.880005,263.519989,482.144012
862.783997,267.424011,480.191986
858.880005,267.424011,486.048004
862.783997,275.231995,482.144012
872.544006,269.376007,482.144012
862.783997,275.231995,480.191986
862.783997,279.135986,489.951996
872.544006,281.088013,489.951996
872.544006,275.231995,484.096008
874.495972,277.183990,478.239990
882.304016,283.040009,482.144012
872.544006,273.279999,484.096008
870.591980,288.895996,482.144012
884.255981,284.992004,484.096008
874.495972,281.088013,484.096008
886.208008,298.656006,489.951996
890.112000,296.704010,480.191986
884.255981,294.752014,484.096008
878.400024,298.656006,486.048004
886.208008,288.895996,489.951996
886.208008,284.992004,484.096008
886.208008,296.704010,476.287994
892.064026,296.704010,482.144012
888.159973,300.608002,476.287994
890.112000,284.992004,484.096008
890.112000,286.944000,482.144012
890.112000,284.992004,480.191986
903.776001,298.656006,482.144012
888.159973,281.088013,476.287994
903.776001,286.944000,478.239990
901.823975,298.656006,480.191986
899.872009,290.847992,474.335999
905.728027,292.799988,466.528015
903.776001,298.656006,474.335999
899.872009,298.656006,472.384003
897.919983,292.799988,474.335999
895.968018,304.511993,474.335999
913.536011,300.608002,474.335999
903.776001,290.847992,476.287994
905.728027,298.656006,466.528015
903.776001,292.799988,464.575989
901.823975,296.704010,458.720001
913.536011,302.559998,460.671997
907.679993,300.608002,466.528015
905.728027,298.656006,466.528015
923.296021,302.559998,468.480011
899.872009,304.511993,462.623993
899.872009,308.415985,462.623993
895.968018,292.799988,462.623993
905.728027,288.895996,466.528015
903.776001,296.704010,466.528015
915.487976,302.559998,460.671997
897.919983,298.656006,448.959991
890.112000,302.559998,462.623993
907.679993,310.368011,464.575989
921.343994,288.895996,458.720001
899.872009,302.559998,452.864014
899.872009,306.463989,448.959991
907.679993,310.368011,466.528015
919.392029,294.752014,458.720001
907.679993,294.752014,458.720001
901.823975,324.032013,452.864014
895.968018,314.272003,456.768005
901.823975,288.895996,456.768005
909.632019,300.608002,458.720001
895.968018,308.415985,466.528015
905.728027,320.127991,454.816010
911.583984,310.368011,458.720001
897.919983,302.559998,460.671997
894.015991,310.368011,448.959991
909.632019,320.127991,450.911987
905.728027,290.847992,456.768005
899.872009,292.799988,452.864014
894.015991,310.368011,450.911987
895.968018,322.079987,450.911987
894.015991,312.320007,447.007996
907.679993,318.175995,447.007996
892.064026,310.368011,443.104004
894.015991,308.415985,445.056000
905.728027,308.415985,433.343994
907.679993,300.608002,445.056000
901.823975,314.272003,445.056000
901.823975,310.368011,448.959991
913.536011,298.656006,443.104004
894.015991,316.223999,441.152008
897.919983,325.984009,441.152008
923.296021,306.463989,437.247986
903.776001,296.704010,445.056000
911.583984,306.463989,439.200012
903.776001,302.559998,445.056000
894.015991,314.272003,443.104004
919.392029,300.608002,435.295990
894.015991,306.463989,439.200012
911.583984,316.223999,429.440002
894.015991,310.368011,435.295990
882.304016,310.368011,441.152008
899.872009,320.127991,441.152008
894.015991,318.175995,435.295990
880.351990,316.223999,423.584015
913.536011,312.320007,421.631989
895.968018,314.272003,431.391998
919.392029,306.463989,433.343994
882.304016,300.608002,425.536011
909.632019,320.127991,435.295990
901.823975,300.608002,431.391998
895.968018,292.799988,429.440002
913.536011,306.463989,441.152008
890.112000,314.272003,445.056000
901.823975,298.656006,441.152008
899.872009,286.944000,441.152008
903.776001,298.656006,425.536011
903.776001,296.704010,437.247986
903.776001,288.895996,435.295990
915.487976,277.183990,433.343994
911.583984,294.752014,429.440002
919.392029,306.463989,433.343994
894.015991,292.799988,441.152008
917.440002,283.040009,445.056000
888.159973,286.944000,447.007996
915.487976,310.368011,437.247986
907.679993,298.656006,433.343994
895.968018,277.183990,445.056000
911.583984,288.895996,443.104004
892.064026,306.463989,433.343994
907.679993,294.752014,439.200012
894.015991,275.231995,435.295990
901.823975,288.895996,435.295990
903.776001,308.415985,439.200012
907.679993,288.895996,435.295990
923.296021,275.231995,435.295990
901.823975,286.944000,433.343994
929.151978,292.799988,439.200012
903.776001,279.135986,441.152008
911.583984,275.231995,435.295990
892.064026,277.183990,443.104004
909.632019,302.559998,439.200012
911.583984,286.944000,439.200012
903.776001,275.231995,435.295990
903.776001,286.944000,435.295990
911.583984,283.040009,435.295990
923.296021,292.799988,431.391998
913.536011,294.752014,431.391998
923.296021,277.183990,439.200012
927.200012,279.135986,443.104004
907.679993,298.656006,447.007996
911.583984,304.511993,441.152008
915.487976,281.088013,435.295990
897.919983,279.135986,441.152008
907.679993,302.559998,443.104004
886.208008,304.511993,443.104004
903.776001,288.895996,435.295990
901.823975,292.799988,435.295990
907.679993,296.704010,439.200012
901.823975,300.608002,427.488007
915.487976,279.135986,425.536011
909.632019,288.895996,433.343994
897.919983,298.656006,431.391998
901.823975,294.752014,447.007996
907.679993,279.135986,445.056000
903.776001,292.799988,437.247986
903.776001,298.656006,439.200012
913.536011,279.135986,443.104004
895.968018,284.992004,439.200012
905.728027,286.944000,433.343994
895.968018,294.752014,423.584015
905.728027,296.704010,435.295990
907.679993,281.088013,441.152008
894.015991,290.847992,445.056000
903.776001,283.040009,439.200012
907.679993,292.799988,433.343994
911.583984,298.656006,427.488007
905.728027,296.704010,431.391998
890.112000,298.656006,417.727997
890.112000,296.704010,421.631989
899.872009,284.992004,431.391998
899.872009,290.847992,431.391998
899.872009,302.559998,431.391998
905.728027,294.752014,435.295990
901.823975,288.895996,439.200012
919.392029,288.895996,435.295990
894.015991,286.944000,439.200012
913.536011,288.895996,433.343994
899.872009,275.231995,427.488007
907.679993,269.376007,433.343994
911.583984,284.992004,433.343994
917.440002,281.088013,441.152008
915.487976,261.567993,439.200012
905.728027,277.183990,441.152008
907.679993,273.279999,431.391998
917.440002,265.471985,433.343994
923.296021,261.567993,439.200012
913.536011,263.519989,431.391998
913.536011,259.615997,439.200012
923.296021,265.471985,437.247986
903.776001,271.328003,433.343994
917.440002,269.376007,433.343994
923.296021,281.088013,425.536011
929.151978,271.328003,427.488007
919.392029,283.040009,431.391998
921.343994,275.231995,435.295990
927.200012,269.376007,433.343994
921.343994,269.376007,429.440002
919.392029,269.376007,435.295990
913.536011,269.376007,435.295990
923.296021,273.279999,443.104004
917.440002,273.279999,437.247986
921.343994,277.183990,439.200012
921.343994,277.183990,437.247986
921.343994,269.376007,439.200012
913.536011,277.183990,445.056000
929.151978,273.279999,439.200012
927.200012,271.328003,439.200012
919.392029,284.992004,439.200012
931.104004,277.183990,447.007996
925.247986,265.471985,443.104004
925.247986,281.088013,447.007996
913.536011,290.847992,439.200012
927.200012,273.279999,439.200012
919.392029,271.328003,454.816010
923.296021,279.135986,448.959991
938.911987,277.183990,439.200012
919.392029,279.135986,435.295990
936.960022,277.183990,445.056000
913.536011,275.231995,448.959991
915.487976,290.847992,450.911987
942.815979,279.135986,450.911987
915.487976,286.944000,443.104004
935.007996,277.183990,445.056000
921.343994,259.615997,445.056000
923.296021,277.183990,448.959991
909.632019,273.279999,443.104004
911.583984,255.712006,439.200012
909.632019,257.664001,443.104004
919.392029,269.376007,435.295990
927.200012,269.376007,437.247986
923.296021,257.664001,435.295990
915.487976,255.712006,433.343994
921.343994,267.424011,443.104004
919.392029,263.519989,447.007996
913.536011,277.183990,431.391998
913.536011,261.567993,433.343994
911.583984,255.712006,441.152008
917.440002,257.664001,429.440002
907.679993,271.328003,431.391998
905.728027,253.759995,435.295990
909.632019,257.664001,429.440002
913.536011,259.615997,427.488007
905.728027,265.471985,433.343994
913.536011,255.712006,429.440002
901.823975,249.856003,439.200012
911.583984,253.759995,423.584015
903.776001,261.567993,421.631989
905.728027,253.759995,425.536011
897.919983,247.904007,429.440002
895.968018,259.615997,435.295990
895.968018,267.424011,419.679993
895.968018,249.856003,423.584015
895.968018,244.000000,421.631989
894.015991,257.664001,423.584015
882.304016,263.519989,427.488007
886.208008,253.759995,419.679993
895.968018,247.904007,423.584015
895.968018,257.664001,417.727997
899.872009,249.856003,409.920013
899.872009,257.664001,409.920013
895.968018,251.807999,411.872009
888.159973,251.807999,415.776001
886.208008,251.807999,413.824005
894.015991,249.856003,415.776001
886.208008,251.807999,419.679993
892.064026,238.143997,419.679993
882.304016,245.951996,413.824005
888.159973,259.615997,421.631989
884.255981,245.951996,415.776001
880.351990,242.048004,417.727997
880.351990,244.000000,415.776001
882.304016,242.048004,413.824005
888.159973,236.192001,411.872009
882.304016,242.048004,413.824005
880.351990,240.095993,406.015991
876.447998,234.240005,402.112000
882.304016,232.287994,407.967987
878.400024,224.479996,400.160004
874.495972,228.384003,394.303986
864.736023,224.479996,386.496002
876.447998,222.528000,386.496002
868.640015,224.479996,396.256012
860.831970,218.623993,392.351990
862.783997,206.912003,388.447998
854.976013,210.815994,382.592010
858.880005,206.912003,380.640015
853.023987,210.815994,374.783997
860.831970,212.768005,378.687988
849.119995,210.815994,386.496002
854.976013,216.671997,382.592010
853.023987,201.056000,388.447998
860.831970,199.104004,378.687988
853.023987,216.671997,388.447998
851.072021,222.528000,386.496002
851.072021,214.720001,392.351990
849.119995,224.479996,398.208008
856.927979,218.623993,400.160004
851.072021,224.479996,398.208008
854.976013,220.576004,411.872009
864.736023,230.335999,409.920013
858.880005,232.287994,415.776001
853.023987,234.240005,419.679993
856.927979,232.287994,415.776001
854.976013,240.095993,419.679993
851.072021,232.287994,415.776001
854.976013,222.528000,423.584015
854.976013,230.335999,427.488007
853.023987,226.432007,415.776001
851.072021,220.576004,419.679993
854.976013,214.720001,413.824005
860.831970,214.720001,411.872009
845.216003,216.671997,413.824005
853.023987,199.104004,407.967987
853.023987,199.104004,402.112000
851.072021,204.960007,407.967987
853.023987,214.720001,411.872009
853.023987,216.671997,404.063995
849.119995,212.768005,406.015991
851.072021,224.479996,407.967987
853.023987,216.671997,400.160004
853.023987,216.671997,406.015991
847.168030,216.671997,413.824005
851.072021,214.720001,425.536011
853.023987,212.768005,425.536011
856.927979,212.768005,425.536011
856.927979,220.576004,427.488007
854.976013,216.671997,417.727997
858.880005,218.623993,431.391998
862.783997,226.432007,435.295990
862.783997,224.479996,429.440002
858.880005,218.623993,433.343994
854.976013,224.479996,435.295990
862.783997,218.623993,427.488007
864.736023,214.720001,433.343994
847.168030,214.720001,435.295990
856.927979,214.720001,433.343994
854.976013,210.815994,431.391998
858.880005,212.768005,429.440002
862.783997,210.815994,431.391998
866.687988,216.671997,433.343994
866.687988,220.576004,429.440002
872.544006,220.576004,433.343994
862.783997,224.479996,433.343994
860.831970,228.384003,433.343994
860.831970,226.432007,431.391998
854.976013,230.335999,431.391998
860.831970,226.432007,429.440002
854.976013,226.432007,429.440002
864.736023,220.576004,435.295990
872.544006,218.623993,427.488007
862.783997,228.384003,431.391998
874.495972,230.335999,431.391998
860.831970,230.335999,437.247986
870.591980,228.384003,433.343994
862.783997,228.384003,431.391998
862.783997,230.335999,441.152008
872.544006,230.335999,431.391998
862.783997,236.192001,427.488007
862.783997,224.479996,439.200012
860.831970,230.335999,435.295990
858.880005,236.192001,429.440002
860.831970,232.287994,433.343994
864.736023,220.576004,427.488007
864.736023,226.432007,417.727997
868.640015,236.192001,419.679993
858.880005,228.384003,421.631989
854.976013,220.576004,413.824005
864.736023,226.432007,413.824005
854.976013,232.287994,421.631989
856.927979,234.240005,417.727997
856.927979,232.287994,415.776001
847.168030,230.335999,415.776001
854.976013,234.240005,415.776001
851.072021,240.095993,415.776001
853.023987,234.240005,421.631989
853.023987,228.384003,415.776001
853.023987,230.335999,417.727997
851.072021,220.576004,413.824005
862.783997,220.576004,415.776001
860.831970,220.576004,417.727997
868.640015,218.623993,409.920013
860.831970,216.671997,413.824005
854.976013,218.623993,425.536011
851.072021,222.528000,419.679993
851.072021,220.576004,413.824005
858.880005,232.287994,427.488007
862.783997,220.576004,425.536011
858.880005,218.623993,425.536011
862.783997,214.720001,423.584015
854.976013,220.576004,419.679993
856.927979,214.720001,417.727997
868.640015,206.912003,409.920013
858.880005,204.960007,421.631989
868.640015,210.815994,419.679993
860.831970,204.960007,427.488007
870.591980,201.056000,413.824005
866.687988,206.912003,413.824005
862.783997,199.104004,419.679993
862.783997,193.248001,427.488007
866.687988,201.056000,413.824005
862.783997,204.960007,427.488007
876.447998,204.960007,419.679993
862.783997,210.815994,423.584015
866.687988,199.104004,413.824005
866.687988,201.056000,413.824005
868.640015,206.912003,421.631989
864.736023,203.007996,415.776001
868.640015,197.151993,411.872009
866.687988,199.104004,413.824005
872.544006,197.151993,411.872009
868.640015,210.815994,411.872009
862.783997,203.007996,406.015991
870.591980,206.912003,413.824005
862.783997,199.104004,409.920013
870.591980,206.912003,415.776001
872.544006,203.007996,406.015991
874.495972,208.863998,409.920013
872.544006,210.815994,409.920013
878.400024,206.912003,411.872009
876.447998,201.056000,409.920013
872.544006,212.768005,407.967987
878.400024,208.863998,398.208008
880.351990,212.768005,413.824005
878.400024,220.576004,415.776001
874.495972,210.815994,413.824005
878.400024,206.912003,406.015991
870.591980,208.863998,407.967987
884.255981,212.768005,411.872009
888.159973,210.815994,411.872009
882.304016,216.671997,407.967987
888.159973,218.623993,411.872009
882.304016,216.671997,411.872009
894.015991,214.720001,413.824005
888.159973,224.479996,406.015991
888.159973,218.623993,411.872009
892.064026,220.576004,406.015991
880.351990,222.528000,406.015991
886.208008,232.287994,409.920013
892.064026,232.287994,415.776001
899.872009,232.287994,406.015991
903.776001,224.479996,417.727997
897.919983,226.432007,413.824005
895.968018,236.192001,411.872009
890.112000,226.432007,415.776001
892.064026,224.479996,409.920013
890.112000,232.287994,413.824005
899.872009,234.240005,411.872009
897.919983,226.432007,417.727997
897.919983,224.479996,411.872009
895.968018,228.384003,423.584015
890.112000,228.384003,419.679993
895.968018,232.287994,409.920013
890.112000,234.240005,419.679993
897.919983,236.192001,413.824005
894.015991,238.143997,415.776001
895.968018,242.048004,402.112000
897.919983,245.951996,406.015991
895.968018,240.095993,407.967987
892.064026,238.143997,404.063995
894.015991,242.048004,415.776001
895.968018,238.143997,406.015991
895.968018,232.287994,400.160004
886.208008,232.287994,396.256012
892.064026,232.287994,398.208008
888.159973,238.143997,400.160004
892.064026,226.432007,398.208008
880.351990,234.240005,406.015991
888.159973,234.240005,396.256012
880.351990,228.384003,390.399994
888.159973,222.528000,386.496002
880.351990,214.720001,384.544006
884.255981,218.623993,372.832001
884.255981,218.623993,374.783997
878.400024,220.576004,378.687988
874.495972,220.576004,374.783997
880.351990,224.479996,384.544006
868.640015,216.671997,378.687988
876.447998,224.479996,374.783997
872.544006,216.671997,372.832001
866.687988,214.720001,376.735992
874.495972,208.863998,366.976013
878.400024,220.576004,376.735992
876.447998,218.623993,370.880005
880.351990,214.720001,361.119995
874.495972,210.815994,366.976013
880.351990,212.768005,370.880005
870.591980,212.768005,378.687988
882.304016,210.815994,382.592010
866.687988,214.720001,384.544006
874.495972,210.815994,384.544006
872.544006,216.671997,390.399994
872.544006,206.912003,384.544006
874.495972,212.768005,388.447998
884.255981,203.007996,386.496002
882.304016,210.815994,382.592010
882.304016,210.815994,380.640015
890.112000,210.815994,396.256012
888.159973,203.007996,392.351990
890.112000,199.104004,394.303986
888.159973,206.912003,400.160004
890.112000,199.104004,392.351990
897.919983,216.671997,398.208008
897.919983,210.815994,407.967987
903.776001,203.007996,400.160004
897.919983,210.815994,398.208008
890.112000,208.863998,398.208008
895.968018,218.623993,406.015991
907.679993,216.671997,402.112000
897.919983,220.576004,402.112000
897.919983,224.479996,402.112000
897.919983,220.576004,404.063995
905.728027,222.528000,411.872009
903.776001,220.576004,407.967987
915.487976,222.528000,409.920013
905.728027,216.671997,417.727997
899.872009,226.432007,404.063995
909.632019,222.528000,406.015991
917.440002,222.528000,411.872009
913.536011,230.335999,409.920013
913.536011,230.335999,404.063995
921.343994,245.951996,411.872009
913.536011,244.000000,407.967987
911.583984,240.095993,415.776001
921.343994,240.095993,407.967987
917.440002,244.000000,409.920013
921.343994,251.807999,402.112000
913.536011,249.856003,406.015991
925.247986,253.759995,394.303986
931.104004,253.759995,400.160004
913.536011,255.712006,398.208008
927.200012,245.951996,407.967987
929.151978,261.567993,400.160004
929.151978,271.328003,402.112000
921.343994,249.856003,400.160004
917.440002,257.664001,402.112000
925.247986,255.712006,398.208008
919.392029,259.615997,396.256012
927.200012,265.471985,409.920013
927.200012,277.183990,404.063995
927.200012,273.279999,407.967987
917.440002,271.328003,411.872009
931.104004,261.567993,404.063995
923.296021,263.519989,407.967987
929.151978,277.183990,409.920013
935.007996,281.088013,409.920013
927.200012,273.279999,402.112000
927.200012,283.040009,407.967987
931.104004,283.040009,409.920013
929.151978,279.135986,419.679993
921.343994,281.088013,411.872009
931.104004,284.992004,404.063995
917.440002,290.847992,409.920013
931.104004,290.847992,404.063995
919.392029,281.088013,411.872009
923.296021,286.944000,402.112000
923.296021,286.944000,407.967987
925.247986,292.799988,407.967987
913.536011,286.944000,407.967987
921.343994,283.040009,402.112000
923.296021,286.944000,407.967987
931.104004,281.088013,409.920013
919.392029,292.799988,409.920013
913.536011,290.847992,404.063995
915.487976,281.088013,404.063995
919.392029,281.088013,394.303986
913.536011,288.895996,398.208008
923.296021,284.992004,404.063995
915.487976,290.847992,390.399994
923.296021,290.847992,404.063995
913.536011,288.895996,398.208008
915.487976,288.895996,402.112000
911.583984,288.895996,398.208008
907.679993,284.992004,390.399994
895.968018,288.895996,394.303986
909.632019,286.944000,392.351990
901.823975,283.040009,390.399994
909.632019,281.088013,388.447998
909.632019,286.944000,380.640015
907.679993,283.040009,376.735992
907.679993,283.040009,376.735992
899.872009,279.135986,378.687988
899.872009,279.135986,372.832001
897.919983,273.279999,376.735992
895.968018,275.231995,374.783997
895.968018,269.376007,368.928009
901.823975,271.328003,365.023987
899.872009,261.567993,363.071991
890.112000,267.424011,363.071991
905.728027,257.664001,368.928009
894.015991,253.759995,368.928009
911.583984,255.712006,366.976013
899.872009,253.759995,363.071991
901.823975,255.712006,357.216003
899.872009,247.904007,357.216003
901.823975,240.095993,359.167999
901.823975,249.856003,353.312012
899.872009,245.951996,353.312012
890.112000,259.615997,359.167999
907.679993,259.615997,353.312012
895.968018,259.615997,355.264008
899.872009,249.856003,347.455994
903.776001,259.615997,349.407990
897.919983,255.712006,351.359985
894.015991,251.807999,351.359985
905.728027,255.712006,339.648010
897.919983,249.856003,349.407990
897.919983,261.567993,345.503998
903.776001,267.424011,353.312012
897.919983,253.759995,343.552002
899.872009,255.712006,347.455994
894.015991,249.856003,341.600006
892.064026,253.759995,335.743988
894.015991,259.615997,341.600006
895.968018,249.856003,337.696014
894.015991,245.951996,337.696014
895.968018,234.240005,333.791992
903.776001,242.048004,331.839996
901.823975,242.048004,345.503998
907.679993,247.904007,339.648010
897.919983,253.759995,349.407990
892.064026,247.904007,365.023987
890.112000,249.856003,363.071991
892.064026,261.567993,363.071991
886.208008,298.656006,372.832001
903.776001,296.704010,376.735992
913.536011,277.183990,388.447998
919.392029,279.135986,400.160004
931.104004,302.559998,394.303986
925.247986,294.752014,402.112000
921.343994,273.279999,402.112000
929.151978,263.519989,406.015991
923.296021,271.328003,404.063995
923.296021,261.567993,402.112000
923.296021,247.904007,402.112000
923.296021,242.048004,392.351990
923.296021,234.240005,392.351990
919.392029,226.432007,388.447998
925.247986,214.720001,376.735992
925.247986,212.768005,378.687988
919.392029,208.863998,374.783997
921.343994,206.912003,363.071991
917.440002,199.104004,365.023987
905.728027,212.768005,345.503998
907.679993,214.720001,335.743988
899.872009,228.384003,339.648010
897.919983,222.528000,335.743988
905.728027,234.240005,331.839996
901.823975,236.192001,329.888000
905.728027,226.432007,329.888000
913.536011,238.143997,341.600006
911.583984,236.192001,345.503998
897.919983,232.287994,361.119995
903.776001,244.000000,353.312012
911.583984,245.951996,361.119995
901.823975,253.759995,366.976013
915.487976,247.904007,368.928009
909.632019,244.000000,363.071991
907.679993,247.904007,380.640015
907.679993,238.143997,380.640015
905.728027,234.240005,380.640015
905.728027,232.287994,380.640015
911.583984,226.432007,370.880005
913.536011,226.432007,376.735992
911.583984,224.479996,376.735992
907.679993,224.479996,382.592010
909.632019,220.576004,376.735992
907.679993,218.623993,386.496002
901.823975,210.815994,398.208008
909.632019,203.007996,384.544006
899.872009,214.720001,386.496002
903.776001,206.912003,396.256012
905.728027,203.007996,394.303986
909.632019,195.199997,392.351990
915.487976,203.007996,382.592010
903.776001,203.007996,374.783997
911.583984,214.720001,384.544006
901.823975,220.576004,374.783997
897.919983,222.528000,378.687988
897.919983,230.335999,374.783997
888.159973,234.240005,366.976013
886.208008,226.432007,366.976013
895.968018,228.384003,368.928009
890.112000,236.192001,366.976013
903.776001,234.240005,368.928009
897.919983,218.623993,359.167999
895.968018,220.576004,355.264008
886.208008,220.576004,351.359985
886.208008,210.815994,351.359985
892.064026,224.479996,357.216003
890.112000,216.671997,349.407990
888.159973,203.007996,357.216003
882.304016,210.815994,351.359985
886.208008,206.912003,357.216003
890.112000,201.056000,359.167999
894.015991,199.104004,361.119995
894.015991,187.391998,353.312012
897.919983,204.960007,355.264008
899.872009,212.768005,357.216003
884.255981,222.528000,355.264008
888.159973,216.671997,349.407990
894.015991,218.623993,353.312012
899.872009,226.432007,351.359985
897.919983,226.432007,351.359985
894.015991,226.432007,347.455994
897.919983,226.432007,351.359985
899.872009,228.384003,341.600006
892.064026,226.432007,339.648010
901.823975,216.671997,347.455994
907.679993,203.007996,347.455994
901.823975,204.960007,351.359985
907.679993,193.248001,351.359985
905.728027,177.632004,353.312012
919.392029,167.871994,353.312012
907.679993,181.535995,349.407990
901.823975,171.776001,366.976013
880.351990,208.863998,363.071991
866.687988,341.600006,368.928009
886.208008,368.928009,376.735992
886.208008,224.479996,370.880005
892.064026,107.360001,380.640015
909.632019,171.776001,378.687988
919.392029,216.671997,380.640015
897.919983,193.248001,374.783997
894.015991,163.968002,372.832001
897.919983,189.343994,376.735992
894.015991,181.535995,359.167999
897.919983,197.151993,368.928009
892.064026,195.199997,368.928009
901.823975,201.056000,370.880005
903.776001,197.151993,366.976013
901.823975,208.863998,376.735992
903.776001,195.199997,380.640015
915.487976,199.104004,384.544006
903.776001,195.199997,380.640015
899.872009,199.104004,374.783997
899.872009,201.056000,380.640015
897.919983,199.104004,392.351990
905.728027,204.960007,376.735992
897.919983,204.960007,382.592010
899.872009,199.104004,380.640015
899.872009,197.151993,380.640015
901.823975,191.296005,368.928009
907.679993,187.391998,363.071991
895.968018,201.056000,361.119995
897.919983,195.199997,355.264008
901.823975,204.960007,355.264008
907.679993,195.199997,355.264008
905.728027,201.056000,343.552002
894.015991,203.007996,343.552002
899.872009,195.199997,335.743988
905.728027,201.056000,343.552002
899.872009,203.007996,349.407990
907.679993,210.815994,347.455994
901.823975,216.671997,357.216003
897.919983,203.007996,343.552002
892.064026,206.912003,339.648010
892.064026,210.815994,325.984009
899.872009,212.768005,316.223999
882.304016,208.863998,318.175995
903.776001,201.056000,312.320007
894.015991,193.248001,320.127991
899.872009,191.296005,318.175995
915.487976,191.296005,322.079987
903.776001,187.391998,322.079987
901.823975,197.151993,318.175995
901.823975,195.199997,318.175995
894.015991,199.104004,318.175995
888.159973,204.960007,314.272003
876.447998,197.151993,316.223999
884.255981,195.199997,318.175995
888.159973,201.056000,316.223999
894.015991,187.391998,312.320007
899.872009,189.343994,310.368011
897.919983,171.776001,314.272003
905.728027,160.063995,318.175995
907.679993,173.727997,320.127991
903.776001,175.679993,325.984009
897.919983,163.968002,320.127991
892.064026,181.535995,314.272003
895.968018,179.584000,316.223999
892.064026,181.535995,316.223999
884.255981,173.727997,310.368011
886.208008,187.391998,306.463989
882.304016,197.151993,308.415985
880.351990,191.296005,312.320007
878.400024,181.535995,306.463989
884.255981,187.391998,306.463989
886.208008,193.248001,314.272003
888.159973,150.304001,320.127991
897.919983,171.776001,327.936005
911.583984,214.720001,331.839996
901.823975,199.104004,324.032013
897.919983,185.440002,329.888000
899.872009,181.535995,329.888000
897.919983,195.199997,329.888000
899.872009,203.007996,331.839996
886.208008,212.768005,329.888000
886.208008,208.863998,329.888000
884.255981,203.007996,325.984009
888.159973,191.296005,316.223999
884.255981,197.151993,322.079987
894.015991,191.296005,318.175995
901.823975,185.440002,322.079987
899.872009,185.440002,322.079987
909.632019,169.824005,322.079987
905.728027,177.632004,310.368011
907.679993,175.679993,318.175995
905.728027,162.016006,316.223999
919.392029,165.919998,316.223999
915.487976,185.440002,322.079987
909.632019,187.391998,306.463989
913.536011,191.296005,294.752014
903.776001,183.488007,294.752014
907.679993,195.199997,292.799988
903.776001,197.151993,288.895996
911.583984,204.960007,302.559998
919.392029,212.768005,310.368011
915.487976,218.623993,310.368011
917.440002,216.671997,306.463989
927.200012,218.623993,310.368011
921.343994,218.623993,318.175995
936.960022,236.192001,320.127991
921.343994,226.432007,327.936005
931.104004,234.240005,337.696014
923.296021,218.623993,333.791992
938.911987,224.479996,329.888000
936.960022,218.623993,333.791992
944.768005,214.720001,331.839996
938.911987,218.623993,335.743988
936.960022,214.720001,331.839996
942.815979,216.671997,329.888000
942.815979,220.576004,320.127991
935.007996,220.576004,327.936005
942.815979,226.432007,333.791992
935.007996,212.768005,333.791992
938.911987,212.768005,331.839996
942.815979,222.528000,331.839996
946.719971,218.623993,343.552002
948.671997,212.768005,337.696014
942.815979,206.912003,345.503998
950.624023,203.007996,355.264008
940.864014,199.104004,351.359985
944.768005,210.815994,351.359985
946.719971,212.768005,339.648010
944.768005,201.056000,341.600006
950.624023,204.960007,337.696014
942.815979,212.768005,339.648010
944.768005,220.576004,343.552002
942.815979,224.479996,335.743988
946.719971,210.815994,343.552002
958.432007,208.863998,335.743988
958.432007,210.815994,333.791992
962.335999,212.768005,325.984009
948.671997,224.479996,316.223999
938.911987,226.432007,322.079987
938.911987,218.623993,318.175995
944.768005,224.479996,316.223999
940.864014,228.384003,322.079987
942.815979,228.384003,331.839996
946.719971,228.384003,325.984009
950.624023,218.623993,337.696014
948.671997,220.576004,320.127991
942.815979,226.432007,335.743988
933.056030,232.287994,331.839996
935.007996,222.528000,341.600006
944.768005,222.528000,331.839996
948.671997,224.479996,335.743988
950.624023,216.671997,331.839996
944.768005,222.528000,331.839996
944.768005,234.240005,337.696014
948.671997,240.095993,329.888000
938.911987,236.192001,325.984009
936.960022,236.192001,318.175995
954.528015,242.048004,318.175995
952.575989,253.759995,322.079987
954.528015,253.759995,324.032013
954.528015,249.856003,329.888000
950.624023,236.192001,331.839996
948.671997,218.623993,335.743988
958.432007,208.863998,355.264008
946.719971,210.815994,382.592010
935.007996,195.199997,407.967987
940.864014,162.016006,431.391998
946.719971,128.832001,448.959991
958.432007,111.264000,470.432007
976.000000,72.223999,464.575989
993.567993,42.944000,460.671997
1013.088013,54.655998,450.911987
1003.328003,58.560001,443.104004
1013.088013,81.984001,439.200012
1013.088013,103.456001,429.440002
991.616028,150.304001,423.584015
997.471985,191.296005,421.631989
993.567993,226.432007,411.872009
979.903992,271.328003,407.967987
979.903992,306.463989,398.208008
1001.375977,331.839996,388.447998
997.471985,353.312012,368.928009
1003.328003,378.687988,366.976013
1005.280029,370.880005,361.119995
993.567993,366.976013,353.312012
987.711975,361.119995,355.264008
989.664001,324.032013,357.216003
989.664001,300.608002,366.976013
1001.375977,263.519989,378.687988
1001.375977,228.384003,374.783997
1009.184021,195.199997,392.351990
987.711975,167.871994,390.399994
991.616028,150.304001,404.063995
999.424011,124.928001,407.967987
995.520020,105.407997,419.679993
997.471985,105.407997,419.679993
993.567993,122.975998,415.776001
999.424011,111.264000,423.584015
997.471985,124.928001,419.679993
989.664001,144.447998,419.679993
987.711975,177.632004,406.015991
983.807983,195.199997,407.967987
991.616028,218.623993,398.208008
985.760010,236.192001,400.160004
979.903992,257.664001,398.208008
985.760010,283.040009,396.256012
987.711975,306.463989,390.399994
979.903992,314.272003,392.351990
977.952026,318.175995,374.783997
972.096008,312.320007,372.832001
972.096008,304.511993,380.640015
968.192017,290.847992,365.023987
966.239990,261.567993,363.071991
974.047974,251.807999,368.928009
970.143982,228.384003,361.119995
968.192017,195.199997,361.119995
972.096008,189.343994,351.359985
962.335999,160.063995,343.552002
966.239990,158.112000,341.600006
960.383972,146.399994,335.743988
950.624023,142.496002,325.984009
944.768005,146.399994,320.127991
950.624023,158.112000,320.127991
948.671997,162.016006,304.511993
936.960022,177.632004,300.608002
942.815979,187.391998,281.088013
938.911987,226.432007,279.135986
927.200012,242.048004,273.279999
929.151978,251.807999,273.279999
940.864014,257.664001,261.567993
938.911987,257.664001,263.519989
933.056030,265.471985,269.376007
936.960022,263.519989,265.471985
936.960022,265.471985,275.231995
936.960022,255.712006,273.279999
940.864014,244.000000,273.279999
942.815979,234.240005,271.328003
946.719971,218.623993,275.231995
944.768005,216.671997,271.328003
942.815979,199.104004,279.135986
933.056030,193.248001,267.424011
935.007996,185.440002,265.471985
933.056030,179.584000,263.519989
935.007996,179.584000,261.567993
935.007996,193.248001,253.759995
929.151978,189.343994,251.807999
931.104004,191.296005,236.192001
933.056030,204.960007,238.143997
925.247986,218.623993,226.432007
919.392029,212.768005,216.671997
921.343994,222.528000,228.384003
919.392029,236.192001,222.528000
915.487976,242.048004,220.576004
919.392029,249.856003,210.815994
923.296021,259.615997,212.768005
925.247986,251.807999,212.768005
929.151978,261.567993,206.912003
921.343994,253.759995,204.960007
935.007996,255.712006,206.912003
923.296021,259.615997,195.199997
927.200012,257.664001,195.199997
929.151978,242.048004,197.151993
929.151978,240.095993,187.391998
923.296021,232.287994,185.440002
919.392029,222.528000,191.296005
917.440002,224.479996,183.488007
917.440002,230.335999,177.632004
915.487976,234.240005,173.727997
909.632019,226.432007,167.871994
911.583984,232.287994,167.871994
909.632019,228.384003,171.776001
901.823975,224.479996,167.871994
907.679993,230.335999,171.776001
915.487976,230.335999,160.063995
913.536011,230.335999,165.919998
915.487976,236.192001,177.632004
903.776001,247.904007,167.871994
909.632019,240.095993,160.063995
911.583984,242.048004,167.871994
917.440002,242.048004,167.871994
921.343994,263.519989,171.776001
913.536011,245.951996,173.727997
915.487976,244.000000,183.488007
911.583984,236.192001,189.343994
917.440002,242.048004,181.535995
921.343994,245.951996,183.488007
917.440002,236.192001,183.488007
925.247986,234.240005,187.391998
927.200012,232.287994,187.391998
925.247986,232.287994,185.440002
925.247986,232.287994,181.535995
915.487976,220.576004,175.679993
917.440002,216.671997,175.679993
917.440002,232.287994,179.584000
917.440002,236.192001,179.584000
909.632019,226.432007,171.776001
913.536011,222.528000,169.824005
913.536011,244.000000,177.632004
917.440002,244.000000,181.535995
923.296021,234.240005,183.488007
919.392029,226.432007,189.343994
925.247986,234.240005,204.960007
933.056030,244.000000,203.007996
923.296021,238.143997,218.623993
929.151978,247.904007,216.671997
929.151978,255.712006,224.479996
929.151978,249.856003,232.287994
936.960022,245.951996,240.095993
944.768005,259.615997,247.904007
940.864014,255.712006,245.951996
942.815979,253.759995,245.951996
954.528015,257.664001,245.951996
940.864014,249.856003,255.712006
950.624023,253.759995,259.615997
950.624023,251.807999,267.424011
948.671997,251.807999,257.664001
958.432007,253.759995,263.519989
968.192017,255.712006,265.471985
964.288025,255.712006,267.424011
968.192017,251.807999,263.519989
964.288025,255.712006,267.424011
974.047974,255.712006,263.519989
968.192017,257.664001,261.567993
983.807983,275.231995,257.664001
983.807983,263.519989,257.664001
977.952026,261.567993,269.376007
985.760010,255.712006,279.135986
993.567993,259.615997,277.183990
991.616028,253.759995,283.040009
977.952026,255.712006,284.992004
979.903992,257.664001,277.183990
981.856018,263.519989,284.992004
976.000000,247.904007,281.088013
979.903992,247.904007,281.088013
981.856018,251.807999,286.944000
983.807983,242.048004,277.183990
979.903992,251.807999,275.231995
987.711975,255.712006,277.183990
981.856018,251.807999,271.328003
972.096008,245.951996,277.183990
972.096008,242.048004,275.231995
966.239990,222.528000,275.231995
976.000000,236.192001,283.040009
977.952026,216.671997,277.183990
968.192017,222.528000,286.944000
985.760010,220.576004,292.799988
985.760010,216.671997,298.656006
993.567993,216.671997,304.511993
1001.375977,226.432007,310.368011
997.471985,232.287994,306.463989
989.664001,226.432007,308.415985
979.903992,232.287994,308.415985
993.567993,244.000000,308.415985
981.856018,240.095993,302.559998
977.952026,244.000000,300.608002
989.664001,242.048004,294.752014
985.760010,253.759995,292.799988
979.903992,249.856003,292.799988
966.239990,245.951996,294.752014
966.239990,249.856003,292.799988
962.335999,238.143997,284.992004
976.000000,236.192001,283.040009
964.288025,244.000000,275.231995
962.335999,232.287994,275.231995
966.239990,216.671997,261.567993
960.383972,226.432007,267.424011
966.239990,216.671997,257.664001
954.528015,214.720001,261.567993
948.671997,214.720001,263.519989
940.864014,203.007996,259.615997
948.671997,203.007996,245.951996
946.719971,214.720001,222.528000
940.864014,208.863998,228.384003
946.719971,208.863998,232.287994
938.911987,220.576004,222.528000
942.815979,226.432007,220.576004
940.864014,222.528000,214.720001
935.007996,232.287994,206.912003
940.864014,234.240005,201.056000
936.960022,240.095993,195.199997
931.104004,247.904007,191.296005
917.440002,263.519989,197.151993
915.487976,238.143997,189.343994
907.679993,249.856003,189.343994
899.872009,247.904007,195.199997
897.919983,234.240005,185.440002
899.872009,222.528000,181.535995
903.776001,230.335999,193.248001
903.776001,232.287994,187.391998
901.823975,220.576004,179.584000
911.583984,201.056000,183.488007
895.968018,214.720001,181.535995
894.015991,228.384003,181.535995
894.015991,204.960007,169.824005
901.823975,195.199997,171.776001
884.255981,226.432007,171.776001
899.872009,218.623993,167.871994
890.112000,232.287994,169.824005
882.304016,232.287994,154.207993
895.968018,230.335999,140.544006
884.255981,216.671997,136.639999
886.208008,238.143997,140.544006
884.255981,238.143997,144.447998
878.400024,218.623993,150.304001
892.064026,222.528000,142.496002
888.159973,232.287994,134.688004
868.640015,204.960007,117.120003
897.919983,232.287994,134.688004
866.687988,173.727997,122.975998
876.447998,199.104004,134.688004
872.544006,204.960007,121.024002
876.447998,185.440002,132.735992
872.544006,160.063995,150.304001
882.304016,162.016006,154.207993
894.015991,162.016006,152.255997
888.159973,154.207993,150.304001
884.255981,154.207993,156.160004
895.968018,154.207993,154.207993
894.015991,171.776001,156.160004
892.064026,165.919998,150.304001
892.064026,169.824005,156.160004
901.823975,165.919998,169.824005
890.112000,193.248001,177.632004
899.872009,220.576004,173.727997
899.872009,189.343994,185.440002
899.872009,201.056000,179.584000
890.112000,220.576004,175.679993
882.304016,197.151993,177.632004
874.495972,212.768005,179.584000
876.447998,210.815994,183.488007
880.351990,197.151993,183.488007
876.447998,185.440002,191.296005
870.591980,169.824005,185.440002
868.640015,144.447998,177.632004
862.783997,136.639999,189.343994
884.255981,122.975998,181.535995
858.880005,99.552002,175.679993
866.687988,97.599998,181.535995
874.495972,97.599998,173.727997
868.640015,99.552002,169.824005
868.640015,103.456001,175.679993
854.976013,101.503998,177.632004
870.591980,109.311996,181.535995
880.351990,124.928001,175.679993
874.495972,126.879997,173.727997
866.687988,138.591995,163.968002
884.255981,140.544006,165.919998
880.351990,160.063995,163.968002
872.544006,177.632004,167.871994
880.351990,181.535995,162.016006
866.687988,177.632004,160.063995
794.463989,242.048004,286.944000
821.791992,136.639999,450.911987
788.607971,-33.183998,372.832001
853.023987,152.255997,160.063995
897.919983,179.584000,40.992001
913.536011,-31.232000,72.223999
882.304016,5.856000,191.296005
856.927979,29.280001,249.856003
835.455994,-21.472000,187.391998
870.591980,74.176003,115.167999
886.208008,76.127998,97.599998
866.687988,-25.375999,121.024002
870.591980,56.608002,150.304001
866.687988,107.360001,150.304001
870.591980,76.127998,113.216003
886.208008,99.552002,109.311996
894.015991,126.879997,121.024002
888.159973,93.695999,130.783997
880.351990,121.024002,126.879997
876.447998,140.544006,119.071999
882.304016,121.024002,111.264000
886.208008,119.071999,121.024002
894.015991,105.407997,122.975998
894.015991,107.360001,126.879997
899.872009,122.975998,134.688004
905.728027,107.360001,136.639999
907.679993,81.984001,132.735992
911.583984,105.407997,124.928001
911.583984,121.024002,119.071999
903.776001,105.407997,134.688004
903.776001,101.503998,142.496002
911.583984,124.928001,134.688004
899.872009,132.735992,136.639999
901.823975,130.783997,130.783997
901.823975,140.544006,122.975998
901.823975,148.352005,126.879997
911.583984,148.352005,134.688004
925.247986,140.544006,130.783997
917.440002,144.447998,126.879997
921.343994,160.063995,134.688004
929.151978,160.063995,140.544006
935.007996,160.063995,152.255997
950.624023,160.063995,163.968002
933.056030,156.160004,156.160004
927.200012,152.255997,152.255997
936.960022,142.496002,165.919998
929.151978,103.456001,175.679993
929.151978,80.031998,175.679993
944.768005,66.367996,185.440002
940.864014,29.280001,212.768005
974.047974,-9.760000,236.192001
977.952026,-48.799999,253.759995
977.952026,-74.176003,263.519989
987.711975,-85.888000,275.231995
991.616028,-109.311996,273.279999
991.616028,-99.552002,269.376007
979.903992,-66.367996,265.471985
985.760010,-7.808000,247.904007
974.047974,29.280001,230.335999
987.711975,56.608002,222.528000
983.807983,93.695999,220.576004
981.856018,117.120003,230.335999
983.807983,140.544006,240.095993
977.952026,179.584000,245.951996
952.575989,316.223999,306.463989
1015.039978,517.280029,388.447998
1104.832031,564.127991,464.575989
1100.927979,630.495972,532.895996
1147.776001,753.471985,573.888000
1116.543945,737.856018,587.552002
1097.024048,273.279999,548.512024
1118.495972,-343.552002,503.615997
1126.303955,-671.487976,478.239990
1100.927979,-568.031982,437.247986
1057.984009,-197.151993,394.303986
1056.031982,220.576004,365.023987
1050.176025,447.007996,347.455994
1050.176025,355.264008,337.696014
1020.895996,56.608002,324.032013
1028.703979,-220.576004,298.656006
1034.560059,-345.503998,259.615997
1022.848022,-294.752014,222.528000
1016.992004,-130.783997,173.727997
1011.135986,54.655998,132.735992
1003.328003,177.632004,115.167999
1009.184021,236.192001,101.503998
1007.231995,222.528000,89.792000
1007.231995,210.815994,78.080002
1007.231995,232.287994,64.416000
1011.135986,261.567993,39.040001
1005.280029,318.175995,44.896000
1001.375977,361.119995,46.848000
987.711975,378.687988,48.799999
1003.328003,366.976013,42.944000
1003.328003,263.519989,44.896000
997.471985,122.975998,44.896000
999.424011,33.183998,60.512001
977.952026,13.664000,68.320000
993.567993,80.031998,83.935997
979.903992,122.975998,76.127998
995.520020,97.599998,81.984001
995.520020,29.280001,85.888000
1005.280029,-78.080002,93.695999
1007.231995,-111.264000,97.599998
1018.943970,-17.568001,99.552002
1013.088013,148.352005,76.127998
1005.280029,273.279999,58.560001
995.520020,277.183990,42.944000
997.471985,187.391998,31.232000
1011.135986,150.304001,27.327999
997.471985,191.296005,17.568001
993.567993,275.231995,-11.712000
983.807983,347.455994,-19.520000
972.096008,372.832001,-40.992001
954.528015,310.368011,-50.751999
948.671997,201.056000,-58.560001
950.624023,85.888000,-50.751999
938.911987,3.904000,-39.040001
942.815979,7.808000,-21.472000
946.719971,70.272003,-15.616000
946.719971,142.496002,-1.952000
948.671997,132.735992,3.904000
964.288025,103.456001,11.712000
974.047974,76.127998,1.952000
991.616028,40.992001,17.568001
985.760010,42.944000,0.000000
979.903992,101.503998,9.760000
976.000000,179.584000,0.000000
966.239990,228.384003,-11.712000
952.575989,236.192001,-33.183998
940.864014,236.192001,-62.464001
950.624023,226.432007,-87.839996
929.151978,201.056000,-111.264000
929.151978,177.632004,-134.688004
929.151978,175.679993,-156.160004
907.679993,191.296005,-162.016006
907.679993,208.863998,-185.440002
890.112000,175.679993,-185.440002
888.159973,121.024002,-177.632004
874.495972,87.839996,-197.151993
854.976013,87.839996,-224.479996
854.976013,122.975998,-230.335999
870.591980,191.296005,-238.143997
860.831970,503.615997,-220.576004
870.591980,704.671997,-154.207993
876.447998,571.935974,-81.984001
917.440002,179.584000,-40.992001
950.624023,-234.240005,-15.616000
1048.223999,-421.631989,-19.520000
1112.640015,-366.976013,-13.664000
1159.488037,-113.216003,19.520000
1147.776001,115.167999,78.080002
1139.968018,197.151993,148.352005
1141.920044,60.512001,214.720001
1122.400024,-234.240005,312.320007
1079.456055,-382.592010,390.399994
1042.368042,-165.919998,431.391998
1030.656006,296.704010,425.536011
1071.647949,696.864014,402.112000
1100.927979,843.263977,380.640015
1124.352051,745.664001,339.648010
1126.303955,476.287994,302.559998
1136.063965,136.639999,253.759995
1141.920044,-66.367996,214.720001
1149.728027,-29.280001,187.391998
1128.255981,185.440002,163.968002
1069.696045,462.623993,105.407997
1040.416016,404.063995,64.416000
1007.231995,238.143997,37.088001
993.567993,68.320000,27.327999
989.664001,-27.327999,19.520000
966.239990,0.000000,27.327999
981.856018,81.984001,29.280001
1003.328003,154.207993,21.472000
1016.992004,130.783997,3.904000
1024.800049,54.655998,-1.952000
1024.800049,-21.472000,-23.424000
1024.800049,-56.608002,-42.944000
1009.184021,-33.183998,-56.608002
987.711975,62.464001,-76.127998
972.096008,126.879997,-99.552002
970.143982,132.735992,-117.120003
962.335999,122.975998,-121.024002
956.479980,138.591995,-119.071999
936.960022,165.919998,-115.167999
952.575989,208.863998,-111.264000
936.960022,316.223999,-99.552002
944.768005,450.911987,-85.888000
956.479980,497.760010,-70.272003
972.096008,398.208008,-33.183998
968.192017,253.759995,1.952000
993.567993,78.080002,23.424000
989.664001,-81.984001,29.280001
1007.231995,-171.776001,11.712000
1007.231995,-160.063995,-3.904000
995.520020,-85.888000,-35.136002
983.807983,-50.751999,-56.608002
966.239990,-111.264000,-85.888000
968.192017,-214.720001,-85.888000
948.671997,-238.143997,-76.127998
948.671997,-52.703999,-48.799999
942.815979,242.048004,-39.040001
946.719971,517.280029,-25.375999
956.479980,657.823975,-29.280001
925.247986,681.247986,-50.751999
944.768005,599.263977,-70.272003
962.335999,341.600006,-60.512001
1005.280029,138.591995,-62.464001
1015.039978,62.464001,-70.272003
1036.511963,126.879997,-78.080002
1015.039978,148.352005,-91.744003
979.903992,126.879997,-105.407997
944.768005,93.695999,-146.399994
919.392029,80.031998,-193.248001
890.112000,39.040001,-204.960007
876.447998,37.088001,-228.384003
925.247986,105.407997,-206.912003
935.007996,199.104004,-187.391998
942.815979,286.944000,-175.679993
940.864014,382.592010,-146.399994
958.432007,445.056000,-111.264000
966.239990,363.071991,-99.552002
956.479980,23.424000,-111.264000
956.479980,-253.759995,-130.783997
950.624023,-345.503998,-158.112000
923.296021,-310.368011,-206.912003
903.776001,-83.935997,-269.376007
847.168030,146.399994,-290.847992
833.504028,169.824005,-306.463989
839.359985,-40.992001,-269.376007
870.591980,-372.832001,-208.863998
892.064026,-447.007996,-163.968002
929.151978,-146.399994,-132.735992
948.671997,300.608002,-109.311996
948.671997,671.487976,-130.783997
964.288025,825.695984,-134.688004
989.664001,769.088013,-138.591995
964.288025,517.280029,-181.535995
974.047974,232.287994,-199.104004
1015.039978,3.904000,-191.296005
981.856018,-64.416000,-195.199997
966.239990,-39.040001,-203.007996
938.911987,52.703999,-220.576004
927.200012,162.016006,-228.384003
923.296021,230.335999,-185.440002
905.728027,132.735992,-117.120003
899.872009,-83.935997,-3.904000
901.823975,-122.975998,72.223999
923.296021,-11.712000,130.783997
1020.895996,109.311996,156.160004
1114.592041,275.231995,138.591995
1120.447998,392.351990,68.320000
1110.687988,406.015991,13.664000
1083.359985,240.095993,1.952000
1040.416016,29.280001,-3.904000
1024.800049,-72.223999,-15.616000
1042.368042,3.904000,-23.424000
991.616028,255.712006,-21.472000
966.239990,452.864014,-70.272003
954.528015,497.760010,-134.688004
979.903992,507.519989,-162.016006
987.711975,671.487976,-136.639999
989.664001,903.776001,-56.608002
993.567993,880.351990,25.375999
1005.280029,277.183990,107.360001
1030.656006,-542.656006,140.544006
1042.368042,-905.728027,169.824005
1038.463989,-519.231995,173.727997
1011.135986,304.511993,142.496002
1009.184021,972.096008,117.120003
1015.039978,1089.215942,62.464001
1011.135986,618.783997,15.616000
1046.271973,-105.407997,-27.327999
1052.128052,-562.176025,-85.888000
1061.887939,-466.528015,-132.735992
1044.319946,33.183998,-144.447998
1015.039978,505.567993,-163.968002
1016.992004,720.288025,-189.343994
999.424011,603.168030,-185.440002
1003.328003,222.528000,-199.104004
1011.135986,-185.440002,-212.768005
1013.088013,-374.783997,-224.479996
1009.184021,-238.143997,-257.664001
979.903992,99.552002,-290.847992
972.096008,347.455994,-294.752014
970.143982,325.984009,-263.519989
974.047974,50.751999,-228.384003
952.575989,-365.023987,-163.968002
938.911987,-571.935974,-87.839996
933.056030,-327.936005,-17.568001
935.007996,214.720001,5.856000
942.815979,638.304016,19.520000
974.047974,798.367981,1.952000
970.143982,651.968018,-31.232000
966.239990,242.048004,-76.127998
983.807983,-214.720001,-122.975998
991.616028,-433.343994,-165.919998
987.711975,-296.704010,-193.248001
979.903992,68.320000,-230.335999
964.288025,413.824005,-240.095993
977.952026,538.752014,-265.471985
970.143982,425.536011,-273.279999
972.096008,117.120003,-284.992004
974.047974,-163.968002,-284.992004
987.711975,-253.759995,-277.183990
999.424011,-134.688004,-277.183990
1011.135986,72.223999,-288.895996
1013.088013,306.463989,-288.895996
1007.231995,423.584015,-271.328003
1005.280029,343.552002,-263.519989
997.471985,109.311996,-249.856003
1013.088013,-136.639999,-253.759995
1016.992004,-240.095993,-267.424011
1016.992004,-142.496002,-259.615997
1013.088013,56.608002,-277.183990
1001.375977,228.384003,-316.223999
997.471985,312.320007,-347.455994
1009.184021,255.712006,-374.783997
1005.280029,136.639999,-372.832001
1011.135986,-15.616000,-339.648010
1009.184021,-52.703999,-284.992004
995.520020,11.712000,-228.384003
999.424011,193.248001,-179.584000
997.471985,337.696014,-158.112000
948.671997,335.743988,-146.399994
925.247986,208.863998,-171.776001
997.471985,27.327999,-242.048004
972.096008,-93.695999,-265.471985
985.760010,-83.935997,-238.143997
1073.599976,-9.760000,-15.616000
1411.296021,-111.264000,556.320007
2155.008057,-1118.495972,2024.223999
2197.951904,-2910.431885,1940.287964
1782.176025,-3640.479980,-122.975998
1069.696045,-1020.895996,-653.919983
880.351990,618.783997,-651.968018
925.247986,503.615997,-284.992004
1016.992004,-720.288025,-191.296005
1097.024048,91.744003,-640.255981
1046.271973,366.976013,-849.119995
925.247986,240.095993,-634.400024
1015.039978,431.391998,-454.816010
1016.992004,534.848022,-368.928009
966.239990,884.255981,-519.231995
882.304016,1169.248047,-659.776001
899.872009,1186.816040,-589.504028
1057.984009,1056.031982,-251.807999
1249.280029,821.791992,179.584000
1344.927979,694.911987,392.351990
1352.735962,677.343994,327.936005
1366.400024,696.864014,222.528000
1432.767944,696.864014,222.528000
1497.183960,679.296021,245.951996
1534.271973,661.728027,267.424011
1553.791992,642.208008,288.895996
1553.791992,593.408020,347.455994
1563.552002,573.888000,372.832001
1561.599976,562.176025,337.696014
1542.079956,603.168030,318.175995
1506.943970,638.304016,327.936005
1450.336060,667.583984,331.839996
1383.968018,716.383972,294.752014
1286.368042,749.567993,204.960007
1216.095947,724.192017,115.167999
1171.199951,630.495972,27.327999
1143.871948,462.623993,-68.320000
1118.495972,220.576004,-181.535995
1097.024048,44.896000,-242.048004
1071.647949,-46.848000,-253.759995
1075.552002,-89.792000,-222.528000
1087.264038,-89.792000,-165.919998
1098.975952,-64.416000,-136.639999
1110.687988,-5.856000,-134.688004
1102.880005,21.472000,-144.447998
1081.407959,7.808000,-154.207993
1071.647949,-15.616000,-169.824005
1057.984009,-1.952000,-160.063995
1059.936035,54.655998,-177.632004
1046.271973,152.255997,-175.679993
1059.936035,226.432007,-154.207993
1054.079956,302.559998,-146.399994
1057.984009,341.600006,-162.016006
1044.319946,347.455994,-173.727997
1026.751953,325.984009,-197.151993
1007.231995,288.895996,-245.951996
981.856018,238.143997,-300.608002
977.952026,212.768005,-339.648010
962.335999,208.863998,-372.832001
952.575989,191.296005,-390.399994
950.624023,165.919998,-384.544006
962.335999,132.735992,-380.640015
956.479980,109.311996,-361.119995
976.000000,78.080002,-331.839996
977.952026,50.751999,-312.320007
981.856018,40.992001,-292.799988
989.664001,27.327999,-283.040009
989.664001,39.040001,-273.279999
983.807983,35.136002,-265.471985
993.567993,39.040001,-265.471985
999.424011,46.848000,-267.424011
1001.375977,60.512001,-267.424011
997.471985,101.503998,-265.471985
991.616028,136.639999,-247.904007
995.520020,177.632004,-255.712006
991.616028,206.912003,-269.376007
987.711975,212.768005,-271.328003
972.096008,210.815994,-286.944000
979.903992,203.007996,-286.944000
977.952026,208.863998,-290.847992
981.856018,193.248001,-281.088013
991.616028,204.960007,-273.279999
991.616028,197.151993,-263.519989
991.616028,191.296005,-261.567993
983.807983,171.776001,-259.615997
987.711975,156.160004,-259.615997
991.616028,154.207993,-257.664001
997.471985,152.255997,-247.904007
997.471985,144.447998,-245.951996
993.567993,146.399994,-249.856003
985.760010,140.544006,-253.759995
976.000000,146.399994,-261.567993
981.856018,146.399994,-271.328003
981.856018,158.112000,-283.040009
987.711975,169.824005,-284.992004
985.760010,171.776001,-286.944000
976.000000,163.968002,-296.704010
979.903992,171.776001,-298.656006
977.952026,165.919998,-298.656006
976.000000,167.871994,-310.368011
977.952026,156.160004,-312.320007
974.047974,169.824005,-312.320007
981.856018,171.776001,-314.272003
989.664001,179.584000,-310.368011
985.760010,150.304001,-306.463989
985.760010,130.783997,-314.272003
991.616028,119.071999,-314.272003
983.807983,119.071999,-312.320007
993.567993,130.783997,-296.704010
993.567993,160.063995,-290.847992
1003.328003,199.104004,-290.847992
1001.375977,232.287994,-298.656006
997.471985,255.712006,-294.752014
993.567993,228.384003,-306.463989
987.711975,206.912003,-312.320007
989.664001,169.824005,-316.223999
983.807983,148.352005,-318.175995
997.471985,138.591995,-316.223999
997.471985,128.832001,-302.559998
991.616028,146.399994,-308.415985
991.616028,144.447998,-306.463989
1001.375977,158.112000,-308.415985
999.424011,150.304001,-296.704010
1001.375977,169.824005,-304.511993
1009.184021,183.488007,-304.511993
1009.184021,208.863998,-302.559998
1009.184021,214.720001,-310.368011
1013.088013,222.528000,-308.415985
1009.184021,212.768005,-308.415985
1005.280029,193.248001,-314.272003
1009.184021,183.488007,-312.320007
1003.328003,175.679993,-318.175995
1009.184021,183.488007,-314.272003
1007.231995,193.248001,-314.272003
1032.608032,197.151993,-314.272003
1036.511963,195.199997,-308.415985
1042.368042,210.815994,-304.511993
1042.368042,208.863998,-304.511993
1034.560059,204.960007,-304.511993
1030.656006,197.151993,-308.415985
1038.463989,185.440002,-306.463989
1026.751953,183.488007,-316.223999
1040.416016,193.248001,-324.032013
1034.560059,212.768005,-312.320007
1034.560059,218.623993,-312.320007
1036.511963,238.143997,-320.127991
1048.223999,232.287994,-322.079987
1044.319946,238.143997,-318.175995
1038.463989,220.576004,-324.032013
1040.416016,206.912003,-316.223999
1042.368042,195.199997,-318.175995
1048.223999,201.056000,-324.032013
1050.176025,203.007996,-316.223999
1052.128052,230.335999,-320.127991
1038.463989,249.856003,-325.984009
1048.223999,265.471985,-318.175995
1042.368042,261.567993,-322.079987
1038.463989,240.095993,-325.984009
1048.223999,224.479996,-320.127991
1050.176025,214.720001,-318.175995
1056.031982,199.104004,-318.175995
1059.936035,208.863998,-316.223999
1065.791992,220.576004,-310.368011
1059.936035,236.192001,-325.984009
1067.744019,242.048004,-325.984009
1057.984009,242.048004,-320.127991
1059.936035,259.615997,-327.936005
1069.696045,251.807999,-331.839996
1067.744019,247.904007,-331.839996
1059.936035,232.287994,-320.127991
1057.984009,234.240005,-324.032013
1071.647949,230.335999,-327.936005
1065.791992,234.240005,-331.839996
1073.599976,234.240005,-331.839996
1081.407959,232.287994,-329.888000
1081.407959,249.856003,-333.791992
1077.504028,238.143997,-325.984009
1069.696045,242.048004,-325.984009
1075.552002,238.143997,-335.743988
1077.504028,245.951996,-339.648010
1069.696045,245.951996,-337.696014
1069.696045,238.143997,-339.648010
1067.744019,245.951996,-337.696014
1061.887939,251.807999,-337.696014
1061.887939,251.807999,-341.600006
1059.936035,242.048004,-327.936005
1065.791992,244.000000,-337.696014
1071.647949,230.335999,-339.648010
1063.839966,240.095993,-339.648010
1065.791992,244.000000,-347.455994
1054.079956,234.240005,-343.552002
1048.223999,238.143997,-345.503998
1046.271973,224.479996,-349.407990
1044.319946,228.384003,-359.167999
1044.319946,224.479996,-355.264008
1048.223999,222.528000,-353.312012
1036.511963,216.671997,-361.119995
1038.463989,220.576004,-361.119995
1040.416016,234.240005,-359.167999
1040.416016,224.479996,-374.783997
1026.751953,230.335999,-374.783997
1030.656006,226.432007,-368.928009
1032.608032,232.287994,-374.783997
1028.703979,230.335999,-370.880005
1022.848022,226.432007,-368.928009
1018.943970,238.143997,-365.023987
1024.800049,234.240005,-374.783997
1028.703979,228.384003,-368.928009
1040.416016,234.240005,-370.880005
1026.751953,234.240005,-374.783997
1036.511963,222.528000,-357.216003
1034.560059,222.528000,-359.167999
1034.560059,230.335999,-353.312012
1032.608032,232.287994,-353.312012
1036.511963,232.287994,-349.407990
1032.608032,232.287994,-357.216003
1036.511963,228.384003,-355.264008
1036.511963,228.384003,-349.407990
1038.463989,230.335999,-347.455994
1038.463989,236.192001,-347.455994
1038.463989,226.432007,-347.455994
1032.608032,228.384003,-351.359985
1030.656006,230.335999,-337.696014
1038.463989,226.432007,-345.503998
1036.511963,224.479996,-347.455994
1032.608032,218.623993,-343.552002
1015.039978,218.623993,-347.455994
1015.039978,212.768005,-343.552002
1022.848022,220.576004,-349.407990
1020.895996,212.768005,-347.455994
1022.848022,210.815994,-345.503998
1018.943970,201.056000,-341.600006
1022.848022,204.960007,-355.264008
1020.895996,216.671997,-339.648010
1016.992004,216.671997,-339.648010
1020.895996,203.007996,-331.839996
1015.039978,212.768005,-337.696014
1022.848022,220.576004,-341.600006
1024.800049,224.479996,-333.791992
1024.800049,208.863998,-341.600006
1013.088013,218.623993,-343.552002
1009.184021,203.007996,-339.648010
1009.184021,218.623993,-347.455994
1011.135986,228.384003,-339.648010
1011.135986,218.623993,-343.552002
1011.135986,224.479996,-347.455994
1015.039978,224.479996,-343.552002
1003.328003,210.815994,-333.791992
1009.184021,228.384003,-333.791992
1009.184021,218.623993,-341.600006
1009.184021,224.479996,-347.455994
993.567993,222.528000,-347.455994
995.520020,214.720001,-345.503998
995.520020,216.671997,-339.648010
983.807983,218.623993,-349.407990
985.760010,224.479996,-359.167999
977.952026,218.623993,-351.359985
989.664001,210.815994,-355.264008
993.567993,214.720001,-359.167999
976.000000,214.720001,-357.216003
970.143982,220.576004,-345.503998
976.000000,222.528000,-359.167999
966.239990,218.623993,-361.119995
970.143982,224.479996,-368.928009
968.192017,216.671997,-359.167999
970.143982,224.479996,-361.119995
974.047974,220.576004,-365.023987
976.000000,226.432007,-372.832001
974.047974,224.479996,-370.880005
977.952026,230.335999,-359.167999
976.000000,234.240005,-355.264008
981.856018,232.287994,-363.071991
974.047974,222.528000,-345.503998
981.856018,224.479996,-349.407990
976.000000,220.576004,-357.216003
981.856018,220.576004,-353.312012
987.711975,228.384003,-347.455994
987.711975,220.576004,-347.455994
993.567993,216.671997,-345.503998
981.856018,204.960007,-343.552002
995.520020,214.720001,-341.600006
991.616028,216.671997,-345.503998
991.616028,210.815994,-341.600006
995.520020,216.671997,-341.600006
993.567993,206.912003,-339.648010
989.664001,204.960007,-339.648010
997.471985,210.815994,-341.600006
991.616028,214.720001,-341.600006
983.807983,220.576004,-339.648010
981.856018,216.671997,-355.264008
979.903992,214.720001,-355.264008
974.047974,218.623993,-353.312012
979.903992,214.720001,-349.407990
977.952026,201.056000,-353.312012
977.952026,218.623993,-355.264008
968.192017,220.576004,-357.216003
981.856018,210.815994,-349.407990
970.143982,224.479996,-341.600006
960.383972,208.863998,-345.503998
966.239990,222.528000,-355.264008
968.192017,214.720001,-357.216003
977.952026,218.623993,-355.264008
972.096008,220.576004,-363.071991
974.047974,216.671997,-359.167999
964.288025,218.623993,-357.216003
958.432007,230.335999,-357.216003
960.383972,226.432007,-368.928009
954.528015,224.479996,-372.832001
956.479980,222.528000,-372.832001
968.192017,224.479996,-376.735992
964.288025,214.720001,-382.592010
956.479980,230.335999,-378.687988
960.383972,236.192001,-388.447998
958.432007,228.384003,-376.735992
974.047974,228.384003,-374.783997
962.335999,222.528000,-376.735992
966.239990,234.240005,-374.783997
966.239990,232.287994,-386.496002
970.143982,236.192001,-386.496002
970.143982,230.335999,-380.640015
974.047974,224.479996,-382.592010
970.143982,232.287994,-392.351990
960.383972,232.287994,-394.303986
964.288025,214.720001,-413.824005
964.288025,210.815994,-407.967987
972.096008,220.576004,-402.112000
976.000000,226.432007,-409.920013
983.807983,234.240005,-409.920013
981.856018,240.095993,-396.256012
991.616028,238.143997,-388.447998
989.664001,240.095993,-388.447998
1003.328003,240.095993,-372.832001
1011.135986,245.951996,-368.928009
1005.280029,249.856003,-365.023987
1009.184021,234.240005,-363.071991
1028.703979,234.240005,-349.407990
1022.848022,224.479996,-355.264008
1028.703979,240.095993,-345.503998
1024.800049,220.576004,-343.552002
1038.463989,216.671997,-335.743988
1030.656006,203.007996,-347.455994
1028.703979,210.815994,-351.359985
1028.703979,212.768005,-351.359985
1024.800049,203.007996,-345.503998
1018.943970,197.151993,-345.503998
1024.800049,208.863998,-343.552002
1018.943970,203.007996,-349.407990
1015.039978,216.671997,-355.264008
1003.328003,212.768005,-347.455994
1009.184021,218.623993,-355.264008
1009.184021,208.863998,-353.312012
1003.328003,220.576004,-359.167999
1005.280029,208.863998,-357.216003
991.616028,208.863998,-353.312012
979.903992,208.863998,-366.976013
993.567993,203.007996,-374.783997
983.807983,199.104004,-366.976013
977.952026,199.104004,-365.023987
974.047974,191.296005,-374.783997
972.096008,189.343994,-365.023987
979.903992,191.296005,-359.167999
976.000000,185.440002,-355.264008
972.096008,193.248001,-357.216003
962.335999,185.440002,-363.071991
962.335999,185.440002,-359.167999
974.047974,183.488007,-359.167999
962.335999,181.535995,-357.216003
972.096008,175.679993,-349.407990
962.335999,183.488007,-359.167999
968.192017,181.535995,-343.552002
964.288025,177.632004,-347.455994
956.479980,173.727997,-333.791992
952.575989,163.968002,-333.791992
958.432007,162.016006,-335.743988
952.575989,162.016006,-335.743988
954.528015,154.207993,-327.936005
956.479980,148.352005,-331.839996
946.719971,142.496002,-339.648010
952.575989,144.447998,-335.743988
942.815979,140.544006,-337.696014
940.864014,132.735992,-331.839996
938.911987,128.832001,-331.839996
935.007996,117.120003,-331.839996
927.200012,121.024002,-327.936005
917.440002,126.879997,-327.936005
925.247986,121.024002,-324.032013
923.296021,119.071999,-320.127991
927.200012,115.167999,-320.127991
931.104004,119.071999,-320.127991
917.440002,113.216003,-322.079987
915.487976,122.975998,-312.320007
919.392029,122.975998,-306.463989
917.440002,111.264000,-312.320007
917.440002,107.360001,-310.368011
911.583984,103.456001,-314.272003
915.487976,93.695999,-316.223999
913.536011,105.407997,-308.415985
909.632019,103.456001,-302.559998
909.632019,93.695999,-312.320007
913.536011,101.503998,-314.272003
915.487976,103.456001,-302.559998
911.583984,111.264000,-310.368011
901.823975,97.599998,-308.415985
901.823975,95.648003,-314.272003
901.823975,91.744003,-320.127991
901.823975,101.503998,-306.463989
890.112000,109.311996,-308.415985
903.776001,105.407997,-306.463989
897.919983,101.503998,-312.320007
903.776001,99.552002,-308.415985
903.776001,107.360001,-312.320007
894.015991,101.503998,-312.320007
892.064026,93.695999,-302.559998
899.872009,93.695999,-302.559998
894.015991,99.552002,-308.415985
899.872009,107.360001,-312.320007
903.776001,99.552002,-308.415985
903.776001,97.599998,-312.320007
897.919983,99.552002,-304.511993
903.776001,99.552002,-306.463989
901.823975,103.456001,-306.463989
901.823975,113.216003,-304.511993
899.872009,111.264000,-302.559998
901.823975,113.216003,-302.559998
907.679993,101.503998,-302.559998
901.823975,111.264000,-304.511993
897.919983,111.264000,-298.656006
907.679993,113.216003,-298.656006
901.823975,119.071999,-296.704010
901.823975,113.216003,-292.799988
901.823975,113.216003,-296.704010
905.728027,124.928001,-302.559998
901.823975,119.071999,-296.704010
907.679993,111.264000,-296.704010
897.919983,113.216003,-294.752014
897.919983,113.216003,-298.656006
901.823975,107.360001,-294.752014
892.064026,117.120003,-300.608002
897.919983,111.264000,-300.608002
901.823975,111.264000,-304.511993
899.872009,121.024002,-308.415985
903.776001,115.167999,-306.463989
903.776001,113.216003,-308.415985
903.776001,113.216003,-308.415985
903.776001,121.024002,-302.559998
899.872009,121.024002,-300.608002
899.872009,124.928001,-302.559998
907.679993,124.928001,-308.415985
905.728027,126.879997,-294.752014
901.823975,132.735992,-292.799988
905.728027,124.928001,-296.704010
907.679993,126.879997,-290.847992
917.440002,126.879997,-296.704010
917.440002,126.879997,-294.752014
917.440002,121.024002,-294.752014
919.392029,128.832001,-290.847992
919.392029,117.120003,-294.752014
913.536011,126.879997,-300.608002
915.487976,128.832001,-300.608002
915.487976,115.167999,-298.656006
915.487976,107.360001,-296.704010
913.536011,122.975998,-300.608002
911.583984,124.928001,-294.752014
921.343994,126.879997,-290.847992
919.392029,119.071999,-294.752014
919.392029,128.832001,-290.847992
919.392029,128.832001,-296.704010
915.487976,128.832001,-290.847992
923.296021,124.928001,-296.704010
921.343994,126.879997,-288.895996
923.296021,122.975998,-290.847992
915.487976,122.975998,-286.944000
913.536011,121.024002,-300.608002
917.440002,121.024002,-294.752014
913.536011,117.120003,-298.656006
917.440002,126.879997,-300.608002
917.440002,119.071999,-294.752014
911.583984,117.120003,-304.511993
909.632019,119.071999,-306.463989
915.487976,126.879997,-300.608002
913.536011,126.879997,-298.656006
919.392029,132.735992,-302.559998
917.440002,124.928001,-304.511993
925.247986,138.591995,-288.895996
921.343994,126.879997,-290.847992
915.487976,134.688004,-296.704010
913.536011,126.879997,-294.752014
915.487976,134.688004,-290.847992
915.487976,115.167999,-298.656006
903.776001,122.975998,-300.608002
909.632019,113.216003,-306.463989
905.728027,107.360001,-304.511993
919.392029,109.311996,-302.559998
915.487976,113.216003,-312.320007
905.728027,101.503998,-308.415985
905.728027,101.503998,-310.368011
915.487976,111.264000,-310.368011
911.583984,105.407997,-308.415985
909.632019,109.311996,-308.415985
917.440002,111.264000,-312.320007
927.200012,119.071999,-312.320007
909.632019,115.167999,-296.704010
913.536011,111.264000,-308.415985
917.440002,115.167999,-302.559998
917.440002,115.167999,-300.608002
921.343994,109.311996,-300.608002
919.392029,107.360001,-296.704010
925.247986,105.407997,-286.944000
919.392029,99.552002,-284.992004
925.247986,103.456001,-281.088013
923.296021,103.456001,-284.992004
927.200012,97.599998,-277.183990
929.151978,95.648003,-279.135986
931.104004,97.599998,-283.040009
921.343994,93.695999,-286.944000
917.440002,93.695999,-281.088013
915.487976,87.839996,-284.992004
909.632019,91.744003,-281.088013
909.632019,99.552002,-292.799988
905.728027,109.311996,-288.895996
913.536011,111.264000,-283.040009
905.728027,101.503998,-292.799988
907.679993,103.456001,-290.847992
907.679993,111.264000,-294.752014
907.679993,97.599998,-290.847992
895.968018,115.167999,-286.944000
903.776001,105.407997,-292.799988
895.968018,103.456001,-298.656006
894.015991,105.407997,-290.847992
894.015991,89.792000,-286.944000
899.872009,91.744003,-296.704010
899.872009,91.744003,-300.608002
897.919983,93.695999,-300.608002
897.919983,95.648003,-290.847992
901.823975,91.744003,-300.608002
897.919983,91.744003,-290.847992
897.919983,85.888000,-281.088013
895.968018,85.888000,-284.992004
909.632019,93.695999,-284.992004
903.776001,85.888000,-279.135986
901.823975,95.648003,-284.992004
897.919983,85.888000,-283.040009
905.728027,89.792000,-279.135986
901.823975,95.648003,-284.992004
897.919983,85.888000,-283.040009
903.776001,83.935997,-279.135986
907.679993,85.888000,-284.992004
897.919983,83.935997,-288.895996
897.919983,80.031998,-292.799988
901.823975,78.080002,-281.088013
897.919983,80.031998,-286.944000
905.728027,76.127998,-281.088013
897.919983,83.935997,-279.135986
901.823975,76.127998,-273.279999
915.487976,81.984001,-273.279999
911.583984,68.320000,-271.328003
903.776001,83.935997,-271.328003
903.776001,83.935997,-281.088013
899.872009,78.080002,-279.135986
897.919983,74.176003,-271.328003
899.872009,78.080002,-281.088013
899.872009,72.223999,-279.135986
909.632019,83.935997,-279.135986
905.728027,74.176003,-277.183990
897.919983,83.935997,-277.183990
895.968018,72.223999,-263.519989
895.968018,68.320000,-265.471985
895.968018,80.031998,-267.424011
897.919983,70.272003,-265.471985
897.919983,76.127998,-269.376007
901.823975,72.223999,-273.279999
895.968018,68.320000,-269.376007
894.015991,80.031998,-269.376007
895.968018,72.223999,-273.279999
895.968018,80.031998,-275.231995
888.159973,72.223999,-271.328003
890.112000,74.176003,-271.328003
888.159973,76.127998,-269.376007
890.112000,76.127998,-263.519989
890.112000,70.272003,-269.376007
884.255981,76.127998,-267.424011
897.919983,70.272003,-269.376007
894.015991,83.935997,-269.376007
886.208008,74.176003,-259.615997
890.112000,72.223999,-267.424011
890.112000,66.367996,-271.328003
890.112000,68.320000,-253.759995
888.159973,62.464001,-261.567993
888.159973,68.320000,-255.712006
884.255981,72.223999,-259.615997
878.400024,60.512001,-261.567993
884.255981,62.464001,-257.664001
888.159973,56.608002,-253.759995
884.255981,62.464001,-255.712006
886.208008,64.416000,-261.567993
884.255981,60.512001,-255.712006
880.351990,70.272003,-265.471985
876.447998,66.367996,-265.471985
878.400024,72.223999,-267.424011
888.159973,62.464001,-261.567993
882.304016,64.416000,-255.712006
884.255981,58.560001,-261.567993
874.495972,62.464001,-263.519989
880.351990,66.367996,-255.712006
892.064026,76.127998,-251.807999
886.208008,74.176003,-253.759995
884.255981,68.320000,-255.712006
888.159973,60.512001,-255.712006
892.064026,52.703999,-242.048004
876.447998,62.464001,-251.807999
878.400024,62.464001,-257.664001
886.208008,54.655998,-261.567993
884.255981,70.272003,-263.519989
884.255981,72.223999,-263.519989
892.064026,70.272003,-247.904007
895.968018,68.320000,-255.712006
888.159973,62.464001,-247.904007
892.064026,56.608002,-253.759995
886.208008,62.464001,-257.664001
892.064026,68.320000,-255.712006
886.208008,72.223999,-253.759995
892.064026,68.320000,-251.807999
886.208008,68.320000,-253.759995
888.159973,62.464001,-255.712006
890.112000,66.367996,-249.856003
886.208008,70.272003,-255.712006
886.208008,80.031998,-251.807999
886.208008,76.127998,-253.759995
890.112000,80.031998,-251.807999
884.255981,68.320000,-255.712006
892.064026,72.223999,-253.759995
886.208008,80.031998,-251.807999
886.208008,83.935997,-255.712006
886.208008,74.176003,-259.615997
888.159973,76.127998,-267.424011
888.159973,78.080002,-259.615997
888.159973,87.839996,-261.567993
882.304016,76.127998,-277.183990
892.064026,81.984001,-259.615997
892.064026,81.984001,-269.376007
888.159973,74.176003,-269.376007
892.064026,95.648003,-255.712006
890.112000,78.080002,-267.424011
895.968018,80.031998,-263.519989
890.112000,87.839996,-261.567993
890.112000,83.935997,-265.471985
899.872009,87.839996,-259.615997
894.015991,83.935997,-255.712006
899.872009,76.127998,-263.519989
892.064026,81.984001,-265.471985
899.872009,83.935997,-261.567993
899.872009,78.080002,-263.519989
897.919983,74.176003,-261.567993
901.823975,83.935997,-261.567993
897.919983,76.127998,-261.567993
899.872009,81.984001,-265.471985
897.919983,74.176003,-271.328003
897.919983,78.080002,-275.231995
897.919983,74.176003,-269.376007
899.872009,76.127998,-269.376007
909.632019,83.935997,-259.615997
899.872009,87.839996,-271.328003
905.728027,81.984001,-265.471985
909.632019,76.127998,-271.328003
901.823975,74.176003,-273.279999
907.679993,80.031998,-263.519989
907.679993,83.935997,-269.376007
907.679993,83.935997,-261.567993
909.632019,76.127998,-267.424011
909.632019,72.223999,-269.376007
909.632019,68.320000,-255.712006
919.392029,70.272003,-271.328003
915.487976,72.223999,-265.471985
911.583984,72.223999,-263.519989
923.296021,83.935997,-271.328003
909.632019,80.031998,-261.567993
913.536011,74.176003,-259.615997
913.536011,76.127998,-251.807999
913.536011,80.031998,-259.615997
907.679993,85.888000,-257.664001
915.487976,87.839996,-261.567993
915.487976,87.839996,-275.231995
913.536011,95.648003,-263.519989
915.487976,91.744003,-261.567993
905.728027,91.744003,-267.424011
901.823975,91.744003,-269.376007
907.679993,91.744003,-257.664001
899.872009,91.744003,-267.424011
911.583984,93.695999,-265.471985
909.632019,91.744003,-257.664001
907.679993,99.552002,-263.519989
915.487976,87.839996,-261.567993
909.632019,93.695999,-273.279999
907.679993,81.984001,-275.231995
899.872009,89.792000,-267.424011
907.679993,99.552002,-281.088013
899.872009,89.792000,-269.376007
903.776001,93.695999,-267.424011
901.823975,99.552002,-269.376007
905.728027,95.648003,-273.279999
909.632019,89.792000,-279.135986
907.679993,95.648003,-275.231995
907.679993,97.599998,-269.376007
905.728027,93.695999,-269.376007
911.583984,89.792000,-263.519989
905.728027,93.695999,-271.328003
915.487976,97.599998,-277.183990
915.487976,87.839996,-286.944000
915.487976,89.792000,-273.279999
905.728027,81.984001,-267.424011
909.632019,80.031998,-267.424011
913.536011,80.031998,-257.664001
919.392029,85.888000,-261.567993
917.440002,89.792000,-263.519989
913.536011,91.744003,-267.424011
921.343994,89.792000,-253.759995
923.296021,95.648003,-263.519989
931.104004,85.888000,-269.376007
921.343994,89.792000,-255.712006
917.440002,87.839996,-263.519989
925.247986,93.695999,-265.471985
921.343994,83.935997,-269.376007
923.296021,87.839996,-259.615997
923.296021,83.935997,-265.471985
931.104004,80.031998,-263.519989
933.056030,80.031998,-261.567993
927.200012,83.935997,-257.664001
940.864014,95.648003,-259.615997
931.104004,91.744003,-259.615997
927.200012,87.839996,-259.615997
931.104004,87.839996,-267.424011
921.343994,85.888000,-257.664001
931.104004,91.744003,-265.471985
917.440002,85.888000,-255.712006
917.440002,83.935997,-261.567993
925.247986,83.935997,-261.567993
929.151978,91.744003,-265.471985
923.296021,93.695999,-257.664001
923.296021,95.648003,-249.856003
925.247986,85.888000,-263.519989
917.440002,99.552002,-265.471985
927.200012,95.648003,-259.615997
931.104004,87.839996,-269.376007
925.247986,91.744003,-271.328003
929.151978,83.935997,-265.471985
919.392029,85.888000,-255.712006
