ACC_X,ACC_Y,ACC_Z
909.632019,439.200012,-29.280001
907.679993,443.104004,-27.327999
911.583984,443.104004,-29.280001
907.679993,452.864014,-31.232000
911.583984,448.959991,-35.136002
911.583984,443.104004,-29.280001
899.872009,445.056000,-25.375999
901.823975,447.007996,-25.375999
899.872009,441.152008,-31.232000
909.632019,441.152008,-29.280001
899.872009,450.911987,-35.136002
905.728027,439.200012,-29.280001
905.728027,441.152008,-25.375999
901.823975,448.959991,-25.375999
913.536011,445.056000,-29.280001
909.632019,437.247986,-31.232000
897.919983,447.007996,-25.375999
905.728027,443.104004,-23.424000
901.823975,443.104004,-17.568001
901.823975,454.816010,-13.664000
903.776001,450.911987,-29.280001
903.776001,447.007996,-31.232000
901.823975,439.200012,-27.327999
907.679993,443.104004,-23.424000
903.776001,447.007996,-33.183998
901.823975,448.959991,-25.375999
901.823975,439.200012,-27.327999
911.583984,452.864014,-25.375999
909.632019,443.104004,-25.375999
907.679993,445.056000,-23.424000
901.823975,441.152008,-25.375999
909.632019,450.911987,-27.327999
911.583984,441.152008,-31.232000
907.679993,441.152008,-29.280001
903.776001,441.152008,-29.280001
905.728027,445.056000,-31.232000
907.679993,448.959991,-23.424000
915.487976,443.104004,-27.327999
909.632019,454.816010,-23.424000
909.632019,456.768005,-25.375999
903.776001,441.152008,-25.375999
907.679993,439.200012,-29.280001
905.728027,441.152008,-29.280001
911.583984,454.816010,-27.327999
897.919983,445.056000,-37.088001
911.583984,450.911987,-29.280001
915.487976,448.959991,-27.327999
917.440002,443.104004,-33.183998
913.536011,447.007996,-29.280001
911.583984,439.200012,-23.424000
911.583984,441.152008,-31.232000
913.536011,443.104004,-27.327999
921.343994,439.200012,-29.280001
911.583984,445.056000,-29.280001
907.679993,443.104004,-37.088001
917.440002,445.056000,-39.040001
917.440002,443.104004,-27.327999
913.536011,445.056000,-29.280001
913.536011,441.152008,-23.424000
911.583984,448.959991,-27.327999
923.296021,450.911987,-31.232000
919.392029,443.104004,-29.280001
923.296021,450.911987,-31.232000
917.440002,445.056000,-33.183998
915.487976,445.056000,-27.327999
915.487976,437.247986,-25.375999
909.632019,439.200012,-27.327999
909.632019,435.295990,-27.327999
909.632019,435.295990,-31.232000
911.583984,433.343994,-23.424000
919.392029,443.104004,-25.375999
915.487976,441.152008,-27.327999
913.536011,437.247986,-31.232000
907.679993,439.200012,-29.280001
907.679993,431.391998,-31.232000
907.679993,429.440002,-29.280001
919.392029,435.295990,-31.232000
909.632019,429.440002,-31.232000
919.392029,431.391998,-25.375999
915.487976,425.536011,-25.375999
913.536011,439.200012,-23.424000
917.440002,443.104004,-29.280001
915.487976,437.247986,-31.232000
909.632019,437.247986,-33.183998
917.440002,429.440002,-25.375999
911.583984,433.343994,-25.375999
915.487976,437.247986,-31.232000
919.392029,425.536011,-33.183998
915.487976,435.295990,-25.375999
905.728027,429.440002,-23.424000
905.728027,433.343994,-23.424000
903.776001,433.343994,-31.232000
903.776001,437.247986,-21.472000
911.583984,431.391998,-27.327999
913.536011,431.391998,-23.424000
911.583984,437.247986,-27.327999
909.632019,435.295990,-37.088001
907.679993,435.295990,-35.136002
915.487976,429.440002,-25.375999
909.632019,435.295990,-29.280001
905.728027,433.343994,-23.424000
901.823975,429.440002,-27.327999
907.679993,417.727997,-25.375999
901.823975,427.488007,-27.327999
907.679993,425.536011,-27.327999
911.583984,429.440002,-25.375999
911.583984,427.488007,-25.375999
903.776001,427.488007,-27.327999
915.487976,425.536011,-25.375999
899.872009,421.631989,-25.375999
909.632019,425.536011,-19.520000
907.679993,435.295990,-21.472000
901.823975,431.391998,-27.327999
907.679993,435.295990,-27.327999
905.728027,435.295990,-15.616000
903.776001,427.488007,-29.280001
903.776001,423.584015,-23.424000
907.679993,429.440002,-27.327999
907.679993,425.536011,-25.375999
901.823975,427.488007,-27.327999
903.776001,419.679993,-25.375999
903.776001,421.631989,-25.375999
899.872009,423.584015,-21.472000
899.872009,425.536011,-19.520000
897.919983,435.295990,-21.472000
903.776001,423.584015,-25.375999
903.776001,421.631989,-25.375999
907.679993,427.488007,-23.424000
905.728027,427.488007,-27.327999
907.679993,423.584015,-23.424000
903.776001,425.536011,-27.327999
897.919983,425.536011,-23.424000
897.919983,417.727997,-25.375999
905.728027,425.536011,-21.472000
903.776001,425.536011,-21.472000
897.919983,419.679993,-17.568001
897.919983,417.727997,-23.424000
901.823975,417.727997,-23.424000
915.487976,421.631989,-19.520000
901.823975,417.727997,-21.472000
897.919983,425.536011,-23.424000
907.679993,425.536011,-31.232000
903.776001,421.631989,-31.232000
901.823975,433.343994,-27.327999
907.679993,421.631989,-35.136002
907.679993,423.584015,-13.664000
899.872009,423.584015,-21.472000
907.679993,437.247986,-15.616000
911.583984,435.295990,-21.472000
903.776001,435.295990,-17.568001
899.872009,425.536011,-17.568001
899.872009,429.440002,-17.568001
903.776001,425.536011,-21.472000
907.679993,417.727997,-23.424000
905.728027,427.488007,-23.424000
899.872009,423.584015,-21.472000
903.776001,431.391998,-21.472000
903.776001,429.440002,-19.520000
899.872009,431.391998,-17.568001
901.823975,425.536011,-21.472000
901.823975,425.536011,-21.472000
903.776001,431.391998,-21.472000
907.679993,437.247986,-13.664000
901.823975,431.391998,-17.568001
895.968018,439.200012,-21.472000
894.015991,433.343994,-19.520000
897.919983,431.391998,-15.616000
903.776001,435.295990,-15.616000
905.728027,435.295990,-23.424000
903.776001,421.631989,-25.375999
894.015991,433.343994,-17.568001
903.776001,437.247986,-17.568001
897.919983,437.247986,-15.616000
894.015991,431.391998,-21.472000
903.776001,435.295990,-15.616000
899.872009,437.247986,-15.616000
903.776001,437.247986,-21.472000
897.919983,443.104004,-17.568001
897.919983,437.247986,-23.424000
897.919983,437.247986,-13.664000
901.823975,437.247986,-13.664000
903.776001,437.247986,-15.616000
897.919983,437.247986,-23.424000
899.872009,443.104004,-15.616000
895.968018,437.247986,-17.568001
897.919983,437.247986,-17.568001
894.015991,443.104004,-17.568001
899.872009,447.007996,-19.520000
899.872009,437.247986,-15.616000
890.112000,433.343994,-23.424000
897.919983,439.200012,-27.327999
897.919983,437.247986,-17.568001
892.064026,435.295990,-27.327999
895.968018,433.343994,-27.327999
895.968018,450.911987,-13.664000
892.064026,443.104004,-21.472000
890.112000,437.247986,-9.760000
897.919983,443.104004,-13.664000
892.064026,443.104004,-19.520000
882.304016,433.343994,-19.520000
890.112000,439.200012,-17.568001
892.064026,433.343994,-13.664000
882.304016,433.343994,-21.472000
882.304016,447.007996,-21.472000
888.159973,439.200012,-19.520000
886.208008,433.343994,-17.568001
878.400024,435.295990,-31.232000
884.255981,435.295990,-35.136002
888.159973,437.247986,-25.375999
886.208008,425.536011,-33.183998
884.255981,437.247986,-31.232000
882.304016,443.104004,-39.040001
882.304016,435.295990,-33.183998
884.255981,433.343994,-25.375999
886.208008,443.104004,-31.232000
882.304016,452.864014,-25.375999
882.304016,447.007996,-33.183998
884.255981,443.104004,-23.424000
888.159973,445.056000,-21.472000
882.304016,445.056000,-35.136002
882.304016,445.056000,-27.327999
892.064026,448.959991,-21.472000
888.159973,450.911987,-21.472000
892.064026,445.056000,-21.472000
888.159973,447.007996,-21.472000
886.208008,448.959991,-17.568001
894.015991,450.911987,-31.232000
886.208008,443.104004,-25.375999
884.255981,437.247986,-25.375999
888.159973,435.295990,-31.232000
888.159973,429.440002,-23.424000
890.112000,443.104004,-19.520000
890.112000,437.247986,-25.375999
884.255981,441.152008,-17.568001
890.112000,443.104004,-23.424000
886.208008,437.247986,-29.280001
894.015991,443.104004,-19.520000
890.112000,437.247986,-25.375999
888.159973,433.343994,-25.375999
895.968018,441.152008,-27.327999
897.919983,443.104004,-13.664000
888.159973,452.864014,-15.616000
888.159973,452.864014,-17.568001
886.208008,447.007996,-21.472000
888.159973,445.056000,-25.375999
886.208008,448.959991,-35.136002
888.159973,443.104004,-23.424000
882.304016,447.007996,-27.327999
886.208008,429.440002,-25.375999
882.304016,433.343994,-23.424000
884.255981,443.104004,-31.232000
888.159973,435.295990,-31.232000
878.400024,433.343994,-31.232000
878.400024,437.247986,-23.424000
886.208008,433.343994,-17.568001
880.351990,433.343994,-25.375999
886.208008,433.343994,-23.424000
882.304016,443.104004,-27.327999
880.351990,441.152008,-23.424000
886.208008,433.343994,-23.424000
882.304016,429.440002,-19.520000
892.064026,433.343994,-23.424000
890.112000,441.152008,-21.472000
890.112000,447.007996,-27.327999
884.255981,441.152008,-19.520000
888.159973,452.864014,-21.472000
884.255981,445.056000,-17.568001
892.064026,439.200012,-23.424000
886.208008,441.152008,-17.568001
888.159973,441.152008,-15.616000
888.159973,439.200012,-19.520000
878.400024,441.152008,-17.568001
882.304016,439.200012,-13.664000
882.304016,433.343994,-17.568001
882.304016,433.343994,-17.568001
884.255981,439.200012,-19.520000
882.304016,439.200012,-13.664000
884.255981,441.152008,-15.616000
878.400024,429.440002,-19.520000
876.447998,441.152008,-15.616000
874.495972,437.247986,-19.520000
882.304016,441.152008,-13.664000
876.447998,445.056000,-11.712000
874.495972,437.247986,-15.616000
884.255981,447.007996,-15.616000
880.351990,439.200012,-19.520000
878.400024,439.200012,-9.760000
882.304016,439.200012,-15.616000
876.447998,443.104004,-19.520000
882.304016,435.295990,-13.664000
880.351990,443.104004,-9.760000
878.400024,439.200012,-21.472000
874.495972,437.247986,-9.760000
876.447998,439.200012,-15.616000
876.447998,443.104004,-15.616000
882.304016,437.247986,-3.904000
880.351990,443.104004,-7.808000
880.351990,437.247986,-9.760000
878.400024,445.056000,-9.760000
878.400024,435.295990,-11.712000
876.447998,437.247986,-5.856000
878.400024,441.152008,-9.760000
882.304016,443.104004,1.952000
874.495972,441.152008,-5.856000
880.351990,437.247986,-7.808000
870.591980,437.247986,-3.904000
884.255981,435.295990,0.000000
878.400024,443.104004,-5.856000
876.447998,439.200012,-5.856000
878.400024,433.343994,-11.712000
884.255981,437.247986,-5.856000
880.351990,445.056000,-7.808000
884.255981,448.959991,-5.856000
884.255981,433.343994,-5.856000
884.255981,437.247986,-1.952000
880.351990,441.152008,5.856000
886.208008,431.391998,-1.952000
882.304016,437.247986,-1.952000
878.400024,437.247986,-5.856000
884.255981,443.104004,-5.856000
890.112000,427.488007,3.904000
888.159973,433.343994,-1.952000
890.112000,437.247986,0.000000
888.159973,435.295990,-5.856000
882.304016,443.104004,-3.904000
884.255981,437.247986,-1.952000
882.304016,443.104004,-1.952000
886.208008,435.295990,-11.712000
890.112000,425.536011,-5.856000
892.064026,433.343994,-11.712000
890.112000,431.391998,-7.808000
890.112000,433.343994,-13.664000
886.208008,443.104004,1.952000
890.112000,431.391998,-7.808000
892.064026,437.247986,-3.904000
886.208008,437.247986,-5.856000
899.872009,435.295990,-9.760000
895.968018,439.200012,-9.760000
895.968018,431.391998,-5.856000
888.159973,437.247986,-1.952000
888.159973,437.247986,-1.952000
886.208008,443.104004,-1.952000
888.159973,437.247986,-1.952000
892.064026,443.104004,-7.808000
899.872009,437.247986,-9.760000
897.919983,431.391998,-7.808000
897.919983,429.440002,-7.808000
899.872009,431.391998,-15.616000
895.968018,433.343994,-9.760000
897.919983,435.295990,-9.760000
899.872009,425.536011,-9.760000
897.919983,435.295990,-7.808000
894.015991,439.200012,-11.712000
897.919983,439.200012,-7.808000
905.728027,439.200012,-3.904000
901.823975,433.343994,-5.856000
903.776001,437.247986,-15.616000
907.679993,431.391998,-5.856000
903.776001,429.440002,-1.952000
897.919983,439.200012,-1.952000
911.583984,427.488007,-15.616000
901.823975,437.247986,-11.712000
911.583984,437.247986,-9.760000
905.728027,429.440002,-15.616000
911.583984,435.295990,-15.616000
907.679993,433.343994,-9.760000
915.487976,429.440002,-9.760000
909.632019,431.391998,-3.904000
907.679993,437.247986,-11.712000
913.536011,435.295990,-11.712000
909.632019,433.343994,-9.760000
905.728027,439.200012,-7.808000
909.632019,435.295990,-5.856000
911.583984,437.247986,-9.760000
913.536011,429.440002,-11.712000
909.632019,431.391998,-11.712000
909.632019,437.247986,-3.904000
911.583984,439.200012,-11.712000
915.487976,441.152008,-15.616000
923.296021,443.104004,1.952000
919.392029,443.104004,-5.856000
925.247986,443.104004,-7.808000
923.296021,441.152008,-11.712000
931.104004,441.152008,-11.712000
931.104004,443.104004,-13.664000
923.296021,445.056000,-5.856000
915.487976,441.152008,-9.760000
921.343994,445.056000,-5.856000
931.104004,447.007996,-5.856000
929.151978,447.007996,-13.664000
929.151978,454.816010,-11.712000
925.247986,454.816010,-15.616000
923.296021,450.911987,-11.712000
925.247986,445.056000,0.000000
929.151978,445.056000,-13.664000
933.056030,456.768005,-15.616000
931.104004,443.104004,-17.568001
927.200012,448.959991,-17.568001
931.104004,456.768005,-17.568001
935.007996,466.528015,-13.664000
931.104004,458.720001,-27.327999
935.007996,456.768005,-15.616000
931.104004,466.528015,-17.568001
935.007996,456.768005,-21.472000
936.960022,460.671997,-17.568001
936.960022,466.528015,-19.520000
933.056030,468.480011,-17.568001
944.768005,464.575989,-25.375999
942.815979,468.480011,-21.472000
936.960022,478.239990,-25.375999
950.624023,476.287994,-29.280001
946.719971,478.239990,-27.327999
954.528015,489.951996,-25.375999
948.671997,478.239990,-19.520000
952.575989,476.287994,-19.520000
944.768005,484.096008,-25.375999
954.528015,474.335999,-25.375999
960.383972,474.335999,-23.424000
962.335999,482.144012,-25.375999
960.383972,480.191986,-19.520000
956.479980,482.144012,-9.760000
958.432007,488.000000,-11.712000
952.575989,484.096008,-15.616000
954.528015,484.096008,-11.712000
946.719971,486.048004,-13.664000
935.007996,474.335999,-13.664000
935.007996,468.480011,-15.616000
921.343994,476.287994,-11.712000
929.151978,476.287994,-13.664000
913.536011,464.575989,-13.664000
905.728027,464.575989,-17.568001
909.632019,462.623993,-42.944000
909.632019,472.384003,-48.799999
913.536011,482.144012,-70.272003
911.583984,493.855988,-78.080002
919.392029,503.615997,-85.888000
933.056030,527.039978,-81.984001
935.007996,544.607971,-80.031998
936.960022,556.320007,-70.272003
946.719971,556.320007,-56.608002
952.575989,575.840027,-39.040001
970.143982,583.648010,-29.280001
987.711975,583.648010,-25.375999
993.567993,587.552002,-21.472000
1001.375977,577.791992,-23.424000
1007.231995,583.648010,-23.424000
1009.184021,575.840027,-17.568001
1009.184021,573.888000,-17.568001
1015.039978,564.127991,-25.375999
1016.992004,556.320007,-37.088001
1022.848022,560.223999,-66.367996
1038.463989,573.888000,-72.223999
1038.463989,566.080017,-93.695999
1061.887939,585.599976,-103.456001
1067.744019,597.312012,-117.120003
1071.647949,632.447998,-117.120003
1073.599976,648.064026,-111.264000
1081.407959,669.536011,-91.744003
1083.359985,683.200012,-80.031998
1097.024048,689.056030,-66.367996
1110.687988,694.911987,-60.512001
1110.687988,683.200012,-42.944000
1118.495972,671.487976,-31.232000
1106.784058,659.776001,-19.520000
1102.880005,632.447998,-15.616000
1083.359985,599.263977,-11.712000
1050.176025,568.031982,-13.664000
1030.656006,544.607971,-13.664000
997.471985,511.424011,-17.568001
960.383972,484.096008,-21.472000
940.864014,466.528015,-42.944000
931.104004,458.720001,-68.320000
915.487976,448.959991,-89.792000
897.919983,443.104004,-113.216003
897.919983,462.623993,-119.071999
886.208008,484.096008,-134.688004
903.776001,519.231995,-132.735992
915.487976,532.895996,-119.071999
923.296021,554.367981,-103.456001
931.104004,591.455994,-91.744003
950.624023,614.880005,-76.127998
956.479980,620.736023,-54.655998
981.856018,620.736023,-48.799999
997.471985,632.447998,-46.848000
1007.231995,630.495972,-40.992001
1013.088013,618.783997,-33.183998
1013.088013,587.552002,-46.848000
1015.039978,558.271973,-46.848000
1011.135986,568.031982,-60.512001
1003.328003,528.992004,-74.176003
985.760010,505.567993,-68.320000
970.143982,482.144012,-78.080002
946.719971,478.239990,-81.984001
935.007996,472.384003,-99.552002
933.056030,470.432007,-101.503998
935.007996,466.528015,-113.216003
921.343994,482.144012,-117.120003
911.583984,503.615997,-105.407997
919.392029,528.992004,-95.648003
919.392029,550.463989,-89.792000
936.960022,577.791992,-68.320000
927.200012,603.168030,-62.464001
919.392029,620.736023,-35.136002
915.487976,624.640015,-25.375999
909.632019,642.208008,-23.424000
919.392029,622.687988,-31.232000
915.487976,622.687988,-33.183998
919.392029,599.263977,-50.751999
903.776001,573.888000,-52.703999
897.919983,546.559998,-66.367996
878.400024,519.231995,-74.176003
886.208008,489.951996,-80.031998
876.447998,462.623993,-78.080002
878.400024,439.200012,-76.127998
870.591980,427.488007,-64.416000
866.687988,417.727997,-54.655998
884.255981,423.584015,-50.751999
886.208008,429.440002,-37.088001
894.015991,439.200012,-17.568001
907.679993,458.720001,-3.904000
905.728027,491.903992,5.856000
915.487976,515.328003,13.664000
907.679993,542.656006,11.712000
911.583984,558.271973,15.616000
909.632019,577.791992,9.760000
899.872009,597.312012,0.000000
888.159973,597.312012,1.952000
878.400024,599.263977,-15.616000
876.447998,573.888000,-25.375999
876.447998,562.176025,-39.040001
872.544006,523.135986,-54.655998
864.736023,480.191986,-62.464001
858.880005,445.056000,-66.367996
853.023987,415.776001,-62.464001
862.783997,384.544006,-64.416000
868.640015,351.359985,-56.608002
876.447998,333.791992,-58.560001
882.304016,339.648010,-37.088001
884.255981,353.312012,-15.616000
880.351990,359.167999,-3.904000
884.255981,366.976013,13.664000
882.304016,417.727997,11.712000
892.064026,468.480011,19.520000
884.255981,505.567993,31.232000
872.544006,525.088013,35.136002
886.208008,544.607971,33.183998
890.112000,568.031982,25.375999
892.064026,579.744019,21.472000
905.728027,556.320007,1.952000
894.015991,550.463989,-9.760000
903.776001,530.943970,-5.856000
905.728027,509.471985,-13.664000
913.536011,472.384003,-7.808000
929.151978,425.536011,-1.952000
940.864014,390.399994,1.952000
960.383972,359.167999,7.808000
976.000000,341.600006,23.424000
1011.135986,304.511993,39.040001
1028.703979,283.040009,52.703999
1054.079956,273.279999,72.223999
1069.696045,273.279999,89.792000
1065.791992,281.088013,126.879997
1061.887939,292.799988,158.112000
1054.079956,308.415985,160.063995
1052.128052,349.407990,156.160004
1048.223999,368.928009,138.591995
1044.319946,374.783997,111.264000
1046.271973,398.208008,80.031998
1048.223999,407.967987,33.183998
1030.656006,423.584015,1.952000
1003.328003,419.679993,-15.616000
991.616028,406.015991,-29.280001
981.856018,400.160004,-33.183998
960.383972,394.303986,-40.992001
936.960022,386.496002,-40.992001
921.343994,376.735992,-29.280001
915.487976,366.976013,-25.375999
903.776001,355.264008,-29.280001
899.872009,357.216003,-31.232000
913.536011,353.312012,-39.040001
919.392029,335.743988,-29.280001
907.679993,331.839996,-17.568001
919.392029,353.312012,-9.760000
915.487976,359.167999,-7.808000
923.296021,368.928009,1.952000
913.536011,376.735992,15.616000
925.247986,390.399994,31.232000
929.151978,398.208008,33.183998
927.200012,419.679993,37.088001
929.151978,419.679993,27.327999
929.151978,425.536011,37.088001
942.815979,421.631989,29.280001
944.768005,417.727997,27.327999
950.624023,404.063995,25.375999
942.815979,396.256012,25.375999
952.575989,378.687988,11.712000
956.479980,363.071991,13.664000
954.528015,359.167999,7.808000
954.528015,345.503998,0.000000
948.671997,327.936005,11.712000
952.575989,320.127991,21.472000
936.960022,306.463989,11.712000
905.728027,314.272003,19.520000
923.296021,281.088013,27.327999
931.104004,273.279999,13.664000
950.624023,298.656006,15.616000
962.335999,281.088013,23.424000
962.335999,296.704010,39.040001
974.047974,314.272003,52.703999
981.856018,343.552002,72.223999
985.760010,376.735992,89.792000
1015.039978,382.592010,132.735992
1034.560059,382.592010,210.815994
1061.887939,409.920013,261.567993
1077.504028,431.391998,288.895996
1098.975952,398.208008,275.231995
1097.024048,374.783997,240.095993
1063.839966,380.640015,199.104004
1040.416016,382.592010,134.688004
1013.088013,363.071991,76.127998
979.903992,335.743988,33.183998
954.528015,327.936005,-1.952000
925.247986,343.552002,-17.568001
903.776001,337.696014,-33.183998
884.255981,310.368011,-37.088001
884.255981,308.415985,-37.088001
886.208008,318.175995,-27.327999
907.679993,329.888000,-3.904000
905.728027,327.936005,74.176003
868.640015,331.839996,224.479996
882.304016,335.743988,320.127991
952.575989,351.359985,388.447998
1057.984009,361.119995,435.295990
1173.151978,325.984009,433.343994
1227.807983,322.079987,445.056000
1235.615967,294.752014,458.720001
1235.615967,322.079987,460.671997
1194.624023,302.559998,456.768005
1151.680054,279.135986,435.295990
1083.359985,277.183990,386.496002
1034.560059,273.279999,335.743988
1016.992004,316.223999,296.704010
985.760010,296.704010,279.135986
997.471985,298.656006,253.759995
1001.375977,284.992004,244.000000
1026.751953,308.415985,251.807999
1056.031982,314.272003,242.048004
1077.504028,294.752014,234.240005
1122.400024,331.839996,103.456001
1214.144043,337.696014,-83.935997
1206.336060,134.688004,-206.912003
1136.063965,56.608002,-236.192001
1018.943970,199.104004,-197.151993
925.247986,353.312012,-111.264000
878.400024,363.071991,-46.848000
878.400024,286.944000,-1.952000
911.583984,314.272003,17.568001
946.719971,406.015991,5.856000
974.047974,482.144012,13.664000
1018.943970,525.088013,48.799999
1038.463989,813.984009,136.639999
999.424011,540.703979,259.615997
999.424011,638.304016,331.839996
1038.463989,404.063995,357.216003
1065.791992,366.976013,329.888000
1126.303955,464.575989,300.608002
1147.776001,325.984009,335.743988
1147.776001,353.312012,324.032013
1149.728027,324.032013,308.415985
1138.015991,292.799988,316.223999
1128.255981,308.415985,310.368011
1128.255981,363.071991,283.040009
1106.784058,404.063995,261.567993
1079.456055,507.519989,240.095993
1081.407959,624.640015,206.912003
1081.407959,790.559998,193.248001
1087.264038,925.247986,163.968002
1073.599976,989.664001,146.399994
895.968018,294.752014,175.679993
845.216003,-935.007996,220.576004
954.528015,-462.623993,191.296005
1034.560059,-171.776001,66.367996
1097.024048,220.576004,-64.416000
1128.255981,-89.792000,-111.264000
1116.543945,-806.176025,-175.679993
1165.343994,-817.888000,-228.384003
1028.703979,261.567993,-146.399994
925.247986,1095.072021,-46.848000
931.104004,480.191986,9.760000
1009.184021,78.080002,78.080002
991.616028,107.360001,138.591995
972.096008,427.488007,171.776001
944.768005,560.223999,193.248001
993.567993,292.799988,201.056000
1013.088013,158.112000,228.384003
1024.800049,255.712006,247.904007
1009.184021,372.832001,294.752014
1030.656006,386.496002,325.984009
1040.416016,300.608002,361.119995
1050.176025,273.279999,372.832001
1056.031982,304.511993,370.880005
1067.744019,324.032013,370.880005
1061.887939,316.223999,368.928009
1063.839966,290.847992,353.312012
1061.887939,306.463989,339.648010
1048.223999,320.127991,316.223999
1036.511963,320.127991,281.088013
1044.319946,288.895996,245.951996
1034.560059,275.231995,203.007996
1024.800049,271.328003,185.440002
991.616028,300.608002,152.255997
991.616028,247.904007,134.688004
987.711975,230.335999,115.167999
970.143982,253.759995,83.935997
979.903992,228.384003,58.560001
985.760010,218.623993,56.608002
997.471985,232.287994,70.272003
1015.039978,265.471985,74.176003
993.567993,247.904007,66.367996
989.664001,234.240005,50.751999
970.143982,302.559998,33.183998
1015.039978,249.856003,31.232000
991.616028,302.559998,17.568001
1054.079956,259.615997,-11.712000
1026.751953,286.944000,-17.568001
1009.184021,238.143997,5.856000
1030.656006,218.623993,33.183998
1034.560059,208.863998,81.984001
1015.039978,214.720001,126.879997
1020.895996,210.815994,169.824005
987.711975,218.623993,222.528000
991.616028,163.968002,253.759995
989.664001,173.727997,286.944000
989.664001,179.584000,318.175995
1005.280029,208.863998,335.743988
1011.135986,247.904007,335.743988
983.807983,261.567993,341.600006
1038.463989,261.567993,329.888000
1073.599976,343.552002,294.752014
1093.119995,365.023987,242.048004
1091.167969,347.455994,232.287994
1108.735962,359.167999,230.335999
1110.687988,347.455994,214.720001
1032.608032,429.440002,197.151993
958.432007,386.496002,138.591995
987.711975,247.904007,66.367996
979.903992,304.511993,29.280001
1016.992004,355.264008,-15.616000
1067.744019,271.328003,-7.808000
1104.832031,220.576004,25.375999
1079.456055,267.424011,81.984001
1063.839966,298.656006,146.399994
1046.271973,294.752014,171.776001
1059.936035,279.135986,212.768005
1065.791992,269.376007,271.328003
1073.599976,283.040009,308.415985
1079.456055,302.559998,329.888000
1069.696045,296.704010,341.600006
1061.887939,302.559998,351.359985
1057.984009,322.079987,361.119995
1040.416016,333.791992,368.928009
1022.848022,261.567993,388.447998
892.064026,-64.416000,423.584015
870.591980,-68.320000,388.447998
993.567993,290.847992,320.127991
1108.735962,374.783997,269.376007
1167.296021,281.088013,273.279999
1141.920044,277.183990,308.415985
1112.640015,302.559998,310.368011
1108.735962,284.992004,312.320007
1153.631958,310.368011,284.992004
1157.536011,351.359985,290.847992
1149.728027,353.312012,298.656006
1141.920044,261.567993,310.368011
1147.776001,128.832001,294.752014
1165.343994,134.688004,273.279999
915.487976,-81.984001,290.847992
689.056030,-97.599998,275.231995
892.064026,556.320007,193.248001
1089.215942,544.607971,121.024002
1167.296021,251.807999,76.127998
1098.975952,306.463989,93.695999
1020.895996,564.127991,85.888000
1005.280029,601.216003,62.464001
993.567993,534.848022,56.608002
956.479980,587.552002,85.888000
987.711975,661.728027,89.792000
995.520020,732.000000,121.024002
1001.375977,728.096008,152.255997
987.711975,694.911987,197.151993
956.479980,728.096008,247.904007
956.479980,726.143982,269.376007
976.000000,724.192017,273.279999
966.239990,716.383972,263.519989
995.520020,628.544006,253.759995
966.239990,534.848022,257.664001
974.047974,448.959991,257.664001
970.143982,568.031982,257.664001
956.479980,696.864014,267.424011
946.719971,724.192017,269.376007
956.479980,636.351990,275.231995
966.239990,525.088013,240.095993
976.000000,579.744019,214.720001
977.952026,708.575989,171.776001
1022.848022,724.192017,132.735992
977.952026,702.719971,132.735992
952.575989,577.791992,128.832001
940.864014,585.599976,101.503998
933.056030,671.487976,89.792000
954.528015,685.151978,91.744003
1015.039978,609.023987,91.744003
1065.791992,577.791992,126.879997
1188.767944,532.895996,138.591995
1335.167969,413.824005,148.352005
890.112000,-568.031982,247.904007
-97.599998,-1524.511963,429.440002
771.039978,83.935997,296.704010
1430.816040,1067.744019,244.000000
1186.816040,175.679993,306.463989
571.935974,-156.160004,339.648010
406.015991,87.839996,249.856003
903.776001,81.984001,62.464001
839.359985,-124.928001,35.136002
751.520020,-257.664001,17.568001
874.495972,158.112000,-17.568001
860.831970,288.895996,7.808000
677.343994,-128.832001,52.703999
714.432007,-173.727997,52.703999
794.463989,187.391998,42.944000
812.031982,261.567993,62.464001
882.304016,-177.632004,72.223999
929.151978,-406.015991,103.456001
892.064026,-3.904000,165.919998
815.935974,279.135986,224.479996
788.607971,242.048004,247.904007
815.935974,124.928001,247.904007
819.840027,134.688004,224.479996
829.599976,206.912003,195.199997
851.072021,275.231995,169.824005
878.400024,275.231995,150.304001
862.783997,286.944000,134.688004
894.015991,193.248001,138.591995
854.976013,284.992004,169.824005
860.831970,501.664001,195.199997
888.159973,560.223999,208.863998
888.159973,523.135986,220.576004
874.495972,552.416016,240.095993
876.447998,636.351990,244.000000
845.216003,667.583984,277.183990
765.184021,527.039978,300.608002
749.567993,472.384003,331.839996
780.799988,624.640015,341.600006
784.703979,689.056030,335.743988
815.935974,610.976013,324.032013
819.840027,540.703979,306.463989
835.455994,562.176025,322.079987
837.408020,589.504028,333.791992
827.648010,564.127991,339.648010
829.599976,532.895996,357.216003
810.080017,548.512024,366.976013
798.367981,612.927979,372.832001
794.463989,673.440002,349.407990
704.671997,921.343994,314.272003
683.200012,1015.039978,203.007996
810.080017,406.015991,72.223999
856.927979,335.743988,-5.856000
899.872009,593.408020,-27.327999
942.815979,407.967987,27.327999
895.968018,283.040009,130.783997
845.216003,474.335999,206.912003
876.447998,484.096008,275.231995
905.728027,283.040009,335.743988
892.064026,183.488007,394.303986
866.687988,265.471985,433.343994
858.880005,331.839996,452.864014
854.976013,269.376007,472.384003
854.976013,173.727997,482.144012
856.927979,185.440002,488.000000
858.880005,226.432007,493.855988
864.736023,230.335999,495.808014
866.687988,214.720001,495.808014
874.495972,208.863998,495.808014
880.351990,234.240005,501.664001
882.304016,238.143997,480.191986
895.968018,191.296005,458.720001
895.968018,169.824005,443.104004
890.112000,212.768005,431.391998
913.536011,247.904007,419.679993
907.679993,290.847992,415.776001
888.159973,283.040009,415.776001
899.872009,222.528000,409.920013
882.304016,148.352005,407.967987
886.208008,130.783997,398.208008
899.872009,181.535995,396.256012
878.400024,339.648010,402.112000
878.400024,419.679993,406.015991
790.559998,333.791992,415.776001
651.968018,247.904007,429.440002
640.255981,443.104004,413.824005
782.752014,679.296021,380.640015
841.312012,486.048004,368.928009
905.728027,163.968002,355.264008
860.831970,267.424011,382.592010
812.031982,411.872009,431.391998
831.552002,365.023987,447.007996
851.072021,292.799988,450.911987
868.640015,259.615997,472.384003
866.687988,210.815994,491.903992
843.263977,230.335999,525.088013
851.072021,263.519989,527.039978
866.687988,273.279999,525.088013
897.919983,259.615997,536.799988
925.247986,222.528000,532.895996
907.679993,162.016006,552.416016
890.112000,138.591995,575.840027
884.255981,150.304001,595.359985
909.632019,140.544006,607.072021
1013.088013,163.968002,614.880005
1081.407959,228.384003,626.591980
921.343994,-54.655998,646.112000
300.608002,-831.552002,712.479980
663.679993,-755.424011,642.208008
950.624023,171.776001,597.312012
322.079987,1799.744019,532.895996
1132.160034,1557.696045,382.592010
677.343994,1038.463989,325.984009
1030.656006,-569.984009,306.463989
936.960022,66.367996,341.600006
872.544006,325.984009,398.208008
687.104004,435.295990,429.440002
743.711975,400.160004,437.247986
856.927979,320.127991,447.007996
798.367981,374.783997,474.335999
780.799988,392.351990,484.096008
821.791992,357.216003,491.903992
784.703979,359.167999,505.567993
774.943970,351.359985,528.992004
618.783997,119.071999,560.223999
365.023987,-7.808000,575.840027
523.135986,341.600006,519.231995
790.559998,640.255981,470.432007
882.304016,419.679993,458.720001
827.648010,27.327999,470.432007
677.343994,-7.808000,499.712006
704.671997,136.639999,493.855988
757.375977,181.535995,484.096008
550.463989,-33.183998,493.855988
517.280029,-148.352005,450.911987
745.664001,-83.935997,402.112000
741.760010,-117.120003,394.303986
737.856018,-185.440002,411.872009
772.992004,-228.384003,431.391998
776.895996,-253.759995,443.104004
569.984009,21.472000,478.239990
519.231995,511.424011,456.768005
667.583984,679.296021,421.631989
634.400024,540.703979,407.967987
609.023987,534.848022,425.536011
626.591980,571.935974,441.152008
607.072021,544.607971,450.911987
589.504028,450.911987,460.671997
587.552002,415.776001,468.480011
579.744019,423.584015,464.575989
575.840027,398.208008,468.480011
577.791992,366.976013,464.575989
562.176025,343.552002,452.864014
562.176025,331.839996,443.104004
573.888000,306.463989,425.536011
568.031982,253.759995,421.631989
587.552002,230.335999,409.920013
591.455994,9.760000,406.015991
845.216003,-1305.887939,333.791992
694.911987,-1397.631958,363.071991
519.231995,-292.799988,392.351990
616.831970,284.992004,372.832001
663.679993,404.063995,366.976013
593.408020,376.735992,378.687988
482.144012,218.623993,368.928009
450.911987,121.024002,351.359985
530.943970,263.519989,331.839996
585.599976,398.208008,324.032013
546.559998,450.911987,320.127991
452.864014,433.343994,329.888000
368.928009,433.343994,329.888000
396.256012,501.664001,324.032013
544.607971,556.320007,296.704010
626.591980,595.359985,277.183990
583.648010,579.744019,275.231995
460.671997,603.168030,284.992004
407.967987,659.776001,300.608002
435.295990,737.856018,294.752014
491.903992,808.127991,267.424011
536.799988,827.648010,257.664001
499.712006,681.247986,265.471985
527.039978,183.488007,251.807999
550.463989,-148.352005,244.000000
503.615997,74.176003,257.664001
452.864014,517.280029,283.040009
402.112000,792.512024,306.463989
437.247986,778.848022,298.656006
480.191986,497.760010,290.847992
507.519989,216.671997,284.992004
484.096008,163.968002,284.992004
441.152008,306.463989,294.752014
419.679993,509.471985,302.559998
421.631989,558.271973,304.511993
439.200012,484.096008,298.656006
452.864014,361.119995,286.944000
450.911987,284.992004,290.847992
421.631989,312.320007,283.040009
398.208008,390.399994,284.992004
407.967987,435.295990,277.183990
404.063995,421.631989,257.664001
415.776001,384.544006,249.856003
409.920013,320.127991,247.904007
417.727997,296.704010,230.335999
409.920013,288.895996,210.815994
396.256012,290.847992,195.199997
361.119995,269.376007,191.296005
327.936005,230.335999,191.296005
318.175995,165.919998,169.824005
320.127991,134.688004,154.207993
327.936005,121.024002,136.639999
329.888000,124.928001,121.024002
329.888000,117.120003,101.503998
329.888000,91.744003,85.888000
325.984009,68.320000,76.127998
325.984009,58.560001,68.320000
325.984009,76.127998,66.367996
329.888000,99.552002,72.223999
324.032013,107.360001,78.080002
329.888000,78.080002,80.031998
322.079987,83.935997,83.935997
329.888000,113.216003,85.888000
327.936005,138.591995,97.599998
341.600006,163.968002,115.167999
345.503998,179.584000,117.120003
355.264008,210.815994,134.688004
376.735992,259.615997,167.871994
396.256012,306.463989,210.815994
409.920013,353.312012,257.664001
427.488007,398.208008,304.511993
439.200012,429.440002,353.312012
462.623993,478.239990,390.399994
478.239990,507.519989,425.536011
493.855988,488.000000,466.528015
499.712006,466.528015,484.096008
521.184021,476.287994,513.375977
532.895996,484.096008,528.992004
542.656006,470.432007,546.559998
554.367981,462.623993,562.176025
571.935974,452.864014,585.599976
579.744019,441.152008,593.408020
591.455994,417.727997,607.072021
601.216003,413.824005,618.783997
610.976013,404.063995,612.927979
612.927979,386.496002,614.880005
610.976013,365.023987,605.119995
612.927979,345.503998,593.408020
609.023987,325.984009,579.744019
614.880005,312.320007,573.888000
607.072021,294.752014,564.127991
595.359985,284.992004,538.752014
595.359985,283.040009,527.039978
595.359985,279.135986,521.184021
595.359985,283.040009,495.808014
601.216003,275.231995,486.048004
605.119995,271.328003,480.191986
607.072021,281.088013,466.528015
610.976013,298.656006,458.720001
601.216003,302.559998,450.911987
607.072021,296.704010,447.007996
609.023987,318.175995,450.911987
609.023987,320.127991,447.007996
618.783997,331.839996,448.959991
612.927979,341.600006,456.768005
624.640015,355.264008,456.768005
636.351990,365.023987,474.335999
638.304016,351.359985,478.239990
646.112000,355.264008,480.191986
646.112000,365.023987,480.191986
648.064026,368.928009,489.951996
663.679993,355.264008,491.903992
663.679993,351.359985,497.760010
681.247986,353.312012,488.000000
683.200012,339.648010,489.951996
679.296021,333.791992,491.903992
687.104004,341.600006,484.096008
692.960022,331.839996,476.287994
702.719971,343.552002,480.191986
698.815979,335.743988,474.335999
696.864014,339.648010,470.432007
694.911987,351.359985,464.575989
691.007996,345.503998,470.432007
696.864014,347.455994,458.720001
704.671997,357.216003,450.911987
708.575989,353.312012,454.816010
716.383972,353.312012,445.056000
716.383972,351.359985,445.056000
724.192017,351.359985,441.152008
722.239990,347.455994,450.911987
726.143982,347.455994,445.056000
726.143982,339.648010,445.056000
739.807983,347.455994,452.864014
737.856018,333.791992,448.959991
741.760010,341.600006,458.720001
741.760010,329.888000,445.056000
745.664001,329.888000,445.056000
753.471985,324.032013,450.911987
757.375977,318.175995,441.152008
767.135986,329.888000,433.343994
771.039978,324.032013,427.488007
778.848022,325.984009,435.295990
782.752014,322.079987,425.536011
782.752014,320.127991,425.536011
782.752014,322.079987,427.488007
790.559998,318.175995,429.440002
788.607971,320.127991,415.776001
794.463989,327.936005,419.679993
800.320007,339.648010,421.631989
800.320007,335.743988,421.631989
810.080017,337.696014,417.727997
806.176025,351.359985,419.679993
800.320007,347.455994,431.391998
794.463989,343.552002,425.536011
806.176025,355.264008,435.295990
806.176025,339.648010,421.631989
819.840027,337.696014,423.584015
819.840027,337.696014,429.440002
827.648010,331.839996,435.295990
819.840027,335.743988,437.247986
815.935974,331.839996,435.295990
815.935974,327.936005,433.343994
819.840027,324.032013,441.152008
821.791992,327.936005,441.152008
825.695984,324.032013,435.295990
821.791992,329.888000,437.247986
825.695984,331.839996,443.104004
819.840027,327.936005,454.816010
827.648010,325.984009,450.911987
825.695984,325.984009,447.007996
827.648010,324.032013,445.056000
835.455994,320.127991,445.056000
833.504028,322.079987,441.152008
833.504028,337.696014,437.247986
835.455994,337.696014,450.911987
837.408020,339.648010,448.959991
837.408020,341.600006,450.911987
835.455994,341.600006,448.959991
837.408020,341.600006,448.959991
831.552002,335.743988,445.056000
841.312012,337.696014,447.007996
833.504028,349.407990,445.056000
835.455994,347.455994,443.104004
835.455994,341.600006,441.152008
845.216003,345.503998,435.295990
839.359985,335.743988,439.200012
839.359985,341.600006,433.343994
849.119995,337.696014,447.007996
845.216003,335.743988,439.200012
835.455994,337.696014,435.295990
827.648010,341.600006,443.104004
835.455994,333.791992,441.152008
839.359985,333.791992,435.295990
835.455994,339.648010,429.440002
827.648010,331.839996,431.391998
837.408020,331.839996,427.488007
835.455994,339.648010,427.488007
835.455994,337.696014,433.343994
843.263977,335.743988,427.488007
837.408020,327.936005,433.343994
831.552002,331.839996,435.295990
845.216003,331.839996,425.536011
847.168030,331.839996,425.536011
849.119995,320.127991,425.536011
860.831970,320.127991,427.488007
856.927979,322.079987,429.440002
847.168030,312.320007,425.536011
843.263977,320.127991,425.536011
837.408020,335.743988,425.536011
823.744019,345.503998,425.536011
831.552002,335.743988,443.104004
825.695984,335.743988,437.247986
823.744019,349.407990,441.152008
833.504028,325.984009,433.343994
833.504028,306.463989,433.343994
827.648010,312.320007,431.391998
825.695984,306.463989,435.295990
825.695984,300.608002,431.391998
825.695984,288.895996,429.440002
827.648010,300.608002,431.391998
817.888000,302.559998,417.727997
821.791992,296.704010,421.631989
821.791992,292.799988,415.776001
808.127991,294.752014,425.536011
815.935974,292.799988,423.584015
815.935974,292.799988,413.824005
817.888000,281.088013,413.824005
821.791992,290.847992,415.776001
815.935974,288.895996,413.824005
815.935974,290.847992,409.920013
813.984009,292.799988,407.967987
812.031982,292.799988,402.112000
815.935974,300.608002,406.015991
812.031982,294.752014,400.160004
821.791992,300.608002,404.063995
812.031982,290.847992,404.063995
817.888000,288.895996,396.256012
815.935974,284.992004,396.256012
827.648010,279.135986,402.112000
827.648010,290.847992,398.208008
827.648010,281.088013,398.208008
837.408020,283.040009,404.063995
839.359985,283.040009,400.160004
831.552002,284.992004,406.015991
833.504028,283.040009,400.160004
833.504028,275.231995,396.256012
839.359985,273.279999,404.063995
843.263977,279.135986,388.447998
845.216003,288.895996,394.303986
839.359985,286.944000,392.351990
841.312012,284.992004,400.160004
853.023987,283.040009,390.399994
843.263977,286.944000,396.256012
845.216003,286.944000,394.303986
849.119995,279.135986,386.496002
851.072021,283.040009,386.496002
853.023987,290.847992,386.496002
849.119995,286.944000,392.351990
854.976013,286.944000,396.256012
851.072021,286.944000,402.112000
858.880005,275.231995,400.160004
864.736023,273.279999,398.208008
864.736023,269.376007,394.303986
864.736023,275.231995,407.967987
858.880005,269.376007,402.112000
866.687988,271.328003,396.256012
856.927979,271.328003,404.063995
862.783997,269.376007,404.063995
864.736023,279.135986,406.015991
864.736023,275.231995,406.015991
870.591980,277.183990,409.920013
870.591980,273.279999,409.920013
876.447998,283.040009,402.112000
876.447998,283.040009,407.967987
880.351990,284.992004,407.967987
884.255981,281.088013,404.063995
880.351990,290.847992,407.967987
882.304016,286.944000,409.920013
882.304016,292.799988,407.967987
888.159973,290.847992,406.015991
895.968018,286.944000,411.872009
905.728027,292.799988,404.063995
905.728027,296.704010,406.015991
901.823975,290.847992,411.872009
905.728027,286.944000,404.063995
927.200012,284.992004,407.967987
929.151978,283.040009,398.208008
925.247986,273.279999,394.303986
929.151978,298.656006,413.824005
929.151978,294.752014,396.256012
923.296021,292.799988,398.208008
925.247986,296.704010,400.160004
935.007996,296.704010,406.015991
942.815979,294.752014,413.824005
944.768005,292.799988,404.063995
944.768005,286.944000,402.112000
946.719971,281.088013,404.063995
946.719971,277.183990,404.063995
950.624023,273.279999,402.112000
952.575989,283.040009,409.920013
956.479980,283.040009,411.872009
956.479980,275.231995,409.920013
966.239990,279.135986,415.776001
954.528015,269.376007,411.872009
956.479980,275.231995,409.920013
960.383972,277.183990,409.920013
964.288025,269.376007,415.776001
970.143982,265.471985,419.679993
970.143982,269.376007,415.776001
968.192017,273.279999,415.776001
977.952026,275.231995,411.872009
966.239990,267.424011,411.872009
970.143982,273.279999,409.920013
974.047974,283.040009,406.015991
968.192017,284.992004,402.112000
970.143982,279.135986,402.112000
960.383972,275.231995,402.112000
964.288025,269.376007,407.967987
968.192017,263.519989,402.112000
968.192017,253.759995,394.303986
966.239990,251.807999,400.160004
972.096008,253.759995,392.351990
968.192017,238.143997,382.592010
956.479980,245.951996,388.447998
960.383972,244.000000,378.687988
956.479980,232.287994,372.832001
954.528015,232.287994,374.783997
952.575989,236.192001,368.928009
950.624023,234.240005,365.023987
946.719971,232.287994,357.216003
944.768005,224.479996,359.167999
946.719971,232.287994,355.264008
938.911987,226.432007,351.359985
942.815979,226.432007,345.503998
946.719971,236.192001,345.503998
938.911987,228.384003,351.359985
938.911987,222.528000,341.600006
940.864014,230.335999,349.407990
936.960022,234.240005,343.552002
938.911987,228.384003,347.455994
929.151978,240.095993,347.455994
942.815979,228.384003,335.743988
933.056030,226.432007,349.407990
929.151978,224.479996,343.552002
936.960022,226.432007,351.359985
936.960022,220.576004,361.119995
935.007996,216.671997,357.216003
933.056030,210.815994,347.455994
929.151978,208.863998,345.503998
931.104004,210.815994,353.312012
933.056030,204.960007,355.264008
936.960022,199.104004,361.119995
929.151978,203.007996,355.264008
929.151978,199.104004,355.264008
931.104004,201.056000,343.552002
921.343994,203.007996,353.312012
913.536011,197.151993,353.312012
921.343994,197.151993,357.216003
927.200012,201.056000,351.359985
919.392029,197.151993,351.359985
923.296021,199.104004,347.455994
915.487976,199.104004,353.312012
909.632019,203.007996,365.023987
915.487976,201.056000,359.167999
913.536011,203.007996,355.264008
905.728027,199.104004,341.600006
905.728027,197.151993,343.552002
907.679993,191.296005,345.503998
911.583984,177.632004,351.359985
907.679993,181.535995,339.648010
919.392029,185.440002,349.407990
905.728027,173.727997,343.552002
897.919983,165.919998,331.839996
905.728027,167.871994,341.600006
899.872009,171.776001,337.696014
899.872009,169.824005,337.696014
903.776001,160.063995,349.407990
899.872009,173.727997,343.552002
901.823975,154.207993,345.503998
894.015991,160.063995,343.552002
895.968018,152.255997,339.648010
895.968018,160.063995,335.743988
895.968018,156.160004,339.648010
894.015991,152.255997,343.552002
899.872009,148.352005,339.648010
901.823975,152.255997,349.407990
897.919983,150.304001,345.503998
897.919983,142.496002,337.696014
878.400024,156.160004,337.696014
872.544006,158.112000,341.600006
866.687988,162.016006,331.839996
862.783997,173.727997,335.743988
876.447998,163.968002,329.888000
878.400024,148.352005,331.839996
888.159973,146.399994,324.032013
882.304016,146.399994,320.127991
882.304016,140.544006,325.984009
890.112000,128.832001,325.984009
890.112000,136.639999,324.032013
884.255981,140.544006,322.079987
886.208008,132.735992,327.936005
882.304016,132.735992,325.984009
884.255981,128.832001,333.791992
878.400024,128.832001,335.743988
888.159973,132.735992,327.936005
888.159973,113.216003,337.696014
888.159973,113.216003,333.791992
882.304016,117.120003,329.888000
882.304016,115.167999,325.984009
882.304016,107.360001,322.079987
895.968018,115.167999,322.079987
895.968018,109.311996,322.079987
890.112000,117.120003,318.175995
890.112000,109.311996,322.079987
890.112000,115.167999,314.272003
886.208008,115.167999,304.511993
890.112000,115.167999,312.320007
894.015991,111.264000,308.415985
886.208008,113.216003,310.368011
890.112000,119.071999,314.272003
901.823975,107.360001,312.320007
899.872009,101.503998,310.368011
901.823975,101.503998,325.984009
901.823975,101.503998,320.127991
915.487976,95.648003,333.791992
913.536011,81.984001,341.600006
923.296021,81.984001,345.503998
929.151978,89.792000,353.312012
927.200012,85.888000,361.119995
931.104004,89.792000,359.167999
931.104004,93.695999,365.023987
933.056030,95.648003,370.880005
942.815979,91.744003,365.023987
948.671997,99.552002,378.687988
946.719971,95.648003,384.544006
944.768005,89.792000,380.640015
962.335999,93.695999,390.399994
956.479980,91.744003,386.496002
958.432007,99.552002,394.303986
948.671997,95.648003,392.351990
962.335999,93.695999,384.544006
962.335999,93.695999,384.544006
962.335999,97.599998,380.640015
966.239990,87.839996,378.687988
962.335999,85.888000,386.496002
964.288025,99.552002,390.399994
964.288025,91.744003,384.544006
970.143982,93.695999,388.447998
974.047974,89.792000,386.496002
964.288025,93.695999,392.351990
968.192017,87.839996,390.399994
968.192017,81.984001,390.399994
976.000000,89.792000,392.351990
972.096008,97.599998,396.256012
968.192017,95.648003,390.399994
977.952026,103.456001,396.256012
964.288025,99.552002,382.592010
960.383972,99.552002,386.496002
964.288025,105.407997,382.592010
960.383972,107.360001,386.496002
960.383972,111.264000,382.592010
956.479980,107.360001,374.783997
960.383972,111.264000,390.399994
966.239990,105.407997,380.640015
970.143982,111.264000,380.640015
964.288025,121.024002,376.735992
960.383972,119.071999,380.640015
968.192017,119.071999,376.735992
960.383972,121.024002,378.687988
960.383972,121.024002,378.687988
958.432007,130.783997,376.735992
952.575989,119.071999,370.880005
958.432007,121.024002,368.928009
960.383972,121.024002,370.880005
956.479980,126.879997,372.832001
952.575989,124.928001,372.832001
948.671997,124.928001,370.880005
958.432007,121.024002,368.928009
952.575989,124.928001,376.735992
944.768005,130.783997,370.880005
946.719971,130.783997,368.928009
948.671997,121.024002,366.976013
956.479980,130.783997,368.928009
956.479980,128.832001,363.071991
940.864014,130.783997,368.928009
938.911987,134.688004,365.023987
944.768005,146.399994,357.216003
938.911987,132.735992,351.359985
933.056030,130.783997,349.407990
931.104004,134.688004,349.407990
929.151978,134.688004,345.503998
927.200012,134.688004,349.407990
935.007996,134.688004,341.600006
933.056030,140.544006,337.696014
935.007996,132.735992,341.600006
927.200012,142.496002,331.839996
927.200012,142.496002,329.888000
927.200012,130.783997,331.839996
919.392029,140.544006,325.984009
915.487976,146.399994,320.127991
919.392029,146.399994,318.175995
917.440002,140.544006,322.079987
909.632019,136.639999,312.320007
917.440002,138.591995,316.223999
913.536011,132.735992,304.511993
913.536011,124.928001,308.415985
921.343994,126.879997,306.463989
919.392029,136.639999,294.752014
913.536011,132.735992,302.559998
911.583984,126.879997,304.511993
911.583984,134.688004,306.463989
909.632019,134.688004,302.559998
903.776001,126.879997,310.368011
905.728027,122.975998,304.511993
913.536011,132.735992,310.368011
911.583984,132.735992,306.463989
909.632019,121.024002,306.463989
915.487976,126.879997,304.511993
919.392029,124.928001,306.463989
913.536011,121.024002,292.799988
911.583984,132.735992,304.511993
915.487976,134.688004,302.559998
911.583984,144.447998,296.704010
905.728027,142.496002,296.704010
897.919983,142.496002,294.752014
901.823975,152.255997,283.040009
907.679993,142.496002,286.944000
911.583984,152.255997,286.944000
911.583984,162.016006,275.231995
907.679993,144.447998,286.944000
917.440002,144.447998,277.183990
909.632019,152.255997,279.135986
909.632019,144.447998,277.183990
911.583984,144.447998,273.279999
909.632019,146.399994,279.135986
913.536011,142.496002,279.135986
909.632019,144.447998,283.040009
915.487976,142.496002,281.088013
909.632019,134.688004,277.183990
913.536011,136.639999,277.183990
905.728027,138.591995,277.183990
909.632019,130.783997,267.424011
909.632019,138.591995,267.424011
913.536011,148.352005,267.424011
905.728027,144.447998,271.328003
903.776001,144.447998,259.615997
903.776001,154.207993,259.615997
901.823975,160.063995,249.856003
899.872009,160.063995,249.856003
903.776001,156.160004,253.759995
899.872009,154.207993,240.095993
901.823975,152.255997,242.048004
894.015991,152.255997,236.192001
901.823975,140.544006,222.528000
897.919983,148.352005,220.576004
894.015991,138.591995,218.623993
899.872009,128.832001,206.912003
895.968018,138.591995,204.960007
888.159973,142.496002,187.391998
890.112000,124.928001,185.440002
888.159973,124.928001,187.391998
882.304016,130.783997,187.391998
882.304016,124.928001,187.391998
895.968018,126.879997,185.440002
884.255981,130.783997,191.296005
901.823975,134.688004,193.248001
897.919983,130.783997,195.199997
905.728027,124.928001,203.007996
911.583984,122.975998,204.960007
901.823975,122.975998,199.104004
907.679993,126.879997,220.576004
915.487976,124.928001,224.479996
907.679993,128.832001,234.240005
909.632019,138.591995,234.240005
917.440002,126.879997,238.143997
927.200012,140.544006,240.095993
933.056030,140.544006,247.904007
936.960022,140.544006,249.856003
946.719971,138.591995,261.567993
942.815979,140.544006,249.856003
952.575989,140.544006,259.615997
946.719971,134.688004,259.615997
944.768005,136.639999,249.856003
952.575989,146.399994,263.519989
960.383972,136.639999,267.424011
958.432007,138.591995,259.615997
960.383972,138.591995,265.471985
964.288025,148.352005,253.759995
964.288025,138.591995,263.519989
977.952026,140.544006,261.567993
968.192017,144.447998,263.519989
974.047974,146.399994,259.615997
977.952026,144.447998,257.664001
983.807983,140.544006,265.471985
989.664001,146.399994,271.328003
991.616028,152.255997,273.279999
991.616028,148.352005,273.279999
1003.328003,140.544006,267.424011
1007.231995,152.255997,269.376007
1016.992004,150.304001,279.135986
1013.088013,148.352005,277.183990
1011.135986,144.447998,283.040009
1018.943970,154.207993,283.040009
1020.895996,156.160004,283.040009
1030.656006,162.016006,296.704010
1028.703979,156.160004,290.847992
1030.656006,160.063995,300.608002
1036.511963,167.871994,302.559998
1034.560059,167.871994,294.752014
1046.271973,173.727997,304.511993
1044.319946,171.776001,308.415985
1056.031982,165.919998,310.368011
1059.936035,160.063995,312.320007
1050.176025,156.160004,300.608002
1057.984009,160.063995,306.463989
1056.031982,160.063995,308.415985
1056.031982,165.919998,318.175995
1071.647949,144.447998,318.175995
1065.791992,138.591995,322.079987
1079.456055,148.352005,329.888000
1093.119995,152.255997,329.888000
1085.312012,142.496002,318.175995
1093.119995,154.207993,320.127991
1087.264038,156.160004,322.079987
1085.312012,169.824005,329.888000
1087.264038,181.535995,327.936005
1089.215942,181.535995,329.888000
1091.167969,187.391998,327.936005
1089.215942,199.104004,331.839996
1087.264038,195.199997,322.079987
1097.024048,201.056000,327.936005
1089.215942,208.863998,335.743988
1087.264038,199.104004,324.032013
1089.215942,197.151993,337.696014
1089.215942,193.248001,324.032013
1085.312012,189.343994,308.415985
1095.072021,181.535995,304.511993
1087.264038,171.776001,306.463989
1083.359985,173.727997,306.463989
1083.359985,160.063995,304.511993
1081.407959,177.632004,300.608002
1077.504028,162.016006,290.847992
1075.552002,169.824005,294.752014
1073.599976,169.824005,283.040009
1073.599976,163.968002,275.231995
1069.696045,173.727997,271.328003
1075.552002,169.824005,271.328003
1069.696045,183.488007,255.712006
1071.647949,185.440002,244.000000
1065.791992,181.535995,247.904007
1063.839966,191.296005,244.000000
1075.552002,203.007996,236.192001
1057.984009,201.056000,236.192001
1052.128052,214.720001,236.192001
1050.176025,238.143997,240.095993
1044.319946,224.479996,222.528000
1044.319946,220.576004,232.287994
1046.271973,218.623993,232.287994
1050.176025,199.104004,222.528000
1044.319946,197.151993,232.287994
1056.031982,191.296005,224.479996
1059.936035,167.871994,226.432007
1046.271973,183.488007,236.192001
1044.319946,181.535995,224.479996
1036.511963,177.632004,224.479996
1030.656006,183.488007,228.384003
1028.703979,185.440002,230.335999
1024.800049,175.679993,230.335999
1034.560059,165.919998,222.528000
1030.656006,183.488007,226.432007
1030.656006,181.535995,224.479996
1024.800049,189.343994,214.720001
1026.751953,183.488007,210.815994
1028.703979,191.296005,210.815994
1016.992004,191.296005,201.056000
1018.943970,206.912003,203.007996
1020.895996,204.960007,195.199997
1009.184021,199.104004,203.007996
1011.135986,203.007996,206.912003
1013.088013,203.007996,201.056000
1013.088013,191.296005,210.815994
1011.135986,193.248001,210.815994
1013.088013,181.535995,218.623993
1015.039978,181.535995,218.623993
1011.135986,179.584000,214.720001
1015.039978,162.016006,226.432007
1018.943970,163.968002,218.623993
1022.848022,158.112000,222.528000
1016.992004,156.160004,222.528000
1009.184021,154.207993,224.479996
1016.992004,160.063995,226.432007
1005.280029,167.871994,222.528000
1009.184021,165.919998,228.384003
1009.184021,171.776001,228.384003
1001.375977,175.679993,218.623993
1003.328003,175.679993,218.623993
1007.231995,175.679993,208.863998
1003.328003,177.632004,214.720001
1013.088013,181.535995,214.720001
1009.184021,187.391998,216.671997
1022.848022,179.584000,220.576004
1016.992004,175.679993,220.576004
1016.992004,185.440002,226.432007
1020.895996,181.535995,222.528000
1018.943970,165.919998,220.576004
1020.895996,162.016006,226.432007
1022.848022,169.824005,226.432007
1028.703979,167.871994,224.479996
1026.751953,152.255997,226.432007
1034.560059,156.160004,238.143997
1028.703979,156.160004,240.095993
1030.656006,158.112000,238.143997
1032.608032,140.544006,228.384003
1034.560059,140.544006,222.528000
1036.511963,148.352005,236.192001
1024.800049,150.304001,222.528000
1028.703979,160.063995,224.479996
1022.848022,162.016006,226.432007
1028.703979,152.255997,232.287994
1022.848022,163.968002,238.143997
1022.848022,163.968002,232.287994
1028.703979,154.207993,228.384003
1026.751953,163.968002,226.432007
1020.895996,163.968002,230.335999
1015.039978,169.824005,228.384003
1015.039978,165.919998,240.095993
1022.848022,163.968002,232.287994
1022.848022,152.255997,228.384003
1020.895996,150.304001,228.384003
1024.800049,150.304001,228.384003
1020.895996,150.304001,220.576004
1024.800049,136.639999,224.479996
1015.039978,144.447998,224.479996
1013.088013,138.591995,232.287994
1011.135986,132.735992,222.528000
1016.992004,134.688004,214.720001
1011.135986,134.688004,222.528000
1009.184021,138.591995,228.384003
1003.328003,144.447998,224.479996
1013.088013,144.447998,216.671997
1005.280029,144.447998,216.671997
1007.231995,148.352005,206.912003
995.520020,148.352005,210.815994
1003.328003,152.255997,216.671997
999.424011,146.399994,204.960007
1001.375977,136.639999,203.007996
997.471985,144.447998,203.007996
999.424011,150.304001,203.007996
1005.280029,136.639999,206.912003
1009.184021,124.928001,212.768005
1003.328003,128.832001,203.007996
1003.328003,119.071999,201.056000
1005.280029,126.879997,204.960007
1001.375977,121.024002,193.248001
993.567993,113.216003,201.056000
997.471985,119.071999,204.960007
999.424011,121.024002,199.104004
995.520020,124.928001,195.199997
1007.231995,113.216003,191.296005
1005.280029,122.975998,199.104004
1003.328003,136.639999,191.296005
1003.328003,128.832001,197.151993
1005.280029,132.735992,191.296005
1016.992004,122.975998,187.391998
1009.184021,117.120003,193.248001
1005.280029,119.071999,197.151993
1011.135986,126.879997,195.199997
1020.895996,132.735992,191.296005
1015.039978,122.975998,193.248001
1018.943970,121.024002,193.248001
1024.800049,113.216003,201.056000
1020.895996,117.120003,197.151993
1018.943970,109.311996,201.056000
1026.751953,105.407997,203.007996
1030.656006,111.264000,210.815994
1030.656006,101.503998,212.768005
1036.511963,109.311996,214.720001
1040.416016,105.407997,216.671997
1038.463989,107.360001,220.576004
1044.319946,93.695999,216.671997
1048.223999,101.503998,220.576004
1042.368042,91.744003,216.671997
1052.128052,93.695999,224.479996
1046.271973,93.695999,214.720001
1054.079956,97.599998,222.528000
1061.887939,99.552002,232.287994
1071.647949,103.456001,236.192001
1071.647949,105.407997,230.335999
1067.744019,101.503998,249.856003
1061.887939,97.599998,244.000000
1075.552002,103.456001,247.904007
1069.696045,101.503998,251.807999
1087.264038,115.167999,249.856003
1081.407959,101.503998,249.856003
1087.264038,101.503998,257.664001
1085.312012,97.599998,255.712006
1085.312012,99.552002,257.664001
1085.312012,105.407997,257.664001
1091.167969,99.552002,257.664001
1087.264038,91.744003,271.328003
1085.312012,99.552002,267.424011
1085.312012,93.695999,269.376007
1081.407959,103.456001,267.424011
1087.264038,99.552002,261.567993
1085.312012,103.456001,257.664001
1089.215942,101.503998,257.664001
1085.312012,105.407997,261.567993
1085.312012,101.503998,257.664001
1085.312012,101.503998,255.712006
1091.167969,97.599998,249.856003
1091.167969,89.792000,253.759995
1095.072021,99.552002,263.519989
1081.407959,89.792000,257.664001
1081.407959,87.839996,259.615997
1085.312012,95.648003,253.759995
1081.407959,97.599998,249.856003
1077.504028,95.648003,251.807999
1085.312012,95.648003,259.615997
1083.359985,93.695999,257.664001
1089.215942,89.792000,251.807999
1085.312012,89.792000,247.904007
1085.312012,95.648003,251.807999
1073.599976,99.552002,247.904007
1077.504028,103.456001,251.807999
1069.696045,99.552002,242.048004
1065.791992,95.648003,245.951996
1069.696045,111.264000,242.048004
1067.744019,105.407997,247.904007
1065.791992,95.648003,242.048004
1061.887939,103.456001,236.192001
1059.936035,99.552002,232.287994
1061.887939,109.311996,226.432007
1054.079956,105.407997,226.432007
1050.176025,111.264000,222.528000
1046.271973,105.407997,224.479996
1048.223999,107.360001,216.671997
1040.416016,103.456001,208.863998
1042.368042,105.407997,210.815994
1040.416016,99.552002,214.720001
1042.368042,99.552002,214.720001
1028.703979,111.264000,203.007996
1032.608032,105.407997,203.007996
1032.608032,105.407997,204.960007
1032.608032,97.599998,203.007996
1024.800049,105.407997,212.768005
1028.703979,103.456001,212.768005
1028.703979,111.264000,204.960007
1034.560059,97.599998,203.007996
1030.656006,91.744003,195.199997
1022.848022,95.648003,208.863998
1024.800049,101.503998,208.863998
1022.848022,117.120003,212.768005
1026.751953,111.264000,204.960007
1022.848022,122.975998,216.671997
1020.895996,124.928001,206.912003
1015.039978,117.120003,220.576004
1022.848022,117.120003,208.863998
1028.703979,109.311996,206.912003
1013.088013,109.311996,208.863998
1020.895996,115.167999,222.528000
1022.848022,122.975998,210.815994
1030.656006,115.167999,212.768005
1022.848022,117.120003,214.720001
1022.848022,121.024002,218.623993
1022.848022,115.167999,214.720001
1020.895996,115.167999,220.576004
1024.800049,115.167999,218.623993
1024.800049,105.407997,212.768005
1028.703979,117.120003,218.623993
1015.039978,119.071999,216.671997
1022.848022,117.120003,220.576004
1028.703979,134.688004,218.623993
1032.608032,130.783997,212.768005
1024.800049,126.879997,220.576004
1013.088013,128.832001,220.576004
1013.088013,130.783997,216.671997
1007.231995,124.928001,224.479996
1009.184021,140.544006,232.287994
1015.039978,142.496002,222.528000
1018.943970,146.399994,218.623993
1034.560059,144.447998,216.671997
1030.656006,140.544006,216.671997
1038.463989,136.639999,220.576004
1050.176025,130.783997,222.528000
1048.223999,122.975998,228.384003
1048.223999,121.024002,224.479996
1057.984009,124.928001,228.384003
1065.791992,117.120003,214.720001
1059.936035,119.071999,222.528000
1059.936035,109.311996,218.623993
1056.031982,103.456001,216.671997
1057.984009,97.599998,212.768005
1059.936035,101.503998,212.768005
1052.128052,93.695999,204.960007
1056.031982,93.695999,204.960007
1050.176025,89.792000,197.151993
1042.368042,95.648003,203.007996
1048.223999,97.599998,206.912003
1034.560059,97.599998,203.007996
1028.703979,113.216003,206.912003
1024.800049,124.928001,208.863998
1028.703979,128.832001,212.768005
1032.608032,134.688004,210.815994
1024.800049,144.447998,204.960007
1018.943970,146.399994,210.815994
1020.895996,165.919998,210.815994
1024.800049,165.919998,218.623993
1040.416016,162.016006,216.671997
1028.703979,163.968002,216.671997
1034.560059,156.160004,218.623993
1040.416016,146.399994,220.576004
1030.656006,160.063995,212.768005
1026.751953,146.399994,210.815994
1026.751953,140.544006,216.671997
1036.511963,136.639999,210.815994
1030.656006,132.735992,212.768005
1028.703979,130.783997,195.199997
1030.656006,122.975998,203.007996
1022.848022,111.264000,199.104004
1022.848022,103.456001,195.199997
1018.943970,111.264000,201.056000
1013.088013,117.120003,193.248001
1015.039978,105.407997,193.248001
1015.039978,115.167999,191.296005
1009.184021,119.071999,187.391998
1005.280029,126.879997,195.199997
1013.088013,132.735992,193.248001
1003.328003,136.639999,199.104004
1011.135986,144.447998,208.863998
1011.135986,148.352005,195.199997
1011.135986,165.919998,206.912003
1011.135986,177.632004,206.912003
1024.800049,165.919998,204.960007
1026.751953,173.727997,203.007996
1026.751953,177.632004,210.815994
1024.800049,162.016006,206.912003
1022.848022,162.016006,204.960007
1022.848022,158.112000,210.815994
1026.751953,140.544006,220.576004
1011.135986,136.639999,210.815994
1030.656006,124.928001,216.671997
1020.895996,122.975998,212.768005
1024.800049,122.975998,201.056000
1018.943970,117.120003,199.104004
1011.135986,101.503998,197.151993
1009.184021,109.311996,199.104004
1013.088013,107.360001,197.151993
999.424011,111.264000,208.863998
1007.231995,113.216003,197.151993
1007.231995,121.024002,204.960007
1007.231995,128.832001,195.199997
1005.280029,134.688004,199.104004
1009.184021,146.399994,203.007996
1011.135986,154.207993,199.104004
1007.231995,148.352005,201.056000
1016.992004,163.968002,216.671997
1007.231995,156.160004,224.479996
1016.992004,150.304001,232.287994
1022.848022,154.207993,222.528000
1016.992004,152.255997,236.192001
1018.943970,148.352005,226.432007
1018.943970,144.447998,226.432007
1024.800049,138.591995,232.287994
1009.184021,124.928001,242.048004
1020.895996,117.120003,240.095993
1011.135986,115.167999,236.192001
1013.088013,101.503998,234.240005
1013.088013,109.311996,222.528000
1009.184021,93.695999,224.479996
1005.280029,83.935997,224.479996
1011.135986,85.888000,226.432007
1007.231995,91.744003,224.479996
1013.088013,103.456001,222.528000
1013.088013,115.167999,222.528000
1009.184021,109.311996,230.335999
1005.280029,117.120003,230.335999
1003.328003,119.071999,244.000000
1007.231995,132.735992,242.048004
1009.184021,134.688004,240.095993
1011.135986,136.639999,242.048004
1009.184021,132.735992,242.048004
997.471985,128.832001,244.000000
997.471985,134.688004,244.000000
1001.375977,126.879997,245.951996
1001.375977,119.071999,245.951996
997.471985,109.311996,244.000000
999.424011,105.407997,245.951996
995.520020,115.167999,251.807999
993.567993,107.360001,255.712006
993.567993,97.599998,244.000000
991.616028,87.839996,251.807999
987.711975,87.839996,245.951996
985.760010,101.503998,242.048004
979.903992,93.695999,238.143997
985.760010,89.792000,238.143997
981.856018,97.599998,236.192001
981.856018,101.503998,234.240005
977.952026,109.311996,232.287994
977.952026,105.407997,232.287994
985.760010,113.216003,230.335999
974.047974,121.024002,232.287994
977.952026,109.311996,228.384003
974.047974,122.975998,232.287994
970.143982,128.832001,228.384003
977.952026,121.024002,230.335999
966.239990,119.071999,234.240005
970.143982,122.975998,228.384003
968.192017,111.264000,228.384003
977.952026,109.311996,228.384003
970.143982,111.264000,218.623993
970.143982,103.456001,224.479996
972.096008,97.599998,228.384003
966.239990,93.695999,232.287994
960.383972,99.552002,218.623993
960.383972,95.648003,220.576004
960.383972,89.792000,220.576004
958.432007,97.599998,220.576004
958.432007,95.648003,216.671997
946.719971,93.695999,218.623993
950.624023,93.695999,216.671997
948.671997,95.648003,224.479996
954.528015,103.456001,220.576004
948.671997,105.407997,214.720001
950.624023,93.695999,212.768005
950.624023,113.216003,210.815994
944.768005,111.264000,210.815994
936.960022,99.552002,216.671997
942.815979,103.456001,222.528000
942.815979,103.456001,220.576004
944.768005,101.503998,220.576004
950.624023,101.503998,220.576004
952.575989,97.599998,228.384003
944.768005,89.792000,224.479996
942.815979,81.984001,216.671997
944.768005,78.080002,224.479996
950.624023,78.080002,222.528000
948.671997,80.031998,220.576004
935.007996,76.127998,214.720001
940.864014,85.888000,218.623993
936.960022,74.176003,210.815994
942.815979,80.031998,210.815994
936.960022,76.127998,206.912003
936.960022,74.176003,208.863998
942.815979,78.080002,212.768005
936.960022,78.080002,208.863998
933.056030,76.127998,199.104004
942.815979,78.080002,206.912003
929.151978,83.935997,210.815994
935.007996,85.888000,210.815994
938.911987,85.888000,208.863998
946.719971,81.984001,214.720001
942.815979,78.080002,212.768005
946.719971,78.080002,208.863998
942.815979,76.127998,214.720001
950.624023,70.272003,216.671997
944.768005,68.320000,208.863998
946.719971,66.367996,208.863998
944.768005,64.416000,206.912003
948.671997,70.272003,216.671997
956.479980,76.127998,216.671997
956.479980,76.127998,220.576004
950.624023,81.984001,224.479996
948.671997,72.223999,208.863998
958.432007,76.127998,203.007996
952.575989,70.272003,220.576004
954.528015,74.176003,216.671997
960.383972,83.935997,216.671997
958.432007,78.080002,222.528000
956.479980,74.176003,210.815994
960.383972,80.031998,204.960007
960.383972,74.176003,212.768005
966.239990,76.127998,212.768005
964.288025,72.223999,210.815994
966.239990,83.935997,218.623993
962.335999,74.176003,218.623993
968.192017,80.031998,222.528000
964.288025,74.176003,212.768005
966.239990,76.127998,218.623993
976.000000,74.176003,216.671997
966.239990,66.367996,224.479996
960.383972,74.176003,224.479996
968.192017,76.127998,218.623993
968.192017,74.176003,216.671997
968.192017,70.272003,212.768005
972.096008,66.367996,218.623993
964.288025,80.031998,218.623993
966.239990,78.080002,206.912003
968.192017,70.272003,212.768005
962.335999,78.080002,212.768005
964.288025,74.176003,206.912003
974.047974,74.176003,212.768005
960.383972,83.935997,210.815994
962.335999,76.127998,206.912003
960.383972,81.984001,206.912003
962.335999,78.080002,204.960007
962.335999,83.935997,206.912003
958.432007,83.935997,210.815994
960.383972,81.984001,195.199997
954.528015,85.888000,204.960007
954.528015,81.984001,203.007996
954.528015,91.744003,197.151993
946.719971,76.127998,197.151993
946.719971,87.839996,204.960007
942.815979,83.935997,195.199997
946.719971,78.080002,201.056000
942.815979,81.984001,203.007996
942.815979,91.744003,208.863998
950.624023,83.935997,201.056000
940.864014,91.744003,191.296005
935.007996,91.744003,201.056000
933.056030,95.648003,189.343994
938.911987,101.503998,201.056000
931.104004,105.407997,199.104004
940.864014,89.792000,193.248001
946.719971,97.599998,201.056000
919.392029,99.552002,189.343994
942.815979,101.503998,193.248001
929.151978,93.695999,195.199997
933.056030,107.360001,201.056000
938.911987,107.360001,191.296005
929.151978,97.599998,193.248001
935.007996,117.120003,191.296005
936.960022,103.456001,191.296005
942.815979,101.503998,189.343994
938.911987,111.264000,185.440002
940.864014,119.071999,181.535995
942.815979,115.167999,185.440002
938.911987,115.167999,177.632004
938.911987,122.975998,181.535995
940.864014,124.928001,181.535995
938.911987,115.167999,177.632004
938.911987,124.928001,175.679993
931.104004,115.167999,175.679993
938.911987,128.832001,171.776001
946.719971,121.024002,185.440002
940.864014,121.024002,179.584000
940.864014,122.975998,179.584000
942.815979,136.639999,183.488007
952.575989,122.975998,185.440002
944.768005,122.975998,187.391998
946.719971,121.024002,185.440002
942.815979,128.832001,187.391998
946.719971,124.928001,183.488007
946.719971,122.975998,189.343994
940.864014,126.879997,179.584000
940.864014,130.783997,185.440002
936.960022,126.879997,183.488007
940.864014,119.071999,187.391998
940.864014,122.975998,189.343994
946.719971,128.832001,197.151993
950.624023,128.832001,203.007996
936.960022,124.928001,191.296005
948.671997,124.928001,187.391998
946.719971,136.639999,191.296005
940.864014,124.928001,195.199997
936.960022,93.695999,183.488007
958.432007,140.544006,208.863998
954.528015,105.407997,185.440002
948.671997,107.360001,189.343994
950.624023,148.352005,189.343994
958.432007,115.167999,189.343994
942.815979,91.744003,195.199997
956.479980,138.591995,179.584000
954.528015,119.071999,181.535995
936.960022,93.695999,177.632004
950.624023,128.832001,169.824005
946.719971,105.407997,173.727997
944.768005,113.216003,181.535995
944.768005,113.216003,179.584000
946.719971,97.599998,177.632004
940.864014,103.456001,177.632004
942.815979,126.879997,175.679993
950.624023,122.975998,183.488007
944.768005,111.264000,179.584000
952.575989,117.120003,185.440002
944.768005,138.591995,171.776001
952.575989,122.975998,185.440002
950.624023,124.928001,187.391998
962.335999,134.688004,185.440002
966.239990,128.832001,183.488007
966.239990,117.120003,183.488007
966.239990,117.120003,175.679993
968.192017,115.167999,181.535995
964.288025,122.975998,177.632004
966.239990,122.975998,179.584000
976.000000,115.167999,175.679993
976.000000,101.503998,183.488007
974.047974,105.407997,191.296005
972.096008,113.216003,193.248001
976.000000,101.503998,179.584000
976.000000,101.503998,183.488007
964.288025,97.599998,193.248001
976.000000,95.648003,195.199997
970.143982,89.792000,193.248001
964.288025,91.744003,199.104004
972.096008,97.599998,197.151993
968.192017,99.552002,195.199997
979.903992,81.984001,193.248001
968.192017,99.552002,183.488007
974.047974,95.648003,193.248001
976.000000,93.695999,193.248001
966.239990,103.456001,193.248001
968.192017,103.456001,187.391998
964.288025,111.264000,195.199997
972.096008,130.783997,203.007996
968.192017,109.311996,195.199997
974.047974,111.264000,193.248001
972.096008,136.639999,203.007996
968.192017,105.407997,208.863998
972.096008,115.167999,212.768005
970.143982,121.024002,208.863998
966.239990,109.311996,204.960007
976.000000,103.456001,206.912003
970.143982,122.975998,210.815994
964.288025,119.071999,210.815994
964.288025,111.264000,204.960007
970.143982,122.975998,208.863998
960.383972,121.024002,210.815994
964.288025,119.071999,208.863998
960.383972,113.216003,206.912003
956.479980,115.167999,212.768005
968.192017,136.639999,212.768005
966.239990,126.879997,206.912003
966.239990,107.360001,212.768005
968.192017,142.496002,212.768005
958.432007,132.735992,206.912003
960.383972,128.832001,216.671997
960.383972,136.639999,210.815994
948.671997,130.783997,216.671997
958.432007,130.783997,210.815994
964.288025,154.207993,208.863998
962.335999,138.591995,212.768005
960.383972,146.399994,206.912003
966.239990,162.016006,199.104004
950.624023,146.399994,201.056000
954.528015,134.688004,197.151993
956.479980,146.399994,185.440002
952.575989,140.544006,185.440002
936.960022,132.735992,179.584000
946.719971,130.783997,162.016006
948.671997,121.024002,162.016006
944.768005,113.216003,154.207993
942.815979,128.832001,156.160004
936.960022,126.879997,156.160004
942.815979,105.407997,150.304001
933.056030,122.975998,158.112000
931.104004,128.832001,162.016006
936.960022,109.311996,152.255997
931.104004,119.071999,146.399994
935.007996,117.120003,142.496002
913.536011,56.608002,171.776001
905.728027,101.503998,216.671997
909.632019,189.343994,230.335999
917.440002,101.503998,208.863998
954.528015,68.320000,179.584000
950.624023,91.744003,156.160004
938.911987,89.792000,175.679993
938.911987,142.496002,189.343994
935.007996,132.735992,187.391998
927.200012,91.744003,179.584000
942.815979,130.783997,156.160004
938.911987,142.496002,158.112000
931.104004,115.167999,152.255997
921.343994,126.879997,152.255997
919.392029,138.591995,146.399994
915.487976,126.879997,136.639999
911.583984,128.832001,130.783997
923.296021,109.311996,117.120003
913.536011,117.120003,113.216003
909.632019,124.928001,113.216003
913.536011,95.648003,107.360001
911.583984,91.744003,109.311996
903.776001,93.695999,105.407997
911.583984,85.888000,109.311996
919.392029,87.839996,113.216003
921.343994,74.176003,109.311996
931.104004,78.080002,119.071999
925.247986,78.080002,122.975998
921.343994,87.839996,121.024002
913.536011,91.744003,130.783997
923.296021,95.648003,130.783997
933.056030,103.456001,138.591995
929.151978,99.552002,136.639999
931.104004,119.071999,142.496002
931.104004,121.024002,146.399994
935.007996,126.879997,148.352005
933.056030,124.928001,136.639999
936.960022,122.975998,136.639999
944.768005,117.120003,136.639999
948.671997,117.120003,144.447998
946.719971,119.071999,156.160004
950.624023,122.975998,158.112000
950.624023,117.120003,152.255997
962.335999,97.599998,154.207993
956.479980,101.503998,152.255997
960.383972,89.792000,160.063995
958.432007,91.744003,162.016006
966.239990,81.984001,173.727997
962.335999,87.839996,169.824005
964.288025,74.176003,173.727997
962.335999,81.984001,169.824005
974.047974,85.888000,169.824005
970.143982,85.888000,177.632004
972.096008,81.984001,181.535995
972.096008,85.888000,181.535995
974.047974,95.648003,181.535995
974.047974,97.599998,193.248001
972.096008,103.456001,191.296005
983.807983,103.456001,191.296005
972.096008,103.456001,203.007996
977.952026,105.407997,203.007996
974.047974,107.360001,212.768005
987.711975,107.360001,212.768005
970.143982,95.648003,204.960007
995.520020,80.031998,226.432007
989.664001,66.367996,255.712006
993.567993,105.407997,275.231995
981.856018,126.879997,283.040009
983.807983,115.167999,257.664001
976.000000,85.888000,259.615997
985.760010,99.552002,253.759995
977.952026,109.311996,253.759995
964.288025,111.264000,253.759995
981.856018,81.984001,247.904007
981.856018,83.935997,234.240005
964.288025,101.503998,230.335999
960.383972,91.744003,226.432007
962.335999,68.320000,224.479996
954.528015,85.888000,222.528000
970.143982,101.503998,224.479996
972.096008,105.407997,206.912003
977.952026,99.552002,212.768005
991.616028,119.071999,218.623993
995.520020,132.735992,199.104004
991.616028,136.639999,204.960007
987.711975,128.832001,212.768005
983.807983,144.447998,212.768005
985.760010,156.160004,208.863998
974.047974,146.399994,206.912003
970.143982,130.783997,203.007996
960.383972,130.783997,195.199997
954.528015,119.071999,199.104004
954.528015,99.552002,189.343994
958.432007,83.935997,183.488007
962.335999,76.127998,181.535995
972.096008,80.031998,181.535995
960.383972,70.272003,167.871994
976.000000,70.272003,152.255997
981.856018,68.320000,156.160004
981.856018,87.839996,150.304001
987.711975,103.456001,144.447998
974.047974,107.360001,140.544006
972.096008,126.879997,146.399994
972.096008,134.688004,136.639999
964.288025,132.735992,136.639999
962.335999,150.304001,128.832001
960.383972,152.255997,134.688004
956.479980,156.160004,134.688004
960.383972,162.016006,144.447998
958.432007,158.112000,146.399994
958.432007,154.207993,146.399994
960.383972,158.112000,148.352005
954.528015,163.968002,150.304001
950.624023,146.399994,144.447998
954.528015,130.783997,146.399994
956.479980,122.975998,144.447998
954.528015,138.591995,150.304001
948.671997,132.735992,146.399994
946.719971,115.167999,144.447998
942.815979,128.832001,142.496002
940.864014,146.399994,146.399994
942.815979,146.399994,130.783997
946.719971,140.544006,136.639999
935.007996,154.207993,136.639999
936.960022,162.016006,134.688004
940.864014,169.824005,132.735992
944.768005,173.727997,128.832001
935.007996,185.440002,138.591995
944.768005,175.679993,138.591995
940.864014,175.679993,136.639999
948.671997,177.632004,144.447998
950.624023,181.535995,144.447998
946.719971,181.535995,142.496002
940.864014,167.871994,144.447998
946.719971,165.919998,146.399994
954.528015,158.112000,142.496002
950.624023,144.447998,142.496002
948.671997,152.255997,138.591995
950.624023,144.447998,132.735992
940.864014,146.399994,134.688004
946.719971,132.735992,126.879997
944.768005,121.024002,132.735992
948.671997,134.688004,128.832001
936.960022,128.832001,119.071999
936.960022,132.735992,128.832001
946.719971,138.591995,136.639999
938.911987,130.783997,124.928001
933.056030,130.783997,132.735992
931.104004,134.688004,144.447998
927.200012,134.688004,146.399994
938.911987,122.975998,142.496002
944.768005,121.024002,138.591995
950.624023,111.264000,148.352005
958.432007,99.552002,136.639999
958.432007,101.503998,142.496002
956.479980,95.648003,142.496002
952.575989,95.648003,148.352005
954.528015,99.552002,150.304001
954.528015,99.552002,146.399994
968.192017,78.080002,158.112000
960.383972,91.744003,158.112000
976.000000,99.552002,154.207993
972.096008,93.695999,156.160004
972.096008,91.744003,156.160004
981.856018,87.839996,152.255997
976.000000,87.839996,150.304001
974.047974,95.648003,144.447998
962.335999,85.888000,158.112000
970.143982,87.839996,154.207993
964.288025,83.935997,152.255997
960.383972,87.839996,148.352005
974.047974,83.935997,142.496002
970.143982,91.744003,144.447998
976.000000,81.984001,140.544006
981.856018,81.984001,144.447998
979.903992,76.127998,144.447998
960.383972,78.080002,140.544006
977.952026,66.367996,148.352005
958.432007,62.464001,152.255997
966.239990,78.080002,156.160004
976.000000,68.320000,154.207993
974.047974,72.223999,163.968002
977.952026,72.223999,171.776001
979.903992,68.320000,179.584000
979.903992,74.176003,183.488007
977.952026,81.984001,183.488007
981.856018,87.839996,185.440002
981.856018,80.031998,181.535995
995.520020,72.223999,189.343994
983.807983,68.320000,181.535995
987.711975,72.223999,185.440002
985.760010,68.320000,201.056000
981.856018,76.127998,199.104004
987.711975,80.031998,193.248001
987.711975,91.744003,204.960007
991.616028,95.648003,216.671997
993.567993,93.695999,199.104004
995.520020,85.888000,203.007996
991.616028,83.935997,208.863998
1009.184021,78.080002,208.863998
995.520020,70.272003,197.151993
995.520020,66.367996,189.343994
987.711975,99.552002,191.296005
1003.328003,103.456001,187.391998
1005.280029,103.456001,177.632004
999.424011,85.888000,169.824005
997.471985,72.223999,156.160004
979.903992,80.031998,158.112000
981.856018,74.176003,152.255997
977.952026,80.031998,148.352005
983.807983,91.744003,144.447998
970.143982,89.792000,148.352005
974.047974,85.888000,132.735992
962.335999,91.744003,140.544006
950.624023,83.935997,144.447998
958.432007,83.935997,138.591995
960.383972,80.031998,136.639999
966.239990,81.984001,140.544006
958.432007,87.839996,144.447998
958.432007,81.984001,156.160004
956.479980,76.127998,156.160004
950.624023,78.080002,165.919998
954.528015,80.031998,158.112000
946.719971,83.935997,173.727997
940.864014,70.272003,160.063995
944.768005,80.031998,158.112000
948.671997,68.320000,160.063995
950.624023,62.464001,144.447998
942.815979,68.320000,148.352005
938.911987,80.031998,146.399994
935.007996,72.223999,144.447998
935.007996,72.223999,144.447998
925.247986,68.320000,136.639999
933.056030,76.127998,132.735992
919.392029,62.464001,130.783997
919.392029,70.272003,126.879997
919.392029,81.984001,119.071999
915.487976,70.272003,117.120003
915.487976,66.367996,107.360001
917.440002,54.655998,101.503998
911.583984,74.176003,89.792000
903.776001,89.792000,76.127998
911.583984,89.792000,68.320000
911.583984,83.935997,62.464001
911.583984,80.031998,64.416000
909.632019,85.888000,46.848000
911.583984,95.648003,31.232000
905.728027,93.695999,33.183998
905.728027,97.599998,37.088001
905.728027,97.599998,25.375999
897.919983,89.792000,23.424000
899.872009,80.031998,13.664000
899.872009,60.512001,9.760000
903.776001,68.320000,13.664000
909.632019,78.080002,13.664000
901.823975,68.320000,0.000000
913.536011,68.320000,-3.904000
905.728027,66.367996,-5.856000
903.776001,72.223999,-11.712000
903.776001,58.560001,-15.616000
901.823975,70.272003,-19.520000
901.823975,48.799999,-17.568001
909.632019,46.848000,-27.327999
911.583984,68.320000,-17.568001
915.487976,76.127998,-15.616000
913.536011,62.464001,-7.808000
901.823975,42.944000,-1.952000
919.392029,29.280001,-1.952000
919.392029,70.272003,3.904000
933.056030,81.984001,21.472000
921.343994,87.839996,27.327999
929.151978,56.608002,35.136002
935.007996,48.799999,31.232000
935.007996,54.655998,31.232000
929.151978,56.608002,33.183998
929.151978,62.464001,31.232000
944.768005,91.744003,39.040001
940.864014,87.839996,35.136002
935.007996,103.456001,37.088001
942.815979,111.264000,27.327999
929.151978,107.360001,29.280001
944.768005,101.503998,35.136002
948.671997,103.456001,40.992001
952.575989,97.599998,40.992001
962.335999,95.648003,42.944000
964.288025,89.792000,39.040001
968.192017,83.935997,39.040001
964.288025,107.360001,62.464001
979.903992,119.071999,68.320000
987.711975,150.304001,70.272003
995.520020,273.279999,87.839996
999.424011,380.640015,117.120003
999.424011,341.600006,152.255997
1007.231995,247.904007,185.440002
1003.328003,283.040009,171.776001
1001.375977,308.415985,158.112000
999.424011,265.471985,154.207993
1003.328003,181.535995,138.591995
993.567993,150.304001,126.879997
1005.280029,167.871994,122.975998
1016.992004,171.776001,103.456001
1028.703979,156.160004,109.311996
1032.608032,152.255997,105.407997
1038.463989,169.824005,126.879997
1052.128052,187.391998,124.928001
1038.463989,191.296005,144.447998
1038.463989,187.391998,158.112000
1044.319946,175.679993,154.207993
1038.463989,183.488007,169.824005
1048.223999,171.776001,179.584000
1052.128052,165.919998,191.296005
1054.079956,175.679993,199.104004
1057.984009,173.727997,203.007996
1061.887939,162.016006,203.007996
1059.936035,150.304001,189.343994
1056.031982,132.735992,187.391998
1050.176025,140.544006,187.391998
1057.984009,150.304001,195.199997
1056.031982,142.496002,204.960007
1057.984009,163.968002,203.007996
1040.416016,201.056000,212.768005
1044.319946,273.279999,240.095993
1038.463989,370.880005,257.664001
1044.319946,474.335999,244.000000
1030.656006,429.440002,218.623993
1034.560059,314.272003,185.440002
1018.943970,271.328003,146.399994
1022.848022,286.944000,136.639999
1015.039978,273.279999,130.783997
1018.943970,245.951996,122.975998
1020.895996,216.671997,105.407997
1015.039978,210.815994,99.552002
1024.800049,193.248001,91.744003
1015.039978,138.591995,95.648003
987.711975,113.216003,101.503998
1034.560059,113.216003,105.407997
1018.943970,111.264000,103.456001
1003.328003,85.888000,103.456001
989.664001,95.648003,99.552002
999.424011,121.024002,95.648003
1009.184021,105.407997,66.367996
981.856018,126.879997,58.560001
966.239990,140.544006,48.799999
962.335999,163.968002,40.992001
976.000000,179.584000,31.232000
976.000000,185.440002,27.327999
991.616028,183.488007,25.375999
970.143982,195.199997,21.472000
985.760010,212.768005,15.616000
976.000000,214.720001,0.000000
974.047974,236.192001,-7.808000
964.288025,206.912003,-15.616000
958.432007,206.912003,-31.232000
956.479980,179.584000,-27.327999
983.807983,107.360001,5.856000
991.616028,70.272003,35.136002
1011.135986,91.744003,56.608002
1013.088013,117.120003,78.080002
1016.992004,140.544006,76.127998
1009.184021,167.871994,66.367996
1001.375977,195.199997,31.232000
979.903992,162.016006,0.000000
974.047974,121.024002,-31.232000
954.528015,124.928001,-52.703999
942.815979,167.871994,-83.935997
940.864014,183.488007,-113.216003
944.768005,189.343994,-119.071999
942.815979,167.871994,-146.399994
942.815979,134.688004,-154.207993
944.768005,103.456001,-165.919998
958.432007,99.552002,-181.535995
952.575989,93.695999,-179.584000
946.719971,105.407997,-177.632004
952.575989,119.071999,-179.584000
942.815979,111.264000,-179.584000
940.864014,93.695999,-191.296005
942.815979,113.216003,-185.440002
940.864014,130.783997,-189.343994
933.056030,134.688004,-193.248001
936.960022,128.832001,-189.343994
936.960022,113.216003,-204.960007
944.768005,115.167999,-206.912003
946.719971,103.456001,-203.007996
956.479980,89.792000,-199.104004
958.432007,99.552002,-201.056000
940.864014,142.496002,-204.960007
936.960022,165.919998,-195.199997
938.911987,160.063995,-199.104004
931.104004,111.264000,-197.151993
936.960022,50.751999,-195.199997
935.007996,29.280001,-203.007996
929.151978,23.424000,-195.199997
948.671997,64.416000,-183.488007
954.528015,101.503998,-175.679993
946.719971,56.608002,-171.776001
954.528015,23.424000,-175.679993
960.383972,3.904000,-160.063995
964.288025,19.520000,-150.304001
966.239990,56.608002,-144.447998
972.096008,42.944000,-142.496002
968.192017,21.472000,-132.735992
991.616028,25.375999,-117.120003
999.424011,33.183998,-124.928001
1001.375977,17.568001,-121.024002
1007.231995,11.712000,-128.832001
1013.088013,5.856000,-130.783997
1009.184021,29.280001,-136.639999
991.616028,23.424000,-134.688004
981.856018,9.760000,-152.255997
979.903992,-27.327999,-160.063995
985.760010,-54.655998,-156.160004
995.520020,72.223999,-122.975998
995.520020,316.223999,-74.176003
993.567993,415.776001,-17.568001
1026.751953,265.471985,19.520000
1069.696045,-107.360001,40.992001
1100.927979,-460.671997,56.608002
1122.400024,-573.888000,68.320000
1138.015991,-484.096008,72.223999
1118.495972,-308.415985,70.272003
1093.119995,-148.352005,83.935997
1083.359985,-91.744003,130.783997
1089.215942,-11.712000,140.544006
1102.880005,122.975998,138.591995
1093.119995,310.368011,128.832001
1108.735962,407.967987,119.071999
1114.592041,390.399994,81.984001
1114.592041,320.127991,58.560001
1134.112061,224.479996,35.136002
1136.063965,189.343994,3.904000
1136.063965,183.488007,-13.664000
1128.255981,167.871994,-37.088001
1114.592041,138.591995,-74.176003
1097.024048,31.232000,-105.407997
1079.456055,-72.223999,-132.735992
1054.079956,-138.591995,-150.304001
1050.176025,-124.928001,-177.632004
1022.848022,-95.648003,-197.151993
1011.135986,-85.888000,-189.343994
1009.184021,-99.552002,-191.296005
1007.231995,-97.599998,-206.912003
1016.992004,-105.407997,-197.151993
1009.184021,-64.416000,-212.768005
993.567993,11.712000,-224.479996
987.711975,56.608002,-261.567993
977.952026,60.512001,-275.231995
956.479980,105.407997,-267.424011
970.143982,218.623993,-240.095993
976.000000,431.391998,-185.440002
991.616028,493.855988,-126.879997
1015.039978,337.696014,-72.223999
1054.079956,42.944000,-27.327999
1093.119995,-230.335999,-7.808000
1091.167969,-372.832001,-5.856000
1091.167969,-390.399994,1.952000
1061.887939,-337.696014,7.808000
1063.839966,-296.704010,31.232000
1044.319946,-286.944000,31.232000
1050.176025,-267.424011,17.568001
1042.368042,-187.391998,11.712000
1030.656006,1.952000,-3.904000
1005.280029,212.768005,-19.520000
1007.231995,353.312012,-46.848000
1030.656006,390.399994,-68.320000
1054.079956,384.544006,-93.695999
1083.359985,347.455994,-128.832001
1083.359985,316.223999,-148.352005
1065.791992,296.704010,-183.488007
1059.936035,251.807999,-234.240005
1034.560059,146.399994,-277.183990
1009.184021,95.648003,-298.656006
1007.231995,64.416000,-296.704010
974.047974,3.904000,-294.752014
952.575989,-87.839996,-316.223999
933.056030,-171.776001,-343.552002
917.440002,-204.960007,-370.880005
911.583984,-245.951996,-429.440002
913.536011,-191.296005,-441.152008
901.823975,-140.544006,-450.911987
915.487976,-89.792000,-462.623993
915.487976,-48.799999,-450.911987
909.632019,-72.223999,-421.631989
892.064026,-74.176003,-363.071991
903.776001,-9.760000,-300.608002
915.487976,220.576004,-230.335999
923.296021,548.512024,-171.776001
960.383972,810.080017,-150.304001
966.239990,819.840027,-115.167999
1003.328003,562.176025,-126.879997
1052.128052,177.632004,-142.496002
1075.552002,-177.632004,-183.488007
1075.552002,-290.847992,-210.815994
1054.079956,-230.335999,-204.960007
1040.416016,-126.879997,-197.151993
1052.128052,-19.520000,-193.248001
1075.552002,115.167999,-162.016006
1079.456055,177.632004,-169.824005
1075.552002,175.679993,-189.343994
1038.463989,89.792000,-216.671997
999.424011,9.760000,-265.471985
989.664001,97.599998,-327.936005
981.856018,257.664001,-376.735992
956.479980,384.544006,-445.056000
956.479980,569.984009,-511.424011
929.151978,972.096008,-513.375977
931.104004,1253.183960,-484.096008
899.872009,954.528015,-394.303986
923.296021,-101.503998,-277.183990
923.296021,-1138.015991,-179.584000
1016.992004,-1503.040039,-136.639999
1001.375977,-966.239990,-76.127998
1011.135986,97.599998,-50.751999
1063.839966,956.479980,-62.464001
1106.784058,1124.352051,-91.744003
1161.439941,599.263977,-134.688004
1192.671997,-204.960007,-173.727997
1200.479980,-691.007996,-234.240005
1192.671997,-655.872009,-294.752014
1077.504028,-206.912003,-333.791992
1087.264038,361.119995,-400.160004
1067.744019,571.935974,-441.152008
1038.463989,409.920013,-415.776001
1054.079956,-11.712000,-406.015991
1403.488037,-1360.543945,571.935974
3960.607910,-5572.959961,7052.576172
2262.367920,-2773.791992,2063.263916
427.488007,-800.320007,-940.864014
204.960007,2621.535889,-2125.728027
544.607971,2974.847900,-2385.343994
659.776001,1028.703979,-853.023987
1419.104004,-2318.976074,962.335999
1024.800049,-2894.815918,-1577.215942
351.359985,-238.143997,-1975.423950
671.487976,1011.135986,-1530.368042
1423.008057,234.240005,124.928001
1627.968018,21.472000,398.208008
1163.391968,556.320007,-562.176025
909.632019,718.335999,-767.135986
999.424011,386.496002,-402.112000
1259.040039,320.127991,-201.056000
1442.527954,566.080017,-216.671997
1477.663940,612.927979,-56.608002
1423.008057,443.104004,249.856003
1389.823975,454.816010,298.656006
1366.400024,636.351990,68.320000
1356.640015,722.239990,-25.375999
1395.680054,692.960022,83.935997
1358.592041,743.711975,150.304001
1313.696045,810.080017,121.024002
1346.880005,753.471985,160.063995
1436.671997,618.783997,275.231995
1434.719971,523.135986,322.079987
1370.303955,501.664001,228.384003
1358.592041,480.191986,128.832001
1327.359985,452.864014,117.120003
1313.696045,458.720001,95.648003
1294.176025,460.671997,81.984001
1301.984009,439.200012,87.839996
1270.751953,400.160004,95.648003
1268.800049,345.503998,89.792000
1272.703979,316.223999,60.512001
1264.895996,281.088013,7.808000
1253.183960,240.095993,-5.856000
1266.848022,212.768005,-31.232000
1264.895996,173.727997,-78.080002
1245.375977,160.063995,-81.984001
1225.855957,136.639999,-68.320000
1227.807983,113.216003,-74.176003
1225.855957,113.216003,-97.599998
1216.095947,126.879997,-117.120003
1190.719971,130.783997,-128.832001
1173.151978,136.639999,-122.975998
1179.008057,140.544006,-119.071999
1167.296021,173.727997,-136.639999
1155.583984,169.824005,-152.255997
1149.728027,150.304001,-156.160004
1145.823975,165.919998,-167.871994
1124.352051,195.199997,-185.440002
1118.495972,189.343994,-181.535995
1118.495972,171.776001,-167.871994
1114.592041,165.919998,-177.632004
1122.400024,150.304001,-169.824005
1118.495972,136.639999,-169.824005
1093.119995,132.735992,-195.199997
1095.072021,132.735992,-201.056000
1093.119995,97.599998,-187.391998
1097.024048,103.456001,-203.007996
1089.215942,101.503998,-210.815994
1075.552002,115.167999,-199.104004
1065.791992,109.311996,-214.720001
1069.696045,103.456001,-224.479996
1057.984009,95.648003,-228.384003
1054.079956,89.792000,-234.240005
1046.271973,85.888000,-255.712006
1038.463989,89.792000,-269.376007
1048.223999,70.272003,-257.664001
1050.176025,60.512001,-275.231995
1048.223999,81.984001,-296.704010
1048.223999,81.984001,-306.463989
1044.319946,89.792000,-316.223999
1052.128052,97.599998,-322.079987
1061.887939,70.272003,-306.463989
1069.696045,58.560001,-296.704010
1067.744019,64.416000,-294.752014
1067.744019,68.320000,-288.895996
1065.791992,60.512001,-290.847992
1065.791992,72.223999,-290.847992
1071.647949,91.744003,-283.040009
1075.552002,87.839996,-281.088013
1075.552002,95.648003,-269.376007
1085.312012,99.552002,-263.519989
1077.504028,83.935997,-253.759995
1075.552002,80.031998,-251.807999
1069.696045,81.984001,-251.807999
1067.744019,74.176003,-257.664001
1063.839966,72.223999,-251.807999
1059.936035,66.367996,-261.567993
1059.936035,68.320000,-275.231995
1061.887939,39.040001,-281.088013
1057.984009,27.327999,-283.040009
1052.128052,21.472000,-288.895996
1057.984009,37.088001,-284.992004
1044.319946,76.127998,-284.992004
1046.271973,111.264000,-284.992004
1052.128052,109.311996,-296.704010
1052.128052,89.792000,-290.847992
1048.223999,58.560001,-304.511993
1054.079956,48.799999,-298.656006
1046.271973,35.136002,-302.559998
1048.223999,50.751999,-308.415985
1054.079956,62.464001,-308.415985
1050.176025,78.080002,-304.511993
1056.031982,70.272003,-312.320007
1054.079956,68.320000,-304.511993
1063.839966,62.464001,-298.656006
1065.791992,56.608002,-292.799988
1067.744019,54.655998,-300.608002
1075.552002,62.464001,-292.799988
1067.744019,62.464001,-300.608002
1065.791992,66.367996,-296.704010
1069.696045,60.512001,-294.752014
1063.839966,76.127998,-294.752014
1069.696045,78.080002,-290.847992
1071.647949,66.367996,-279.135986
1075.552002,54.655998,-294.752014
1073.599976,46.848000,-294.752014
1065.791992,40.992001,-290.847992
1071.647949,44.896000,-296.704010
1071.647949,46.848000,-296.704010
1067.744019,50.751999,-288.895996
1057.984009,74.176003,-290.847992
1050.176025,78.080002,-284.992004
1059.936035,83.935997,-283.040009
1050.176025,80.031998,-290.847992
1046.271973,62.464001,-286.944000
1052.128052,54.655998,-283.040009
1063.839966,50.751999,-294.752014
1073.599976,39.040001,-296.704010
1081.407959,46.848000,-292.799988
1087.264038,35.136002,-281.088013
1075.552002,50.751999,-277.183990
1063.839966,48.799999,-277.183990
1052.128052,74.176003,-275.231995
1044.319946,99.552002,-261.567993
1042.368042,95.648003,-275.231995
1040.416016,85.888000,-281.088013
1042.368042,70.272003,-267.424011
1056.031982,54.655998,-263.519989
1059.936035,56.608002,-247.904007
1056.031982,44.896000,-251.807999
1056.031982,44.896000,-249.856003
1046.271973,50.751999,-265.471985
1048.223999,58.560001,-265.471985
1028.703979,70.272003,-249.856003
1024.800049,78.080002,-253.759995
1028.703979,58.560001,-253.759995
1024.800049,64.416000,-253.759995
1026.751953,62.464001,-269.376007
1022.848022,54.655998,-261.567993
1016.992004,46.848000,-273.279999
1020.895996,52.703999,-277.183990
1022.848022,52.703999,-279.135986
1020.895996,52.703999,-277.183990
1016.992004,46.848000,-292.799988
1009.184021,48.799999,-286.944000
1013.088013,56.608002,-286.944000
1009.184021,44.896000,-296.704010
1001.375977,48.799999,-283.040009
997.471985,42.944000,-286.944000
997.471985,50.751999,-296.704010
987.711975,54.655998,-300.608002
993.567993,52.703999,-300.608002
985.760010,48.799999,-300.608002
989.664001,40.992001,-302.559998
983.807983,42.944000,-298.656006
977.952026,42.944000,-304.511993
977.952026,46.848000,-302.559998
979.903992,54.655998,-302.559998
970.143982,50.751999,-304.511993
968.192017,64.416000,-298.656006
964.288025,54.655998,-308.415985
968.192017,54.655998,-316.223999
964.288025,52.703999,-316.223999
979.903992,50.751999,-312.320007
979.903992,50.751999,-310.368011
976.000000,44.896000,-316.223999
983.807983,50.751999,-306.463989
979.903992,64.416000,-298.656006
976.000000,64.416000,-294.752014
979.903992,62.464001,-302.559998
974.047974,62.464001,-302.559998
972.096008,60.512001,-296.704010
976.000000,54.655998,-300.608002
977.952026,66.367996,-300.608002
979.903992,54.655998,-298.656006
993.567993,54.655998,-304.511993
985.760010,62.464001,-300.608002
976.000000,64.416000,-294.752014
979.903992,64.416000,-294.752014
991.616028,70.272003,-300.608002
987.711975,64.416000,-294.752014
993.567993,64.416000,-284.992004
989.664001,56.608002,-286.944000
983.807983,70.272003,-294.752014
987.711975,74.176003,-288.895996
993.567993,76.127998,-290.847992
985.760010,76.127998,-292.799988
989.664001,70.272003,-296.704010
983.807983,83.935997,-288.895996
991.616028,83.935997,-288.895996
983.807983,83.935997,-279.135986
987.711975,83.935997,-292.799988
993.567993,93.695999,-290.847992
997.471985,93.695999,-290.847992
993.567993,89.792000,-281.088013
997.471985,78.080002,-284.992004
1001.375977,78.080002,-296.704010
991.616028,95.648003,-283.040009
1003.328003,95.648003,-290.847992
995.520020,87.839996,-292.799988
1001.375977,81.984001,-286.944000
995.520020,95.648003,-288.895996
993.567993,91.744003,-290.847992
987.711975,95.648003,-286.944000
991.616028,95.648003,-288.895996
991.616028,97.599998,-283.040009
997.471985,97.599998,-283.040009
1005.280029,99.552002,-290.847992
997.471985,99.552002,-294.752014
1003.328003,97.599998,-300.608002
981.856018,93.695999,-292.799988
991.616028,103.456001,-288.895996
993.567993,101.503998,-286.944000
1001.375977,103.456001,-294.752014
1009.184021,101.503998,-296.704010
1001.375977,93.695999,-292.799988
999.424011,85.888000,-286.944000
1005.280029,101.503998,-281.088013
995.520020,109.311996,-281.088013
999.424011,117.120003,-281.088013
1003.328003,119.071999,-275.231995
995.520020,122.975998,-277.183990
993.567993,119.071999,-277.183990
993.567993,119.071999,-277.183990
1005.280029,117.120003,-267.424011
1001.375977,111.264000,-267.424011
1005.280029,91.744003,-271.328003
1003.328003,103.456001,-269.376007
1001.375977,105.407997,-273.279999
1001.375977,99.552002,-281.088013
993.567993,97.599998,-284.992004
993.567993,103.456001,-275.231995
997.471985,107.360001,-275.231995
989.664001,115.167999,-284.992004
987.711975,111.264000,-277.183990
991.616028,101.503998,-292.799988
987.711975,99.552002,-284.992004
993.567993,97.599998,-288.895996
981.856018,87.839996,-279.135986
979.903992,93.695999,-281.088013
993.567993,101.503998,-286.944000
983.807983,107.360001,-292.799988
981.856018,107.360001,-300.608002
972.096008,113.216003,-284.992004
968.192017,107.360001,-281.088013
964.288025,109.311996,-292.799988
968.192017,113.216003,-298.656006
972.096008,101.503998,-294.752014
981.856018,105.407997,-296.704010
979.903992,97.599998,-292.799988
970.143982,95.648003,-290.847992
970.143982,107.360001,-296.704010
962.335999,119.071999,-296.704010
966.239990,113.216003,-296.704010
962.335999,107.360001,-292.799988
974.047974,111.264000,-288.895996
970.143982,97.599998,-296.704010
960.383972,93.695999,-294.752014
966.239990,91.744003,-302.559998
960.383972,101.503998,-298.656006
964.288025,105.407997,-294.752014
960.383972,117.120003,-283.040009
960.383972,109.311996,-288.895996
950.624023,115.167999,-296.704010
950.624023,115.167999,-292.799988
960.383972,111.264000,-292.799988
956.479980,109.311996,-294.752014
960.383972,103.456001,-294.752014
958.432007,111.264000,-292.799988
952.575989,105.407997,-296.704010
952.575989,103.456001,-302.559998
956.479980,97.599998,-294.752014
958.432007,105.407997,-294.752014
952.575989,101.503998,-300.608002
950.624023,95.648003,-300.608002
946.719971,103.456001,-300.608002
950.624023,101.503998,-302.559998
948.671997,103.456001,-296.704010
948.671997,95.648003,-306.463989
948.671997,95.648003,-296.704010
950.624023,95.648003,-294.752014
948.671997,89.792000,-306.463989
936.960022,97.599998,-306.463989
946.719971,99.552002,-310.368011
940.864014,93.695999,-310.368011
942.815979,87.839996,-304.511993
940.864014,87.839996,-312.320007
942.815979,93.695999,-306.463989
927.200012,89.792000,-312.320007
925.247986,95.648003,-324.032013
925.247986,89.792000,-325.984009
931.104004,87.839996,-329.888000
931.104004,87.839996,-327.936005
913.536011,83.935997,-331.839996
925.247986,91.744003,-331.839996
919.392029,91.744003,-329.888000
919.392029,91.744003,-337.696014
917.440002,91.744003,-327.936005
913.536011,99.552002,-327.936005
917.440002,91.744003,-324.032013
913.536011,103.456001,-331.839996
923.296021,101.503998,-339.648010
923.296021,85.888000,-327.936005
923.296021,91.744003,-327.936005
911.583984,83.935997,-324.032013
923.296021,78.080002,-316.223999
921.343994,72.223999,-316.223999
931.104004,78.080002,-316.223999
925.247986,66.367996,-316.223999
938.911987,70.272003,-298.656006
935.007996,74.176003,-306.463989
929.151978,76.127998,-298.656006
933.056030,74.176003,-304.511993
935.007996,78.080002,-308.415985
933.056030,70.272003,-298.656006
935.007996,68.320000,-304.511993
929.151978,70.272003,-312.320007
936.960022,62.464001,-302.559998
935.007996,58.560001,-308.415985
931.104004,60.512001,-298.656006
927.200012,64.416000,-312.320007
935.007996,60.512001,-302.559998
933.056030,48.799999,-302.559998
935.007996,56.608002,-294.752014
933.056030,60.512001,-290.847992
933.056030,62.464001,-298.656006
933.056030,50.751999,-294.752014
933.056030,42.944000,-294.752014
940.864014,39.040001,-286.944000
936.960022,40.992001,-288.895996
933.056030,48.799999,-275.231995
938.911987,48.799999,-292.799988
940.864014,54.655998,-279.135986
931.104004,44.896000,-275.231995
935.007996,40.992001,-284.992004
935.007996,40.992001,-284.992004
931.104004,35.136002,-284.992004
942.815979,37.088001,-281.088013
942.815979,27.327999,-275.231995
940.864014,27.327999,-281.088013
929.151978,23.424000,-284.992004
936.960022,44.896000,-284.992004
931.104004,42.944000,-292.799988
935.007996,37.088001,-290.847992
933.056030,33.183998,-283.040009
936.960022,27.327999,-290.847992
931.104004,35.136002,-284.992004
938.911987,29.280001,-288.895996
933.056030,31.232000,-277.183990
938.911987,33.183998,-288.895996
938.911987,27.327999,-286.944000
931.104004,15.616000,-284.992004
942.815979,13.664000,-283.040009
946.719971,29.280001,-279.135986
944.768005,27.327999,-281.088013
946.719971,25.375999,-275.231995
940.864014,23.424000,-279.135986
948.671997,31.232000,-286.944000
942.815979,31.232000,-279.135986
948.671997,35.136002,-271.328003
946.719971,27.327999,-281.088013
938.911987,23.424000,-275.231995
940.864014,17.568001,-275.231995
946.719971,19.520000,-281.088013
944.768005,11.712000,-288.895996
948.671997,17.568001,-281.088013
950.624023,11.712000,-277.183990
942.815979,11.712000,-279.135986
935.007996,21.472000,-281.088013
946.719971,19.520000,-281.088013
944.768005,17.568001,-279.135986
944.768005,11.712000,-284.992004
940.864014,19.520000,-284.992004
944.768005,17.568001,-283.040009
944.768005,21.472000,-292.799988
950.624023,11.712000,-284.992004
954.528015,17.568001,-283.040009
958.432007,23.424000,-284.992004
946.719971,19.520000,-281.088013
948.671997,17.568001,-279.135986
944.768005,17.568001,-288.895996
952.575989,17.568001,-292.799988
956.479980,17.568001,-290.847992
964.288025,13.664000,-281.088013
962.335999,15.616000,-286.944000
964.288025,7.808000,-294.752014
966.239990,9.760000,-283.040009
956.479980,21.472000,-283.040009
968.192017,15.616000,-288.895996
966.239990,11.712000,-281.088013
966.239990,15.616000,-292.799988
964.288025,17.568001,-292.799988
966.239990,11.712000,-292.799988
974.047974,21.472000,-292.799988
964.288025,17.568001,-294.752014
968.192017,19.520000,-290.847992
968.192017,15.616000,-292.799988
964.288025,17.568001,-300.608002
970.143982,17.568001,-294.752014
976.000000,23.424000,-300.608002
983.807983,19.520000,-292.799988
977.952026,15.616000,-290.847992
976.000000,15.616000,-290.847992
983.807983,17.568001,-292.799988
987.711975,23.424000,-292.799988
985.760010,33.183998,-286.944000
974.047974,27.327999,-292.799988
974.047974,21.472000,-286.944000
976.000000,23.424000,-277.183990
981.856018,15.616000,-290.847992
981.856018,11.712000,-296.704010
985.760010,19.520000,-288.895996
983.807983,27.327999,-292.799988
985.760010,25.375999,-288.895996
977.952026,19.520000,-286.944000
979.903992,33.183998,-294.752014
985.760010,15.616000,-296.704010
979.903992,25.375999,-290.847992
979.903992,23.424000,-296.704010
976.000000,27.327999,-296.704010
968.192017,27.327999,-294.752014
976.000000,33.183998,-294.752014
979.903992,23.424000,-292.799988
972.096008,17.568001,-298.656006
976.000000,23.424000,-304.511993
974.047974,29.280001,-298.656006
979.903992,35.136002,-298.656006
976.000000,29.280001,-296.704010
976.000000,19.520000,-290.847992
977.952026,23.424000,-298.656006
974.047974,23.424000,-298.656006
974.047974,35.136002,-298.656006
970.143982,33.183998,-308.415985
968.192017,37.088001,-290.847992
970.143982,31.232000,-298.656006
964.288025,33.183998,-308.415985
964.288025,19.520000,-304.511993
970.143982,29.280001,-302.559998
966.239990,27.327999,-302.559998
960.383972,25.375999,-302.559998
954.528015,23.424000,-300.608002
958.432007,21.472000,-308.415985
954.528015,25.375999,-302.559998
950.624023,33.183998,-298.656006
948.671997,27.327999,-304.511993
944.768005,31.232000,-306.463989
944.768005,23.424000,-318.175995
936.960022,25.375999,-304.511993
940.864014,21.472000,-302.559998
933.056030,23.424000,-308.415985
938.911987,25.375999,-308.415985
936.960022,19.520000,-322.079987
936.960022,15.616000,-314.272003
944.768005,19.520000,-308.415985
931.104004,25.375999,-302.559998
931.104004,23.424000,-298.656006
933.056030,25.375999,-310.368011
933.056030,23.424000,-310.368011
929.151978,27.327999,-310.368011
929.151978,17.568001,-302.559998
931.104004,15.616000,-308.415985
931.104004,13.664000,-304.511993
933.056030,17.568001,-304.511993
929.151978,17.568001,-304.511993
925.247986,25.375999,-300.608002
931.104004,25.375999,-300.608002
927.200012,17.568001,-292.799988
917.440002,21.472000,-294.752014
929.151978,19.520000,-298.656006
929.151978,11.712000,-304.511993
938.911987,17.568001,-304.511993
931.104004,1.952000,-296.704010
923.296021,3.904000,-292.799988
927.200012,15.616000,-300.608002
921.343994,11.712000,-296.704010
927.200012,21.472000,-308.415985
933.056030,3.904000,-296.704010
931.104004,5.856000,-296.704010
929.151978,17.568001,-294.752014
935.007996,13.664000,-306.463989
927.200012,17.568001,-294.752014
929.151978,11.712000,-294.752014
921.343994,7.808000,-296.704010
931.104004,11.712000,-286.944000
931.104004,9.760000,-292.799988
940.864014,15.616000,-290.847992
938.911987,15.616000,-302.559998
931.104004,11.712000,-300.608002
929.151978,7.808000,-304.511993
940.864014,13.664000,-300.608002
933.056030,19.520000,-300.608002
933.056030,11.712000,-306.463989
936.960022,17.568001,-298.656006
940.864014,7.808000,-302.559998
938.911987,17.568001,-302.559998
942.815979,11.712000,-306.463989
942.815979,21.472000,-304.511993
940.864014,15.616000,-308.415985
940.864014,15.616000,-300.608002
935.007996,13.664000,-302.559998
938.911987,17.568001,-304.511993
933.056030,21.472000,-312.320007
944.768005,11.712000,-314.272003
942.815979,13.664000,-314.272003
933.056030,17.568001,-306.463989
940.864014,21.472000,-308.415985
944.768005,17.568001,-308.415985
944.768005,9.760000,-310.368011
954.528015,9.760000,-312.320007
950.624023,17.568001,-310.368011
956.479980,5.856000,-304.511993
962.335999,25.375999,-300.608002
970.143982,17.568001,-296.704010
964.288025,17.568001,-296.704010
960.383972,15.616000,-292.799988
956.479980,25.375999,-290.847992
958.432007,19.520000,-294.752014
960.383972,17.568001,-300.608002
964.288025,19.520000,-298.656006
960.383972,11.712000,-304.511993
960.383972,7.808000,-304.511993
952.575989,15.616000,-308.415985
956.479980,11.712000,-316.223999
970.143982,17.568001,-298.656006
968.192017,19.520000,-298.656006
964.288025,11.712000,-292.799988
960.383972,13.664000,-292.799988
974.047974,17.568001,-300.608002
964.288025,11.712000,-294.752014
958.432007,5.856000,-296.704010
964.288025,17.568001,-294.752014
960.383972,7.808000,-304.511993
958.432007,1.952000,-300.608002
960.383972,7.808000,-304.511993
964.288025,9.760000,-304.511993
960.383972,9.760000,-298.656006
962.335999,5.856000,-302.559998
958.432007,9.760000,-304.511993
956.479980,0.000000,-302.559998
962.335999,3.904000,-304.511993
958.432007,7.808000,-308.415985
958.432007,-1.952000,-302.559998
946.719971,1.952000,-300.608002
962.335999,-5.856000,-296.704010
958.432007,3.904000,-310.368011
962.335999,-1.952000,-300.608002
948.671997,1.952000,-294.752014
954.528015,0.000000,-296.704010
956.479980,3.904000,-286.944000
960.383972,-1.952000,-296.704010
948.671997,-3.904000,-298.656006
948.671997,-11.712000,-296.704010
950.624023,-3.904000,-294.752014
940.864014,-7.808000,-290.847992
944.768005,-9.760000,-300.608002
946.719971,-17.568001,-290.847992
946.719971,-15.616000,-294.752014
950.624023,-9.760000,-296.704010
950.624023,-9.760000,-296.704010
954.528015,-13.664000,-283.040009
944.768005,-13.664000,-288.895996
946.719971,-17.568001,-290.847992
946.719971,-21.472000,-298.656006
946.719971,-17.568001,-300.608002
950.624023,-15.616000,-302.559998
944.768005,-17.568001,-300.608002
938.911987,-11.712000,-288.895996
938.911987,-9.760000,-300.608002
940.864014,-17.568001,-300.608002
940.864014,-19.520000,-296.704010
936.960022,-23.424000,-304.511993
933.056030,-23.424000,-292.799988
940.864014,-21.472000,-296.704010
931.104004,-19.520000,-304.511993
935.007996,-23.424000,-292.799988
933.056030,-19.520000,-294.752014
929.151978,-19.520000,-296.704010
933.056030,-23.424000,-298.656006
935.007996,-21.472000,-292.799988
929.151978,-25.375999,-292.799988
925.247986,-25.375999,-308.415985
921.343994,-25.375999,-304.511993
931.104004,-29.280001,-312.320007
927.200012,-27.327999,-302.559998
929.151978,-23.424000,-304.511993
917.440002,-21.472000,-300.608002
917.440002,-31.232000,-288.895996
919.392029,-11.712000,-288.895996
917.440002,-15.616000,-298.656006
919.392029,-13.664000,-292.799988
923.296021,-23.424000,-294.752014
921.343994,-23.424000,-300.608002
921.343994,-19.520000,-300.608002
921.343994,-15.616000,-302.559998
927.200012,-27.327999,-298.656006
923.296021,-23.424000,-306.463989
927.200012,-17.568001,-304.511993
921.343994,-27.327999,-302.559998
919.392029,-29.280001,-298.656006
917.440002,-27.327999,-300.608002
923.296021,-35.136002,-304.511993
927.200012,-21.472000,-304.511993
925.247986,-23.424000,-298.656006
929.151978,-31.232000,-304.511993
931.104004,-21.472000,-312.320007
925.247986,-15.616000,-310.368011
927.200012,-31.232000,-306.463989
936.960022,-23.424000,-306.463989
931.104004,-17.568001,-298.656006
929.151978,-17.568001,-304.511993
921.343994,-23.424000,-302.559998
925.247986,-21.472000,-312.320007
925.247986,-21.472000,-306.463989
927.200012,-19.520000,-306.463989
931.104004,-15.616000,-306.463989
925.247986,-13.664000,-302.559998
927.200012,-3.904000,-310.368011
929.151978,-9.760000,-310.368011
927.200012,-19.520000,-298.656006
931.104004,-11.712000,-302.559998
927.200012,-23.424000,-304.511993
929.151978,-13.664000,-304.511993
935.007996,-1.952000,-302.559998
931.104004,-9.760000,-304.511993
935.007996,-19.520000,-300.608002
938.911987,-9.760000,-310.368011
938.911987,-9.760000,-308.415985
936.960022,-19.520000,-316.223999
929.151978,-17.568001,-306.463989
938.911987,-7.808000,-314.272003
935.007996,-9.760000,-312.320007
946.719971,-11.712000,-316.223999
935.007996,-7.808000,-304.511993
938.911987,-1.952000,-316.223999
935.007996,-1.952000,-308.415985
929.151978,-7.808000,-310.368011
931.104004,-5.856000,-298.656006
940.864014,-3.904000,-306.463989
933.056030,1.952000,-308.415985
933.056030,1.952000,-308.415985
929.151978,3.904000,-302.559998
940.864014,-1.952000,-310.368011
940.864014,-3.904000,-306.463989
940.864014,3.904000,-308.415985
938.911987,-7.808000,-310.368011
935.007996,-1.952000,-302.559998
942.815979,-11.712000,-310.368011
933.056030,-11.712000,-306.463989
940.864014,1.952000,-316.223999
933.056030,-1.952000,-310.368011
946.719971,-11.712000,-312.320007
946.719971,-1.952000,-306.463989
935.007996,0.000000,-308.415985
940.864014,13.664000,-304.511993
944.768005,1.952000,-304.511993
950.624023,5.856000,-314.272003
948.671997,7.808000,-308.415985
942.815979,11.712000,-312.320007
950.624023,0.000000,-314.272003
944.768005,7.808000,-314.272003
952.575989,5.856000,-314.272003
952.575989,0.000000,-312.320007
944.768005,5.856000,-310.368011
950.624023,0.000000,-312.320007
948.671997,-3.904000,-304.511993
958.432007,-7.808000,-308.415985
960.383972,7.808000,-304.511993
946.719971,3.904000,-300.608002
960.383972,9.760000,-312.320007
960.383972,9.760000,-300.608002
962.335999,0.000000,-302.559998
958.432007,-3.904000,-308.415985
960.383972,-3.904000,-316.223999
962.335999,1.952000,-310.368011
960.383972,1.952000,-308.415985
956.479980,-5.856000,-302.559998
956.479980,0.000000,-304.511993
960.383972,1.952000,-314.272003
960.383972,3.904000,-310.368011
970.143982,3.904000,-302.559998
964.288025,3.904000,-308.415985
962.335999,0.000000,-302.559998
962.335999,9.760000,-306.463989
952.575989,9.760000,-310.368011
954.528015,3.904000,-316.223999
956.479980,9.760000,-308.415985
954.528015,1.952000,-312.320007
962.335999,13.664000,-312.320007
958.432007,3.904000,-312.320007
966.239990,7.808000,-306.463989
958.432007,-3.904000,-308.415985
956.479980,9.760000,-306.463989
962.335999,0.000000,-304.511993
962.335999,13.664000,-312.320007
948.671997,7.808000,-308.415985
958.432007,13.664000,-298.656006
956.479980,7.808000,-306.463989
964.288025,3.904000,-306.463989
962.335999,0.000000,-302.559998
962.335999,3.904000,-306.463989
954.528015,5.856000,-300.608002
952.575989,9.760000,-300.608002
952.575989,1.952000,-308.415985
946.719971,0.000000,-306.463989
950.624023,3.904000,-308.415985
950.624023,-1.952000,-306.463989
946.719971,5.856000,-308.415985
942.815979,7.808000,-308.415985
946.719971,5.856000,-310.368011
946.719971,13.664000,-302.559998
944.768005,11.712000,-302.559998
942.815979,5.856000,-296.704010
938.911987,9.760000,-298.656006
929.151978,7.808000,-294.752014
933.056030,5.856000,-298.656006
923.296021,13.664000,-306.463989
929.151978,0.000000,-300.608002
929.151978,7.808000,-304.511993
931.104004,1.952000,-306.463989
935.007996,7.808000,-294.752014
933.056030,5.856000,-294.752014
921.343994,11.712000,-294.752014
923.296021,3.904000,-298.656006
927.200012,7.808000,-302.559998
927.200012,5.856000,-300.608002
919.392029,7.808000,-296.704010
915.487976,9.760000,-302.559998
915.487976,13.664000,-302.559998
917.440002,17.568001,-310.368011
913.536011,13.664000,-310.368011
909.632019,3.904000,-302.559998
913.536011,5.856000,-302.559998
917.440002,5.856000,-302.559998
913.536011,13.664000,-308.415985
923.296021,13.664000,-302.559998
923.296021,21.472000,-304.511993
923.296021,15.616000,-304.511993
917.440002,15.616000,-290.847992
919.392029,15.616000,-300.608002
923.296021,17.568001,-290.847992
925.247986,9.760000,-306.463989
927.200012,17.568001,-298.656006
923.296021,17.568001,-308.415985
927.200012,11.712000,-298.656006
925.247986,21.472000,-304.511993
931.104004,17.568001,-304.511993
917.440002,17.568001,-308.415985
921.343994,15.616000,-296.704010
921.343994,17.568001,-304.511993
927.200012,13.664000,-300.608002
921.343994,9.760000,-308.415985
921.343994,15.616000,-308.415985
929.151978,7.808000,-298.656006
923.296021,15.616000,-306.463989
917.440002,9.760000,-310.368011
913.536011,17.568001,-308.415985
927.200012,17.568001,-304.511993
925.247986,17.568001,-308.415985
925.247986,11.712000,-310.368011
915.487976,15.616000,-298.656006
917.440002,17.568001,-310.368011
919.392029,17.568001,-306.463989
929.151978,17.568001,-300.608002
917.440002,15.616000,-302.559998
917.440002,15.616000,-302.559998
931.104004,15.616000,-306.463989
925.247986,5.856000,-302.559998
929.151978,11.712000,-300.608002
935.007996,11.712000,-304.511993
935.007996,15.616000,-312.320007
925.247986,9.760000,-312.320007
929.151978,17.568001,-300.608002
933.056030,11.712000,-294.752014
933.056030,7.808000,-300.608002
929.151978,11.712000,-304.511993
929.151978,9.760000,-300.608002
933.056030,11.712000,-304.511993
933.056030,13.664000,-298.656006
938.911987,7.808000,-304.511993
940.864014,13.664000,-302.559998
936.960022,5.856000,-298.656006
935.007996,17.568001,-304.511993
946.719971,15.616000,-308.415985
938.911987,13.664000,-290.847992
940.864014,15.616000,-298.656006
944.768005,7.808000,-308.415985
940.864014,13.664000,-300.608002
942.815979,7.808000,-302.559998
938.911987,15.616000,-298.656006
938.911987,17.568001,-298.656006
936.960022,13.664000,-304.511993
946.719971,15.616000,-300.608002
940.864014,17.568001,-300.608002
946.719971,15.616000,-302.559998
938.911987,15.616000,-296.704010
948.671997,25.375999,-302.559998
948.671997,21.472000,-306.463989
944.768005,17.568001,-302.559998
950.624023,21.472000,-300.608002
940.864014,11.712000,-304.511993
933.056030,17.568001,-304.511993
944.768005,23.424000,-304.511993
944.768005,21.472000,-298.656006
940.864014,21.472000,-300.608002
944.768005,23.424000,-304.511993
956.479980,15.616000,-304.511993
950.624023,17.568001,-304.511993
952.575989,17.568001,-296.704010
944.768005,25.375999,-294.752014
952.575989,11.712000,-302.559998
948.671997,9.760000,-296.704010
952.575989,11.712000,-300.608002
952.575989,13.664000,-298.656006
952.575989,15.616000,-290.847992
952.575989,15.616000,-298.656006
950.624023,11.712000,-290.847992
952.575989,15.616000,-308.415985
954.528015,11.712000,-306.463989
946.719971,9.760000,-296.704010
938.911987,13.664000,-294.752014
946.719971,11.712000,-294.752014
944.768005,11.712000,-302.559998
940.864014,17.568001,-292.799988
946.719971,15.616000,-302.559998
950.624023,9.760000,-304.511993
946.719971,13.664000,-300.608002
946.719971,15.616000,-298.656006
944.768005,7.808000,-308.415985
940.864014,11.712000,-300.608002
944.768005,3.904000,-302.559998
950.624023,3.904000,-302.559998
938.911987,13.664000,-304.511993
942.815979,17.568001,-302.559998
936.960022,13.664000,-312.320007
946.719971,13.664000,-302.559998
940.864014,3.904000,-302.559998
938.911987,9.760000,-298.656006
938.911987,17.568001,-300.608002
942.815979,7.808000,-302.559998
940.864014,7.808000,-306.463989
940.864014,9.760000,-296.704010
946.719971,9.760000,-298.656006
940.864014,13.664000,-306.463989
944.768005,3.904000,-294.752014
946.719971,9.760000,-308.415985
936.960022,11.712000,-310.368011
931.104004,11.712000,-310.368011
935.007996,15.616000,-306.463989
940.864014,3.904000,-296.704010
942.815979,7.808000,-308.415985
938.911987,15.616000,-300.608002
940.864014,13.664000,-298.656006
936.960022,5.856000,-302.559998
938.911987,13.664000,-306.463989
938.911987,13.664000,-304.511993
935.007996,3.904000,-302.559998
935.007996,0.000000,-300.608002
931.104004,13.664000,-284.992004
929.151978,17.568001,-294.752014
935.007996,5.856000,-300.608002
938.911987,11.712000,-294.752014
936.960022,9.760000,-292.799988
931.104004,0.000000,-296.704010
929.151978,5.856000,-298.656006
