ACC_X,ACC_Y,ACC_Z
404.063995,484.096008,774.943970
406.015991,488.000000,772.992004
407.967987,495.808014,772.992004
402.112000,493.855988,772.992004
407.967987,488.000000,769.088013
404.063995,493.855988,780.799988
411.872009,484.096008,774.943970
407.967987,489.951996,776.895996
407.967987,499.712006,782.752014
409.920013,495.808014,774.943970
402.112000,497.760010,763.231995
413.824005,486.048004,772.992004
415.776001,484.096008,765.184021
409.920013,493.855988,782.752014
411.872009,489.951996,780.799988
407.967987,480.191986,767.135986
402.112000,489.951996,776.895996
406.015991,489.951996,774.943970
415.776001,493.855988,782.752014
407.967987,489.951996,776.895996
415.776001,497.760010,780.799988
409.920013,495.808014,772.992004
411.872009,486.048004,778.848022
413.824005,497.760010,778.848022
415.776001,491.903992,780.799988
411.872009,488.000000,772.992004
409.920013,489.951996,772.992004
407.967987,493.855988,772.992004
415.776001,491.903992,778.848022
413.824005,486.048004,778.848022
415.776001,488.000000,780.799988
411.872009,495.808014,788.607971
415.776001,491.903992,776.895996
417.727997,489.951996,786.656006
409.920013,497.760010,786.656006
419.679993,495.808014,778.848022
409.920013,488.000000,782.752014
407.967987,501.664001,772.992004
411.872009,511.424011,780.799988
419.679993,491.903992,786.656006
413.824005,493.855988,778.848022
406.015991,503.615997,778.848022
415.776001,493.855988,780.799988
411.872009,489.951996,780.799988
419.679993,493.855988,778.848022
417.727997,488.000000,776.895996
413.824005,482.144012,776.895996
415.776001,491.903992,778.848022
415.776001,493.855988,780.799988
417.727997,488.000000,784.703979
409.920013,489.951996,776.895996
409.920013,493.855988,774.943970
415.776001,497.760010,780.799988
415.776001,491.903992,774.943970
409.920013,497.760010,774.943970
419.679993,493.855988,769.088013
402.112000,493.855988,772.992004
413.824005,493.855988,769.088013
413.824005,488.000000,772.992004
411.872009,497.760010,771.039978
409.920013,491.903992,774.943970
411.872009,497.760010,772.992004
409.920013,497.760010,769.088013
407.967987,489.951996,765.184021
398.208008,493.855988,772.992004
402.112000,488.000000,767.135986
394.303986,489.951996,774.943970
402.112000,497.760010,772.992004
402.112000,497.760010,772.992004
404.063995,501.664001,769.088013
396.256012,480.191986,767.135986
400.160004,497.760010,763.231995
404.063995,495.808014,759.328003
406.015991,491.903992,763.231995
400.160004,497.760010,765.184021
415.776001,499.712006,767.135986
404.063995,493.855988,765.184021
392.351990,501.664001,767.135986
400.160004,493.855988,765.184021
398.208008,486.048004,757.375977
402.112000,493.855988,765.184021
398.208008,488.000000,763.231995
404.063995,495.808014,765.184021
404.063995,493.855988,759.328003
400.160004,499.712006,771.039978
400.160004,499.712006,771.039978
406.015991,497.760010,763.231995
407.967987,499.712006,763.231995
402.112000,489.951996,771.039978
407.967987,486.048004,767.135986
396.256012,482.144012,763.231995
404.063995,493.855988,765.184021
400.160004,497.760010,765.184021
398.208008,491.903992,772.992004
407.967987,489.951996,765.184021
406.015991,497.760010,763.231995
398.208008,497.760010,761.280029
398.208008,489.951996,771.039978
404.063995,484.096008,774.943970
402.112000,486.048004,767.135986
404.063995,488.000000,765.184021
407.967987,486.048004,780.799988
407.967987,491.903992,772.992004
407.967987,484.096008,772.992004
406.015991,480.191986,782.752014
409.920013,488.000000,778.848022
409.920013,497.760010,774.943970
411.872009,486.048004,782.752014
409.920013,497.760010,780.799988
413.824005,480.191986,772.992004
409.920013,482.144012,778.848022
411.872009,480.191986,786.656006
417.727997,480.191986,784.703979
411.872009,482.144012,784.703979
417.727997,482.144012,790.559998
417.727997,480.191986,780.799988
417.727997,480.191986,782.752014
423.584015,482.144012,784.703979
417.727997,486.048004,776.895996
423.584015,476.287994,784.703979
427.488007,491.903992,784.703979
423.584015,480.191986,784.703979
415.776001,482.144012,778.848022
417.727997,478.239990,776.895996
417.727997,482.144012,772.992004
413.824005,484.096008,780.799988
413.824005,489.951996,786.656006
415.776001,493.855988,778.848022
413.824005,480.191986,782.752014
419.679993,486.048004,778.848022
419.679993,488.000000,776.895996
421.631989,488.000000,774.943970
427.488007,488.000000,780.799988
427.488007,486.048004,786.656006
427.488007,489.951996,782.752014
417.727997,488.000000,782.752014
417.727997,486.048004,772.992004
419.679993,484.096008,771.039978
419.679993,491.903992,778.848022
423.584015,488.000000,774.943970
415.776001,493.855988,778.848022
419.679993,480.191986,784.703979
427.488007,484.096008,782.752014
417.727997,484.096008,790.559998
427.488007,486.048004,790.559998
423.584015,484.096008,788.607971
417.727997,484.096008,788.607971
427.488007,484.096008,794.463989
419.679993,484.096008,794.463989
421.631989,488.000000,786.656006
419.679993,484.096008,784.703979
421.631989,486.048004,782.752014
421.631989,484.096008,790.559998
419.679993,486.048004,786.656006
417.727997,488.000000,772.992004
419.679993,472.384003,784.703979
417.727997,482.144012,782.752014
417.727997,482.144012,784.703979
417.727997,482.144012,780.799988
415.776001,480.191986,782.752014
415.776001,488.000000,774.943970
413.824005,486.048004,776.895996
415.776001,480.191986,784.703979
423.584015,484.096008,776.895996
417.727997,482.144012,776.895996
413.824005,486.048004,776.895996
419.679993,488.000000,776.895996
415.776001,486.048004,778.848022
415.776001,486.048004,776.895996
409.920013,491.903992,778.848022
409.920013,488.000000,774.943970
419.679993,488.000000,774.943970
409.920013,489.951996,765.184021
411.872009,482.144012,772.992004
407.967987,488.000000,774.943970
409.920013,491.903992,771.039978
404.063995,491.903992,771.039978
406.015991,501.664001,774.943970
413.824005,491.903992,786.656006
402.112000,491.903992,782.752014
402.112000,505.567993,771.039978
407.967987,497.760010,786.656006
406.015991,493.855988,784.703979
407.967987,493.855988,776.895996
407.967987,491.903992,778.848022
406.015991,484.096008,769.088013
409.920013,491.903992,774.943970
415.776001,495.808014,774.943970
409.920013,488.000000,772.992004
409.920013,495.808014,772.992004
402.112000,491.903992,772.992004
409.920013,493.855988,769.088013
406.015991,497.760010,771.039978
409.920013,493.855988,774.943970
407.967987,495.808014,765.184021
415.776001,499.712006,767.135986
413.824005,489.951996,769.088013
404.063995,495.808014,771.039978
404.063995,505.567993,769.088013
400.160004,497.760010,765.184021
398.208008,505.567993,769.088013
402.112000,505.567993,769.088013
404.063995,495.808014,771.039978
402.112000,501.664001,772.992004
400.160004,503.615997,774.943970
402.112000,497.760010,772.992004
402.112000,505.567993,769.088013
404.063995,503.615997,772.992004
407.967987,497.760010,769.088013
407.967987,501.664001,771.039978
398.208008,495.808014,772.992004
407.967987,493.855988,774.943970
404.063995,493.855988,765.184021
404.063995,497.760010,769.088013
398.208008,505.567993,757.375977
400.160004,503.615997,774.943970
398.208008,493.855988,765.184021
394.303986,499.712006,771.039978
407.967987,505.567993,767.135986
407.967987,505.567993,769.088013
402.112000,501.664001,776.895996
407.967987,495.808014,772.992004
402.112000,503.615997,769.088013
407.967987,495.808014,772.992004
407.967987,495.808014,772.992004
402.112000,497.760010,771.039978
409.920013,488.000000,774.943970
404.063995,501.664001,765.184021
409.920013,489.951996,771.039978
398.208008,501.664001,774.943970
404.063995,509.471985,774.943970
411.872009,505.567993,778.848022
400.160004,501.664001,771.039978
402.112000,505.567993,769.088013
400.160004,503.615997,774.943970
406.015991,503.615997,774.943970
404.063995,499.712006,784.703979
407.967987,501.664001,774.943970
407.967987,499.712006,780.799988
402.112000,499.712006,784.703979
409.920013,495.808014,776.895996
409.920013,497.760010,786.656006
409.920013,501.664001,776.895996
411.872009,499.712006,784.703979
409.920013,497.760010,776.895996
407.967987,491.903992,780.799988
400.160004,499.712006,790.559998
415.776001,497.760010,780.799988
413.824005,497.760010,786.656006
407.967987,493.855988,784.703979
419.679993,497.760010,780.799988
415.776001,499.712006,786.656006
413.824005,495.808014,788.607971
406.015991,497.760010,782.752014
413.824005,495.808014,788.607971
419.679993,493.855988,780.799988
406.015991,491.903992,786.656006
404.063995,493.855988,782.752014
415.776001,497.760010,774.943970
404.063995,486.048004,786.656006
411.872009,491.903992,790.559998
411.872009,486.048004,782.752014
409.920013,488.000000,782.752014
406.015991,495.808014,786.656006
411.872009,491.903992,780.799988
402.112000,493.855988,782.752014
411.872009,493.855988,786.656006
406.015991,484.096008,780.799988
407.967987,497.760010,784.703979
402.112000,480.191986,776.895996
404.063995,480.191986,782.752014
402.112000,488.000000,780.799988
407.967987,493.855988,778.848022
400.160004,484.096008,778.848022
400.160004,488.000000,782.752014
402.112000,486.048004,786.656006
398.208008,489.951996,782.752014
400.160004,493.855988,776.895996
396.256012,497.760010,769.088013
392.351990,476.287994,772.992004
394.303986,486.048004,784.703979
404.063995,493.855988,771.039978
396.256012,484.096008,782.752014
404.063995,488.000000,765.184021
396.256012,489.951996,776.895996
394.303986,484.096008,769.088013
398.208008,489.951996,772.992004
398.208008,488.000000,774.943970
398.208008,489.951996,765.184021
394.303986,491.903992,765.184021
394.303986,489.951996,769.088013
390.399994,488.000000,767.135986
394.303986,493.855988,771.039978
382.592010,491.903992,761.280029
392.351990,478.239990,772.992004
386.496002,488.000000,767.135986
388.447998,491.903992,757.375977
396.256012,484.096008,763.231995
384.544006,489.951996,765.184021
382.592010,495.808014,757.375977
390.399994,489.951996,759.328003
380.640015,493.855988,757.375977
382.592010,489.951996,757.375977
382.592010,493.855988,757.375977
392.351990,501.664001,767.135986
384.544006,491.903992,769.088013
386.496002,491.903992,767.135986
392.351990,495.808014,761.280029
384.544006,491.903992,767.135986
388.447998,499.712006,767.135986
386.496002,509.471985,763.231995
382.592010,501.664001,757.375977
388.447998,497.760010,763.231995
384.544006,499.712006,767.135986
382.592010,495.808014,761.280029
382.592010,501.664001,757.375977
388.447998,505.567993,765.184021
388.447998,495.808014,757.375977
386.496002,493.855988,763.231995
388.447998,497.760010,755.424011
394.303986,503.615997,774.943970
394.303986,501.664001,767.135986
398.208008,505.567993,757.375977
392.351990,503.615997,757.375977
386.496002,503.615997,763.231995
382.592010,503.615997,757.375977
384.544006,501.664001,763.231995
386.496002,495.808014,763.231995
392.351990,491.903992,757.375977
382.592010,489.951996,757.375977
382.592010,495.808014,763.231995
386.496002,501.664001,757.375977
382.592010,495.808014,767.135986
386.496002,501.664001,757.375977
392.351990,501.664001,767.135986
386.496002,501.664001,749.567993
388.447998,501.664001,757.375977
382.592010,503.615997,757.375977
388.447998,497.760010,763.231995
388.447998,489.951996,755.424011
386.496002,488.000000,747.616028
386.496002,493.855988,757.375977
388.447998,501.664001,759.328003
386.496002,503.615997,755.424011
388.447998,493.855988,757.375977
390.399994,499.712006,769.088013
382.592010,501.664001,757.375977
384.544006,489.951996,757.375977
380.640015,495.808014,763.231995
382.592010,495.808014,761.280029
380.640015,495.808014,759.328003
392.351990,486.048004,753.471985
388.447998,488.000000,755.424011
396.256012,501.664001,759.328003
380.640015,488.000000,759.328003
388.447998,489.951996,759.328003
382.592010,486.048004,771.039978
396.256012,480.191986,761.280029
390.399994,484.096008,763.231995
392.351990,489.951996,757.375977
384.544006,480.191986,761.280029
384.544006,478.239990,759.328003
386.496002,484.096008,771.039978
392.351990,478.239990,774.943970
388.447998,489.951996,769.088013
398.208008,482.144012,763.231995
396.256012,482.144012,761.280029
396.256012,486.048004,769.088013
396.256012,486.048004,767.135986
394.303986,482.144012,769.088013
398.208008,476.287994,767.135986
386.496002,482.144012,763.231995
390.399994,489.951996,771.039978
394.303986,478.239990,767.135986
386.496002,488.000000,765.184021
392.351990,489.951996,767.135986
396.256012,489.951996,765.184021
398.208008,489.951996,771.039978
400.160004,486.048004,765.184021
400.160004,482.144012,774.943970
400.160004,488.000000,763.231995
398.208008,482.144012,767.135986
398.208008,486.048004,767.135986
400.160004,488.000000,759.328003
402.112000,482.144012,769.088013
398.208008,480.191986,767.135986
400.160004,482.144012,774.943970
406.015991,484.096008,774.943970
398.208008,482.144012,767.135986
411.872009,480.191986,772.992004
419.679993,486.048004,778.848022
404.063995,478.239990,772.992004
404.063995,484.096008,774.943970
411.872009,488.000000,772.992004
411.872009,482.144012,774.943970
411.872009,486.048004,782.752014
419.679993,482.144012,782.752014
413.824005,486.048004,782.752014
415.776001,484.096008,784.703979
423.584015,478.239990,782.752014
421.631989,488.000000,780.799988
419.679993,480.191986,782.752014
417.727997,493.855988,780.799988
413.824005,489.951996,782.752014
415.776001,491.903992,774.943970
419.679993,488.000000,786.656006
413.824005,486.048004,778.848022
417.727997,480.191986,776.895996
421.631989,484.096008,790.559998
413.824005,486.048004,778.848022
417.727997,480.191986,778.848022
423.584015,493.855988,786.656006
419.679993,489.951996,784.703979
423.584015,480.191986,784.703979
413.824005,486.048004,784.703979
415.776001,488.000000,778.848022
411.872009,493.855988,790.559998
409.920013,497.760010,778.848022
415.776001,488.000000,778.848022
413.824005,491.903992,788.607971
421.631989,493.855988,786.656006
419.679993,491.903992,774.943970
409.920013,493.855988,786.656006
407.967987,486.048004,788.607971
407.967987,489.951996,778.848022
409.920013,488.000000,778.848022
411.872009,488.000000,776.895996
415.776001,493.855988,782.752014
411.872009,486.048004,778.848022
409.920013,495.808014,772.992004
411.872009,493.855988,774.943970
406.015991,482.144012,782.752014
407.967987,489.951996,776.895996
411.872009,489.951996,767.135986
411.872009,501.664001,769.088013
402.112000,493.855988,769.088013
407.967987,489.951996,765.184021
400.160004,493.855988,772.992004
407.967987,501.664001,772.992004
402.112000,491.903992,772.992004
407.967987,489.951996,774.943970
407.967987,491.903992,771.039978
413.824005,488.000000,765.184021
402.112000,495.808014,771.039978
409.920013,482.144012,771.039978
413.824005,482.144012,778.848022
407.967987,491.903992,772.992004
413.824005,495.808014,761.280029
411.872009,493.855988,765.184021
413.824005,489.951996,767.135986
409.920013,491.903992,772.992004
415.776001,501.664001,772.992004
411.872009,499.712006,765.184021
409.920013,491.903992,772.992004
411.872009,497.760010,776.895996
409.920013,497.760010,774.943970
417.727997,499.712006,776.895996
411.872009,499.712006,772.992004
409.920013,493.855988,774.943970
413.824005,501.664001,769.088013
415.776001,499.712006,774.943970
404.063995,493.855988,782.752014
419.679993,486.048004,776.895996
409.920013,493.855988,774.943970
415.776001,497.760010,774.943970
415.776001,484.096008,771.039978
413.824005,486.048004,776.895996
419.679993,501.664001,780.799988
419.679993,497.760010,778.848022
409.920013,489.951996,776.895996
421.631989,493.855988,774.943970
423.584015,501.664001,769.088013
425.536011,493.855988,767.135986
406.015991,488.000000,765.184021
417.727997,488.000000,774.943970
417.727997,488.000000,772.992004
413.824005,488.000000,774.943970
423.584015,501.664001,778.848022
427.488007,495.808014,778.848022
421.631989,488.000000,774.943970
415.776001,493.855988,774.943970
415.776001,491.903992,778.848022
417.727997,484.096008,772.992004
421.631989,491.903992,774.943970
421.631989,493.855988,774.943970
415.776001,488.000000,780.799988
427.488007,497.760010,778.848022
429.440002,497.760010,772.992004
419.679993,497.760010,778.848022
415.776001,493.855988,786.656006
425.536011,489.951996,782.752014
423.584015,491.903992,780.799988
429.440002,491.903992,778.848022
415.776001,488.000000,778.848022
423.584015,480.191986,776.895996
421.631989,486.048004,778.848022
419.679993,501.664001,786.656006
419.679993,493.855988,776.895996
425.536011,489.951996,780.799988
427.488007,493.855988,776.895996
425.536011,493.855988,772.992004
419.679993,499.712006,774.943970
421.631989,488.000000,774.943970
429.440002,491.903992,778.848022
429.440002,493.855988,771.039978
421.631989,486.048004,774.943970
415.776001,493.855988,778.848022
415.776001,493.855988,778.848022
421.631989,497.760010,780.799988
417.727997,493.855988,776.895996
435.295990,501.664001,772.992004
421.631989,489.951996,778.848022
427.488007,491.903992,776.895996
419.679993,491.903992,776.895996
421.631989,495.808014,774.943970
427.488007,491.903992,772.992004
423.584015,493.855988,782.752014
427.488007,501.664001,782.752014
423.584015,491.903992,765.184021
423.584015,493.855988,790.559998
421.631989,489.951996,772.992004
419.679993,491.903992,778.848022
413.824005,488.000000,772.992004
413.824005,486.048004,771.039978
423.584015,488.000000,772.992004
413.824005,488.000000,772.992004
415.776001,495.808014,790.559998
417.727997,486.048004,782.752014
421.631989,488.000000,778.848022
411.872009,497.760010,772.992004
415.776001,491.903992,778.848022
417.727997,488.000000,774.943970
419.679993,497.760010,774.943970
415.776001,493.855988,776.895996
406.015991,482.144012,778.848022
413.824005,486.048004,778.848022
407.967987,493.855988,772.992004
413.824005,491.903992,774.943970
419.679993,486.048004,776.895996
415.776001,488.000000,786.656006
409.920013,488.000000,772.992004
415.776001,488.000000,769.088013
417.727997,486.048004,778.848022
406.015991,489.951996,774.943970
413.824005,486.048004,774.943970
411.872009,491.903992,769.088013
411.872009,482.144012,774.943970
415.776001,499.712006,778.848022
415.776001,488.000000,776.895996
417.727997,488.000000,778.848022
409.920013,488.000000,774.943970
409.920013,488.000000,774.943970
409.920013,491.903992,772.992004
417.727997,488.000000,774.943970
411.872009,489.951996,769.088013
413.824005,486.048004,772.992004
417.727997,488.000000,769.088013
417.727997,486.048004,771.039978
417.727997,503.615997,780.799988
415.776001,497.760010,774.943970
417.727997,491.903992,774.943970
423.584015,488.000000,771.039978
415.776001,488.000000,772.992004
421.631989,493.855988,774.943970
415.776001,488.000000,776.895996
417.727997,493.855988,780.799988
421.631989,503.615997,790.559998
423.584015,488.000000,774.943970
419.679993,488.000000,786.656006
423.584015,497.760010,782.752014
425.536011,480.191986,782.752014
427.488007,472.384003,784.703979
425.536011,495.808014,784.703979
413.824005,495.808014,786.656006
427.488007,489.951996,780.799988
421.631989,493.855988,780.799988
425.536011,501.664001,780.799988
421.631989,497.760010,774.943970
425.536011,486.048004,782.752014
427.488007,491.903992,784.703979
429.440002,488.000000,788.607971
421.631989,486.048004,778.848022
423.584015,486.048004,790.559998
427.488007,484.096008,790.559998
421.631989,484.096008,784.703979
429.440002,482.144012,788.607971
431.391998,488.000000,790.559998
431.391998,486.048004,786.656006
423.584015,484.096008,776.895996
425.536011,484.096008,780.799988
427.488007,493.855988,780.799988
427.488007,488.000000,788.607971
421.631989,493.855988,786.656006
423.584015,491.903992,788.607971
431.391998,493.855988,790.559998
421.631989,489.951996,788.607971
435.295990,488.000000,788.607971
437.247986,499.712006,790.559998
425.536011,497.760010,782.752014
425.536011,484.096008,782.752014
421.631989,486.048004,780.799988
417.727997,486.048004,782.752014
421.631989,491.903992,780.799988
427.488007,484.096008,780.799988
423.584015,486.048004,776.895996
431.391998,495.808014,788.607971
427.488007,493.855988,778.848022
431.391998,501.664001,780.799988
421.631989,480.191986,784.703979
423.584015,493.855988,782.752014
427.488007,495.808014,776.895996
433.343994,482.144012,782.752014
431.391998,495.808014,784.703979
423.584015,489.951996,792.512024
429.440002,493.855988,778.848022
429.440002,493.855988,782.752014
429.440002,488.000000,786.656006
427.488007,491.903992,784.703979
425.536011,497.760010,782.752014
431.391998,489.951996,782.752014
423.584015,486.048004,782.752014
425.536011,484.096008,780.799988
423.584015,489.951996,780.799988
429.440002,491.903992,774.943970
431.391998,484.096008,776.895996
427.488007,491.903992,784.703979
429.440002,495.808014,780.799988
425.536011,491.903992,784.703979
427.488007,484.096008,778.848022
427.488007,488.000000,774.943970
429.440002,493.855988,772.992004
429.440002,489.951996,784.703979
431.391998,489.951996,786.656006
427.488007,491.903992,782.752014
423.584015,484.096008,780.799988
423.584015,484.096008,780.799988
435.295990,488.000000,790.559998
429.440002,486.048004,786.656006
433.343994,482.144012,788.607971
435.295990,497.760010,782.752014
433.343994,489.951996,780.799988
427.488007,486.048004,788.607971
433.343994,486.048004,788.607971
425.536011,489.951996,788.607971
431.391998,488.000000,790.559998
427.488007,489.951996,784.703979
435.295990,482.144012,784.703979
439.200012,489.951996,780.799988
435.295990,488.000000,788.607971
431.391998,478.239990,776.895996
427.488007,482.144012,790.559998
425.536011,478.239990,784.703979
429.440002,488.000000,798.367981
429.440002,480.191986,786.656006
435.295990,484.096008,786.656006
437.247986,493.855988,790.559998
435.295990,476.287994,780.799988
429.440002,486.048004,786.656006
429.440002,486.048004,798.367981
433.343994,486.048004,788.607971
435.295990,480.191986,788.607971
427.488007,482.144012,790.559998
421.631989,478.239990,784.703979
417.727997,489.951996,788.607971
429.440002,480.191986,788.607971
431.391998,486.048004,790.559998
417.727997,486.048004,776.895996
417.727997,480.191986,782.752014
417.727997,484.096008,790.559998
431.391998,484.096008,786.656006
423.584015,489.951996,788.607971
413.824005,486.048004,772.992004
421.631989,484.096008,771.039978
415.776001,484.096008,782.752014
419.679993,482.144012,771.039978
419.679993,474.335999,780.799988
415.776001,493.855988,778.848022
415.776001,484.096008,771.039978
415.776001,493.855988,786.656006
419.679993,488.000000,778.848022
417.727997,486.048004,772.992004
415.776001,495.808014,774.943970
419.679993,497.760010,774.943970
417.727997,488.000000,780.799988
415.776001,493.855988,780.799988
417.727997,480.191986,772.992004
419.679993,482.144012,772.992004
419.679993,486.048004,782.752014
417.727997,472.384003,769.088013
406.015991,480.191986,776.895996
413.824005,486.048004,772.992004
419.679993,482.144012,771.039978
423.584015,486.048004,772.992004
425.536011,484.096008,776.895996
423.584015,482.144012,771.039978
417.727997,486.048004,772.992004
413.824005,486.048004,776.895996
417.727997,488.000000,778.848022
419.679993,488.000000,780.799988
413.824005,482.144012,776.895996
413.824005,480.191986,771.039978
419.679993,493.855988,776.895996
415.776001,495.808014,786.656006
415.776001,488.000000,776.895996
423.584015,488.000000,782.752014
421.631989,486.048004,778.848022
417.727997,482.144012,772.992004
413.824005,480.191986,772.992004
411.872009,486.048004,782.752014
413.824005,480.191986,782.752014
415.776001,468.480011,776.895996
419.679993,476.287994,782.752014
415.776001,482.144012,784.703979
415.776001,472.384003,782.752014
417.727997,480.191986,784.703979
413.824005,474.335999,776.895996
417.727997,478.239990,778.848022
417.727997,480.191986,784.703979
411.872009,476.287994,778.848022
419.679993,478.239990,771.039978
411.872009,486.048004,772.992004
409.920013,488.000000,778.848022
413.824005,482.144012,776.895996
413.824005,486.048004,772.992004
411.872009,493.855988,771.039978
411.872009,476.287994,780.799988
406.015991,486.048004,772.992004
409.920013,488.000000,774.943970
411.872009,488.000000,771.039978
409.920013,482.144012,765.184021
409.920013,482.144012,771.039978
411.872009,480.191986,769.088013
411.872009,486.048004,771.039978
407.967987,489.951996,772.992004
404.063995,484.096008,774.943970
402.112000,484.096008,774.943970
407.967987,489.951996,759.328003
409.920013,482.144012,759.328003
402.112000,488.000000,767.135986
409.920013,486.048004,767.135986
407.967987,486.048004,769.088013
406.015991,489.951996,769.088013
402.112000,482.144012,757.375977
400.160004,482.144012,769.088013
398.208008,486.048004,757.375977
402.112000,486.048004,765.184021
406.015991,478.239990,765.184021
407.967987,480.191986,767.135986
404.063995,482.144012,774.943970
406.015991,484.096008,769.088013
406.015991,478.239990,774.943970
402.112000,486.048004,767.135986
407.967987,478.239990,765.184021
402.112000,480.191986,774.943970
407.967987,482.144012,774.943970
406.015991,478.239990,778.848022
406.015991,486.048004,772.992004
406.015991,472.384003,774.943970
407.967987,484.096008,784.703979
407.967987,472.384003,774.943970
406.015991,478.239990,774.943970
406.015991,476.287994,774.943970
400.160004,484.096008,778.848022
409.920013,474.335999,769.088013
407.967987,464.575989,776.895996
413.824005,468.480011,774.943970
407.967987,468.480011,778.848022
411.872009,474.335999,778.848022
404.063995,470.432007,786.656006
398.208008,472.384003,780.799988
400.160004,464.575989,786.656006
423.584015,464.575989,780.799988
415.776001,466.528015,776.895996
407.967987,464.575989,776.895996
409.920013,460.671997,786.656006
411.872009,466.528015,784.703979
409.920013,468.480011,786.656006
413.824005,464.575989,780.799988
413.824005,470.432007,788.607971
415.776001,468.480011,776.895996
409.920013,468.480011,782.752014
409.920013,460.671997,782.752014
415.776001,464.575989,780.799988
413.824005,464.575989,786.656006
419.679993,470.432007,786.656006
409.920013,470.432007,782.752014
411.872009,468.480011,790.559998
411.872009,466.528015,784.703979
411.872009,464.575989,780.799988
411.872009,454.816010,776.895996
409.920013,460.671997,782.752014
415.776001,466.528015,776.895996
415.776001,466.528015,774.943970
415.776001,456.768005,780.799988
409.920013,462.623993,782.752014
419.679993,448.959991,772.992004
417.727997,464.575989,778.848022
415.776001,460.671997,786.656006
415.776001,456.768005,778.848022
409.920013,466.528015,774.943970
419.679993,468.480011,776.895996
419.679993,460.671997,774.943970
415.776001,462.623993,778.848022
419.679993,470.432007,772.992004
409.920013,468.480011,780.799988
413.824005,474.335999,778.848022
413.824005,474.335999,780.799988
421.631989,474.335999,780.799988
419.679993,476.287994,780.799988
419.679993,474.335999,772.992004
413.824005,476.287994,778.848022
415.776001,474.335999,776.895996
409.920013,462.623993,776.895996
415.776001,468.480011,780.799988
413.824005,474.335999,774.943970
402.112000,472.384003,774.943970
409.920013,464.575989,778.848022
413.824005,474.335999,776.895996
419.679993,486.048004,774.943970
413.824005,474.335999,778.848022
413.824005,464.575989,776.895996
409.920013,470.432007,782.752014
411.872009,472.384003,776.895996
411.872009,472.384003,778.848022
400.160004,478.239990,786.656006
409.920013,486.048004,776.895996
402.112000,472.384003,780.799988
413.824005,486.048004,778.848022
411.872009,476.287994,782.752014
411.872009,482.144012,782.752014
406.015991,478.239990,769.088013
406.015991,484.096008,778.848022
402.112000,482.144012,771.039978
409.920013,486.048004,769.088013
394.303986,482.144012,776.895996
398.208008,489.951996,772.992004
400.160004,488.000000,771.039978
402.112000,488.000000,771.039978
402.112000,476.287994,774.943970
404.063995,482.144012,774.943970
402.112000,489.951996,765.184021
398.208008,489.951996,771.039978
400.160004,486.048004,767.135986
406.015991,488.000000,763.231995
407.967987,491.903992,769.088013
407.967987,486.048004,761.280029
407.967987,501.664001,765.184021
404.063995,497.760010,765.184021
398.208008,482.144012,757.375977
402.112000,501.664001,751.520020
400.160004,493.855988,761.280029
400.160004,499.712006,759.328003
400.160004,503.615997,769.088013
402.112000,505.567993,761.280029
400.160004,495.808014,757.375977
404.063995,499.712006,761.280029
406.015991,493.855988,761.280029
404.063995,505.567993,763.231995
402.112000,505.567993,761.280029
394.303986,499.712006,761.280029
398.208008,501.664001,761.280029
402.112000,501.664001,772.992004
406.015991,499.712006,765.184021
402.112000,499.712006,757.375977
402.112000,501.664001,765.184021
404.063995,497.760010,761.280029
402.112000,501.664001,772.992004
407.967987,501.664001,771.039978
404.063995,505.567993,771.039978
406.015991,503.615997,769.088013
402.112000,507.519989,767.135986
406.015991,499.712006,771.039978
406.015991,505.567993,765.184021
407.967987,505.567993,767.135986
398.208008,507.519989,769.088013
409.920013,499.712006,780.799988
407.967987,503.615997,772.992004
407.967987,501.664001,772.992004
409.920013,507.519989,763.231995
407.967987,503.615997,778.848022
406.015991,507.519989,772.992004
398.208008,501.664001,772.992004
406.015991,511.424011,771.039978
398.208008,517.280029,767.135986
411.872009,511.424011,774.943970
407.967987,505.567993,769.088013
402.112000,503.615997,774.943970
406.015991,511.424011,774.943970
404.063995,507.519989,771.039978
398.208008,509.471985,769.088013
402.112000,511.424011,757.375977
407.967987,509.471985,767.135986
394.303986,509.471985,769.088013
406.015991,503.615997,774.943970
406.015991,499.712006,771.039978
402.112000,501.664001,771.039978
411.872009,505.567993,772.992004
404.063995,505.567993,765.184021
404.063995,501.664001,774.943970
406.015991,511.424011,774.943970
409.920013,505.567993,774.943970
400.160004,511.424011,763.231995
402.112000,497.760010,765.184021
407.967987,505.567993,763.231995
404.063995,507.519989,767.135986
404.063995,505.567993,769.088013
407.967987,513.375977,771.039978
404.063995,517.280029,771.039978
406.015991,507.519989,769.088013
407.967987,501.664001,765.184021
402.112000,509.471985,769.088013
404.063995,501.664001,772.992004
402.112000,503.615997,774.943970
402.112000,505.567993,761.280029
400.160004,497.760010,771.039978
398.208008,507.519989,769.088013
404.063995,517.280029,767.135986
402.112000,499.712006,767.135986
402.112000,507.519989,769.088013
404.063995,501.664001,772.992004
406.015991,509.471985,772.992004
402.112000,505.567993,767.135986
398.208008,505.567993,765.184021
396.256012,501.664001,765.184021
398.208008,507.519989,767.135986
400.160004,513.375977,769.088013
392.351990,507.519989,765.184021
396.256012,501.664001,771.039978
400.160004,503.615997,767.135986
400.160004,499.712006,765.184021
388.447998,509.471985,763.231995
390.399994,503.615997,757.375977
390.399994,513.375977,761.280029
388.447998,515.328003,759.328003
390.399994,509.471985,759.328003
388.447998,501.664001,755.424011
388.447998,503.615997,765.184021
388.447998,509.471985,763.231995
388.447998,513.375977,759.328003
390.399994,509.471985,763.231995
386.496002,509.471985,753.471985
380.640015,509.471985,755.424011
390.399994,507.519989,763.231995
390.399994,513.375977,767.135986
390.399994,515.328003,759.328003
384.544006,513.375977,761.280029
386.496002,521.184021,761.280029
390.399994,511.424011,767.135986
392.351990,507.519989,763.231995
392.351990,519.231995,757.375977
388.447998,515.328003,757.375977
386.496002,515.328003,763.231995
382.592010,513.375977,763.231995
384.544006,509.471985,761.280029
388.447998,515.328003,753.471985
382.592010,517.280029,753.471985
386.496002,515.328003,763.231995
382.592010,515.328003,755.424011
388.447998,515.328003,753.471985
384.544006,517.280029,745.664001
396.256012,515.328003,759.328003
388.447998,515.328003,765.184021
384.544006,515.328003,753.471985
392.351990,517.280029,753.471985
388.447998,513.375977,759.328003
384.544006,519.231995,755.424011
382.592010,515.328003,759.328003
374.783997,511.424011,749.567993
384.544006,511.424011,757.375977
380.640015,527.039978,759.328003
384.544006,525.088013,755.424011
380.640015,525.088013,765.184021
382.592010,517.280029,743.711975
386.496002,515.328003,761.280029
374.783997,519.231995,751.520020
380.640015,521.184021,757.375977
378.687988,519.231995,749.567993
380.640015,517.280029,745.664001
374.783997,523.135986,749.567993
376.735992,517.280029,757.375977
374.783997,519.231995,753.471985
372.832001,525.088013,741.760010
380.640015,515.328003,749.567993
376.735992,517.280029,749.567993
372.832001,523.135986,745.664001
370.880005,527.039978,745.664001
372.832001,523.135986,741.760010
374.783997,521.184021,747.616028
382.592010,519.231995,741.760010
384.544006,525.088013,749.567993
376.735992,521.184021,753.471985
374.783997,515.328003,745.664001
380.640015,515.328003,749.567993
382.592010,517.280029,745.664001
376.735992,515.328003,747.616028
376.735992,515.328003,743.711975
380.640015,517.280029,747.616028
374.783997,513.375977,755.424011
376.735992,515.328003,753.471985
378.687988,517.280029,757.375977
384.544006,509.471985,757.375977
372.832001,507.519989,747.616028
386.496002,513.375977,759.328003
376.735992,513.375977,757.375977
380.640015,505.567993,751.520020
380.640015,511.424011,751.520020
384.544006,515.328003,763.231995
390.399994,503.615997,763.231995
386.496002,501.664001,759.328003
382.592010,515.328003,759.328003
384.544006,515.328003,761.280029
378.687988,503.615997,759.328003
378.687988,503.615997,765.184021
390.399994,503.615997,753.471985
384.544006,497.760010,761.280029
388.447998,503.615997,765.184021
392.351990,503.615997,767.135986
388.447998,503.615997,765.184021
382.592010,509.471985,771.039978
388.447998,501.664001,767.135986
380.640015,495.808014,761.280029
386.496002,503.615997,769.088013
384.544006,503.615997,765.184021
384.544006,495.808014,771.039978
384.544006,499.712006,774.943970
392.351990,503.615997,772.992004
384.544006,509.471985,771.039978
392.351990,499.712006,771.039978
384.544006,501.664001,759.328003
382.592010,501.664001,761.280029
394.303986,501.664001,757.375977
384.544006,501.664001,761.280029
382.592010,497.760010,767.135986
390.399994,495.808014,771.039978
396.256012,491.903992,767.135986
396.256012,499.712006,765.184021
392.351990,493.855988,761.280029
382.592010,491.903992,767.135986
386.496002,493.855988,767.135986
390.399994,495.808014,765.184021
392.351990,491.903992,761.280029
392.351990,495.808014,761.280029
390.399994,497.760010,776.895996
394.303986,505.567993,772.992004
398.208008,501.664001,771.039978
386.496002,501.664001,763.231995
388.447998,501.664001,763.231995
388.447998,491.903992,763.231995
394.303986,484.096008,774.943970
396.256012,484.096008,759.328003
396.256012,491.903992,761.280029
396.256012,503.615997,769.088013
392.351990,493.855988,772.992004
394.303986,499.712006,771.039978
398.208008,484.096008,765.184021
392.351990,501.664001,761.280029
396.256012,488.000000,769.088013
394.303986,493.855988,774.943970
398.208008,493.855988,772.992004
400.160004,501.664001,780.799988
402.112000,497.760010,776.895996
394.303986,497.760010,790.559998
400.160004,493.855988,782.752014
398.208008,489.951996,772.992004
398.208008,503.615997,771.039978
404.063995,505.567993,790.559998
407.967987,497.760010,784.703979
406.015991,493.855988,784.703979
409.920013,493.855988,784.703979
407.967987,495.808014,794.463989
409.920013,484.096008,784.703979
406.015991,484.096008,782.752014
411.872009,495.808014,786.656006
406.015991,493.855988,792.512024
411.872009,497.760010,794.463989
417.727997,493.855988,798.367981
417.727997,491.903992,798.367981
419.679993,491.903992,798.367981
413.824005,493.855988,798.367981
413.824005,491.903992,788.607971
423.584015,488.000000,804.223999
427.488007,491.903992,798.367981
431.391998,488.000000,790.559998
423.584015,488.000000,784.703979
419.679993,484.096008,794.463989
425.536011,488.000000,794.463989
425.536011,486.048004,790.559998
421.631989,488.000000,796.416016
421.631989,484.096008,792.512024
425.536011,489.951996,792.512024
413.824005,497.760010,788.607971
419.679993,497.760010,786.656006
417.727997,489.951996,796.416016
413.824005,491.903992,794.463989
417.727997,489.951996,792.512024
423.584015,497.760010,788.607971
421.631989,495.808014,786.656006
419.679993,491.903992,786.656006
415.776001,491.903992,786.656006
419.679993,497.760010,776.895996
417.727997,488.000000,790.559998
421.631989,489.951996,790.559998
413.824005,493.855988,784.703979
415.776001,484.096008,790.559998
423.584015,493.855988,790.559998
417.727997,491.903992,780.799988
415.776001,491.903992,776.895996
413.824005,497.760010,780.799988
417.727997,497.760010,780.799988
413.824005,501.664001,778.848022
415.776001,495.808014,788.607971
417.727997,497.760010,782.752014
427.488007,495.808014,784.703979
407.967987,501.664001,776.895996
415.776001,499.712006,774.943970
407.967987,493.855988,772.992004
404.063995,501.664001,778.848022
415.776001,497.760010,786.656006
413.824005,495.808014,786.656006
409.920013,499.712006,776.895996
423.584015,505.567993,776.895996
419.679993,499.712006,778.848022
411.872009,501.664001,778.848022
415.776001,488.000000,776.895996
413.824005,501.664001,788.607971
413.824005,495.808014,788.607971
421.631989,501.664001,788.607971
415.776001,499.712006,780.799988
427.488007,507.519989,794.463989
417.727997,501.664001,786.656006
413.824005,495.808014,788.607971
419.679993,501.664001,780.799988
421.631989,505.567993,778.848022
417.727997,505.567993,784.703979
429.440002,499.712006,786.656006
419.679993,501.664001,788.607971
425.536011,499.712006,784.703979
427.488007,499.712006,786.656006
421.631989,497.760010,786.656006
421.631989,505.567993,788.607971
423.584015,497.760010,788.607971
421.631989,507.519989,784.703979
423.584015,499.712006,772.992004
423.584015,497.760010,788.607971
419.679993,499.712006,778.848022
417.727997,507.519989,782.752014
413.824005,503.615997,786.656006
413.824005,505.567993,780.799988
423.584015,499.712006,772.992004
421.631989,501.664001,776.895996
423.584015,507.519989,780.799988
417.727997,497.760010,774.943970
419.679993,499.712006,780.799988
421.631989,499.712006,776.895996
431.391998,503.615997,776.895996
415.776001,491.903992,774.943970
421.631989,491.903992,776.895996
417.727997,499.712006,778.848022
425.536011,513.375977,780.799988
425.536011,509.471985,772.992004
427.488007,501.664001,778.848022
429.440002,501.664001,782.752014
425.536011,509.471985,780.799988
423.584015,509.471985,772.992004
431.391998,501.664001,769.088013
427.488007,501.664001,776.895996
423.584015,503.615997,780.799988
419.679993,501.664001,784.703979
421.631989,505.567993,778.848022
425.536011,503.615997,782.752014
427.488007,499.712006,786.656006
429.440002,501.664001,782.752014
429.440002,501.664001,776.895996
429.440002,509.471985,780.799988
425.536011,503.615997,778.848022
427.488007,497.760010,776.895996
427.488007,497.760010,776.895996
417.727997,491.903992,788.607971
431.391998,491.903992,786.656006
435.295990,497.760010,790.559998
437.247986,491.903992,790.559998
427.488007,493.855988,780.799988
433.343994,501.664001,784.703979
431.391998,503.615997,786.656006
429.440002,503.615997,782.752014
431.391998,503.615997,780.799988
429.440002,497.760010,784.703979
427.488007,501.664001,784.703979
423.584015,495.808014,786.656006
429.440002,501.664001,784.703979
425.536011,495.808014,782.752014
429.440002,495.808014,784.703979
423.584015,505.567993,782.752014
435.295990,495.808014,772.992004
427.488007,497.760010,784.703979
425.536011,495.808014,788.607971
431.391998,484.096008,780.799988
429.440002,491.903992,780.799988
439.200012,495.808014,782.752014
431.391998,484.096008,774.943970
439.200012,489.951996,772.992004
435.295990,489.951996,776.895996
425.536011,486.048004,772.992004
427.488007,495.808014,782.752014
429.440002,489.951996,776.895996
435.295990,489.951996,782.752014
429.440002,489.951996,782.752014
435.295990,480.191986,786.656006
431.391998,480.191986,774.943970
431.391998,491.903992,771.039978
417.727997,486.048004,782.752014
419.679993,488.000000,780.799988
419.679993,488.000000,774.943970
417.727997,480.191986,778.848022
419.679993,488.000000,774.943970
423.584015,480.191986,772.992004
419.679993,488.000000,774.943970
409.920013,488.000000,774.943970
409.920013,493.855988,778.848022
406.015991,486.048004,765.184021
406.015991,484.096008,769.088013
411.872009,484.096008,776.895996
404.063995,484.096008,776.895996
411.872009,489.951996,769.088013
409.920013,486.048004,767.135986
406.015991,489.951996,765.184021
402.112000,488.000000,763.231995
402.112000,486.048004,765.184021
398.208008,489.951996,774.943970
402.112000,484.096008,774.943970
406.015991,480.191986,774.943970
400.160004,489.951996,772.992004
392.351990,486.048004,771.039978
400.160004,482.144012,774.943970
398.208008,486.048004,769.088013
402.112000,482.144012,761.280029
396.256012,482.144012,761.280029
396.256012,486.048004,767.135986
402.112000,488.000000,767.135986
400.160004,488.000000,765.184021
392.351990,489.951996,765.184021
402.112000,478.239990,761.280029
396.256012,474.335999,769.088013
400.160004,474.335999,771.039978
398.208008,476.287994,761.280029
398.208008,478.239990,757.375977
400.160004,480.191986,769.088013
394.303986,478.239990,774.943970
392.351990,488.000000,771.039978
392.351990,482.144012,771.039978
392.351990,480.191986,765.184021
398.208008,476.287994,767.135986
394.303986,468.480011,765.184021
398.208008,468.480011,763.231995
390.399994,468.480011,769.088013
386.496002,472.384003,765.184021
392.351990,470.432007,757.375977
390.399994,486.048004,759.328003
388.447998,472.384003,763.231995
380.640015,472.384003,757.375977
384.544006,480.191986,759.328003
398.208008,478.239990,757.375977
390.399994,486.048004,755.424011
380.640015,478.239990,747.616028
388.447998,482.144012,759.328003
384.544006,478.239990,761.280029
378.687988,482.144012,759.328003
384.544006,478.239990,759.328003
384.544006,478.239990,765.184021
378.687988,484.096008,763.231995
378.687988,484.096008,759.328003
384.544006,484.096008,749.567993
374.783997,486.048004,759.328003
380.640015,484.096008,749.567993
372.832001,484.096008,745.664001
378.687988,476.287994,755.424011
384.544006,484.096008,753.471985
372.832001,489.951996,751.520020
376.735992,491.903992,751.520020
372.832001,482.144012,747.616028
368.928009,489.951996,741.760010
374.783997,484.096008,747.616028
368.928009,472.384003,735.903992
372.832001,480.191986,743.711975
368.928009,482.144012,743.711975
355.264008,480.191986,741.760010
370.880005,484.096008,741.760010
361.119995,486.048004,741.760010
363.071991,486.048004,733.952026
363.071991,489.951996,737.856018
361.119995,484.096008,737.856018
363.071991,478.239990,735.903992
359.167999,484.096008,751.520020
363.071991,478.239990,741.760010
363.071991,478.239990,751.520020
368.928009,486.048004,751.520020
363.071991,488.000000,739.807983
366.976013,480.191986,749.567993
361.119995,488.000000,741.760010
359.167999,493.855988,737.856018
368.928009,484.096008,747.616028
359.167999,491.903992,745.664001
357.216003,486.048004,733.952026
355.264008,480.191986,747.616028
355.264008,486.048004,739.807983
351.359985,476.287994,733.952026
349.407990,484.096008,726.143982
347.455994,474.335999,726.143982
349.407990,488.000000,732.000000
345.503998,484.096008,728.096008
341.600006,488.000000,728.096008
345.503998,484.096008,728.096008
353.312012,488.000000,718.335999
343.552002,491.903992,728.096008
349.407990,491.903992,732.000000
345.503998,486.048004,732.000000
347.455994,484.096008,728.096008
347.455994,489.951996,714.432007
343.552002,480.191986,718.335999
337.696014,491.903992,724.192017
339.648010,497.760010,728.096008
345.503998,489.951996,732.000000
337.696014,495.808014,733.952026
347.455994,491.903992,733.952026
347.455994,493.855988,726.143982
345.503998,497.760010,745.664001
349.407990,501.664001,743.711975
345.503998,501.664001,747.616028
341.600006,507.519989,733.952026
351.359985,517.280029,745.664001
345.503998,505.567993,737.856018
339.648010,503.615997,751.520020
341.600006,511.424011,747.616028
337.696014,515.328003,745.664001
339.648010,511.424011,749.567993
327.936005,513.375977,749.567993
327.936005,519.231995,747.616028
327.936005,519.231995,745.664001
325.984009,530.943970,743.711975
327.936005,523.135986,737.856018
329.888000,519.231995,739.807983
322.079987,521.184021,732.000000
325.984009,525.088013,741.760010
324.032013,527.039978,743.711975
324.032013,528.992004,730.047974
318.175995,530.943970,728.096008
316.223999,534.848022,722.239990
324.032013,534.848022,718.335999
324.032013,540.703979,722.239990
329.888000,540.703979,726.143982
335.743988,542.656006,726.143982
329.888000,536.799988,728.096008
325.984009,544.607971,728.096008
322.079987,534.848022,728.096008
322.079987,534.848022,732.000000
327.936005,532.895996,732.000000
320.127991,532.895996,743.711975
329.888000,528.992004,741.760010
325.984009,525.088013,745.664001
327.936005,519.231995,747.616028
327.936005,521.184021,745.664001
324.032013,527.039978,755.424011
325.984009,527.039978,757.375977
324.032013,532.895996,765.184021
329.888000,532.895996,767.135986
324.032013,527.039978,778.848022
320.127991,536.799988,782.752014
324.032013,530.943970,776.895996
324.032013,538.752014,771.039978
320.127991,536.799988,782.752014
322.079987,534.848022,782.752014
324.032013,527.039978,761.280029
320.127991,528.992004,767.135986
316.223999,528.992004,767.135986
320.127991,530.943970,761.280029
318.175995,527.039978,757.375977
329.888000,527.039978,751.520020
316.223999,527.039978,753.471985
324.032013,517.280029,741.760010
322.079987,517.280029,741.760010
314.272003,513.375977,749.567993
327.936005,515.328003,741.760010
314.272003,503.615997,759.328003
312.320007,480.191986,757.375977
335.743988,476.287994,763.231995
337.696014,482.144012,769.088013
327.936005,476.287994,771.039978
327.936005,468.480011,774.943970
333.791992,472.384003,784.703979
341.600006,458.720001,778.848022
353.312012,460.671997,786.656006
351.359985,460.671997,788.607971
351.359985,460.671997,772.992004
355.264008,452.864014,763.231995
349.407990,456.768005,753.471985
353.312012,464.575989,749.567993
345.503998,464.575989,747.616028
343.552002,464.575989,728.096008
339.648010,464.575989,702.719971
335.743988,456.768005,698.815979
314.272003,456.768005,685.151978
322.079987,452.864014,671.487976
316.223999,448.959991,665.632019
320.127991,441.152008,665.632019
316.223999,450.911987,669.536011
320.127991,437.247986,657.823975
310.368011,441.152008,661.728027
312.320007,448.959991,653.919983
310.368011,441.152008,663.679993
312.320007,435.295990,657.823975
304.511993,439.200012,657.823975
300.608002,439.200012,663.679993
298.656006,441.152008,663.679993
306.463989,443.104004,669.536011
292.799988,441.152008,681.247986
304.511993,447.007996,685.151978
296.704010,454.816010,683.200012
302.559998,456.768005,692.960022
302.559998,464.575989,689.056030
294.752014,476.287994,681.247986
288.895996,474.335999,679.296021
294.752014,472.384003,671.487976
288.895996,472.384003,667.583984
284.992004,480.191986,667.583984
288.895996,480.191986,671.487976
294.752014,488.000000,673.440002
290.847992,482.144012,665.632019
288.895996,482.144012,659.776001
281.088013,484.096008,661.728027
286.944000,480.191986,661.728027
290.847992,478.239990,659.776001
281.088013,484.096008,657.823975
288.895996,480.191986,657.823975
294.752014,486.048004,648.064026
281.088013,488.000000,659.776001
290.847992,486.048004,657.823975
284.992004,476.287994,636.351990
290.847992,484.096008,640.255981
294.752014,478.239990,628.544006
290.847992,472.384003,640.255981
294.752014,484.096008,628.544006
308.415985,472.384003,622.687988
306.463989,476.287994,636.351990
318.175995,474.335999,626.591980
302.559998,468.480011,630.495972
318.175995,468.480011,634.400024
331.839996,470.432007,630.495972
320.127991,460.671997,632.447998
331.839996,470.432007,632.447998
329.888000,458.720001,638.304016
337.696014,462.623993,638.304016
345.503998,460.671997,646.112000
347.455994,458.720001,640.255981
357.216003,448.959991,648.064026
357.216003,448.959991,653.919983
370.880005,441.152008,661.728027
380.640015,439.200012,671.487976
366.976013,435.295990,687.104004
382.592010,425.536011,683.200012
388.447998,419.679993,683.200012
392.351990,413.824005,708.575989
396.256012,413.824005,694.911987
396.256012,417.727997,694.911987
402.112000,413.824005,694.911987
396.256012,407.967987,698.815979
404.063995,402.112000,698.815979
407.967987,392.351990,702.719971
411.872009,398.208008,694.911987
409.920013,396.256012,696.864014
411.872009,394.303986,696.864014
417.727997,400.160004,692.960022
427.488007,374.783997,689.056030
429.440002,370.880005,696.864014
427.488007,378.687988,700.768005
433.343994,380.640015,700.768005
447.007996,384.544006,700.768005
456.768005,374.783997,708.575989
452.864014,378.687988,702.719971
456.768005,372.832001,710.528015
462.623993,363.071991,708.575989
466.528015,365.023987,710.528015
470.432007,359.167999,722.239990
478.239990,347.455994,728.096008
486.048004,345.503998,724.192017
489.951996,349.407990,732.000000
489.951996,341.600006,745.664001
489.951996,341.600006,743.711975
497.760010,327.936005,735.903992
501.664001,329.888000,741.760010
507.519989,316.223999,737.856018
509.471985,308.415985,737.856018
509.471985,310.368011,743.711975
509.471985,312.320007,743.711975
507.519989,296.704010,730.047974
513.375977,288.895996,733.952026
519.231995,283.040009,730.047974
509.471985,284.992004,726.143982
509.471985,281.088013,718.335999
515.328003,275.231995,716.383972
503.615997,279.135986,712.479980
501.664001,277.183990,710.528015
509.471985,267.424011,712.479980
503.615997,263.519989,694.911987
495.808014,255.712006,694.911987
493.855988,275.231995,696.864014
488.000000,263.519989,692.960022
488.000000,255.712006,694.911987
480.191986,257.664001,691.007996
476.287994,263.519989,689.056030
476.287994,255.712006,691.007996
470.432007,253.759995,691.007996
468.480011,249.856003,696.864014
472.384003,253.759995,696.864014
462.623993,249.856003,691.007996
454.816010,244.000000,700.768005
460.671997,242.048004,696.864014
458.720001,236.192001,700.768005
448.959991,242.048004,704.671997
448.959991,242.048004,718.335999
445.056000,228.384003,720.288025
448.959991,242.048004,726.143982
445.056000,244.000000,735.903992
441.152008,236.192001,728.096008
437.247986,238.143997,726.143982
437.247986,251.807999,735.903992
435.295990,244.000000,728.096008
433.343994,251.807999,733.952026
433.343994,267.424011,724.192017
425.536011,261.567993,724.192017
421.631989,271.328003,730.047974
421.631989,286.944000,726.143982
413.824005,290.847992,728.096008
406.015991,290.847992,724.192017
413.824005,304.511993,726.143982
415.776001,306.463989,735.903992
415.776001,300.608002,724.192017
404.063995,308.415985,728.096008
402.112000,308.415985,720.288025
396.256012,320.127991,733.952026
400.160004,312.320007,732.000000
396.256012,320.127991,735.903992
392.351990,327.936005,724.192017
382.592010,320.127991,718.335999
386.496002,312.320007,714.432007
384.544006,306.463989,706.624023
390.399994,310.368011,712.479980
382.592010,300.608002,708.575989
382.592010,300.608002,704.671997
386.496002,292.799988,689.056030
380.640015,298.656006,689.056030
382.592010,290.847992,689.056030
365.023987,283.040009,689.056030
382.592010,288.895996,685.151978
380.640015,294.752014,685.151978
376.735992,286.944000,673.440002
386.496002,281.088013,679.296021
382.592010,290.847992,667.583984
378.687988,290.847992,661.728027
376.735992,288.895996,663.679993
376.735992,284.992004,653.919983
368.928009,284.992004,650.015991
388.447998,294.752014,659.776001
380.640015,298.656006,653.919983
390.399994,296.704010,657.823975
382.592010,294.752014,661.728027
386.496002,298.656006,651.968018
390.399994,302.559998,659.776001
386.496002,308.415985,653.919983
396.256012,318.175995,653.919983
400.160004,312.320007,657.823975
400.160004,310.368011,659.776001
400.160004,300.608002,665.632019
402.112000,300.608002,673.440002
398.208008,300.608002,685.151978
407.967987,302.559998,677.343994
402.112000,300.608002,677.343994
400.160004,290.847992,692.960022
415.776001,290.847992,696.864014
421.631989,284.992004,700.768005
415.776001,279.135986,716.383972
423.584015,277.183990,722.239990
425.536011,279.135986,726.143982
433.343994,267.424011,735.903992
431.391998,263.519989,741.760010
431.391998,253.759995,743.711975
425.536011,261.567993,747.616028
433.343994,259.615997,747.616028
445.056000,267.424011,733.952026
450.911987,249.856003,735.903992
445.056000,234.240005,733.952026
439.200012,247.904007,749.567993
443.104004,267.424011,745.664001
437.247986,257.664001,747.616028
450.911987,257.664001,737.856018
447.007996,242.048004,735.903992
450.911987,228.384003,728.096008
452.864014,232.287994,726.143982
462.623993,259.615997,718.335999
450.911987,255.712006,720.288025
448.959991,228.384003,720.288025
452.864014,234.240005,722.239990
460.671997,230.335999,726.143982
462.623993,218.623993,732.000000
466.528015,236.192001,733.952026
468.480011,234.240005,747.616028
474.335999,210.815994,733.952026
486.048004,212.768005,741.760010
489.951996,220.576004,747.616028
489.951996,208.863998,755.424011
491.903992,199.104004,749.567993
497.760010,206.912003,759.328003
499.712006,204.960007,771.039978
495.808014,204.960007,771.039978
507.519989,204.960007,772.992004
503.615997,204.960007,767.135986
503.615997,185.440002,778.848022
511.424011,187.391998,774.943970
525.088013,191.296005,769.088013
521.184021,189.343994,772.992004
521.184021,187.391998,774.943970
519.231995,185.440002,765.184021
519.231995,181.535995,761.280029
525.088013,179.584000,769.088013
525.088013,189.343994,769.088013
530.943970,179.584000,761.280029
534.848022,171.776001,765.184021
528.992004,181.535995,765.184021
536.799988,175.679993,771.039978
523.135986,177.632004,771.039978
532.895996,171.776001,767.135986
525.088013,173.727997,765.184021
527.039978,175.679993,767.135986
532.895996,173.727997,761.280029
536.799988,177.632004,769.088013
540.703979,185.440002,772.992004
540.703979,183.488007,774.943970
532.895996,171.776001,776.895996
538.752014,173.727997,771.039978
542.656006,171.776001,767.135986
540.703979,181.535995,780.799988
542.656006,175.679993,784.703979
554.367981,181.535995,782.752014
544.607971,185.440002,788.607971
554.367981,183.488007,796.416016
548.512024,177.632004,788.607971
560.223999,181.535995,790.559998
556.320007,169.824005,798.367981
558.271973,175.679993,800.320007
568.031982,179.584000,798.367981
571.935974,181.535995,800.320007
571.935974,173.727997,806.176025
566.080017,177.632004,804.223999
573.888000,175.679993,812.031982
568.031982,173.727997,813.984009
575.840027,175.679993,815.935974
581.695984,177.632004,825.695984
577.791992,177.632004,815.935974
579.744019,171.776001,813.984009
583.648010,179.584000,813.984009
573.888000,185.440002,808.127991
587.552002,183.488007,821.791992
577.791992,183.488007,817.888000
577.791992,175.679993,817.888000
587.552002,169.824005,821.791992
587.552002,183.488007,821.791992
579.744019,181.535995,823.744019
579.744019,185.440002,819.840027
597.312012,181.535995,829.599976
587.552002,181.535995,819.840027
581.695984,181.535995,813.984009
581.695984,181.535995,815.935974
571.935974,187.391998,806.176025
579.744019,191.296005,808.127991
589.504028,189.343994,804.223999
573.888000,189.343994,800.320007
581.695984,191.296005,800.320007
583.648010,199.104004,792.512024
562.176025,212.768005,790.559998
564.127991,210.815994,784.703979
558.271973,222.528000,772.992004
568.031982,222.528000,776.895996
558.271973,228.384003,767.135986
560.223999,226.432007,761.280029
558.271973,230.335999,757.375977
560.223999,236.192001,761.280029
546.559998,236.192001,761.280029
552.416016,247.904007,753.471985
554.367981,245.951996,761.280029
552.416016,244.000000,749.567993
550.463989,245.951996,757.375977
558.271973,249.856003,753.471985
548.512024,245.951996,755.424011
554.367981,245.951996,745.664001
542.656006,234.240005,767.135986
544.607971,232.287994,759.328003
542.656006,238.143997,749.567993
530.943970,232.287994,743.711975
542.656006,234.240005,739.807983
544.607971,234.240005,743.711975
538.752014,226.432007,728.096008
536.799988,236.192001,732.000000
528.992004,240.095993,726.143982
542.656006,222.528000,726.143982
530.943970,230.335999,718.335999
538.752014,224.479996,720.288025
525.088013,222.528000,714.432007
530.943970,230.335999,712.479980
540.703979,236.192001,706.624023
536.799988,228.384003,710.528015
527.039978,224.479996,704.671997
527.039978,218.623993,704.671997
528.992004,224.479996,708.575989
521.184021,222.528000,700.768005
523.135986,224.479996,698.815979
523.135986,216.671997,704.671997
521.184021,218.623993,700.768005
528.992004,224.479996,700.768005
536.799988,208.863998,700.768005
530.943970,206.912003,700.768005
525.088013,212.768005,696.864014
528.992004,216.671997,691.007996
519.231995,210.815994,694.911987
525.088013,210.815994,696.864014
523.135986,208.863998,691.007996
519.231995,206.912003,689.056030
527.039978,195.199997,683.200012
517.280029,193.248001,689.056030
523.135986,189.343994,689.056030
528.992004,197.151993,679.296021
523.135986,193.248001,694.911987
532.895996,189.343994,679.296021
536.799988,189.343994,679.296021
530.943970,189.343994,679.296021
532.895996,191.296005,677.343994
528.992004,177.632004,675.392029
527.039978,175.679993,677.343994
538.752014,181.535995,675.392029
536.799988,175.679993,677.343994
544.607971,177.632004,673.440002
542.656006,179.584000,677.343994
538.752014,175.679993,681.247986
550.463989,173.727997,679.296021
548.512024,175.679993,683.200012
548.512024,163.968002,679.296021
546.559998,167.871994,679.296021
556.320007,169.824005,679.296021
556.320007,167.871994,681.247986
554.367981,171.776001,689.056030
566.080017,156.160004,681.247986
571.935974,156.160004,675.392029
566.080017,171.776001,689.056030
562.176025,169.824005,692.960022
571.935974,173.727997,689.056030
581.695984,169.824005,696.864014
575.840027,169.824005,696.864014
585.599976,162.016006,700.768005
595.359985,173.727997,694.911987
583.648010,162.016006,704.671997
585.599976,167.871994,698.815979
591.455994,175.679993,698.815979
603.168030,173.727997,694.911987
589.504028,179.584000,698.815979
587.552002,185.440002,708.575989
603.168030,181.535995,712.479980
597.312012,181.535995,712.479980
597.312012,191.296005,710.528015
610.976013,193.248001,710.528015
607.072021,195.199997,714.432007
610.976013,204.960007,720.288025
622.687988,203.007996,712.479980
616.831970,206.912003,716.383972
628.544006,212.768005,716.383972
626.591980,208.863998,716.383972
630.495972,216.671997,728.096008
646.112000,216.671997,720.288025
638.304016,214.720001,724.192017
648.064026,216.671997,730.047974
644.159973,220.576004,737.856018
650.015991,220.576004,743.711975
651.968018,222.528000,741.760010
669.536011,216.671997,743.711975
663.679993,218.623993,743.711975
675.392029,228.384003,747.616028
675.392029,224.479996,741.760010
681.247986,220.576004,751.520020
669.536011,226.432007,745.664001
675.392029,236.192001,741.760010
677.343994,226.432007,753.471985
679.296021,238.143997,753.471985
687.104004,242.048004,741.760010
692.960022,251.807999,757.375977
689.056030,242.048004,749.567993
687.104004,251.807999,759.328003
683.200012,245.951996,753.471985
685.151978,255.712006,755.424011
696.864014,249.856003,743.711975
689.056030,255.712006,749.567993
692.960022,267.424011,753.471985
689.056030,269.376007,755.424011
692.960022,271.328003,743.711975
683.200012,283.040009,747.616028
691.007996,277.183990,745.664001
687.104004,269.376007,739.807983
689.056030,271.328003,739.807983
691.007996,277.183990,737.856018
679.296021,269.376007,733.952026
689.056030,265.471985,737.856018
677.343994,265.471985,735.903992
685.151978,261.567993,730.047974
683.200012,263.519989,732.000000
696.864014,253.759995,730.047974
671.487976,263.519989,732.000000
681.247986,255.712006,726.143982
679.296021,242.048004,741.760010
675.392029,244.000000,732.000000
677.343994,238.143997,735.903992
679.296021,251.807999,741.760010
691.007996,234.240005,743.711975
687.104004,247.904007,732.000000
691.007996,240.095993,741.760010
691.007996,251.807999,726.143982
677.343994,242.048004,735.903992
671.487976,230.335999,726.143982
667.583984,247.904007,724.192017
667.583984,234.240005,722.239990
671.487976,240.095993,716.383972
675.392029,230.335999,720.288025
687.104004,232.287994,712.479980
675.392029,222.528000,712.479980
667.583984,218.623993,710.528015
671.487976,214.720001,716.383972
665.632019,222.528000,716.383972
663.679993,224.479996,722.239990
675.392029,220.576004,718.335999
665.632019,206.912003,724.192017
659.776001,206.912003,716.383972
669.536011,199.104004,728.096008
655.872009,208.863998,722.239990
659.776001,201.056000,728.096008
671.487976,193.248001,726.143982
669.536011,195.199997,724.192017
653.919983,187.391998,728.096008
655.872009,191.296005,718.335999
653.919983,187.391998,728.096008
646.112000,191.296005,716.383972
642.208008,193.248001,710.528015
648.064026,179.584000,710.528015
642.208008,179.584000,708.575989
636.351990,187.391998,706.624023
642.208008,185.440002,700.768005
634.400024,181.535995,706.624023
634.400024,185.440002,694.911987
632.447998,183.488007,696.864014
620.736023,175.679993,698.815979
646.112000,175.679993,700.768005
628.544006,163.968002,694.911987
632.447998,165.919998,691.007996
634.400024,160.063995,696.864014
628.544006,162.016006,692.960022
632.447998,165.919998,689.056030
622.687988,152.255997,691.007996
632.447998,144.447998,691.007996
630.495972,154.207993,700.768005
642.208008,136.639999,691.007996
622.687988,142.496002,694.911987
646.112000,136.639999,694.911987
638.304016,128.832001,698.815979
644.159973,124.928001,691.007996
651.968018,121.024002,691.007996
642.208008,109.311996,685.151978
636.351990,113.216003,692.960022
651.968018,121.024002,691.007996
659.776001,111.264000,692.960022
655.872009,97.599998,681.247986
657.823975,107.360001,683.200012
663.679993,93.695999,679.296021
669.536011,89.792000,685.151978
665.632019,83.935997,689.056030
677.343994,83.935997,685.151978
671.487976,91.744003,681.247986
685.151978,76.127998,681.247986
691.007996,66.367996,675.392029
691.007996,66.367996,671.487976
696.864014,64.416000,671.487976
712.479980,62.464001,667.583984
712.479980,62.464001,665.632019
706.624023,64.416000,661.728027
706.624023,68.320000,667.583984
714.432007,58.560001,667.583984
722.239990,62.464001,663.679993
733.952026,56.608002,663.679993
733.952026,60.512001,655.872009
743.711975,50.751999,665.632019
741.760010,54.655998,653.919983
747.616028,64.416000,653.919983
749.567993,58.560001,651.968018
755.424011,50.751999,648.064026
765.184021,60.512001,653.919983
774.943970,52.703999,655.872009
774.943970,74.176003,657.823975
772.992004,76.127998,653.919983
776.895996,74.176003,661.728027
780.799988,83.935997,659.776001
800.320007,91.744003,673.440002
804.223999,103.456001,677.343994
815.935974,95.648003,685.151978
819.840027,105.407997,696.864014
829.599976,132.735992,696.864014
829.599976,140.544006,712.479980
835.455994,154.207993,722.239990
835.455994,169.824005,732.000000
841.312012,167.871994,745.664001
853.023987,187.391998,755.424011
862.783997,193.248001,771.039978
856.927979,199.104004,767.135986
870.591980,195.199997,771.039978
866.687988,197.151993,772.992004
880.351990,201.056000,774.943970
878.400024,201.056000,769.088013
868.640015,201.056000,780.799988
880.351990,199.104004,776.895996
876.447998,212.768005,786.656006
878.400024,210.815994,796.416016
870.591980,206.912003,792.512024
886.208008,203.007996,796.416016
880.351990,204.960007,800.320007
876.447998,212.768005,806.176025
894.015991,206.912003,790.559998
880.351990,214.720001,794.463989
872.544006,214.720001,794.463989
882.304016,220.576004,796.416016
890.112000,208.863998,786.656006
880.351990,214.720001,788.607971
888.159973,226.432007,782.752014
890.112000,222.528000,772.992004
878.400024,244.000000,774.943970
880.351990,244.000000,757.375977
872.544006,245.951996,753.471985
872.544006,251.807999,733.952026
870.591980,267.424011,737.856018
874.495972,273.279999,730.047974
866.687988,263.519989,726.143982
866.687988,267.424011,726.143982
872.544006,267.424011,718.335999
868.640015,279.135986,728.096008
866.687988,273.279999,722.239990
870.591980,271.328003,722.239990
864.736023,271.328003,722.239990
868.640015,267.424011,722.239990
868.640015,281.088013,735.903992
878.400024,271.328003,733.952026
868.640015,273.279999,739.807983
878.400024,269.376007,743.711975
878.400024,271.328003,751.520020
876.447998,259.615997,757.375977
880.351990,249.856003,759.328003
882.304016,261.567993,761.280029
878.400024,263.519989,757.375977
866.687988,257.664001,755.424011
888.159973,261.567993,771.039978
882.304016,253.759995,761.280029
884.255981,261.567993,772.992004
884.255981,261.567993,761.280029
874.495972,275.231995,761.280029
878.400024,253.759995,753.471985
876.447998,261.567993,757.375977
886.208008,253.759995,759.328003
886.208008,253.759995,759.328003
874.495972,245.951996,755.424011
884.255981,245.951996,755.424011
892.064026,255.712006,761.280029
882.304016,240.095993,759.328003
892.064026,240.095993,757.375977
884.255981,226.432007,761.280029
892.064026,224.479996,771.039978
880.351990,222.528000,774.943970
888.159973,218.623993,772.992004
888.159973,212.768005,774.943970
892.064026,203.007996,776.895996
892.064026,203.007996,771.039978
874.495972,199.104004,772.992004
884.255981,191.296005,771.039978
880.351990,185.440002,765.184021
886.208008,175.679993,769.088013
882.304016,177.632004,769.088013
886.208008,169.824005,759.328003
882.304016,163.968002,751.520020
866.687988,163.968002,761.280029
878.400024,169.824005,757.375977
880.351990,162.016006,759.328003
880.351990,158.112000,757.375977
870.591980,152.255997,753.471985
876.447998,154.207993,759.328003
872.544006,154.207993,759.328003
866.687988,150.304001,763.231995
866.687988,156.160004,761.280029
866.687988,148.352005,753.471985
864.736023,140.544006,759.328003
862.783997,138.591995,759.328003
870.591980,144.447998,763.231995
860.831970,144.447998,765.184021
858.880005,132.735992,771.039978
847.168030,128.832001,761.280029
853.023987,128.832001,765.184021
851.072021,121.024002,761.280029
851.072021,119.071999,763.231995
849.119995,113.216003,763.231995
841.312012,113.216003,759.328003
833.504028,119.071999,759.328003
829.599976,111.264000,759.328003
837.408020,113.216003,759.328003
835.455994,111.264000,757.375977
819.840027,89.792000,757.375977
829.599976,99.552002,749.567993
823.744019,97.599998,757.375977
829.599976,95.648003,741.760010
815.935974,95.648003,749.567993
815.935974,91.744003,753.471985
813.984009,85.888000,749.567993
810.080017,80.031998,759.328003
812.031982,80.031998,753.471985
810.080017,74.176003,753.471985
804.223999,66.367996,745.664001
808.127991,70.272003,757.375977
804.223999,70.272003,763.231995
804.223999,70.272003,759.328003
806.176025,66.367996,755.424011
800.320007,64.416000,755.424011
802.271973,62.464001,755.424011
802.271973,52.703999,753.471985
788.607971,60.512001,761.280029
780.799988,52.703999,761.280029
786.656006,40.992001,759.328003
784.703979,44.896000,761.280029
784.703979,46.848000,751.520020
780.799988,27.327999,757.375977
771.039978,40.992001,753.471985
772.992004,35.136002,753.471985
774.943970,33.183998,743.711975
759.328003,23.424000,749.567993
763.231995,19.520000,743.711975
763.231995,15.616000,730.047974
757.375977,17.568001,733.952026
755.424011,21.472000,732.000000
741.760010,17.568001,726.143982
741.760010,9.760000,720.288025
735.903992,3.904000,724.192017
726.143982,1.952000,724.192017
722.239990,5.856000,724.192017
718.335999,-1.952000,720.288025
720.288025,-3.904000,710.528015
712.479980,-13.664000,698.815979
716.383972,-3.904000,696.864014
702.719971,-5.856000,692.960022
691.007996,-15.616000,700.768005
696.864014,-7.808000,687.104004
679.296021,-7.808000,689.056030
687.104004,-7.808000,679.296021
689.056030,-9.760000,683.200012
681.247986,-1.952000,669.536011
675.392029,-5.856000,669.536011
671.487976,-11.712000,667.583984
673.440002,-3.904000,661.728027
663.679993,-9.760000,663.679993
661.728027,-19.520000,653.919983
655.872009,-13.664000,648.064026
657.823975,-15.616000,650.015991
657.823975,-11.712000,650.015991
653.919983,-17.568001,650.015991
644.159973,-13.664000,648.064026
644.159973,-19.520000,648.064026
650.015991,-13.664000,646.112000
646.112000,-3.904000,640.255981
632.447998,-13.664000,651.968018
636.351990,-15.616000,642.208008
630.495972,-9.760000,632.447998
624.640015,-7.808000,638.304016
624.640015,-1.952000,634.400024
620.736023,-11.712000,642.208008
618.783997,-7.808000,638.304016
614.880005,-17.568001,628.544006
614.880005,-9.760000,622.687988
618.783997,1.952000,626.591980
616.831970,-13.664000,624.640015
632.447998,-21.472000,663.679993
650.015991,-21.472000,747.616028
675.392029,-25.375999,825.695984
691.007996,-68.320000,892.064026
728.096008,-134.688004,993.567993
812.031982,-206.912003,1227.807983
901.823975,-203.007996,1573.312012
1036.511963,-136.639999,1928.576050
1143.871948,-81.984001,2205.760010
1249.280029,-91.744003,2375.583984
1337.119995,-83.935997,2399.008057
1329.312012,-83.935997,2277.983887
1356.640015,-152.255997,2108.159912
1329.312012,-177.632004,2010.560059
1251.232056,-163.968002,1877.823975
1147.776001,-181.535995,1643.583984
976.000000,-163.968002,1298.079956
837.408020,-121.024002,960.383972
735.903992,78.080002,720.288025
720.288025,339.648010,552.416016
644.159973,335.743988,489.951996
636.351990,193.248001,407.967987
556.320007,160.063995,318.175995
610.976013,144.447998,281.088013
646.112000,134.688004,281.088013
653.919983,60.512001,329.888000
630.495972,68.320000,374.783997
595.359985,117.120003,378.687988
614.880005,126.879997,337.696014
591.455994,91.744003,304.511993
548.512024,109.311996,329.888000
511.424011,136.639999,347.455994
511.424011,117.120003,331.839996
495.808014,81.984001,288.895996
495.808014,56.608002,238.143997
507.519989,60.512001,204.960007
505.567993,54.655998,199.104004
493.855988,37.088001,195.199997
484.096008,29.280001,193.248001
501.664001,31.232000,197.151993
521.184021,40.992001,204.960007
544.607971,29.280001,216.671997
532.895996,17.568001,214.720001
517.280029,0.000000,203.007996
488.000000,17.568001,193.248001
486.048004,27.327999,195.199997
486.048004,31.232000,197.151993
482.144012,35.136002,160.063995
480.191986,44.896000,119.071999
480.191986,64.416000,101.503998
495.808014,83.935997,121.024002
538.752014,89.792000,167.871994
610.976013,66.367996,247.904007
677.343994,37.088001,378.687988
753.471985,-31.232000,534.848022
821.791992,-124.928001,712.479980
870.591980,-199.104004,874.495972
864.736023,-242.048004,925.247986
835.455994,-265.471985,903.776001
856.927979,-247.904007,876.447998
876.447998,-224.479996,858.880005
911.583984,-191.296005,919.392029
897.919983,-95.648003,966.239990
854.976013,-3.904000,907.679993
804.223999,33.183998,757.375977
737.856018,85.888000,560.223999
712.479980,124.928001,407.967987
677.343994,156.160004,249.856003
685.151978,148.352005,175.679993
689.056030,136.639999,156.160004
673.440002,76.127998,177.632004
663.679993,40.992001,210.815994
689.056030,17.568001,269.376007
698.815979,-27.327999,331.839996
694.911987,-46.848000,406.015991
683.200012,-21.472000,431.391998
655.872009,-1.952000,368.928009
692.960022,-7.808000,402.112000
751.520020,7.808000,521.184021
786.656006,62.464001,628.544006
782.752014,107.360001,616.831970
778.848022,89.792000,513.375977
823.744019,-5.856000,470.432007
827.648010,-9.760000,536.799988
749.567993,83.935997,620.736023
759.328003,144.447998,720.288025
1024.800049,40.992001,935.007996
1202.432007,-189.343994,1190.719971
890.112000,66.367996,1223.904053
1026.751953,327.936005,1229.760010
1120.447998,458.720001,1212.192017
1085.312012,425.536011,1075.552002
948.671997,255.712006,864.736023
966.239990,68.320000,698.815979
958.432007,-70.272003,585.599976
968.192017,-171.776001,626.591980
933.056030,-78.080002,702.719971
841.312012,78.080002,646.112000
813.984009,66.367996,534.848022
841.312012,-56.608002,476.287994
872.544006,-126.879997,534.848022
841.312012,-81.984001,634.400024
790.559998,-1.952000,665.632019
757.375977,93.695999,603.168030
784.703979,101.503998,511.424011
821.791992,35.136002,519.231995
843.263977,-33.183998,579.744019
782.752014,-5.856000,607.072021
648.064026,101.503998,478.239990
630.495972,138.591995,279.135986
698.815979,50.751999,234.240005
720.288025,-7.808000,277.183990
634.400024,60.512001,185.440002
517.280029,162.016006,-27.327999
569.984009,103.456001,-23.424000
651.968018,31.232000,119.071999
630.495972,37.088001,189.343994
532.895996,121.024002,93.695999
493.855988,171.776001,17.568001
546.559998,162.016006,52.703999
646.112000,103.456001,179.584000
722.239990,-3.904000,421.631989
769.088013,-42.944000,692.960022
827.648010,48.799999,929.151978
907.679993,142.496002,1069.696045
1015.039978,17.568001,1112.640015
1022.848022,-165.919998,1038.463989
966.239990,-160.063995,823.744019
919.392029,-89.792000,618.783997
874.495972,-115.167999,464.575989
831.552002,-185.440002,429.440002
720.288025,-46.848000,298.656006
624.640015,158.112000,46.848000
689.056030,169.824005,40.992001
732.000000,158.112000,314.272003
759.328003,208.863998,544.607971
772.992004,212.768005,577.791992
808.127991,132.735992,536.799988
812.031982,54.655998,527.039978
804.223999,21.472000,523.135986
757.375977,93.695999,374.783997
747.616028,121.024002,242.048004
761.280029,144.447998,337.696014
810.080017,204.960007,564.127991
853.023987,259.615997,825.695984
956.479980,236.192001,1067.744019
1040.416016,175.679993,1259.040039
1087.264038,212.768005,1335.167969
1153.631958,240.095993,1401.536011
1141.920044,251.807999,1313.696045
1095.072021,212.768005,991.616028
1042.368042,121.024002,605.119995
1016.992004,-21.472000,398.208008
983.807983,-109.311996,474.335999
894.015991,11.712000,544.607971
759.328003,191.296005,406.015991
737.856018,93.695999,197.151993
767.135986,-33.183998,95.648003
753.471985,-39.040001,101.503998
710.528015,48.799999,124.928001
671.487976,97.599998,62.464001
720.288025,35.136002,111.264000
854.976013,-72.223999,447.007996
923.296021,-72.223999,868.640015
894.015991,1.952000,1091.167969
868.640015,40.992001,989.664001
923.296021,-91.744003,827.648010
936.960022,-191.296005,732.000000
870.591980,-148.352005,610.976013
612.927979,-68.320000,458.720001
823.744019,-201.056000,298.656006
683.200012,50.751999,107.360001
790.559998,214.720001,60.512001
847.168030,244.000000,240.095993
882.304016,128.832001,583.648010
981.856018,177.632004,985.760010
1102.880005,259.615997,1364.447998
1157.536011,281.088013,1565.504028
1200.479980,177.632004,1612.352051
1180.959961,27.327999,1536.223999
1147.776001,-5.856000,1292.223999
1077.504028,40.992001,968.192017
1005.280029,83.935997,587.552002
970.143982,15.616000,242.048004
940.864014,-13.664000,136.639999
956.479980,44.896000,300.608002
972.096008,195.199997,478.239990
976.000000,199.104004,503.615997
931.104004,70.272003,443.104004
858.880005,-52.703999,349.407990
853.023987,-72.223999,279.135986
835.455994,-15.616000,218.623993
821.791992,5.856000,275.231995
833.504028,-39.040001,439.200012
938.911987,-113.216003,745.664001
1100.927979,-206.912003,1098.975952
1202.432007,-314.272003,1374.208008
1098.975952,-146.399994,1458.144043
999.424011,310.368011,1342.975952
1005.280029,447.007996,1132.160034
936.960022,257.664001,833.504028
892.064026,33.183998,558.271973
864.736023,-11.712000,407.967987
864.736023,35.136002,380.640015
853.023987,66.367996,400.160004
835.455994,19.520000,376.735992
796.416016,1.952000,312.320007
833.504028,3.904000,308.415985
903.776001,1.952000,480.191986
977.952026,-37.088001,696.864014
1013.088013,-83.935997,835.455994
1026.751953,-117.120003,940.864014
999.424011,-78.080002,946.719971
940.864014,-33.183998,804.223999
913.536011,-35.136002,638.304016
878.400024,-109.311996,515.328003
874.495972,-197.151993,458.720001
845.216003,-259.615997,431.391998
827.648010,-222.528000,421.631989
788.607971,-97.599998,478.239990
776.895996,29.280001,525.088013
913.536011,23.424000,630.495972
1011.135986,9.760000,728.096008
1005.280029,-1.952000,813.984009
1036.511963,11.712000,911.583984
989.664001,15.616000,938.911987
974.047974,17.568001,958.432007
925.247986,15.616000,907.679993
829.599976,122.975998,769.088013
735.903992,374.783997,571.935974
782.752014,437.247986,411.872009
800.320007,322.079987,365.023987
806.176025,54.655998,392.351990
796.416016,-107.360001,417.727997
653.919983,-454.816010,503.615997
790.559998,-353.312012,552.416016
739.807983,259.615997,464.575989
782.752014,482.144012,398.208008
771.039978,97.599998,404.063995
780.799988,-130.783997,439.200012
796.416016,80.031998,527.039978
798.367981,306.463989,618.783997
829.599976,204.960007,671.487976
831.552002,25.375999,648.064026
901.823975,66.367996,532.895996
694.911987,281.088013,17.568001
581.695984,277.183990,-482.144012
441.152008,257.664001,-661.728027
497.760010,489.951996,-665.632019
505.567993,589.504028,-472.384003
683.200012,281.088013,17.568001
882.304016,93.695999,544.607971
878.400024,150.304001,765.184021
854.976013,70.272003,845.216003
895.968018,-74.176003,927.200012
1073.599976,-158.112000,1128.255981
1198.527954,-40.992001,1438.624023
1331.264038,-1.952000,1739.232056
1284.416016,25.375999,1741.183960
1108.735962,212.768005,1401.536011
903.776001,284.992004,970.143982
839.359985,40.992001,486.048004
817.888000,-181.535995,162.016006
780.799988,-13.664000,19.520000
732.000000,236.192001,11.712000
718.335999,236.192001,3.904000
716.383972,58.560001,-31.232000
683.200012,21.472000,-62.464001
757.375977,27.327999,103.456001
892.064026,-78.080002,460.671997
1036.511963,-216.671997,790.559998
1108.735962,-193.248001,1018.943970
1093.119995,-142.496002,1063.839966
1011.135986,-275.231995,964.288025
981.856018,-421.631989,792.512024
942.815979,-316.223999,599.263977
927.200012,-142.496002,480.191986
895.968018,-91.744003,413.824005
886.208008,-39.040001,374.783997
866.687988,95.648003,365.023987
854.976013,150.304001,398.208008
870.591980,70.272003,482.144012
901.823975,19.520000,595.359985
942.815979,85.888000,696.864014
948.671997,144.447998,780.799988
966.239990,142.496002,829.599976
954.528015,74.176003,862.783997
944.768005,56.608002,876.447998
907.679993,23.424000,864.736023
872.544006,-54.655998,784.703979
788.607971,-70.272003,646.112000
767.135986,0.000000,474.335999
769.088013,-13.664000,368.928009
776.895996,-78.080002,320.127991
771.039978,-210.815994,374.783997
759.328003,-255.712006,423.584015
739.807983,-286.944000,386.496002
718.335999,-329.888000,284.992004
739.807983,-329.888000,284.992004
786.656006,-269.376007,394.303986
841.312012,-195.199997,501.664001
853.023987,-228.384003,562.176025
823.744019,-281.088013,525.088013
796.416016,-245.951996,445.056000
780.799988,-206.912003,347.455994
745.664001,-238.143997,218.623993
722.239990,-212.768005,95.648003
741.760010,-115.167999,99.552002
774.943970,-54.655998,169.824005
810.080017,-50.751999,298.656006
817.888000,-50.751999,419.679993
946.719971,3.904000,528.992004
972.096008,-17.568001,628.544006
899.872009,-156.160004,761.280029
968.192017,-76.127998,835.455994
1079.456055,-5.856000,892.064026
1122.400024,-93.695999,927.200012
1139.968018,-33.183998,938.911987
1167.296021,87.839996,925.247986
1169.248047,7.808000,892.064026
1208.287964,-62.464001,927.200012
1227.807983,64.416000,940.864014
1204.384033,187.391998,946.719971
1157.536011,130.783997,905.728027
1124.352051,111.264000,784.703979
1038.463989,101.503998,616.831970
993.567993,111.264000,431.391998
940.864014,242.048004,255.712006
913.536011,327.936005,158.112000
911.583984,312.320007,179.584000
948.671997,247.904007,302.559998
993.567993,183.488007,468.480011
1089.215942,95.648003,632.447998
1128.255981,-21.472000,782.752014
1169.248047,-60.512001,888.159973
1216.095947,-68.320000,938.911987
1182.911987,-163.968002,897.919983
1155.583984,-187.391998,845.216003
1136.063965,-91.744003,728.096008
1108.735962,-115.167999,630.495972
1075.552002,-140.544006,573.888000
1095.072021,-62.464001,536.799988
1083.359985,-56.608002,558.271973
1091.167969,-99.552002,622.687988
1128.255981,-5.856000,694.911987
1128.255981,29.280001,771.039978
1143.871948,-40.992001,804.223999
1110.687988,-7.808000,796.416016
1085.312012,78.080002,769.088013
1079.456055,-1.952000,720.288025
1040.416016,-19.520000,650.015991
981.856018,40.992001,569.984009
931.104004,97.599998,489.951996
858.880005,126.879997,378.687988
794.463989,226.432007,263.519989
739.807983,214.720001,130.783997
728.096008,214.720001,58.560001
667.583984,277.183990,81.984001
778.848022,240.095993,203.007996
999.424011,124.928001,376.735992
841.312012,-23.424000,571.935974
1034.560059,-91.744003,739.807983
1159.488037,60.512001,825.695984
1009.184021,-95.648003,829.599976
1013.088013,3.904000,747.616028
921.343994,97.599998,597.312012
870.591980,5.856000,431.391998
792.512024,13.664000,251.807999
810.080017,70.272003,140.544006
792.512024,191.296005,130.783997
905.728027,253.759995,230.335999
925.247986,124.928001,425.536011
995.520020,64.416000,636.351990
1134.112061,5.856000,827.648010
1038.463989,-70.272003,1052.128052
987.711975,-111.264000,1294.176025
942.815979,-54.655998,1149.728027
977.952026,74.176003,692.960022
999.424011,199.104004,318.175995
962.335999,81.984001,177.632004
868.640015,-37.088001,222.528000
796.416016,1.952000,259.615997
772.992004,-54.655998,197.151993
1395.680054,-169.824005,-9.760000
944.768005,-244.000000,-27.327999
1108.735962,-52.703999,433.343994
1013.088013,-277.183990,950.624023
894.015991,-425.536011,1034.560059
907.679993,-210.815994,706.624023
835.455994,5.856000,400.160004
888.159973,-44.896000,310.368011
853.023987,-1.952000,349.407990
825.695984,101.503998,304.511993
903.776001,124.928001,234.240005
909.632019,62.464001,263.519989
976.000000,-11.712000,376.735992
1163.391968,-85.888000,406.015991
999.424011,-1.952000,472.384003
1118.495972,-74.176003,595.359985
1157.536011,-134.688004,651.968018
1272.703979,15.616000,591.455994
1083.359985,150.304001,583.648010
1093.119995,-15.616000,667.583984
1075.552002,-126.879997,704.671997
1143.871948,-42.944000,618.783997
1056.031982,138.591995,530.943970
1048.223999,115.167999,509.471985
1016.992004,-29.280001,540.703979
995.520020,-83.935997,530.943970
970.143982,-15.616000,478.239990
929.151978,37.088001,435.295990
919.392029,23.424000,421.631989
946.719971,21.472000,415.776001
976.000000,56.608002,406.015991
985.760010,134.688004,361.119995
997.471985,175.679993,333.791992
1009.184021,124.928001,376.735992
993.567993,56.608002,447.007996
997.471985,21.472000,501.664001
1020.895996,48.799999,542.656006
1036.511963,62.464001,564.127991
1022.848022,40.992001,566.080017
995.520020,-7.808000,542.656006
991.616028,-17.568001,517.280029
974.047974,0.000000,470.432007
948.671997,33.183998,415.776001
944.768005,44.896000,374.783997
940.864014,31.232000,357.216003
950.624023,54.655998,390.399994
977.952026,46.848000,448.959991
997.471985,66.367996,507.519989
1030.656006,81.984001,558.271973
1046.271973,97.599998,601.216003
1057.984009,124.928001,622.687988
1050.176025,146.399994,616.831970
1048.223999,154.207993,597.312012
1015.039978,150.304001,583.648010
1009.184021,124.928001,558.271973
995.520020,122.975998,534.848022
987.711975,117.120003,532.895996
972.096008,136.639999,532.895996
972.096008,163.968002,523.135986
972.096008,160.063995,511.424011
950.624023,156.160004,491.903992
948.671997,156.160004,480.191986
938.911987,142.496002,474.335999
936.960022,144.447998,468.480011
933.056030,179.584000,495.808014
946.719971,199.104004,511.424011
954.528015,228.384003,515.328003
952.575989,236.192001,507.519989
964.288025,245.951996,509.471985
956.479980,242.048004,509.471985
946.719971,226.432007,509.471985
938.911987,216.671997,499.712006
938.911987,179.584000,507.519989
931.104004,144.447998,509.471985
917.440002,140.544006,501.664001
917.440002,138.591995,486.048004
911.583984,107.360001,488.000000
931.104004,97.599998,488.000000
929.151978,81.984001,497.760010
913.536011,80.031998,503.615997
927.200012,72.223999,505.567993
927.200012,64.416000,517.280029
913.536011,62.464001,505.567993
907.679993,91.744003,501.664001
925.247986,83.935997,503.615997
911.583984,91.744003,517.280029
911.583984,109.311996,515.328003
901.823975,124.928001,515.328003
913.536011,134.688004,515.328003
903.776001,142.496002,513.375977
915.487976,105.407997,503.615997
917.440002,-54.655998,503.615997
901.823975,-224.479996,507.519989
868.640015,-292.799988,495.808014
843.263977,-314.272003,462.623993
821.791992,-347.455994,388.447998
798.367981,-388.447998,333.791992
810.080017,-441.152008,298.656006
808.127991,-472.384003,298.656006
815.935974,-454.816010,314.272003
817.888000,-433.343994,337.696014
821.791992,-423.584015,359.167999
819.840027,-423.584015,370.880005
835.455994,-396.256012,372.832001
843.263977,-312.320007,366.976013
851.072021,-232.287994,390.399994
866.687988,-169.824005,409.920013
866.687988,-136.639999,423.584015
880.351990,-107.360001,439.200012
878.400024,-76.127998,462.623993
894.015991,-56.608002,480.191986
899.872009,-25.375999,484.096008
886.208008,23.424000,503.615997
888.159973,87.839996,488.000000
876.447998,95.648003,464.575989
860.831970,101.503998,462.623993
864.736023,101.503998,447.007996
860.831970,109.311996,433.343994
856.927979,72.223999,439.200012
856.927979,64.416000,431.391998
854.976013,99.552002,413.824005
843.263977,156.160004,435.295990
851.072021,195.199997,443.104004
839.359985,224.479996,454.816010
829.599976,212.768005,447.007996
817.888000,195.199997,421.631989
806.176025,181.535995,398.208008
813.984009,162.016006,386.496002
804.223999,142.496002,392.351990
813.984009,122.975998,386.496002
808.127991,72.223999,390.399994
835.455994,15.616000,443.104004
856.927979,-29.280001,480.191986
843.263977,-50.751999,482.144012
841.312012,-40.992001,452.864014
823.744019,-29.280001,390.399994
841.312012,-40.992001,345.503998
851.072021,-29.280001,337.696014
849.119995,5.856000,343.552002
794.463989,19.520000,368.928009
827.648010,-3.904000,388.447998
851.072021,-35.136002,400.160004
847.168030,-27.327999,368.928009
843.263977,-25.375999,363.071991
843.263977,-33.183998,386.496002
858.880005,-56.608002,404.063995
899.872009,-74.176003,406.015991
913.536011,-50.751999,439.200012
927.200012,-33.183998,472.384003
938.911987,0.000000,499.712006
948.671997,9.760000,501.664001
1022.848022,9.760000,482.144012
977.952026,58.560001,445.056000
1013.088013,48.799999,450.911987
989.664001,-1.952000,538.752014
1015.039978,-68.320000,626.591980
1030.656006,-64.416000,616.831970
1026.751953,-15.616000,552.416016
976.000000,27.327999,452.864014
946.719971,48.799999,384.544006
954.528015,81.984001,378.687988
968.192017,78.080002,415.776001
958.432007,35.136002,452.864014
968.192017,0.000000,486.048004
976.000000,3.904000,486.048004
972.096008,9.760000,489.951996
966.239990,27.327999,470.432007
964.288025,37.088001,437.247986
972.096008,25.375999,427.488007
956.479980,7.808000,443.104004
979.903992,-7.808000,448.959991
983.807983,-25.375999,488.000000
993.567993,-40.992001,507.519989
966.239990,-33.183998,452.864014
936.960022,0.000000,390.399994
919.392029,44.896000,327.936005
897.919983,44.896000,316.223999
913.536011,21.472000,365.023987
962.335999,15.616000,419.679993
968.192017,25.375999,441.152008
976.000000,52.703999,427.488007
954.528015,87.839996,390.399994
989.664001,56.608002,396.256012
983.807983,21.472000,425.536011
1016.992004,11.712000,437.247986
1003.328003,13.664000,462.623993
1026.751953,19.520000,472.384003
1044.319946,15.616000,443.104004
999.424011,39.040001,380.640015
972.096008,68.320000,349.407990
999.424011,33.183998,398.208008
1005.280029,1.952000,445.056000
991.616028,37.088001,409.920013
995.520020,44.896000,363.071991
991.616028,31.232000,351.359985
997.471985,-1.952000,396.256012
1024.800049,-19.520000,476.287994
1046.271973,-11.712000,527.039978
1063.839966,-35.136002,536.799988
1036.511963,-76.127998,486.048004
1011.135986,-140.544006,417.727997
948.671997,-228.384003,388.447998
927.200012,-277.183990,339.648010
903.776001,-296.704010,273.279999
923.296021,-279.135986,271.328003
970.143982,-255.712006,316.223999
954.528015,-179.584000,368.928009
878.400024,-97.599998,339.648010
886.208008,-97.599998,290.847992
970.143982,-126.879997,322.079987
1001.375977,-78.080002,372.832001
1040.416016,1.952000,448.959991
1065.791992,58.560001,528.992004
1075.552002,76.127998,519.231995
1091.167969,80.031998,489.951996
1071.647949,72.223999,464.575989
1059.936035,40.992001,501.664001
1075.552002,7.808000,544.607971
1071.647949,23.424000,497.760010
1046.271973,33.183998,441.152008
1022.848022,21.472000,366.976013
989.664001,11.712000,318.175995
956.479980,-19.520000,302.559998
958.432007,-42.944000,292.799988
962.335999,-29.280001,273.279999
948.671997,-42.944000,265.471985
972.096008,-68.320000,286.944000
1001.375977,-78.080002,325.984009
1007.231995,-78.080002,351.359985
1007.231995,-60.512001,359.167999
1005.280029,-35.136002,361.119995
997.471985,-25.375999,361.119995
1003.328003,1.952000,378.687988
1007.231995,-9.760000,382.592010
999.424011,11.712000,419.679993
1013.088013,15.616000,454.816010
1038.463989,19.520000,439.200012
1038.463989,64.416000,343.552002
987.711975,101.503998,226.432007
940.864014,68.320000,220.576004
962.335999,29.280001,304.511993
1007.231995,70.272003,378.687988
1040.416016,119.071999,419.679993
1095.072021,113.216003,448.959991
1085.312012,152.255997,413.824005
1040.416016,183.488007,361.119995
1089.215942,230.335999,284.992004
1052.128052,263.519989,195.199997
977.952026,236.192001,156.160004
960.383972,193.248001,216.671997
983.807983,138.591995,259.615997
985.760010,54.655998,325.984009
1022.848022,-31.232000,374.783997
1030.656006,-85.888000,341.600006
1009.184021,-128.832001,337.696014
1018.943970,-111.264000,380.640015
1028.703979,-56.608002,406.015991
1056.031982,3.904000,417.727997
1050.176025,5.856000,443.104004
1059.936035,-23.424000,452.864014
1050.176025,-9.760000,415.776001
1054.079956,-52.703999,413.824005
1056.031982,-76.127998,456.768005
1071.647949,-68.320000,466.528015
1073.599976,-78.080002,443.104004
1061.887939,-101.503998,406.015991
1013.088013,-91.744003,304.511993
960.383972,-128.832001,222.528000
923.296021,-136.639999,206.912003
974.047974,-134.688004,310.368011
1026.751953,-101.503998,435.295990
1102.880005,-97.599998,497.760010
1112.640015,-128.832001,497.760010
1069.696045,-126.879997,429.440002
1001.375977,-152.255997,363.071991
956.479980,-136.639999,329.888000
954.528015,-56.608002,249.856003
950.624023,-11.712000,165.919998
927.200012,-44.896000,115.167999
927.200012,-162.016006,122.975998
919.392029,-222.528000,218.623993
936.960022,-195.199997,325.984009
964.288025,-109.311996,366.976013
987.711975,-46.848000,388.447998
985.760010,11.712000,347.455994
977.952026,-3.904000,300.608002
993.567993,0.000000,208.863998
888.159973,83.935997,-13.664000
774.943970,66.367996,-140.544006
790.559998,-9.760000,-21.472000
847.168030,-39.040001,138.591995
909.632019,5.856000,275.231995
1016.992004,80.031998,372.832001
1040.416016,78.080002,365.023987
991.616028,83.935997,296.704010
845.216003,-148.352005,224.479996
843.263977,-386.496002,117.120003
812.031982,-564.127991,119.071999
870.591980,-794.463989,257.664001
956.479980,-884.255981,452.864014
1038.463989,-591.455994,513.375977
1085.312012,-204.960007,513.375977
1106.784058,27.327999,595.359985
1098.975952,245.951996,601.216003
1054.079956,353.312012,513.375977
1016.992004,353.312012,421.631989
972.096008,308.415985,366.976013
1028.703979,242.048004,327.936005
1020.895996,148.352005,263.519989
909.632019,97.599998,167.871994
837.408020,39.040001,169.824005
868.640015,-15.616000,228.384003
954.528015,-60.512001,327.936005
1028.703979,-50.751999,386.496002
1034.560059,-64.416000,324.032013
987.711975,-115.167999,240.095993
974.047974,-158.112000,199.104004
958.432007,-134.688004,187.391998
933.056030,-93.695999,203.007996
954.528015,-107.360001,257.664001
993.567993,-109.311996,273.279999
1024.800049,-81.984001,283.040009
1030.656006,-95.648003,322.079987
1079.456055,-156.160004,419.679993
1134.112061,-165.919998,476.287994
1149.728027,-80.031998,431.391998
1120.447998,-17.568001,365.023987
1104.832031,17.568001,335.743988
1067.744019,23.424000,316.223999
1034.560059,50.751999,322.079987
1057.984009,87.839996,310.368011
1048.223999,85.888000,283.040009
1056.031982,103.456001,257.664001
1069.696045,66.367996,281.088013
1095.072021,23.424000,310.368011
1091.167969,17.568001,310.368011
1098.975952,29.280001,318.175995
1097.024048,99.552002,308.415985
1100.927979,134.688004,292.799988
1112.640015,105.407997,296.704010
1151.680054,-119.071999,380.640015
1054.079956,-554.367981,384.544006
806.176025,-659.776001,-58.560001
650.015991,-696.864014,-316.223999
671.487976,-794.463989,-234.240005
771.039978,-743.711975,-1.952000
878.400024,-548.512024,216.671997
933.056030,-316.223999,206.912003
886.208008,-212.768005,103.456001
847.168030,-140.544006,156.160004
901.823975,52.703999,271.328003
974.047974,310.368011,267.424011
1089.215942,474.335999,368.928009
1255.135986,464.575989,589.504028
1354.687988,388.447998,788.607971
1382.015991,259.615997,890.112000
1389.823975,167.871994,862.783997
1303.936035,146.399994,648.064026
1165.343994,122.975998,429.440002
1098.975952,121.024002,349.407990
1081.407959,119.071999,365.023987
1132.160034,62.464001,400.160004
1149.728027,-5.856000,458.720001
1171.199951,-66.367996,474.335999
1126.303955,-56.608002,386.496002
1069.696045,-66.367996,333.791992
1056.031982,-13.664000,283.040009
1100.927979,81.984001,261.567993
1157.536011,78.080002,396.256012
1163.391968,138.591995,534.848022
1221.952026,206.912003,601.216003
1282.463989,122.975998,720.288025
1348.832031,85.888000,763.231995
1356.640015,81.984001,714.432007
1313.696045,136.639999,595.359985
1255.135986,126.879997,523.135986
1227.807983,85.888000,571.935974
1237.567993,130.783997,527.039978
1196.576050,163.968002,448.959991
1149.728027,130.783997,376.735992
1071.647949,87.839996,331.839996
1003.328003,68.320000,253.759995
991.616028,35.136002,201.056000
1022.848022,-33.183998,224.479996
1071.647949,-29.280001,222.528000
1098.975952,5.856000,251.807999
1149.728027,9.760000,400.160004
1190.719971,39.040001,505.567993
1216.095947,95.648003,534.848022
1206.336060,117.120003,548.512024
1200.479980,124.928001,484.096008
1159.488037,97.599998,425.536011
1134.112061,89.792000,378.687988
1098.975952,124.928001,298.656006
1052.128052,158.112000,232.287994
1044.319946,138.591995,244.000000
1063.839966,140.544006,232.287994
1056.031982,122.975998,234.240005
1083.359985,39.040001,312.320007
1116.543945,1.952000,325.984009
1110.687988,-9.760000,310.368011
1110.687988,-46.848000,349.407990
1112.640015,-25.375999,310.368011
1083.359985,-21.472000,294.752014
1097.024048,-23.424000,322.079987
1091.167969,101.503998,269.376007
1061.887939,175.679993,253.759995
1069.696045,206.912003,245.951996
1050.176025,245.951996,191.296005
1030.656006,203.007996,179.584000
1026.751953,124.928001,173.727997
1022.848022,29.280001,156.160004
1024.800049,-60.512001,163.968002
1018.943970,-85.888000,197.151993
1030.656006,-62.464001,201.056000
1034.560059,-25.375999,218.623993
1065.791992,-1.952000,281.088013
1067.744019,37.088001,288.895996
1063.839966,48.799999,277.183990
1083.359985,42.944000,294.752014
1069.696045,19.520000,302.559998
1046.271973,23.424000,271.328003
1038.463989,-1.952000,277.183990
1044.319946,-27.327999,257.664001
1030.656006,-39.040001,230.335999
1018.943970,-48.799999,226.432007
1013.088013,-56.608002,263.519989
1038.463989,-54.655998,238.143997
1028.703979,-56.608002,273.279999
1028.703979,-50.751999,234.240005
1016.992004,-44.896000,236.192001
1022.848022,-37.088001,232.287994
1013.088013,-599.263977,267.424011
919.392029,-909.632019,130.783997
915.487976,-238.143997,42.944000
970.143982,-349.407990,296.704010
1059.936035,169.824005,409.920013
1110.687988,238.143997,462.623993
1093.119995,269.376007,407.967987
1048.223999,121.024002,310.368011
1007.231995,-23.424000,284.992004
1038.463989,-39.040001,335.743988
1059.936035,-68.320000,388.447998
1085.312012,-56.608002,386.496002
1069.696045,-89.792000,359.167999
1030.656006,-113.216003,296.704010
1005.280029,-121.024002,261.567993
999.424011,-89.792000,259.615997
1011.135986,-42.944000,273.279999
1036.511963,-44.896000,312.320007
1038.463989,-99.552002,329.888000
1042.368042,-138.591995,300.608002
1001.375977,-204.960007,283.040009
964.288025,-197.151993,249.856003
966.239990,-179.584000,208.863998
970.143982,-122.975998,195.199997
987.711975,-81.984001,226.432007
999.424011,-68.320000,253.759995
991.616028,-101.503998,267.424011
989.664001,-171.776001,255.712006
979.903992,-218.623993,220.576004
977.952026,-220.576004,220.576004
979.903992,-171.776001,247.904007
964.288025,-122.975998,236.192001
968.192017,-97.599998,234.240005
972.096008,-93.695999,244.000000
977.952026,-117.120003,271.328003
991.616028,-146.399994,283.040009
999.424011,-181.535995,310.368011
995.520020,-158.112000,296.704010
989.664001,-113.216003,277.183990
985.760010,-107.360001,294.752014
985.760010,-72.223999,263.519989
968.192017,-101.503998,203.007996
952.575989,-101.503998,195.199997
940.864014,-117.120003,181.535995
950.624023,-162.016006,208.863998
989.664001,-169.824005,251.807999
993.567993,-181.535995,247.904007
987.711975,-160.063995,251.807999
987.711975,-158.112000,251.807999
985.760010,-169.824005,238.143997
979.903992,-103.456001,240.095993
981.856018,-107.360001,247.904007
979.903992,-130.783997,230.335999
979.903992,-142.496002,210.815994
987.711975,-160.063995,236.192001
983.807983,-144.447998,218.623993
968.192017,-154.207993,199.104004
972.096008,-115.167999,210.815994
977.952026,-97.599998,216.671997
964.288025,-101.503998,216.671997
968.192017,-107.360001,195.199997
974.047974,-134.688004,195.199997
985.760010,-126.879997,203.007996
997.471985,-130.783997,234.240005
1009.184021,-140.544006,259.615997
1003.328003,-142.496002,265.471985
997.471985,-150.304001,251.807999
989.664001,-103.456001,220.576004
974.047974,-87.839996,212.768005
985.760010,-66.367996,251.807999
1009.184021,-80.031998,261.567993
1013.088013,-132.735992,257.664001
1003.328003,-169.824005,244.000000
1005.280029,-189.343994,234.240005
999.424011,-169.824005,251.807999
1003.328003,-122.975998,259.615997
995.520020,-66.367996,222.528000
972.096008,11.712000,152.255997
938.911987,37.088001,107.360001
952.575989,-35.136002,130.783997
999.424011,-124.928001,201.056000
1024.800049,-218.623993,242.048004
1022.848022,-279.135986,244.000000
1013.088013,-253.759995,191.296005
991.616028,-154.207993,195.199997
1024.800049,-39.040001,269.376007
1046.271973,7.808000,306.463989
1038.463989,-9.760000,253.759995
1024.800049,-68.320000,236.192001
1020.895996,-89.792000,230.335999
1024.800049,-93.695999,247.904007
1028.703979,-95.648003,259.615997
1013.088013,-103.456001,244.000000
995.520020,-115.167999,185.440002
1001.375977,-121.024002,160.063995
999.424011,-105.407997,187.391998
1018.943970,-89.792000,234.240005
1026.751953,-74.176003,222.528000
1005.280029,-83.935997,191.296005
993.567993,-48.799999,158.112000
979.903992,-50.751999,140.544006
989.664001,-68.320000,152.255997
1028.703979,-91.744003,208.863998
1040.416016,-150.304001,236.192001
1044.319946,-181.535995,236.192001
1032.608032,-158.112000,230.335999
1011.135986,-97.599998,214.720001
1015.039978,-13.664000,208.863998
1005.280029,11.712000,210.815994
1020.895996,-1.952000,206.912003
1036.511963,-56.608002,220.576004
1034.560059,-111.264000,242.048004
1050.176025,-136.639999,253.759995
1048.223999,-126.879997,249.856003
1036.511963,-87.839996,247.904007
1013.088013,-56.608002,214.720001
1011.135986,-31.232000,199.104004
1028.703979,-42.944000,216.671997
1030.656006,-40.992001,222.528000
1036.511963,-64.416000,247.904007
1036.511963,-101.503998,255.712006
1026.751953,-111.264000,244.000000
1024.800049,-107.360001,230.335999
1011.135986,-74.176003,222.528000
1030.656006,-46.848000,238.143997
1034.560059,-33.183998,238.143997
1052.128052,-33.183998,251.807999
1030.656006,-52.703999,234.240005
1018.943970,-81.984001,224.479996
1018.943970,-101.503998,226.432007
1034.560059,-95.648003,255.712006
1067.744019,-58.560001,292.799988
1071.647949,-54.655998,290.847992
1056.031982,-44.896000,279.135986
1040.416016,-54.655998,265.471985
1028.703979,-64.416000,259.615997
1024.800049,-62.464001,263.519989
1030.656006,-40.992001,249.856003
1022.848022,-46.848000,242.048004
1015.039978,-50.751999,218.623993
1009.184021,-66.367996,183.488007
995.520020,-117.120003,181.535995
1007.231995,-99.552002,203.007996
1020.895996,-95.648003,222.528000
1022.848022,-101.503998,224.479996
1003.328003,-85.888000,195.199997
968.192017,-130.783997,193.248001
974.047974,-126.879997,181.535995
1065.791992,-134.688004,271.328003
1079.456055,5.856000,361.119995
987.711975,15.616000,286.944000
948.671997,-163.968002,169.824005
991.616028,-103.456001,160.063995
993.567993,-15.616000,171.776001
991.616028,17.568001,222.528000
983.807983,-58.560001,152.255997
970.143982,-216.671997,80.031998
1013.088013,-134.688004,175.679993
1011.135986,-175.679993,327.936005
997.471985,-204.960007,249.856003
997.471985,-179.584000,197.151993
1036.511963,-58.560001,300.608002
1065.791992,-11.712000,361.119995
1040.416016,-72.223999,286.944000
1016.992004,-111.264000,251.807999
1009.184021,-121.024002,279.135986
1015.039978,-154.207993,284.992004
1020.895996,-160.063995,283.040009
1020.895996,-132.735992,277.183990
1005.280029,-99.552002,249.856003
989.664001,-101.503998,228.384003
1001.375977,-93.695999,242.048004
1016.992004,-115.167999,269.376007
1009.184021,-146.399994,253.759995
997.471985,-163.968002,240.095993
1003.328003,-169.824005,257.664001
1003.328003,-156.160004,259.615997
991.616028,-126.879997,226.432007
976.000000,-95.648003,204.960007
977.952026,-76.127998,204.960007
976.000000,-76.127998,206.912003
974.047974,-111.264000,203.007996
977.952026,-142.496002,208.863998
976.000000,-144.447998,218.623993
985.760010,-144.447998,220.576004
983.807983,-160.063995,201.056000
977.952026,-146.399994,208.863998
972.096008,-128.832001,212.768005
974.047974,-119.071999,210.815994
966.239990,-126.879997,201.056000
968.192017,-119.071999,201.056000
964.288025,-119.071999,201.056000
960.383972,-113.216003,199.104004
977.952026,-115.167999,206.912003
970.143982,-119.071999,199.104004
966.239990,-124.928001,197.151993
974.047974,-126.879997,204.960007
972.096008,-119.071999,204.960007
968.192017,-122.975998,208.863998
974.047974,-122.975998,197.151993
968.192017,-124.928001,199.104004
968.192017,-128.832001,204.960007
974.047974,-122.975998,206.912003
972.096008,-119.071999,218.623993
974.047974,-109.311996,214.720001
977.952026,-103.456001,208.863998
977.952026,-99.552002,218.623993
974.047974,-107.360001,210.815994
991.616028,-103.456001,216.671997
981.856018,-111.264000,212.768005
974.047974,-101.503998,206.912003
979.903992,-105.407997,212.768005
989.664001,-105.407997,212.768005
979.903992,-105.407997,206.912003
979.903992,-103.456001,199.104004
985.760010,-101.503998,195.199997
983.807983,-105.407997,204.960007
979.903992,-101.503998,199.104004
985.760010,-91.744003,197.151993
979.903992,-111.264000,191.296005
974.047974,-111.264000,191.296005
972.096008,-109.311996,199.104004
985.760010,-107.360001,203.007996
991.616028,-109.311996,206.912003
981.856018,-109.311996,201.056000
981.856018,-115.167999,197.151993
981.856018,-115.167999,197.151993
977.952026,-115.167999,201.056000
983.807983,-113.216003,206.912003
997.471985,-117.120003,206.912003
993.567993,-115.167999,214.720001
989.664001,-117.120003,212.768005
981.856018,-128.832001,212.768005
991.616028,-111.264000,214.720001
999.424011,-115.167999,218.623993
993.567993,-115.167999,216.671997
991.616028,-115.167999,218.623993
999.424011,-115.167999,220.576004
991.616028,-128.832001,220.576004
999.424011,-126.879997,228.384003
997.471985,-130.783997,222.528000
991.616028,-132.735992,222.528000
989.664001,-128.832001,214.720001
985.760010,-124.928001,214.720001
989.664001,-132.735992,216.671997
995.520020,-128.832001,208.863998
987.711975,-122.975998,204.960007
981.856018,-134.688004,199.104004
985.760010,-124.928001,210.815994
976.000000,-121.024002,204.960007
977.952026,-121.024002,197.151993
974.047974,-119.071999,197.151993
977.952026,-122.975998,191.296005
976.000000,-122.975998,201.056000
976.000000,-128.832001,206.912003
983.807983,-122.975998,212.768005
985.760010,-128.832001,212.768005
981.856018,-134.688004,228.384003
987.711975,-126.879997,232.287994
979.903992,-115.167999,222.528000
981.856018,-124.928001,224.479996
991.616028,-122.975998,220.576004
983.807983,-128.832001,210.815994
981.856018,-115.167999,210.815994
968.192017,-117.120003,199.104004
968.192017,-130.783997,203.007996
970.143982,-117.120003,193.248001
964.288025,-122.975998,197.151993
962.335999,-128.832001,191.296005
966.239990,-121.024002,193.248001
968.192017,-115.167999,185.440002
964.288025,-122.975998,191.296005
964.288025,-119.071999,204.960007
966.239990,-122.975998,212.768005
977.952026,-122.975998,203.007996
979.903992,-121.024002,204.960007
981.856018,-122.975998,206.912003
983.807983,-128.832001,218.623993
977.952026,-128.832001,224.479996
983.807983,-124.928001,214.720001
977.952026,-126.879997,216.671997
972.096008,-124.928001,224.479996
976.000000,-119.071999,216.671997
976.000000,-124.928001,206.912003
968.192017,-128.832001,203.007996
968.192017,-126.879997,203.007996
966.239990,-121.024002,206.912003
968.192017,-124.928001,199.104004
966.239990,-119.071999,191.296005
974.047974,-128.832001,195.199997
966.239990,-119.071999,199.104004
970.143982,-121.024002,195.199997
977.952026,-130.783997,214.720001
976.000000,-132.735992,203.007996
977.952026,-136.639999,212.768005
972.096008,-128.832001,210.815994
979.903992,-121.024002,212.768005
983.807983,-119.071999,220.576004
983.807983,-124.928001,220.576004
976.000000,-119.071999,216.671997
974.047974,-115.167999,214.720001
970.143982,-122.975998,216.671997
977.952026,-117.120003,214.720001
974.047974,-111.264000,210.815994
977.952026,-117.120003,208.863998
964.288025,-109.311996,204.960007
964.288025,-119.071999,199.104004
970.143982,-109.311996,206.912003
962.335999,-107.360001,206.912003
966.239990,-111.264000,216.671997
960.383972,-111.264000,206.912003
972.096008,-105.407997,206.912003
968.192017,-113.216003,210.815994
970.143982,-103.456001,208.863998
976.000000,-99.552002,214.720001
968.192017,-109.311996,216.671997
960.383972,-103.456001,216.671997
964.288025,-109.311996,208.863998
962.335999,-103.456001,206.912003
964.288025,-105.407997,226.432007
968.192017,-103.456001,218.623993
964.288025,-103.456001,220.576004
962.335999,-109.311996,214.720001
962.335999,-109.311996,220.576004
958.432007,-107.360001,212.768005
962.335999,-103.456001,212.768005
958.432007,-99.552002,206.912003
958.432007,-117.120003,199.104004
956.479980,-111.264000,206.912003
958.432007,-117.120003,203.007996
954.528015,-113.216003,212.768005
956.479980,-107.360001,208.863998
950.624023,-113.216003,210.815994
954.528015,-117.120003,208.863998
944.768005,-121.024002,204.960007
944.768005,-119.071999,210.815994
946.719971,-109.311996,203.007996
950.624023,-121.024002,201.056000
942.815979,-107.360001,208.863998
936.960022,-119.071999,208.863998
936.960022,-126.879997,203.007996
942.815979,-117.120003,210.815994
944.768005,-119.071999,214.720001
936.960022,-121.024002,212.768005
942.815979,-117.120003,216.671997
936.960022,-107.360001,208.863998
938.911987,-111.264000,212.768005
929.151978,-122.975998,214.720001
929.151978,-128.832001,210.815994
933.056030,-126.879997,210.815994
929.151978,-128.832001,216.671997
929.151978,-124.928001,210.815994
927.200012,-119.071999,206.912003
929.151978,-121.024002,210.815994
931.104004,-117.120003,214.720001
929.151978,-119.071999,206.912003
925.247986,-119.071999,210.815994
925.247986,-119.071999,208.863998
931.104004,-132.735992,201.056000
921.343994,-134.688004,208.863998
927.200012,-124.928001,212.768005
917.440002,-119.071999,212.768005
929.151978,-115.167999,204.960007
919.392029,-121.024002,208.863998
915.487976,-115.167999,201.056000
909.632019,-115.167999,203.007996
909.632019,-111.264000,208.863998
911.583984,-113.216003,212.768005
913.536011,-117.120003,208.863998
913.536011,-121.024002,201.056000
911.583984,-119.071999,203.007996
915.487976,-122.975998,203.007996
909.632019,-117.120003,199.104004
915.487976,-115.167999,199.104004
921.343994,-115.167999,203.007996
905.728027,-119.071999,208.863998
907.679993,-111.264000,199.104004
909.632019,-122.975998,201.056000
901.823975,-121.024002,203.007996
909.632019,-122.975998,216.671997
913.536011,-124.928001,210.815994
909.632019,-128.832001,212.768005
907.679993,-122.975998,210.815994
911.583984,-126.879997,208.863998
905.728027,-122.975998,206.912003
915.487976,-124.928001,214.720001
915.487976,-126.879997,216.671997
917.440002,-119.071999,210.815994
917.440002,-132.735992,212.768005
905.728027,-134.688004,218.623993
917.440002,-132.735992,224.479996
901.823975,-152.255997,220.576004
911.583984,-140.544006,218.623993
909.632019,-130.783997,218.623993
905.728027,-144.447998,214.720001
907.679993,-144.447998,218.623993
905.728027,-136.639999,222.528000
903.776001,-146.399994,206.912003
903.776001,-138.591995,212.768005
913.536011,-144.447998,212.768005
905.728027,-140.544006,218.623993
905.728027,-134.688004,216.671997
903.776001,-140.544006,212.768005
911.583984,-140.544006,212.768005
907.679993,-138.591995,203.007996
901.823975,-140.544006,210.815994
903.776001,-152.255997,206.912003
907.679993,-156.160004,206.912003
899.872009,-156.160004,201.056000
905.728027,-150.304001,203.007996
901.823975,-156.160004,216.671997
899.872009,-146.399994,214.720001
907.679993,-148.352005,204.960007
903.776001,-158.112000,208.863998
899.872009,-167.871994,206.912003
909.632019,-158.112000,216.671997
905.728027,-160.063995,206.912003
909.632019,-162.016006,212.768005
913.536011,-171.776001,203.007996
913.536011,-162.016006,210.815994
919.392029,-162.016006,214.720001
909.632019,-162.016006,212.768005
911.583984,-175.679993,210.815994
915.487976,-169.824005,216.671997
905.728027,-171.776001,212.768005
915.487976,-169.824005,212.768005
911.583984,-169.824005,210.815994
923.296021,-175.679993,220.576004
923.296021,-173.727997,220.576004
917.440002,-179.584000,210.815994
931.104004,-175.679993,214.720001
925.247986,-179.584000,214.720001
927.200012,-183.488007,218.623993
927.200012,-181.535995,218.623993
933.056030,-173.727997,216.671997
931.104004,-173.727997,214.720001
927.200012,-173.727997,222.528000
925.247986,-173.727997,212.768005
936.960022,-175.679993,228.384003
936.960022,-179.584000,216.671997
927.200012,-183.488007,220.576004
942.815979,-179.584000,220.576004
936.960022,-179.584000,218.623993
929.151978,-185.440002,220.576004
935.007996,-183.488007,222.528000
931.104004,-175.679993,218.623993
933.056030,-185.440002,220.576004
931.104004,-171.776001,214.720001
935.007996,-173.727997,218.623993
927.200012,-181.535995,216.671997
931.104004,-177.632004,218.623993
936.960022,-173.727997,220.576004
925.247986,-183.488007,224.479996
923.296021,-179.584000,222.528000
931.104004,-177.632004,212.768005
933.056030,-173.727997,203.007996
938.911987,-173.727997,206.912003
925.247986,-171.776001,214.720001
931.104004,-185.440002,218.623993
931.104004,-183.488007,216.671997
938.911987,-167.871994,218.623993
929.151978,-177.632004,206.912003
925.247986,-187.391998,208.863998
921.343994,-181.535995,212.768005
927.200012,-163.968002,208.863998
919.392029,-169.824005,208.863998
917.440002,-179.584000,208.863998
925.247986,-179.584000,210.815994
925.247986,-167.871994,201.056000
921.343994,-173.727997,208.863998
921.343994,-165.919998,210.815994
903.776001,-173.727997,204.960007
915.487976,-173.727997,197.151993
915.487976,-165.919998,203.007996
907.679993,-169.824005,204.960007
913.536011,-165.919998,204.960007
909.632019,-173.727997,195.199997
911.583984,-169.824005,191.296005
911.583984,-167.871994,191.296005
909.632019,-163.968002,197.151993
907.679993,-175.679993,195.199997
901.823975,-169.824005,195.199997
907.679993,-162.016006,199.104004
901.823975,-173.727997,204.960007
911.583984,-158.112000,204.960007
907.679993,-171.776001,199.104004
903.776001,-150.304001,197.151993
897.919983,-160.063995,191.296005
901.823975,-150.304001,201.056000
905.728027,-150.304001,189.343994
907.679993,-154.207993,189.343994
911.583984,-142.496002,191.296005
915.487976,-144.447998,197.151993
905.728027,-138.591995,203.007996
907.679993,-142.496002,203.007996
901.823975,-150.304001,201.056000
907.679993,-144.447998,206.912003
909.632019,-140.544006,195.199997
907.679993,-144.447998,195.199997
907.679993,-140.544006,204.960007
911.583984,-132.735992,201.056000
903.776001,-144.447998,199.104004
903.776001,-130.783997,197.151993
911.583984,-138.591995,204.960007
901.823975,-134.688004,208.863998
907.679993,-136.639999,193.248001
903.776001,-130.783997,197.151993
903.776001,-124.928001,208.863998
907.679993,-124.928001,197.151993
903.776001,-128.832001,199.104004
903.776001,-126.879997,197.151993
901.823975,-126.879997,197.151993
905.728027,-126.879997,199.104004
907.679993,-124.928001,197.151993
907.679993,-119.071999,204.960007
909.632019,-113.216003,201.056000
897.919983,-119.071999,195.199997
897.919983,-113.216003,195.199997
901.823975,-119.071999,199.104004
903.776001,-119.071999,201.056000
899.872009,-115.167999,193.248001
897.919983,-119.071999,195.199997
901.823975,-115.167999,201.056000
897.919983,-107.360001,195.199997
897.919983,-119.071999,187.391998
899.872009,-122.975998,181.535995
901.823975,-121.024002,189.343994
901.823975,-122.975998,189.343994
905.728027,-121.024002,193.248001
909.632019,-121.024002,191.296005
913.536011,-117.120003,189.343994
907.679993,-117.120003,197.151993
901.823975,-107.360001,187.391998
901.823975,-115.167999,195.199997
917.440002,-107.360001,197.151993
909.632019,-107.360001,199.104004
907.679993,-113.216003,204.960007
905.728027,-124.928001,208.863998
915.487976,-115.167999,203.007996
919.392029,-115.167999,203.007996
919.392029,-111.264000,203.007996
915.487976,-111.264000,208.863998
915.487976,-103.456001,204.960007
913.536011,-113.216003,203.007996
913.536011,-117.120003,203.007996
909.632019,-109.311996,208.863998
915.487976,-107.360001,214.720001
919.392029,-99.552002,206.912003
915.487976,-109.311996,203.007996
923.296021,-103.456001,206.912003
915.487976,-111.264000,203.007996
917.440002,-107.360001,210.815994
919.392029,-105.407997,216.671997
923.296021,-101.503998,212.768005
921.343994,-99.552002,206.912003
925.247986,-91.744003,214.720001
921.343994,-93.695999,210.815994
925.247986,-97.599998,208.863998
923.296021,-93.695999,203.007996
915.487976,-89.792000,201.056000
923.296021,-97.599998,204.960007
931.104004,-99.552002,201.056000
925.247986,-99.552002,197.151993
927.200012,-109.311996,201.056000
925.247986,-109.311996,193.248001
933.056030,-107.360001,204.960007
933.056030,-105.407997,204.960007
933.056030,-99.552002,208.863998
938.911987,-113.216003,204.960007
946.719971,-113.216003,201.056000
938.911987,-109.311996,206.912003
936.960022,-103.456001,212.768005
948.671997,-105.407997,214.720001
948.671997,-111.264000,222.528000
944.768005,-115.167999,216.671997
946.719971,-99.552002,214.720001
952.575989,-105.407997,220.576004
948.671997,-105.407997,218.623993
950.624023,-109.311996,222.528000
956.479980,-113.216003,214.720001
954.528015,-119.071999,208.863998
944.768005,-117.120003,216.671997
944.768005,-117.120003,220.576004
956.479980,-109.311996,212.768005
960.383972,-119.071999,206.912003
956.479980,-111.264000,218.623993
958.432007,-130.783997,220.576004
960.383972,-128.832001,222.528000
960.383972,-124.928001,226.432007
970.143982,-122.975998,218.623993
964.288025,-124.928001,224.479996
974.047974,-122.975998,230.335999
966.239990,-126.879997,230.335999
960.383972,-124.928001,232.287994
952.575989,-119.071999,224.479996
966.239990,-124.928001,222.528000
960.383972,-134.688004,210.815994
966.239990,-134.688004,212.768005
958.432007,-130.783997,212.768005
954.528015,-119.071999,218.623993
960.383972,-122.975998,216.671997
962.335999,-117.120003,214.720001
950.624023,-126.879997,224.479996
962.335999,-134.688004,218.623993
958.432007,-136.639999,214.720001
960.383972,-126.879997,210.815994
960.383972,-119.071999,224.479996
958.432007,-121.024002,220.576004
958.432007,-124.928001,224.479996
964.288025,-128.832001,214.720001
962.335999,-132.735992,222.528000
958.432007,-124.928001,218.623993
960.383972,-119.071999,226.432007
962.335999,-126.879997,222.528000
954.528015,-128.832001,226.432007
952.575989,-128.832001,212.768005
948.671997,-119.071999,208.863998
948.671997,-119.071999,210.815994
944.768005,-117.120003,216.671997
950.624023,-132.735992,212.768005
948.671997,-132.735992,201.056000
944.768005,-132.735992,195.199997
958.432007,-124.928001,206.912003
954.528015,-124.928001,201.056000
940.864014,-126.879997,204.960007
946.719971,-119.071999,204.960007
948.671997,-121.024002,212.768005
950.624023,-130.783997,212.768005
948.671997,-130.783997,206.912003
946.719971,-122.975998,203.007996
952.575989,-117.120003,206.912003
956.479980,-117.120003,214.720001
958.432007,-122.975998,220.576004
958.432007,-126.879997,210.815994
952.575989,-132.735992,210.815994
964.288025,-134.688004,220.576004
958.432007,-117.120003,216.671997
954.528015,-122.975998,218.623993
962.335999,-121.024002,214.720001
956.479980,-124.928001,214.720001
958.432007,-126.879997,206.912003
964.288025,-134.688004,218.623993
966.239990,-128.832001,222.528000
960.383972,-128.832001,220.576004
960.383972,-128.832001,220.576004
962.335999,-124.928001,222.528000
960.383972,-122.975998,220.576004
970.143982,-126.879997,224.479996
962.335999,-130.783997,228.384003
974.047974,-124.928001,232.287994
968.192017,-119.071999,228.384003
968.192017,-126.879997,222.528000
964.288025,-124.928001,230.335999
972.096008,-121.024002,232.287994
966.239990,-126.879997,226.432007
974.047974,-121.024002,224.479996
972.096008,-126.879997,224.479996
974.047974,-128.832001,228.384003
976.000000,-128.832001,224.479996
970.143982,-128.832001,222.528000
964.288025,-130.783997,222.528000
964.288025,-136.639999,226.432007
976.000000,-128.832001,224.479996
970.143982,-128.832001,230.335999
970.143982,-126.879997,232.287994
976.000000,-124.928001,218.623993
974.047974,-124.928001,230.335999
974.047974,-121.024002,232.287994
972.096008,-121.024002,234.240005
970.143982,-126.879997,242.048004
972.096008,-124.928001,247.904007
977.952026,-138.591995,230.335999
974.047974,-128.832001,236.192001
977.952026,-130.783997,244.000000
972.096008,-126.879997,238.143997
970.143982,-132.735992,242.048004
968.192017,-140.544006,244.000000
974.047974,-132.735992,238.143997
972.096008,-126.879997,247.904007
976.000000,-134.688004,230.335999
970.143982,-130.783997,230.335999
972.096008,-134.688004,244.000000
974.047974,-132.735992,238.143997
966.239990,-138.591995,234.240005
968.192017,-128.832001,230.335999
964.288025,-136.639999,234.240005
964.288025,-132.735992,234.240005
960.383972,-132.735992,245.951996
956.479980,-132.735992,234.240005
964.288025,-138.591995,230.335999
966.239990,-130.783997,240.095993
962.335999,-124.928001,234.240005
968.192017,-130.783997,228.384003
954.528015,-134.688004,244.000000
956.479980,-136.639999,232.287994
952.575989,-134.688004,228.384003
962.335999,-132.735992,234.240005
952.575989,-144.447998,230.335999
944.768005,-134.688004,234.240005
958.432007,-134.688004,226.432007
956.479980,-144.447998,236.192001
950.624023,-140.544006,232.287994
950.624023,-134.688004,226.432007
952.575989,-148.352005,228.384003
950.624023,-134.688004,226.432007
944.768005,-134.688004,226.432007
956.479980,-134.688004,226.432007
952.575989,-146.399994,230.335999
944.768005,-140.544006,232.287994
952.575989,-150.304001,230.335999
958.432007,-148.352005,232.287994
950.624023,-152.255997,226.432007
948.671997,-148.352005,218.623993
962.335999,-148.352005,230.335999
