ACC_X,ACC_Y,ACC_Z,Time
-476.165771,539.703369,750.549316,0.000057
-471.496582,535.308838,736.816406,0.000801
-475.982666,525.421143,722.534180,0.001540
-484.039307,523.132324,716.125488,0.002279
-486.877441,516.632080,704.498291,0.003021
-480.834961,514.984131,697.082520,0.003761
-477.996826,507.293701,691.131592,0.004500
-473.327637,503.356934,685.913086,0.005237
-463.348389,502.441406,687.469482,0.005973
-453.826904,506.927490,697.357178,0.006710
-448.608398,507.934570,695.617676,0.007445
-449.707031,503.631592,696.624756,0.008189
-455.291748,507.110596,703.582764,0.008930
-457.489014,508.392334,710.083008,0.009669
-464.813232,502.716064,704.681396,0.010412
-465.454102,507.568359,723.724365,0.011152
-458.862305,507.202148,721.527100,0.011891
-464.721680,509.857178,718.139648,0.012629
-465.820312,518.005371,729.766846,0.013371
-452.728271,527.709961,725.921631,0.014110
-452.636719,505.554199,730.133057,0.014849
-447.052002,510.864258,724.731445,0.015588
-440.460205,515.075684,720.703125,0.016324
-442.382812,508.026123,710.723877,0.017060
-450.622559,508.575439,702.667236,0.017796
-441.925049,511.047363,703.582764,0.018539
-447.235107,507.934570,698.913574,0.019277
-440.460205,508.666992,695.892334,0.020015
-446.685791,513.702393,702.484131,0.020753
-426.269531,527.252197,707.244873,0.021494
-439.544678,528.350830,713.470459,0.022232
-452.087402,522.766113,721.435547,0.022971
-449.798584,529.266357,729.217529,0.023712
-450.714111,534.393311,734.710693,0.024449
-453.735352,539.978027,742.767334,0.025187
-455.108643,537.689209,740.661621,0.025925
-454.559326,542.175293,744.964600,0.026665
-450.164795,547.576904,743.682861,0.027403
-446.685791,543.182373,738.647461,0.028141
-435.333252,544.464111,738.647461,0.028879
-463.623047,544.097900,739.288330,0.029617
-437.988281,562.408447,738.647461,0.030355
-426.269531,542.999268,722.991943,0.031093
-418.853760,549.865723,726.196289,0.031833
-425.903320,551.971436,737.823486,0.032571
-434.051514,551.696777,729.949951,0.033309
-432.952881,550.872803,735.809326,0.034047
-442.199707,548.126221,739.196777,0.034785
-455.841064,559.112549,737.274170,0.035523
-460.144043,561.035156,738.739014,0.036261
-468.292236,560.668945,750.183105,0.037001
-464.904785,556.823730,742.675781,0.037739
-461.425781,562.133789,740.570068,0.038477
-462.524414,561.950684,739.288330,0.039215
-462.799072,559.112549,732.879639,0.039954
-452.911377,554.260254,741.577148,0.040692
-446.502686,553.985596,727.569580,0.041430
-439.727783,554.351807,736.816406,0.042172
-437.255859,546.844482,731.597900,0.042909
-444.305420,543.457031,731.414795,0.043647
-441.558838,539.154053,726.104736,0.044385
-455.200195,540.435791,726.837158,0.045123
-468.841553,540.435791,732.513428,0.045860
-471.038818,541.168213,730.773926,0.046598
-476.257324,533.752441,739.105225,0.047339
-469.848633,530.914307,732.513428,0.048077
-458.587646,535.858154,748.443604,0.048815
-455.566406,540.069580,742.584229,0.049553
-449.798584,537.506104,743.316650,0.050294
-451.263428,543.182373,745.513916,0.051032
-448.516846,535.491943,738.006592,0.051770
-442.382812,528.259277,738.830566,0.052510
-449.707031,533.752441,733.245850,0.053247
-457.305908,529.541016,728.393555,0.053984
-460.784912,532.653809,718.872070,0.054722
-463.623047,532.012939,717.956543,0.055462
-462.890625,524.597168,716.766357,0.056200
-455.932617,527.343750,721.710205,0.056937
-453.735352,531.463623,729.583740,0.057676
-442.840576,533.752441,727.386475,0.058414
-440.002441,533.294678,733.062744,0.059152
-445.678711,533.111572,742.858887,0.059890
-424.072266,546.478271,745.513916,0.060631
-418.304443,554.718018,762.268066,0.061369
-408.966064,541.900635,765.655518,0.062107
-443.115234,527.526855,778.747559,0.062844
-453.918457,524.505615,775.451660,0.063582
-481.201172,558.654785,783.874512,0.064319
-510.498047,548.126221,775.360107,0.065056
-500.244141,548.858643,770.965576,0.065798
-511.596680,544.281006,759.979248,0.066537
-487.701416,543.090820,754.943848,0.067275
-493.286133,532.287598,739.746094,0.068012
-474.243164,526.885986,722.625732,0.068750
-469.390869,502.807617,716.674805,0.069489
-443.756104,497.222900,713.745117,0.070272
-420.043945,496.582031,704.315186,0.071015
-405.761719,496.856689,686.004639,0.071752
-403.198242,490.997314,692.779541,0.072490
-404.113770,481.842041,693.969727,0.073228
-417.755127,483.489990,694.885254,0.073966
-445.678711,477.722168,691.314697,0.074703
-456.390381,488.800049,692.687988,0.075440
-461.700439,477.630615,707.153320,0.076180
-469.024658,474.151611,716.217041,0.076918
-470.672607,473.785400,735.992432,0.077656
-469.757080,491.729736,744.323730,0.078394
-468.292236,507.385254,749.725342,0.079132
-465.270996,511.047363,764.465332,0.079869
-462.890625,506.103516,758.148193,0.080607
-470.306396,504.913330,748.809814,0.081349
-473.785400,508.209229,743.133545,0.082087
-493.560791,496.307373,721.527100,0.082825
-489.990234,488.800049,703.765869,0.083562
-482.757568,479.919434,687.194824,0.084302
-483.764648,483.306885,679.504395,0.085040
-459.320068,489.349365,671.905518,0.085778
-437.255859,479.919434,692.138672,0.086518
-426.727295,484.588623,682.067871,0.087257
-420.867920,489.166260,686.828613,0.087996
-443.389893,481.292725,693.328857,0.088735
-441.833496,489.166260,705.596924,0.089474
-450.164795,490.173340,719.696045,0.090212
-468.292236,497.772217,730.407715,0.090950
-484.863281,491.729736,744.232178,0.091688
-501.892090,496.582031,749.542236,0.092426
-499.694824,507.202148,766.204834,0.093164
-500.610352,513.977051,775.909424,0.093902
-498.138428,517.547607,773.895264,0.094642
-492.553711,516.723633,766.754150,0.095379
-483.673096,523.040771,759.155273,0.096117
-489.624023,516.906738,744.140625,0.096855
-493.194580,504.730225,725.372314,0.097593
-491.729736,511.230469,714.202881,0.098331
-473.327637,495.941162,702.941895,0.099069
-466.278076,506.378174,689.758301,0.099810
-464.080811,495.025635,686.187744,0.100548
-459.411621,494.659424,684.448242,0.101287
-455.474854,493.927002,681.884766,0.102025
-462.249756,497.772217,686.096191,0.102765
-471.221924,494.384766,696.624756,0.103503
-478.546143,497.131348,710.083008,0.104241
-479.278564,495.025635,727.661133,0.104980
-482.757568,496.765137,733.612061,0.105716
-487.335205,495.574951,748.992920,0.106450
-479.095459,505.187988,771.148682,0.107185
-472.961426,515.441895,746.704102,0.107921
-464.538574,507.476807,749.633789,0.108656
-465.637207,505.737305,741.394043,0.109391
-464.813232,511.413574,742.584229,0.110128
-465.362549,519.287109,739.471436,0.110863
-458.587646,508.117676,725.189209,0.111597
-463.623047,512.420654,717.498779,0.112331
-455.383301,507.751465,724.639893,0.113067
-456.481934,506.744385,714.569092,0.113803
-455.108643,506.469727,707.153320,0.114537
-446.044922,508.483887,705.596924,0.115275
-441.375732,514.892578,722.442627,0.116009
-451.721191,506.378174,726.928711,0.116744
-448.516846,510.589600,737.457275,0.117478
-449.523926,512.786865,743.316650,0.118231
-455.566406,503.448486,744.323730,0.118966
-457.031250,508.666992,752.746582,0.119698
-460.418701,507.019043,757.415771,0.120431
-464.263916,505.645752,760.894775,0.121168
-460.418701,505.004883,751.098633,0.121899
-455.017090,501.251221,734.161377,0.122630
-446.868896,496.582031,747.070312,0.123382
-452.362061,492.004395,739.105225,0.124130
-451.721191,487.060547,738.189697,0.124868
-445.587158,492.279053,723.815918,0.125607
-440.643311,486.053467,724.822998,0.126347
-441.192627,483.947754,716.857910,0.127085
-444.580078,485.961914,716.949463,0.127821
-441.284180,486.145020,719.421387,0.128565
-444.488525,483.489990,725.738525,0.129304
-442.840576,485.229492,730.041504,0.130044
-450.714111,485.504150,734.802246,0.130782
-451.354980,486.236572,742.309570,0.131524
-454.101562,486.511230,738.555908,0.132259
-457.946777,482.391357,742.492676,0.132994
-457.305908,489.807129,741.851807,0.133749
-460.144043,485.229492,747.344971,0.134489
-461.975098,484.313965,747.894287,0.135228
-462.890625,479.095459,746.429443,0.135967
-464.904785,479.187012,747.253418,0.136706
-463.165283,477.813721,745.697021,0.137446
-464.355469,471.862793,746.337891,0.138185
-463.531494,475.708008,737.365723,0.138923
-469.757080,474.975586,729.217529,0.139659
-469.940186,474.700928,719.879150,0.140419
-466.461182,467.376709,723.175049,0.141152
-470.031738,468.933105,720.886230,0.141892
-471.954346,469.024658,717.224121,0.142626
-470.397949,468.017578,714.202881,0.143360
-471.496582,467.651367,718.872070,0.144095
-478.546143,462.249756,720.520020,0.144830
-478.912354,464.721680,718.322754,0.145565
-476.806641,459.777832,725.830078,0.146299
-487.884521,457.763672,729.309082,0.147037
-481.933594,451.263428,721.893311,0.147771
-486.328125,452.362061,715.667725,0.148504
-481.475830,449.157715,720.336914,0.149247
-484.680176,452.178955,719.238281,0.149987
-470.581055,455.657959,719.329834,0.150725
-467.742920,445.404053,720.520020,0.151461
-466.278076,449.249268,721.710205,0.152206
-470.397949,451.354980,714.752197,0.152945
-473.144531,449.890137,715.301514,0.153685
-465.362549,437.988281,709.167480,0.154423
-469.299316,447.418213,719.879150,0.155163
-473.052979,443.572998,709.350586,0.155903
-477.172852,437.530518,708.068848,0.156641
-463.714600,441.192627,714.843750,0.157383
-462.524414,439.361572,712.554932,0.158124
-469.207764,443.389893,713.562012,0.158864
-466.369629,442.932129,716.400146,0.159603
-460.601807,445.495605,719.329834,0.160340
-468.109131,443.939209,723.083496,0.161078
-458.862305,448.699951,727.844238,0.161816
-465.820312,447.967529,730.499268,0.162557
-462.615967,450.714111,733.062744,0.163295
-463.256836,447.784424,728.027344,0.164033
-464.721680,452.087402,726.745605,0.164770
-457.946777,451.721191,727.478027,0.165519
-461.242676,459.411621,740.386963,0.166258
-458.770752,457.397461,735.992432,0.167000
-461.425781,458.038330,736.175537,0.167746
-457.580566,450.897217,739.379883,0.168485
-457.946777,462.707520,732.330322,0.169224
-449.615479,461.700439,737.731934,0.169963
-442.108154,471.679688,739.471436,0.170705
-431.304932,463.256836,738.555908,0.171445
-422.607422,463.714600,726.470947,0.172182
-412.078857,457.855225,734.985352,0.172927
-402.740479,478.179932,740.112305,0.173666
-389.923096,481.018066,753.479004,0.174406
-372.436523,473.785400,766.113281,0.175145
-382.598877,469.024658,769.042969,0.175885
-404.571533,482.025146,774.444580,0.176621
-436.248779,477.996826,776.733398,0.177356
-449.249268,476.440430,772.430420,0.178095
-451.446533,480.834961,763.092041,0.178831
-460.601807,480.743408,758.056641,0.179566
-446.960449,470.764160,752.014160,0.180303
-457.397461,470.214844,740.936279,0.181045
-445.037842,463.531494,728.851318,0.181782
-426.818848,458.862305,714.660645,0.182518
-405.578613,446.136475,712.921143,0.183255
-372.985840,447.509766,709.075928,0.183992
-362.823486,441.833496,710.174561,0.184729
-355.224609,443.756104,708.984375,0.185464
-355.041504,467.468262,707.977295,0.186207
-373.168945,459.228516,714.935303,0.186946
-400.451660,443.115234,720.794678,0.187684
-433.410645,443.481445,731.414795,0.188428
-450.622559,444.122314,737.548828,0.189182
-459.136963,457.763672,743.041992,0.189921
-458.221436,454.376221,764.923096,0.190656
-440.734863,463.989258,779.937744,0.191401
-428.466797,461.608887,787.719727,0.192170
-404.388428,460.235596,797.058105,0.192913
-389.465332,470.672607,790.649414,0.193653
-390.289307,471.954346,780.578613,0.194388
-395.141602,462.890625,765.014648,0.195125
-403.015137,460.693359,757.598877,0.195860
-424.072266,429.382324,743.316650,0.196602
-439.910889,445.495605,712.005615,0.197338
-448.883057,435.150146,720.520020,0.198074
-456.848145,438.262939,714.935303,0.198810
-457.214355,449.890137,712.097168,0.199550
-445.312500,450.164795,707.336426,0.200287
-441.101074,449.340820,708.251953,0.201023
-438.171387,445.404053,711.090088,0.201764
-443.023682,455.383301,718.231201,0.202499
-448.333740,456.481934,710.449219,0.203235
-481.475830,456.573486,698.638916,0.203971
-485.687256,461.334229,691.040039,0.204707
-506.103516,461.425781,692.596436,0.205443
-514.160156,461.059570,687.011719,0.206179
-523.590088,465.637207,699.920654,0.206918
-525.787354,462.432861,702.026367,0.207654
-518.920898,468.750000,715.850830,0.208390
-512.786865,471.496582,726.654053,0.209125
-494.659424,479.370117,732.055664,0.209863
-481.750488,477.905273,737.274170,0.210600
-478.363037,480.743408,739.562988,0.211369
-476.623535,477.447510,748.077393,0.212108
-475.891113,480.102539,753.295898,0.212844
-483.947754,482.116699,756.958008,0.213580
-499.877930,480.651855,753.204346,0.214315
-508.575439,466.918945,746.429443,0.215054
-510.040283,455.108643,738.098145,0.215790
-511.688232,453.735352,732.788086,0.216525
-503.082275,458.679199,732.879639,0.217261
-487.243652,457.580566,726.654053,0.217996
-482.116699,447.967529,725.097656,0.218732
-475.982666,439.727783,712.463379,0.219468
-471.954346,440.734863,701.202393,0.220220
-483.673096,456.756592,704.406738,0.220957
-493.927002,445.037842,699.737549,0.221692
-499.511719,437.622070,682.434082,0.222443
-496.124268,435.974121,685.913086,0.223186
-503.265381,432.128906,671.905518,0.223931
-504.180908,418.487549,680.328369,0.224670
-491.729736,412.811279,675.750732,0.225417
-486.968994,414.550781,676.666260,0.226162
-469.207764,427.368164,685.180664,0.226901
-451.629639,432.586670,701.568604,0.227640
-437.072754,434.326172,714.111328,0.228391
-438.995361,438.171387,716.125488,0.229131
-445.495605,434.783936,720.428467,0.229869
-461.242676,434.783936,719.970703,0.230612
-480.560303,438.079834,728.485107,0.231350
-492.187500,440.460205,727.203369,0.232089
-498.229980,439.453125,727.935791,0.232827
-509.490967,435.150146,723.632812,0.233568
-506.469727,442.108154,723.907471,0.234311
-498.138428,441.558838,727.386475,0.235047
-475.524902,440.460205,705.230713,0.235792
-463.531494,447.784424,717.956543,0.236531
-454.376221,434.509277,718.872070,0.237270
-456.756592,432.037354,716.674805,0.238008
-461.334229,433.776855,707.702637,0.238745
-478.271484,435.607910,703.857422,0.239480
-485.046387,428.100586,693.603516,0.240216
-494.201660,438.537598,690.582275,0.240957
-500.518799,446.319580,695.709229,0.241695
-500.610352,446.319580,701.934814,0.242433
-496.948242,449.981689,710.906982,0.243171
-494.567871,455.108643,724.273682,0.243919
-479.736328,458.587646,733.245850,0.244658
-480.010986,457.031250,738.189697,0.245396
-480.651855,454.559326,755.401611,0.246138
-476.348877,464.263916,752.197266,0.246876
-478.729248,462.890625,751.831055,0.247613
-495.758057,461.700439,751.190186,0.248351
-500.244141,465.820312,747.985840,0.249092
-512.512207,460.784912,738.098145,0.249831
-515.625000,454.559326,730.773926,0.250569
-536.773682,455.932617,718.688965,0.251310
-515.716553,452.453613,716.583252,0.252047
-511.047363,447.967529,711.364746,0.252792
-504.180908,442.657471,713.562012,0.253531
-495.208740,448.425293,705.596924,0.254271
-482.574463,450.531006,709.350586,0.255010
-493.743896,448.333740,703.033447,0.255748
-491.821289,444.213867,710.174561,0.256486
-496.215820,446.868896,707.977295,0.257224
-511.138916,439.086914,710.357666,0.257962
-524.505615,447.692871,709.075928,0.258700
-523.223877,444.946289,718.780518,0.259441
-521.942139,445.861816,728.118896,0.260179
-515.075684,446.411133,731.781006,0.260917
-510.955811,452.453613,733.062744,0.261655
-509.399414,454.284668,736.999512,0.262394
-504.913330,451.080322,737.548828,0.263133
-505.737305,457.214355,733.795166,0.263871
-506.561279,455.017090,728.759766,0.264613
-504.638672,455.657959,728.118896,0.265350
-503.448486,451.263428,748.992920,0.266088
-517.272949,462.799072,728.851318,0.266826
-517.913818,459.686279,727.111816,0.267564
-522.308350,453.277588,721.618652,0.268301
-518.829346,463.714600,727.203369,0.269039
-520.385742,471.221924,729.309082,0.269780
-526.794434,456.665039,737.091064,0.270518
-525.238037,460.418701,735.351562,0.271256
-522.308350,464.721680,733.337402,0.271995
-526.885986,462.432861,737.731934,0.272733
-525.787354,491.729736,734.619141,0.273471
-525.604248,477.264404,750.274658,0.274208
-529.541016,473.693848,743.041992,0.274948
-528.167725,483.123779,754.211426,0.275686
-538.146973,475.799561,749.725342,0.276427
-530.731201,482.482910,760.620117,0.277168
-537.414551,485.961914,755.859375,0.277915
-535.125732,489.532471,756.683350,0.278654
-535.400391,493.560791,749.084473,0.279392
-538.787842,486.145020,755.126953,0.280134
-541.900635,493.743896,756.683350,0.280873
-541.625977,487.976074,749.176025,0.281643
-545.562744,511.596680,750.457764,0.282382
-541.168213,491.271973,744.781494,0.283124
-540.344238,486.785889,751.464844,0.283862
-541.809082,478.454590,751.739502,0.284600
-545.379639,486.785889,751.281738,0.285340
-549.499512,475.708008,737.731934,0.286079
-544.006348,478.363037,732.879639,0.286817
-551.605225,471.771240,727.294922,0.287556
-536.041260,473.693848,726.104736,0.288297
-531.188965,472.229004,724.731445,0.289039
-533.294678,476.348877,726.837158,0.289781
-535.125732,478.363037,719.329834,0.290519
-527.984619,477.081299,719.970703,0.291253
-527.984619,478.271484,720.703125,0.291987
-529.724121,475.708008,725.921631,0.292728
-527.984619,476.165771,720.245361,0.293477
-522.033691,483.764648,728.759766,0.294213
-521.392822,483.581543,739.288330,0.294949
-520.751953,491.638184,736.175537,0.295684
-525.878906,484.863281,741.119385,0.296419
-526.245117,486.511230,749.359131,0.297154
-519.470215,485.778809,748.535156,0.297888
-517.730713,487.335205,752.929688,0.298625
-524.597168,478.088379,748.992920,0.299361
-512.878418,481.109619,744.049072,0.300098
-516.174316,481.933594,739.654541,0.300833
-517.364502,477.264404,734.344482,0.301567
-522.857666,473.785400,732.055664,0.302302
-510.406494,471.496582,726.379395,0.303037
-505.554199,474.151611,704.772949,0.303775
-498.504639,481.292725,732.788086,0.304510
-509.399414,476.257324,728.485107,0.305244
-500.152588,466.369629,716.583252,0.305979
-502.441406,475.433350,722.991943,0.306716
-502.990723,471.588135,728.942871,0.307451
-506.378174,468.200684,726.654053,0.308186
-508.941650,472.595215,735.351562,0.308937
-504.180908,466.918945,734.436035,0.309675
-506.286621,471.679688,739.746094,0.310410
-511.871338,476.989746,741.027832,0.311146
-506.378174,475.982666,741.027832,0.311897
-501.800537,474.884033,747.619629,0.312634
-511.688232,467.651367,743.133545,0.313371
-505.004883,468.841553,742.858887,0.314112
-500.152588,464.630127,741.760254,0.314849
-515.441895,459.045410,739.654541,0.315583
-507.934570,464.080811,740.020752,0.316318
-506.744385,453.369141,729.125977,0.317057
-507.568359,468.109131,733.428955,0.317792
-510.589600,458.587646,740.112305,0.318526
-502.716064,459.960938,740.020752,0.319260
-508.850098,457.214355,731.597900,0.320007
-503.723145,447.692871,730.316162,0.320745
-502.624512,449.890137,728.759766,0.321481
-497.497559,440.185547,722.625732,0.322225
-500.152588,441.467285,723.358154,0.322960
-501.342773,441.101074,715.393066,0.323695
-500.244141,440.551758,712.280273,0.324431
-506.286621,436.431885,711.547852,0.325167
-506.378174,433.868408,711.914062,0.325903
-508.941650,435.333252,704.040527,0.326638
-502.075195,434.509277,700.836182,0.327377
-512.603760,437.072754,710.632324,0.328113
-505.737305,427.368164,680.053711,0.328849
-502.716064,431.854248,705.139160,0.329584
-497.497559,429.931641,699.920654,0.330320
-502.899170,437.255859,699.645996,0.331055
-505.462646,435.516357,709.259033,0.331790
-495.117188,434.875488,712.280273,0.332528
-500.335693,429.473877,709.259033,0.333264
-496.398926,438.812256,714.569092,0.333999
-491.912842,446.594238,722.717285,0.334736
-493.286133,448.333740,720.062256,0.335480
-500.427246,465.179443,721.343994,0.336218
-500.976562,445.220947,724.639893,0.336956
-501.800537,455.841064,728.942871,0.337695
-492.095947,450.256348,728.210449,0.338433
-494.659424,454.650879,721.710205,0.339171
-495.574951,450.347900,717.041016,0.339909
-497.772217,455.383301,721.618652,0.340649
-493.103027,452.178955,722.351074,0.341388
-495.208740,447.052002,722.534180,0.342125
-495.849609,449.066162,716.857910,0.342864
-493.835449,444.396973,719.604492,0.343601
-499.694824,465.270996,711.822510,0.344339
-498.229980,457.397461,719.146729,0.345077
-504.730225,450.347900,714.843750,0.345817
-505.462646,455.200195,715.026855,0.346555
-498.779297,452.911377,702.301025,0.347293
-499.420166,446.960449,718.139648,0.348031
-500.885010,448.333740,714.569092,0.348769
-493.743896,449.890137,717.224121,0.349507
-492.645264,450.256348,716.400146,0.350245
-491.180420,456.024170,716.217041,0.350985
-495.758057,457.031250,726.562500,0.351761
-495.758057,460.601807,724.731445,0.352499
-496.673584,464.080811,723.358154,0.353237
-504.547119,466.278076,748.718262,0.353975
-499.053955,501.525879,723.266602,0.354713
-504.913330,527.435303,733.520508,0.355451
-521.118164,481.201172,770.965576,0.356192
-525.054932,462.066650,796.417236,0.356931
-529.083252,465.911865,795.501709,0.357670
-495.574951,484.588623,832.763672,0.358409
-478.637695,506.195068,818.756104,0.359146
-465.820312,503.723145,815.917969,0.359883
-491.546631,491.821289,795.043945,0.360622
-492.736816,478.637695,762.176514,0.361363
-517.639160,467.376709,733.978271,0.362109
-541.168213,442.657471,714.202881,0.362850
-539.062500,428.283691,694.061279,0.363593
-519.378662,438.629150,678.131104,0.364333
-494.567871,448.150635,666.778564,0.365073
-488.525391,444.213867,667.236328,0.365812
-461.883545,442.840576,670.257568,0.366557
-465.728760,447.692871,671.081543,0.367299
-468.933105,438.995361,682.067871,0.368046
-476.898193,438.354492,681.518555,0.368787
-491.455078,447.784424,692.413330,0.369531
-496.673584,450.164795,709.259033,0.370269
-508.209229,452.545166,726.104736,0.371007
-516.815186,464.904785,756.317139,0.371748
-523.132324,464.080811,754.760742,0.372486
-514.984131,469.757080,781.311035,0.373225
-505.096436,469.207764,787.811279,0.373963
-498.229980,471.221924,785.064697,0.374704
-481.933594,472.961426,783.325195,0.375444
-479.003906,462.799072,782.135010,0.376183
-462.524414,457.305908,763.092041,0.376922
-462.158203,461.151123,743.682861,0.377661
-467.010498,455.383301,735.626221,0.378400
-470.672607,432.861328,727.020264,0.379138
-479.919434,446.502686,717.315674,0.379879
-473.693848,446.044922,718.505859,0.380618
-473.510742,444.030762,710.998535,0.381356
-467.926025,441.375732,722.076416,0.382095
-491.180420,440.826416,730.682373,0.382833
-474.792480,437.438965,737.091064,0.383572
-477.081299,446.777344,733.428955,0.384310
-473.785400,449.615479,737.365723,0.385053
-481.933594,444.946289,738.647461,0.385791
-479.919434,447.967529,740.661621,0.386529
-483.581543,459.136963,741.577148,0.387269
-486.053467,456.481934,732.238770,0.388008
-491.638184,450.347900,740.936279,0.388746
-493.743896,452.453613,728.576660,0.389485
-491.271973,447.784424,734.344482,0.390225
-481.201172,452.270508,730.316162,0.390963
-486.602783,449.615479,725.830078,0.391701
-478.363037,452.270508,720.245361,0.392438
-478.271484,450.714111,719.604492,0.393174
-473.236084,455.291748,717.041016,0.393909
-477.905273,456.024170,719.879150,0.394644
-483.306885,464.355469,720.336914,0.395382
-490.905762,461.059570,729.766846,0.396117
-500.701904,456.848145,734.893799,0.396852
-503.814697,450.622559,739.288330,0.397587
-503.997803,461.791992,750.915527,0.398325
-509.582520,460.052490,754.852295,0.399060
-517.822266,481.018066,752.655029,0.399795
-512.420654,469.207764,743.865967,0.400530
-498.687744,461.700439,744.049072,0.401265
-506.561279,475.341797,740.386963,0.401999
-504.913330,465.637207,749.450684,0.402734
-498.962402,464.538574,734.252930,0.403473
-506.744385,462.890625,740.661621,0.404209
-503.906250,470.672607,728.851318,0.404944
-506.652832,475.799561,735.626221,0.405679
-510.314941,466.918945,733.886719,0.406414
-513.427734,464.904785,732.147217,0.407149
-513.519287,465.179443,736.541748,0.407883
-510.681152,465.454102,733.337402,0.408621
-510.131836,471.496582,731.231689,0.409356
-507.019043,469.940186,738.922119,0.410091
-510.772705,473.785400,737.182617,0.410826
-522.491455,474.700928,743.316650,0.411560
-516.723633,471.771240,743.682861,0.412295
-517.272949,472.686768,741.851807,0.413030
-521.118164,474.700928,747.344971,0.413783
-518.188477,470.855713,740.112305,0.414523
-518.737793,447.418213,741.851807,0.415261
-519.653320,467.742920,739.562988,0.415999
-510.498047,462.249756,739.746094,0.416740
-507.476807,465.087891,739.562988,0.417479
-502.990723,460.510254,738.922119,0.418217
-502.441406,457.214355,734.344482,0.418959
-506.561279,455.657959,735.443115,0.419696
-508.758545,452.636719,719.879150,0.420435
-509.399414,456.207275,729.675293,0.421173
-511.688232,448.333740,728.302002,0.421914
-507.843018,452.453613,724.365234,0.422685
-510.131836,452.178955,723.266602,0.423424
-499.237061,456.848145,727.935791,0.424161
-506.011963,442.382812,747.161865,0.424898
-499.969482,457.122803,728.118896,0.425644
-494.293213,445.770264,721.527100,0.426383
-496.856689,437.896729,719.604492,0.427126
-497.589111,440.734863,715.759277,0.427864
-496.582031,440.826416,713.195801,0.428603
-502.441406,428.009033,711.456299,0.429342
-504.547119,434.143066,710.723877,0.430080
-506.927490,429.382324,709.716797,0.430819
-492.279053,431.671143,709.991455,0.431557
-490.905762,431.762695,713.104248,0.432297
-495.758057,441.192627,719.879150,0.433040
-494.842529,440.185547,715.209961,0.433780
-494.750977,436.065674,713.012695,0.434517
-489.257812,444.213867,719.421387,0.435253
-493.011475,447.601318,719.696045,0.435988
-502.716064,445.404053,721.618652,0.436723
-497.131348,444.854736,716.583252,0.437461
-489.624023,447.052002,719.970703,0.438196
-494.201660,448.974609,727.844238,0.438930
-498.870850,451.629639,727.752686,0.439665
-499.603271,450.347900,727.935791,0.440402
-496.856689,453.277588,733.612061,0.441139
-497.680664,454.101562,737.182617,0.441874
-500.335693,455.932617,736.724854,0.442614
-504.272461,459.503174,739.837646,0.443348
-503.540039,454.467773,736.358643,0.444084
-505.920410,459.320068,730.499268,0.444818
-503.448486,461.242676,730.499268,0.445556
-508.850098,456.848145,734.344482,0.446292
-507.476807,453.918457,730.316162,0.447026
-504.547119,457.946777,728.851318,0.447761
-504.455566,460.784912,727.020264,0.448496
-500.335693,455.291748,733.886719,0.449231
-505.645752,451.904297,726.562500,0.449966
-508.209229,458.221436,732.147217,0.450702
-505.004883,450.805664,731.781006,0.451450
-503.723145,457.855225,739.929199,0.452188
-499.145508,456.115723,742.675781,0.452924
-496.124268,453.552246,742.675781,0.453660
-488.067627,453.826904,738.006592,0.454396
-473.236084,472.778320,746.246338,0.455140
-475.341797,460.876465,758.972168,0.455883
-489.074707,453.552246,764.282227,0.456618
-505.554199,450.714111,766.754150,0.457354
-510.955811,459.869385,752.105713,0.458089
-535.949707,466.278076,744.873047,0.458825
-522.949219,472.595215,747.711182,0.459561
-529.266357,459.320068,741.668701,0.460296
-525.512695,452.087402,734.344482,0.461034
-518.188477,453.643799,725.555420,0.461770
-509.674072,442.016602,722.076416,0.462505
-496.307373,442.291260,723.724365,0.463241
-479.736328,449.066162,720.062256,0.463977
-453.918457,457.672119,726.104736,0.464713
-452.453613,461.242676,730.499268,0.465448
-446.228027,461.242676,740.844727,0.466190
-463.897705,455.749512,737.182617,0.466929
-483.123779,456.390381,742.492676,0.467667
-499.053955,457.672119,745.056152,0.468406
-530.456543,458.221436,759.063721,0.469145
-525.238037,462.249756,765.289307,0.469883
-527.709961,468.750000,765.747070,0.470620
-511.688232,471.862793,770.690918,0.471361
-498.687744,477.264404,778.015137,0.472099
-481.842041,471.405029,789.459229,0.472838
-445.495605,478.546143,785.064697,0.473576
-463.073730,473.602295,776.092529,0.474317
-469.116211,470.123291,767.761230,0.475055
-472.045898,470.581055,760.070801,0.475793
-473.510742,461.151123,741.485596,0.476534
-489.624023,467.102051,731.140137,0.477272
-498.229980,466.186523,726.654053,0.478010
-499.053955,472.045898,728.210449,0.478749
-498.962402,470.031738,735.992432,0.479489
-492.279053,479.187012,736.175537,0.480228
-478.637695,478.179932,749.359131,0.480966
-477.722168,474.700928,763.732910,0.481705
-466.735840,475.799561,772.521973,0.482444
-464.813232,467.102051,776.184082,0.483182
-465.270996,470.855713,776.458740,0.483921
-470.123291,475.067139,781.036377,0.484661
-482.666016,463.623047,768.585205,0.485400
-514.251709,470.123291,765.930176,0.486138
-491.821289,467.468262,747.528076,0.486875
-494.934082,454.101562,737.182617,0.487614
-486.053467,467.010498,740.570068,0.488352
-475.982666,460.510254,735.809326,0.489090
-467.834473,456.481934,730.499268,0.489832
-457.489014,465.087891,740.936279,0.490570
-446.777344,458.312988,743.865967,0.491308
-442.932129,457.580566,740.386963,0.492046
-450.439453,453.918457,741.302490,0.492811
-463.439941,458.312988,744.140625,0.493546
-472.320557,456.848145,756.408691,0.494280
-478.363037,456.848145,751.464844,0.495019
-486.785889,457.489014,754.119873,0.495753
-483.673096,455.657959,759.887695,0.496488
-480.743408,455.566406,761.169434,0.497223
-476.257324,455.108643,772.979736,0.497966
-470.947266,453.643799,770.141602,0.498703
-460.052490,451.080322,761.352539,0.499437
-462.799072,454.010010,760.345459,0.500175
-454.650879,440.460205,759.155273,0.500910
-455.291748,432.220459,742.034912,0.501644
-456.848145,430.938721,740.295410,0.502380
-465.911865,433.502197,734.252930,0.503116
-457.489014,424.804688,731.140137,0.503850
-462.066650,428.192139,728.851318,0.504590
-457.946777,427.185059,735.717773,0.505328
-453.918457,430.938721,743.316650,0.506063
-458.770752,424.804688,751.922607,0.506798
-469.207764,419.311523,755.584717,0.507534
-482.757568,416.198730,752.014160,0.508289
-488.525391,424.072266,751.281738,0.509046
-499.420166,419.860840,744.049072,0.509799
-496.307373,418.487549,743.591309,0.510548
-506.561279,406.219482,725.097656,0.511285
-507.751465,404.754639,714.111328,0.512018
-502.441406,395.233154,713.104248,0.512754
-503.082275,383.789062,691.314697,0.513490
-498.779297,374.908447,689.117432,0.514225
-476.257324,370.788574,689.300537,0.514959
-466.918945,374.816895,689.758301,0.515699
-454.650879,364.929199,683.990479,0.516434
-473.510742,364.837646,679.504395,0.517170
-478.179932,353.668213,672.454834,0.517905
-479.736328,357.788086,676.757812,0.518643
-492.370605,352.569580,671.539307,0.519378
-506.195068,348.449707,677.856445,0.520113
-504.638672,347.534180,690.765381,0.520853
-497.680664,347.076416,697.448730,0.521589
-496.398926,347.900391,706.512451,0.522325
-486.419678,348.449707,710.083008,0.523061
-483.673096,349.914551,704.315186,0.523806
-475.158691,344.787598,714.111328,0.524541
-481.018066,342.224121,714.752197,0.525290
-484.680176,341.949463,713.012695,0.526030
-495.758057,339.660645,703.216553,0.526770
-496.765137,337.005615,701.019287,0.527508
-498.687744,334.899902,692.230225,0.528247
-505.279541,330.505371,680.053711,0.528992
-507.751465,322.357178,671.447754,0.529730
-505.920410,329.498291,671.997070,0.530469
-498.138428,326.568604,664.215088,0.531209
-497.497559,320.800781,657.257080,0.531948
-483.581543,324.645996,661.834717,0.532686
-484.313965,332.244873,661.468506,0.533425
-481.933594,328.674316,658.447266,0.534169
-476.989746,330.963135,663.574219,0.534907
-479.919434,335.357666,666.961670,0.535646
-491.180420,347.167969,665.222168,0.536385
-498.321533,352.111816,664.215088,0.537124
-501.617432,366.668701,684.631348,0.537863
-501.251221,368.499756,683.349609,0.538602
-493.560791,374.816895,700.286865,0.539344
-505.737305,382.232666,706.695557,0.540083
-501.342773,396.057129,716.857910,0.540822
-499.694824,406.860352,721.527100,0.541561
-472.045898,417.755127,729.400635,0.542303
-490.447998,421.325684,746.246338,0.543042
-486.236572,425.079346,754.119873,0.543780
-482.574463,425.811768,756.774902,0.544521
-490.722656,428.741455,761.077881,0.545260
-485.778809,436.981201,760.345459,0.545998
-489.166260,443.023682,754.211426,0.546737
-479.278564,441.192627,741.394043,0.547478
-477.172852,443.572998,737.365723,0.548218
-473.144531,436.798096,728.485107,0.548957
-472.686768,438.446045,727.661133,0.549698
-460.968018,435.516357,719.512939,0.550437
-456.481934,437.988281,715.301514,0.551177
-449.798584,434.600830,713.928223,0.551915
-446.868896,433.502197,717.498779,0.552656
-444.580078,434.051514,715.850830,0.553395
-436.431885,444.671631,714.111328,0.554134
-464.813232,436.523438,727.386475,0.554873
-443.206787,439.819336,730.773926,0.555613
-449.798584,443.023682,741.577148,0.556352
-453.552246,449.707031,748.535156,0.557091
-452.087402,443.115234,757.507324,0.557832
-462.158203,454.559326,759.429932,0.558572
-464.263916,444.854736,765.380859,0.559311
-457.763672,456.848145,766.937256,0.560049
-449.707031,454.925537,764.190674,0.560788
-446.319580,456.207275,765.838623,0.561528
-443.115234,450.897217,760.986328,0.562267
-462.707520,444.580078,760.620117,0.563049
-454.193115,441.101074,756.683350,0.563788
-483.856201,437.164307,751.098633,0.564526
-462.890625,441.009521,738.006592,0.565266
-475.341797,428.741455,737.274170,0.566004
-481.292725,429.748535,733.795166,0.566743
-474.426270,422.973633,721.527100,0.567481
-475.250244,418.212891,723.999023,0.568223
-473.144531,415.374756,713.287354,0.568962
-472.869873,407.958984,712.097168,0.569701
-471.313477,414.642334,705.871582,0.570440
-464.996338,414.184570,703.216553,0.571172
-472.137451,413.818359,706.420898,0.571905
-471.313477,410.705566,711.181641,0.572638
-488.891602,403.747559,712.738037,0.573379
-489.532471,413.635254,710.632324,0.574128
-485.870361,415.466309,719.055176,0.574870
-489.257812,422.698975,724.731445,0.575606
-476.348877,432.128906,733.520508,0.576341
-479.278564,432.220459,737.640381,0.577078
-484.588623,434.692383,751.556396,0.577813
-472.869873,432.037354,760.711670,0.578554
-469.940186,446.868896,765.106201,0.579290
-474.700928,449.798584,765.380859,0.580024
-476.806641,454.010010,760.528564,0.580759
-484.222412,446.319580,762.817383,0.581497
-493.286133,448.791504,755.676270,0.582232
-491.729736,445.129395,751.739502,0.582967
-495.941162,457.305908,742.584229,0.583705
-490.447998,457.214355,733.703613,0.584440
-485.412598,453.735352,740.112305,0.585176
-486.419678,451.629639,729.217529,0.585912
-478.271484,461.883545,704.864502,0.586649
-481.750488,455.841064,730.590820,0.587382
-471.771240,461.517334,728.759766,0.588115
-474.426270,459.045410,728.851318,0.588848
-481.201172,471.130371,727.294922,0.589583
-475.708008,472.778320,728.942871,0.590318
-482.574463,479.187012,744.873047,0.591053
-490.814209,481.018066,739.105225,0.591807
-487.243652,476.623535,743.408203,0.592546
-483.764648,498.596191,744.873047,0.593281
-488.891602,469.848633,750.366211,0.594016
-485.046387,491.180420,757.781982,0.594752
-479.553223,502.349854,761.077881,0.595495
-473.876953,501.708984,763.000488,0.596232
-476.806641,501.983643,770.233154,0.596972
-478.088379,511.138916,760.162354,0.597707
-480.560303,515.258789,769.683838,0.598443
-469.940186,522.033691,760.437012,0.599178
-473.693848,515.899658,766.662598,0.599914
-478.363037,516.815186,766.204834,0.600647
-479.644775,517.456055,759.979248,0.601383
-483.856201,525.878906,762.542725,0.602128
-486.236572,520.751953,764.831543,0.602862
-483.123779,523.681641,761.993408,0.603603
-477.355957,516.448975,750.457764,0.604340
-478.088379,524.414062,763.824463,0.605096
-475.982666,516.265869,757.324219,0.605836
-472.869873,525.421143,755.584717,0.606574
-472.137451,529.449463,752.563477,0.607312
-480.010986,519.287109,749.359131,0.608049
-476.165771,515.533447,743.682861,0.608788
-477.539062,517.639160,743.957520,0.609525
-484.954834,518.646240,745.971680,0.610269
-487.335205,517.913818,743.591309,0.611007
-483.673096,524.414062,727.203369,0.611749
-482.849121,514.343262,748.626709,0.612489
-482.757568,517.089844,746.154785,0.613228
-478.546143,510.406494,743.957520,0.613970
-485.961914,513.977051,748.626709,0.614710
-476.715088,515.441895,744.964600,0.615451
-461.975098,517.639160,749.633789,0.616198
-460.144043,513.885498,750.091553,0.616937
-473.052979,508.392334,759.155273,0.617675
-489.715576,496.856689,753.570557,0.618412
-495.300293,502.990723,748.901367,0.619149
-504.913330,507.751465,745.056152,0.619893
-515.075684,496.124268,740.112305,0.620635
-519.287109,490.722656,737.457275,0.621373
-512.145996,491.638184,727.661133,0.622112
-509.857178,477.813721,720.245361,0.622849
-496.490479,474.243164,711.914062,0.623585
-485.961914,447.967529,701.660156,0.624324
-484.130859,466.552734,702.301025,0.625062
-468.475342,463.623047,694.793701,0.625804
-462.524414,464.355469,688.476562,0.626541
-466.552734,459.503174,693.237305,0.627279
-473.785400,461.425781,696.624756,0.628016
-479.644775,453.369141,698.913574,0.628753
-490.631104,454.559326,696.624756,0.629490
-501.983643,456.024170,703.399658,0.630231
-507.019043,462.249756,704.864502,0.630973
-499.511719,478.271484,715.942383,0.631719
-496.398926,469.390869,730.865479,0.632457
-481.292725,479.553223,742.584229,0.633239
-468.109131,479.187012,746.978760,0.633984
-464.080811,487.060547,742.034912,0.634724
-456.756592,478.179932,750.000000,0.635462
-457.946777,484.588623,746.795654,0.636204
-452.453613,482.482910,734.710693,0.636942
-468.200684,474.975586,728.576660,0.637678
-472.412109,484.863281,712.646484,0.638413
-475.067139,480.468750,715.026855,0.639145
-477.722168,482.116699,717.224121,0.639877
-473.327637,479.187012,715.942383,0.640616
-456.115723,478.454590,711.456299,0.641362
-454.376221,484.222412,717.041016,0.642101
-436.340332,488.891602,718.505859,0.642839
-432.861328,490.173340,719.055176,0.643578
-433.227539,492.553711,726.104736,0.644318
-444.854736,489.257812,726.745605,0.645072
-445.678711,490.447998,723.815918,0.645818
-449.523926,493.743896,731.964111,0.646563
-461.059570,493.560791,731.048584,0.647303
-468.017578,503.265381,730.590820,0.648044
-475.708008,492.736816,730.133057,0.648785
-467.102051,502.258301,737.915039,0.649528
-464.172363,501.800537,744.873047,0.650267
-457.580566,509.948730,744.598389,0.651007
-453.735352,513.519287,740.661621,0.651749
-451.171875,507.659912,741.577148,0.652488
-453.643799,508.209229,744.598389,0.653227
-455.200195,501.708984,747.619629,0.653966
-461.517334,506.652832,734.802246,0.654708
-470.855713,501.983643,723.907471,0.655447
-475.799561,490.447998,721.618652,0.656186
-478.363037,495.117188,715.576172,0.656925
-474.151611,503.356934,718.322754,0.657664
-474.792480,498.229980,722.351074,0.658403
-472.961426,495.391846,721.343994,0.659142
-465.911865,504.364014,738.006592,0.659884
-460.235596,510.131836,736.267090,0.660623
-453.186035,512.512207,742.401123,0.661361
-454.467773,508.026123,749.542236,0.662102
-463.256836,516.082764,746.520996,0.662841
-471.038818,521.850586,746.612549,0.663580
-477.081299,525.054932,751.007080,0.664319
-492.828369,521.209717,745.788574,0.665062
-496.398926,515.991211,754.852295,0.665802
-493.469238,526.153564,758.331299,0.666541
-488.800049,514.068604,757.598877,0.667281
-488.800049,527.069092,761.627197,0.668020
-487.884521,520.935059,754.302979,0.668760
-495.117188,527.252197,751.190186,0.669499
-485.321045,525.512695,749.084473,0.670241
-491.821289,521.575928,740.112305,0.670981
-492.462158,519.104004,734.527588,0.671719
-490.539551,519.561768,731.414795,0.672460
-503.997803,519.561768,733.703613,0.673196
-505.554199,513.519287,736.267090,0.673932
-517.089844,514.251709,733.795166,0.674665
-514.801025,514.617920,726.837158,0.675403
-504.730225,511.322021,723.999023,0.676137
-509.857178,512.145996,731.506348,0.676872
-502.990723,506.652832,724.090576,0.677607
-503.631592,515.625000,728.118896,0.678345
-499.145508,514.526367,737.274170,0.679080
-492.370605,507.751465,727.661133,0.679815
-497.497559,492.645264,728.118896,0.680552
-494.842529,516.815186,731.689453,0.681286
-493.743896,517.272949,730.773926,0.682020
-494.293213,515.899658,729.034424,0.682755
-497.222900,515.533447,734.527588,0.683492
-487.426758,519.195557,735.626221,0.684227
-493.835449,521.942139,744.964600,0.684962
-495.666504,517.913818,734.527588,0.685697
-487.884521,511.871338,740.203857,0.686431
-472.320557,520.202637,738.098145,0.687166
-484.588623,493.469238,743.041992,0.687900
-483.947754,516.448975,729.492188,0.688638
-478.179932,513.702393,735.992432,0.689373
-479.278564,510.589600,739.288330,0.690108
-477.813721,512.145996,734.069824,0.690843
-471.405029,511.505127,738.555908,0.691577
-475.708008,515.167236,734.802246,0.692312
-482.299805,508.392334,745.239258,0.693047
-473.144531,510.040283,726.196289,0.693802
-469.482422,507.751465,740.753174,0.694554
-465.454102,502.807617,734.252930,0.695291
-462.066650,506.652832,731.231689,0.696025
-461.608887,493.652344,717.681885,0.696764
-462.341309,499.969482,726.654053,0.697499
-457.031250,497.589111,731.140137,0.698233
-459.869385,494.476318,738.647461,0.698970
-461.059570,497.222900,739.654541,0.699705
-455.749512,498.321533,731.689453,0.700440
-460.418701,500.793457,726.928711,0.701175
-455.841064,496.582031,728.118896,0.701912
-454.284668,505.187988,726.928711,0.702645
-453.826904,497.222900,732.604980,0.703380
-447.692871,497.680664,729.766846,0.704145
-448.059082,501.159668,741.577148,0.704880
-444.305420,508.666992,744.232178,0.705615
-448.425293,500.610352,745.422363,0.706350
-443.023682,499.786377,738.555908,0.707087
-443.572998,505.554199,736.724854,0.707822
-448.333740,504.272461,736.267090,0.708557
-442.199707,509.674072,732.788086,0.709291
-434.875488,504.364014,732.604980,0.710028
-435.333252,501.708984,740.478516,0.710766
-437.164307,498.229980,730.499268,0.711501
-440.551758,491.271973,732.513428,0.712239
-441.833496,494.110107,727.661133,0.712972
-435.607910,504.089355,727.569580,0.713717
-437.255859,499.786377,727.386475,0.714455
-431.762695,496.398926,726.104736,0.715193
-432.678223,492.279053,719.879150,0.715929
-436.523438,500.976562,725.372314,0.716670
-440.734863,497.772217,705.596924,0.717413
-433.227539,497.863770,726.196289,0.718149
-441.467285,489.715576,719.696045,0.718886
-451.446533,495.758057,723.358154,0.719622
-449.707031,496.673584,729.034424,0.720362
-452.178955,493.560791,726.654053,0.721098
-451.263428,496.307373,703.674316,0.721836
-447.418213,495.025635,721.618652,0.722580
-454.010010,493.286133,720.794678,0.723319
-456.756592,503.265381,716.217041,0.724058
-459.411621,497.222900,716.033936,0.724797
-456.756592,493.194580,722.534180,0.725538
-458.862305,491.912842,716.217041,0.726277
-460.876465,491.821289,728.759766,0.727016
-469.940186,491.821289,724.914551,0.727752
-464.263916,492.370605,716.766357,0.728488
-469.848633,486.145020,712.921143,0.729224
-462.158203,494.293213,717.864990,0.729960
-468.109131,484.405518,712.829590,0.730704
-482.940674,490.081787,718.231201,0.731442
-478.088379,486.877441,716.491699,0.732180
-478.637695,481.109619,712.646484,0.732919
-481.384277,473.785400,701.934814,0.733657
-475.982666,473.510742,703.491211,0.734395
-475.708008,480.560303,696.899414,0.735133
-472.045898,479.553223,705.505371,0.735873
-468.750000,476.989746,702.758789,0.736611
-470.397949,474.975586,698.913574,0.737350
-470.489502,478.729248,692.779541,0.738087
-467.559814,471.221924,704.498291,0.738823
-464.080811,463.897705,704.406738,0.739559
-469.940186,457.763672,691.131592,0.740294
-464.355469,464.996338,690.307617,0.741039
-457.122803,464.263916,700.012207,0.741779
-463.073730,467.285156,705.596924,0.742518
-459.686279,470.764160,703.033447,0.743257
-459.869385,463.439941,696.166992,0.743996
-459.869385,469.757080,696.990967,0.744734
-458.404541,469.573975,702.117920,0.745473
-460.601807,446.411133,699.096680,0.746211
-466.094971,467.559814,707.977295,0.746948
-460.601807,465.820312,710.723877,0.747684
-468.566895,467.834473,710.083008,0.748421
-459.320068,466.186523,710.540771,0.749160
-455.657959,476.806641,717.407227,0.749898
-454.101562,474.151611,713.470459,0.750636
-461.517334,472.045898,715.759277,0.751376
-454.742432,468.933105,719.421387,0.752115
-460.968018,475.982666,721.710205,0.752853
-459.777832,478.454590,717.956543,0.753591
-456.756592,472.686768,710.540771,0.754331
-468.841553,469.757080,709.350586,0.755079
-468.566895,473.785400,704.864502,0.755819
-466.827393,470.489502,712.738037,0.756562
-458.496094,479.461670,712.646484,0.757300
-457.031250,476.623535,701.293945,0.758039
-454.925537,477.630615,707.519531,0.758777
-459.228516,479.919434,711.090088,0.759518
-464.813232,478.546143,684.906006,0.760256
-475.158691,473.419189,711.364746,0.760994
-472.045898,482.116699,712.646484,0.761733
-472.778320,484.863281,718.780518,0.762471
-464.813232,493.560791,714.019775,0.763208
-469.665527,499.145508,717.956543,0.763946
-477.172852,497.955322,718.872070,0.764688
-474.975586,497.406006,726.196289,0.765426
-474.151611,496.856689,727.203369,0.766164
-479.095459,499.420166,729.583740,0.766905
-477.172852,501.434326,732.055664,0.767643
-481.384277,506.927490,737.731934,0.768380
-475.158691,508.758545,732.055664,0.769119
-482.849121,508.575439,736.633301,0.769860
-476.715088,505.462646,739.379883,0.770599
-475.891113,507.751465,738.739014,0.771337
-478.729248,508.666992,736.358643,0.772075
-477.264404,511.138916,740.386963,0.772813
-477.813721,511.322021,735.168457,0.773551
-482.208252,507.843018,737.640381,0.774331
-479.187012,506.286621,722.442627,0.775073
-484.313965,496.765137,721.527100,0.775812
-478.454590,492.462158,719.055176,0.776549
-486.785889,469.573975,716.033936,0.777290
-472.686768,489.440918,715.484619,0.778028
-474.517822,495.849609,721.343994,0.778766
-482.849121,490.631104,707.702637,0.779504
-477.905273,488.433838,708.526611,0.780245
-481.384277,488.342285,707.977295,0.780982
-481.933594,495.849609,707.611084,0.781720
-484.130859,491.912842,712.371826,0.782459
-483.581543,496.124268,712.738037,0.783197
-483.306885,490.356445,717.681885,0.783936
-491.180420,498.870850,712.646484,0.784674
-486.511230,498.046875,725.463867,0.785424
-484.588623,507.110596,731.140137,0.786168
-488.525391,508.941650,707.153320,0.786904
-490.814209,502.532959,724.273682,0.787642
-494.201660,504.272461,724.914551,0.788382
-490.447998,499.877930,725.189209,0.789118
-490.905762,500.244141,723.266602,0.789853
-504.638672,496.948242,721.160889,0.790595
-498.687744,505.828857,721.069336,0.791330
-493.560791,505.920410,723.724365,0.792065
-500.976562,501.434326,722.900391,0.792799
-499.877930,501.800537,731.872559,0.793538
-500.427246,498.779297,719.421387,0.794273
-499.237061,499.969482,747.070312,0.795008
-501.434326,500.244141,727.478027,0.795747
-507.385254,501.708984,725.738525,0.796482
-506.927490,506.561279,726.837158,0.797217
-505.554199,504.089355,722.351074,0.797952
-506.835938,498.596191,720.520020,0.798706
-503.448486,512.420654,720.062256,0.799443
-504.089355,509.124756,720.520020,0.800178
-498.870850,506.378174,722.351074,0.800913
-493.927002,502.807617,720.703125,0.801648
-492.645264,506.835938,723.541260,0.802382
-486.968994,506.469727,729.309082,0.803117
-460.601807,526.336670,730.773926,0.803858
-458.496094,533.843994,744.049072,0.804593
-455.108643,523.040771,749.359131,0.805328
-476.257324,517.730713,755.676270,0.806064
-493.927002,524.322510,753.845215,0.806799
-512.878418,537.322998,753.021240,0.807534
-513.336182,544.647217,758.239746,0.808269
-512.054443,540.802002,752.655029,0.809006
-524.230957,538.330078,748.809814,0.809741
-512.969971,526.885986,735.351562,0.810477
-512.695312,529.174805,732.238770,0.811211
-491.912842,518.554688,722.625732,0.811948
-483.489990,504.455566,719.055176,0.812683
-464.813232,505.920410,710.357666,0.813417
-447.509766,510.314941,712.097168,0.814152
-445.220947,511.962891,707.244873,0.814887
-442.657471,509.948730,704.772949,0.815622
-451.629639,500.244141,700.653076,0.816357
-455.841064,501.525879,711.730957,0.817095
-479.095459,501.251221,713.470459,0.817829
-488.708496,505.554199,715.393066,0.818564
-493.743896,503.082275,731.964111,0.819298
-480.377197,503.082275,738.006592,0.820032
-477.630615,514.709473,752.929688,0.820766
-466.369629,512.695312,764.282227,0.821500
-449.981689,505.645752,767.303467,0.822237
-443.572998,507.476807,771.240234,0.822971
-439.636230,504.455566,763.641357,0.823705
-430.297852,499.603271,744.964600,0.824441
-445.129395,494.201660,728.485107,0.825175
-444.946289,490.814209,720.977783,0.825909
-452.178955,483.764648,706.054688,0.826644
-450.714111,472.961426,695.800781,0.827396
-449.249268,469.299316,687.286377,0.828134
-439.453125,491.180420,691.223145,0.828869
-430.664062,481.933594,689.758301,0.829605
-426.086426,481.384277,695.251465,0.830355
-421.508789,473.876953,708.618164,0.831091
-440.093994,477.264404,717.864990,0.831825
-424.438477,482.025146,724.090576,0.832561
-426.086426,479.736328,735.534668,0.833295
-434.783936,477.355957,732.696533,0.834030
-443.664551,483.123779,738.739014,0.834764
-449.157715,477.905273,732.330322,0.835502
-453.918457,477.447510,725.372314,0.836236
-456.024170,480.560303,719.696045,0.836971
-446.960449,474.243164,720.520020,0.837706
-442.749023,468.383789,706.146240,0.838440
-428.466797,464.538574,711.456299,0.839176
-418.762207,465.454102,699.737549,0.839911
-414.093018,467.926025,698.364258,0.840648
-416.381836,467.193604,696.258545,0.841382
-404.022217,471.313477,699.188232,0.842116
-412.902832,469.665527,699.005127,0.842851
-421.600342,470.947266,702.667236,0.843585
-432.678223,469.665527,697.082520,0.844351
-431.762695,472.503662,708.892822,0.845097
-433.959961,467.651367,711.273193,0.845842
-431.213379,480.743408,742.218018,0.846578
-426.269531,481.750488,727.935791,0.847314
-422.607422,481.475830,732.696533,0.848049
-402.374268,481.750488,739.105225,0.848785
-410.705566,475.524902,730.316162,0.849521
-404.205322,479.736328,732.971191,0.850257
-413.543701,475.433350,726.013184,0.850994
-417.938232,474.792480,720.794678,0.851731
-421.966553,469.482422,719.055176,0.852466
-419.952393,477.447510,713.836670,0.853202
-399.261475,489.349365,734.161377,0.853943
-402.008057,485.229492,734.802246,0.854680
-400.177002,477.630615,730.590820,0.855417
-432.312012,465.820312,737.823486,0.856171
-442.016602,474.792480,733.337402,0.856918
-463.806152,484.497070,740.295410,0.857658
-464.630127,482.940674,737.365723,0.858396
-479.187012,486.053467,723.175049,0.859148
-480.194092,483.581543,715.393066,0.859889
-501.983643,473.968506,714.202881,0.860629
-489.257812,469.482422,697.174072,0.861373
-478.820801,462.432861,685.546875,0.862112
-477.447510,459.594727,676.483154,0.862850
-460.784912,458.679199,671.081543,0.863588
-452.270508,453.186035,672.271729,0.864329
-430.114746,461.151123,667.419434,0.865067
-440.277100,464.538574,671.173096,0.865805
-465.087891,459.320068,672.271729,0.866545
-455.566406,463.073730,672.271729,0.867284
-475.067139,462.249756,669.067383,0.868022
-493.835449,456.481934,674.926758,0.868761
-496.398926,463.806152,679.687500,0.869501
-493.743896,467.742920,694.244385,0.870240
-469.482422,470.581055,707.519531,0.870978
-472.686768,468.750000,729.034424,0.871716
-465.362549,481.658936,728.942871,0.872453
-459.411621,479.919434,741.577148,0.873191
-458.312988,481.475830,740.386963,0.873929
-467.742920,476.074219,739.837646,0.874670
-469.390869,477.355957,733.154297,0.875408
-479.736328,474.792480,725.006104,0.876146
-494.842529,470.306396,709.442139,0.876894
-503.448486,469.482422,706.512451,0.877634
-506.561279,471.405029,690.216064,0.878373
-513.793945,465.087891,687.194824,0.879111
-503.631592,462.615967,690.765381,0.879853
-492.645264,456.298828,683.258057,0.880592
-491.912842,452.819824,678.588867,0.881330
-492.919922,449.981689,679.595947,0.882068
-495.758057,446.411133,678.039551,0.882807
-497.497559,441.650391,677.032471,0.883545
-500.061035,442.840576,674.652100,0.884283
-503.540039,448.699951,675.842285,0.885026
-510.131836,442.108154,671.264648,0.885765
-516.723633,434.600830,665.496826,0.886503
-516.540527,442.016602,680.603027,0.887242
-525.146484,442.840576,670.532227,0.887981
-521.850586,440.093994,671.813965,0.888719
-520.660400,438.537598,673.736572,0.889458
-504.730225,443.664551,684.173584,0.890199
-502.441406,457.031250,685.913086,0.890947
-494.567871,454.833984,689.392090,0.891687
-493.469238,446.044922,699.371338,0.892425
-494.110107,447.692871,705.230713,0.893163
-492.919922,457.580566,706.787109,0.893901
-502.624512,463.439941,707.244873,0.894640
-504.638672,458.221436,708.068848,0.895383
-510.406494,462.432861,717.041016,0.896121
-498.229980,460.510254,713.378906,0.896855
-509.033203,468.383789,714.202881,0.897591
-487.884521,446.228027,708.251953,0.898326
-473.236084,462.615967,724.548340,0.899061
-469.024658,465.545654,700.744629,0.899796
-461.517334,463.165283,688.934326,0.900534
-465.545654,463.439941,692.321777,0.901269
-457.122803,459.777832,684.631348,0.902004
-456.481934,456.665039,680.328369,0.902738
-454.101562,463.623047,687.194824,0.903475
-463.806152,475.067139,688.659668,0.904210
-445.495605,466.918945,693.695068,0.904945
-445.220947,466.735840,689.025879,0.905679
-455.749512,466.186523,687.469482,0.906414
-449.249268,464.355469,686.920166,0.907149
-443.389893,473.144531,695.892334,0.907884
-435.607910,467.926025,682.983398,0.908621
-433.868408,463.806152,678.588867,0.909357
-431.213379,469.207764,670.166016,0.910092
-434.509277,461.975098,676.116943,0.910827
-418.304443,461.700439,662.658691,0.911570
-426.086426,456.756592,662.384033,0.912307
-414.642334,453.002930,651.763916,0.913041
-399.810791,454.925537,652.130127,0.913781
-388.549805,449.981689,658.721924,0.914561
-372.894287,452.178955,653.045654,0.915300
-369.049072,450.897217,655.975342,0.916042
-357.788086,454.193115,657.440186,0.916780
-350.738525,461.059570,670.349121,0.917514
-346.893311,446.868896,669.799805,0.918249
-335.906982,449.523926,677.581787,0.919001
-321.166992,449.340820,695.800781,0.919738
-309.906006,448.883057,710.083008,0.920473
-300.933838,454.101562,715.850830,0.921213
-284.179688,457.031250,730.682373,0.921948
-274.658203,462.982178,734.436035,0.922683
-261.291504,466.003418,739.654541,0.923417
-263.580322,462.615967,736.724854,0.924155
-260.833740,464.538574,719.696045,0.924889
-263.671875,464.538574,709.899902,0.925634
-284.454346,460.418701,682.617188,0.926375
-293.975830,462.707520,693.237305,0.927111
-299.194336,459.045410,674.560547,0.927847
-300.018311,455.932617,661.834717,0.928591
-317.413330,460.601807,656.799316,0.929337
-319.427490,460.693359,654.785156,0.930074
-311.187744,451.904297,662.567139,0.930810
-316.314697,453.460693,652.770996,0.931546
-315.856934,458.862305,648.925781,0.932282
-322.906494,454.650879,650.756836,0.933018
-316.680908,452.545166,661.285400,0.933753
-313.934326,462.524414,660.736084,0.934492
-315.765381,460.510254,653.320312,0.935228
-311.920166,459.228516,661.926270,0.935964
-307.067871,462.615967,665.405273,0.936700
-316.864014,465.454102,663.299561,0.937436
-317.687988,456.665039,662.658691,0.938172
-320.800781,455.200195,661.468506,0.938908
-328.857422,452.545166,666.961670,0.939647
-338.836670,447.784424,666.961670,0.940383
-339.935303,455.749512,661.376953,0.941119
-358.795166,445.861816,663.940430,0.941855
-356.506348,440.917969,659.179688,0.942610
-364.471436,443.756104,653.320312,0.943347
-361.541748,437.896729,652.404785,0.944082
-372.070312,431.121826,649.017334,0.944816
-352.569580,432.220459,657.714844,0.945550
-342.864990,427.825928,650.482178,0.946283
-339.385986,427.093506,653.045654,0.947036
-334.167480,423.889160,655.517578,0.947780
-334.533691,425.628662,648.284912,0.948517
-333.984375,422.607422,650.299072,0.949254
-329.956055,401.824951,657.989502,0.949992
-331.329346,409.881592,648.376465,0.950729
-335.266113,417.297363,652.404785,0.951466
-338.104248,411.712646,650.482178,0.952204
-333.343506,412.719727,646.087646,0.952945
-329.681396,418.487549,648.010254,0.953683
-324.096680,424.896240,652.130127,0.954422
-324.645996,415.466309,649.932861,0.955162
-319.702148,415.832520,649.658203,0.955901
-306.793213,420.776367,649.841309,0.956639
-312.835693,423.980713,651.214600,0.957377
-317.504883,443.847656,656.799316,0.958118
-310.913086,420.318604,659.179688,0.958856
-308.807373,424.896240,658.172607,0.959594
-310.363770,422.698975,652.313232,0.960332
-304.138184,425.445557,644.348145,0.961070
-305.145264,430.023193,645.629883,0.961809
-307.617188,437.896729,639.221191,0.962547
-304.504395,436.248779,612.945557,0.963290
-310.638428,443.664551,623.931885,0.964028
-310.089111,444.580078,633.087158,0.964765
-318.878174,445.404053,615.875244,0.965504
-307.434082,446.960449,617.980957,0.966244
-305.877686,452.362061,615.325928,0.966982
-303.314209,454.833984,631.439209,0.967721
-300.750732,464.172363,615.875244,0.968461
-294.525146,460.968018,614.868164,0.969199
-293.884277,472.503662,620.269775,0.969938
-279.876709,481.567383,616.058350,0.970676
-282.165527,478.363037,631.530762,0.971416
-269.531250,484.405518,643.615723,0.972154
-269.714355,490.997314,646.270752,0.972892
-270.172119,488.342285,644.897461,0.973630
-268.981934,487.609863,641.693115,0.974368
-275.115967,499.053955,649.291992,0.975105
-285.552979,491.271973,644.805908,0.975844
-306.060791,497.131348,652.496338,0.976587
-316.223145,497.772217,642.700195,0.977326
-332.427979,499.877930,633.544922,0.978065
-333.343506,496.765137,635.925293,0.978805
-346.893311,482.757568,635.925293,0.979540
-338.287354,493.469238,637.756348,0.980275
-327.117920,494.842529,636.749268,0.981010
-310.272217,494.476318,632.263184,0.981756
-305.969238,499.603271,632.812500,0.982494
-304.870605,504.547119,629.791260,0.983232
-312.286377,507.385254,617.706299,0.983970
-315.765381,500.244141,621.185303,0.984708
-331.878662,501.068115,608.276367,0.985477
-343.688965,515.991211,596.099854,0.986215
-352.752686,507.843018,601.684570,0.986956
-363.098145,509.399414,610.656738,0.987694
-348.449707,515.441895,602.416992,0.988432
-348.541260,521.942139,612.396240,0.989170
-334.259033,520.568848,611.663818,0.989912
-323.455811,525.787354,630.615234,0.990652
-319.610596,525.238037,635.192871,0.991389
-315.856934,529.815674,638.946533,0.992131
-314.208984,525.878906,645.263672,0.992869
-312.103271,526.885986,649.658203,0.993607
-321.075439,527.618408,638.854980,0.994345
-316.314697,526.885986,633.270264,0.995082
-331.329346,522.583008,626.220703,0.995818
-335.632324,518.188477,623.748779,0.996570
-334.442139,521.484375,618.713379,0.997316
-331.878662,511.230469,614.501953,0.998055
-327.484131,511.962891,594.818115,0.998793
-313.568115,505.645752,603.607178,0.999530
-301.849365,503.723145,605.621338,1.000269
-304.687500,503.814697,603.149414,1.001008
-302.215576,506.744385,616.241455,1.001747
-301.757812,504.364014,610.473633,1.002488
-296.997070,506.378174,631.713867,1.003224
-305.053711,509.216309,613.677979,1.003963
-294.799805,515.533447,615.051270,1.004700
-300.750732,517.822266,617.797852,1.005438
-296.630859,520.019531,620.178223,1.006176
-305.511475,527.435303,617.065430,1.006914
-302.947998,522.491455,612.396240,1.007655
-304.504395,524.230957,609.466553,1.008393
-309.722900,528.991699,615.142822,1.009131
-308.807373,527.893066,611.846924,1.009869
-307.891846,532.928467,610.107422,1.010609
-300.292969,532.836914,610.015869,1.011347
-302.581787,530.639648,606.903076,1.012085
-298.736572,535.675049,606.170654,1.012825
-290.039062,537.506104,606.536865,1.013563
-287.933350,541.534424,612.487793,1.014301
-282.257080,545.379639,618.530273,1.015039
-276.580811,539.978027,620.635986,1.015779
-271.087646,553.527832,635.925293,1.016517
-262.023926,550.323486,630.889893,1.017255
-253.509521,568.176270,636.566162,1.018007
-239.044189,574.859619,641.418457,1.018746
-251.586914,573.120117,635.742188,1.019482
-255.889893,582.458496,609.741211,1.020217
-258.361816,591.888428,631.072998,1.020955
-255.523682,601.043701,633.087158,1.021689
-260.192871,604.980469,622.100830,1.022424
-259.277344,615.692139,625.122070,1.023159
-254.882812,623.199463,611.846924,1.023893
-259.277344,630.340576,617.156982,1.024628
-260.559082,640.502930,604.248047,1.025363
-267.883301,645.812988,603.881836,1.026100
-282.165527,653.594971,600.036621,1.026834
-286.651611,658.447266,591.339111,1.027569
-296.356201,660.186768,591.064453,1.028303
-301.574707,667.053223,592.895508,1.029038
-310.089111,680.328369,598.754883,1.029772
-317.138672,683.624268,609.649658,1.030507
-324.554443,684.082031,623.657227,1.031244
-320.983887,691.680908,654.785156,1.031978
-321.166992,704.040527,638.214111,1.032713
-318.054199,718.048096,645.080566,1.033448
-323.181152,730.133057,664.947510,1.034201
-324.279785,732.604980,671.722412,1.034937
-330.688477,736.633301,700.012207,1.035672
-319.702148,749.450684,686.370850,1.036419
-322.723389,759.521484,694.610596,1.037156
-327.117920,758.605957,694.244385,1.037892
-324.096680,761.993408,699.279785,1.038628
-338.562012,756.683350,698.089600,1.039369
-334.167480,775.634766,704.223633,1.040105
-337.738037,785.705566,694.793701,1.040840
-331.146240,775.543213,698.089600,1.041577
-327.941895,778.015137,708.343506,1.042312
-316.040039,783.050537,712.738037,1.043048
-306.427002,784.606934,718.963623,1.043783
-314.666748,781.311035,730.224609,1.044521
-305.511475,788.360596,738.006592,1.045257
-305.694580,790.557861,751.373291,1.045993
-307.159424,783.691406,766.845703,1.046729
-314.666748,787.170410,769.317627,1.047466
-322.174072,793.762207,778.106689,1.048202
-328.491211,781.494141,789.184570,1.048938
-328.857422,785.522461,792.205811,1.049680
-329.589844,768.585205,793.853760,1.050414
-321.899414,768.951416,797.149658,1.051148
-311.279297,770.782471,789.459229,1.051883
-312.011719,767.944336,784.515381,1.052620
-314.758301,771.331787,775.726318,1.053355
-321.166992,770.782471,751.373291,1.054089
-334.259033,754.577637,709.442139,1.054823
-360.626221,734.161377,669.982910,1.055588
-380.126953,713.287354,654.235840,1.056322
-372.161865,694.152832,639.953613,1.057057
-334.808350,686.828613,620.635986,1.057803
-323.547363,661.560059,627.593994,1.058539
-276.763916,678.955078,627.593994,1.059273
-244.995117,675.933838,619.995117,1.060008
-244.171143,668.792725,627.685547,1.060743
-252.502441,672.088623,638.305664,1.061477
-228.607178,674.835205,657.440186,1.062214
-218.261719,673.553467,661.193848,1.062959
-209.381104,673.553467,665.039062,1.063698
-201.324463,660.644531,668.884277,1.064436
-200.408936,649.841309,672.271729,1.065173
-199.310303,641.784668,656.616211,1.065910
-202.423096,611.206055,648.834229,1.066647
-210.296631,632.629395,637.298584,1.067396
-219.635010,613.403320,629.150391,1.068146
-213.226318,598.937988,623.748779,1.068887
-210.845947,590.972900,619.995117,1.069625
-197.113037,586.303711,607.543945,1.070371
-188.964844,582.641602,610.015869,1.071113
-178.344727,584.381104,602.874756,1.071856
-159.576416,579.162598,601.409912,1.072595
-143.188477,572.479248,605.072021,1.073340
-137.512207,571.838379,595.184326,1.074079
-165.527344,594.085693,606.170654,1.074818
-173.675537,606.536865,559.112549,1.075557
-131.835938,605.163574,534.851074,1.076296
-160.217285,569.183350,525.695801,1.077034
-189.971924,563.232422,512.145996,1.077773
-175.781250,581.542969,492.095947,1.078513
-172.851562,550.506592,487.335205,1.079248
-188.598633,562.042236,466.827393,1.079981
-188.232422,563.781738,458.404541,1.080713
-152.069092,615.966797,453.094482,1.081452
-152.618408,655.609131,433.776855,1.082187
-150.695801,669.708252,426.910400,1.082922
-146.575928,684.722900,418.762207,1.083660
-121.948242,686.553955,415.557861,1.084395
-130.279541,682.708740,414.642334,1.085130
-77.087402,684.265137,425.445557,1.085865
-76.263428,663.391113,444.488525,1.086616
-22.155762,654.785156,445.220947,1.087352
-2.471924,697.723389,424.530029,1.088100
-64.361572,708.068848,380.035400,1.088837
-69.946289,765.289307,372.711182,1.089571
-67.749023,786.254883,363.006592,1.090306
-85.327148,797.424316,365.753174,1.091041
-83.679199,824.157715,376.190186,1.091787
-53.649902,838.165283,381.317139,1.092523
-70.220947,867.645264,373.352051,1.093258
-78.735352,891.357422,362.091064,1.093993
-71.685791,922.485352,375.000000,1.094728
-82.397461,951.599121,367.034912,1.095463
-75.988770,985.015869,348.815918,1.096198
-82.763672,1024.566650,360.260010,1.096937
-79.284668,1061.187744,366.394043,1.097672
-70.220947,1106.689453,371.063232,1.098407
-84.777832,1130.126953,366.760254,1.099142
-87.615967,1186.798096,376.464844,1.099879
-132.934570,1207.580566,378.112793,1.100614
-9.063721,1217.559814,375.732422,1.101350
91.094971,1247.497559,402.648926,1.102092
-31.311035,1247.039795,428.009033,1.102828
-6.591797,1296.569824,451.354980,1.103563
54.473877,1321.655273,490.631104,1.104297
-56.396484,1346.374512,494.659424,1.105045
-27.099609,1360.198975,541.442871,1.105782
-45.867920,1388.580322,577.239990,1.106516
-184.204102,1398.559570,591.522217,1.107261
-201.232910,1414.306641,593.078613,1.107998
-234.100342,1414.764404,597.290039,1.108734
-265.686035,1398.834229,598.937988,1.109470
-337.188721,1382.537842,595.275879,1.110211
-357.879639,1406.066895,590.789795,1.110945
-409.057617,1407.257080,589.233398,1.111681
-414.184570,1409.454346,627.868652,1.112417
-413.726807,1418.060303,644.531250,1.113152
-452.270508,1418.609619,649.291992,1.113888
-444.854736,1426.483154,670.989990,1.114623
-476.165771,1421.997070,684.448242,1.115361
-487.518311,1418.884277,694.335938,1.116097
-475.891113,1420.257568,697.723389,1.116832
-510.681152,1404.968262,714.660645,1.117568
-519.836426,1394.714355,722.534180,1.118303
-539.978027,1383.544922,717.041016,1.119039
-545.562744,1367.523193,719.512939,1.119774
-560.485840,1341.613770,722.717285,1.120512
-553.253174,1335.113525,731.323242,1.121247
-575.225830,1321.838379,734.161377,1.121983
-575.134277,1303.619385,733.886719,1.122720
-580.535889,1287.231445,726.562500,1.123458
-588.592529,1275.695801,728.027344,1.124196
-593.444824,1246.124268,709.808350,1.124933
-606.445312,1264.068604,684.814453,1.125703
-608.459473,1255.462646,669.158936,1.126442
-611.938477,1231.567383,658.355713,1.127180
-602.233887,1197.967529,640.502930,1.127916
-602.142334,1149.902344,604.614258,1.128655
-577.789307,1097.808838,563.873291,1.129392
-563.598633,1067.413330,534.210205,1.130130
-554.626465,1045.166016,499.603271,1.130871
-533.569336,997.650146,462.615967,1.131608
-511.596680,947.662354,441.558838,1.132345
-491.088867,898.864746,422.973633,1.133082
-479.553223,854.461670,391.754150,1.133823
-469.665527,841.278076,361.541748,1.134561
-445.678711,793.395996,366.668701,1.135298
-424.163818,752.838135,340.118408,1.136035
-375.823975,738.830566,322.998047,1.136774
-355.773926,699.279785,294.891357,1.137526
-355.133057,690.124512,277.679443,1.138266
-338.928223,676.849365,252.868652,1.139010
-319.976807,653.320312,217.620850,1.139749
-298.095703,621.002197,207.366943,1.140487
-297.454834,590.423584,176.147461,1.141229
-287.841797,536.590576,167.541504,1.141968
-295.898438,557.739258,162.414551,1.142706
-309.906006,628.784180,63.629150,1.143444
-136.047363,668.334961,94.116211,1.144185
-251.770020,505.554199,145.660400,1.144923
-292.419434,457.214355,114.440918,1.145660
-195.556641,466.644287,94.848633,1.146397
-211.944580,522.949219,119.659424,1.147135
-136.962891,543.182373,132.202148,1.147882
-366.851807,501.159668,57.128906,1.148621
-228.790283,477.081299,-6.317139,1.149363
-203.887939,418.762207,11.169434,1.150101
-247.924805,396.606445,-20.874023,1.150839
-220.550537,378.479004,-58.410645,1.151577
-215.332031,416.564941,-112.701416,1.152315
-209.289551,454.284668,-191.711426,1.153053
-223.480225,466.918945,-226.135254,1.153791
-230.346680,539.978027,-244.812012,1.154532
79.833984,584.014893,-286.376953,1.155270
-25.726318,669.433594,-410.522461,1.156008
-112.060547,682.067871,-495.391846,1.156746
137.329102,664.764404,-530.456543,1.157484
-177.703857,654.144287,-603.515625,1.158222
-113.342285,688.934326,-653.411865,1.158969
14.190674,686.370850,-721.343994,1.159713
-114.074707,688.385010,-781.951904,1.160451
-162.963867,688.293457,-844.390869,1.161189
-10.162354,726.013184,-872.222900,1.161927
-120.758057,753.021240,-899.780273,1.162666
-117.828369,706.695557,-919.372559,1.163404
-43.212891,746.612549,-822.235107,1.164142
656.616211,1314.147949,223.846436,1.164884
1368.896484,1344.360352,555.267334,1.165622
1609.039307,1361.480713,590.423584,1.166361
920.562744,862.518311,-122.589111,1.167099
-880.004883,764.465332,-985.473633,1.167838
66.558838,1253.631592,-478.729248,1.168576
664.398193,1265.441895,302.764893,1.169314
2652.282715,1951.904297,1159.698486,1.170055
865.447998,2845.733643,1395.629883,1.170793
1800.933838,2575.927734,1347.198486,1.171531
522.216797,1967.193604,1096.343994,1.172270
513.977051,1408.081055,626.220703,1.173008
-61.065674,637.115479,258.728027,1.173747
1735.015869,119.934082,61.889648,1.174486
-1015.686035,-707.519531,137.603760,1.175226
-1307.189941,270.904541,912.597656,1.175964
-1597.503662,874.237061,1006.622314,1.176702
-1733.551025,1422.180176,701.660156,1.177440
-388.183594,1758.819580,877.349854,1.178180
-916.076660,1778.045654,1040.222168,1.178919
-1105.133057,1836.456299,838.897705,1.179657
-790.100098,1562.713623,402.374268,1.180393
-1017.333984,1239.807129,-94.024658,1.181128
-1133.514404,1119.873047,-325.927734,1.181863
-1398.193359,1106.781006,-455.108643,1.182597
-1751.678467,1071.441650,-452.819824,1.183347
-336.364746,1048.645020,-188.323975,1.184084
-755.950928,1146.240234,-104.461670,1.184818
-960.113525,1049.560547,-77.911377,1.185557
-876.434326,1024.841309,-89.996338,1.186293
-1195.495605,999.206543,-213.134766,1.187028
-1677.612305,1093.048096,-276.947021,1.187764
-836.242676,847.320557,-202.148438,1.188503
2999.908447,1776.397705,-273.559570,1.189239
2999.908447,1658.569336,-182.647705,1.189975
993.255615,1336.486816,-244.812012,1.190712
-1224.975586,1547.241211,138.153076,1.191451
-2027.618408,1145.507812,251.770020,1.192189
1224.060059,1285.217285,167.541504,1.192926
2062.500000,1507.690430,-1.556396,1.193667
610.839844,1174.072266,45.684814,1.194405
-1655.548096,1202.636719,-125.152588,1.195176
151.245117,1434.082031,171.203613,1.195911
1914.825439,1423.187256,235.015869,1.196646
-488.525391,1212.432861,144.378662,1.197380
-1219.757080,1083.435059,-28.106689,1.198115
-256.805420,1426.757812,365.112305,1.198855
2999.908447,2999.908447,2999.908447,1.199589
2999.908447,2999.908447,2999.908447,1.200324
-339.111328,2999.908447,2999.908447,1.201060
-1469.604492,671.356201,-1869.689941,1.201796
-1617.279053,-33.050537,-2607.513428,1.202531
-1839.019775,-260.925293,-2677.276611,1.203265
-1631.195068,-56.488037,-2696.685791,1.204003
-718.963623,221.557617,-2307.495117,1.204739
-839.996338,679.870605,-1822.998047,1.205474
-1069.061279,859.130859,-1559.600830,1.206209
-1691.802979,930.816650,1045.166016,1.206957
1151.641846,2773.406982,2999.908447,1.207694
209.289551,2999.908447,2999.908447,1.208436
-2044.281006,1665.527344,-296.081543,1.209175
-1940.002441,377.746582,-2339.904785,1.209915
-1192.291260,1017.150879,-415.832520,1.210672
635.009766,2533.355713,2886.016846,1.211414
1234.954834,2289.459229,1193.389893,1.212159
6.683350,1559.143066,-1805.877686,1.212898
-929.260254,630.249023,-2187.835693,1.213638
-971.923828,571.929932,-1397.735596,1.214380
-687.561035,1127.471924,-185.760498,1.215119
-366.577148,1509.063721,648.376465,1.215858
432.128906,1481.140137,475.524902,1.216598
530.273438,1434.356689,134.490967,1.217337
302.856445,1336.395264,-0.457764,1.218073
82.946777,1294.189453,-318.145752,1.218809
-541.351318,1263.427734,-664.764404,1.219549
-787.719727,1271.942139,-404.937744,1.220288
-792.114258,1329.895020,41.290283,1.221027
-577.606201,1446.441650,170.928955,1.221766
-91.094971,1511.535645,319.702148,1.222508
76.995850,1508.056641,133.850098,1.223247
-46.875000,1405.700684,-199.310303,1.223986
-137.420654,1302.062988,-398.254395,1.224728
-343.048096,1310.760498,-304.779053,1.225468
-570.465088,1346.008301,-139.251709,1.226208
-486.877441,1392.333984,113.891602,1.226947
-417.022705,1425.659180,113.342285,1.227693
-360.260010,1399.383545,3.112793,1.228430
-338.287354,1351.593018,-144.561768,1.229166
-367.401123,1316.436768,-261.932373,1.229905
-350.463867,1282.745361,-230.438232,1.230644
-304.779053,1326.232910,-81.481934,1.231383
-286.743164,1354.522705,-24.810791,1.232122
-286.285400,1331.359863,-86.791992,1.232865
-284.912109,1295.288086,-158.477783,1.233604
-319.244385,1275.421143,-223.937988,1.234344
-300.842285,1255.828857,-211.395264,1.235082
-258.270264,1265.808105,-158.660889,1.235818
-327.575684,1196.960449,-375.915527,1.236554
-245.086670,1246.032715,-68.664551,1.237290
-122.497559,1278.167725,-9.704590,1.238032
-6.774902,1244.750977,-239.959717,1.238770
2.655029,1169.219971,-308.715820,1.239508
-147.033691,1188.354492,-281.799316,1.240247
-272.460938,1237.426758,-28.930664,1.240988
-271.179199,1199.432373,76.354980,1.241726
-270.172119,1173.889160,-118.743896,1.242465
-203.430176,1062.194824,-191.619873,1.243207
-10.711670,1083.618164,-339.111328,1.243946
109.405518,1093.688965,-177.795410,1.244684
301.208496,1121.612549,-60.058594,1.245422
382.415771,1202.819824,-154.083252,1.246165
314.941406,1228.820801,-291.137695,1.246903
112.976074,1213.714600,-344.604492,1.247642
-136.047363,1235.595703,-271.636963,1.248380
-195.739746,1258.666992,-334.442139,1.249118
-185.211182,1160.614014,-489.532471,1.249855
-255.432129,1035.736084,-555.633545,1.250594
-76.263428,1030.609131,-458.312988,1.251335
-20.141602,1094.146729,-345.703125,1.252072
-157.104492,1193.206787,-190.246582,1.252810
-157.836914,1214.172363,-175.781250,1.253548
-232.177734,1166.748047,-335.357666,1.254287
-337.829590,1125.915527,-316.955566,1.255025
-359.619141,1070.343018,-313.934326,1.255763
-327.575684,1062.103271,-339.202881,1.256503
-228.973389,1073.913574,-340.209961,1.257240
-186.218262,1125.640869,-218.811035,1.257979
-187.133789,1127.380371,-228.698730,1.258717
-232.269287,1126.098633,-344.238281,1.259455
-206.726074,1106.140137,-310.638428,1.260194
-170.379639,1081.970215,-270.538330,1.260932
-187.591553,1069.793701,-317.687988,1.261672
-220.458984,1084.533691,-315.216064,1.262410
-282.257080,1115.844727,-261.840820,1.263176
-279.144287,1106.048584,-232.177734,1.263915
-190.979004,1096.252441,-252.410889,1.264653
-74.340820,1048.187256,-303.222656,1.265389
27.465820,1075.103760,-264.953613,1.266125
67.108154,1117.950439,-211.029053,1.266864
79.193115,1129.394531,-232.818604,1.267598
45.776367,1120.147705,-240.325928,1.268333
9.796143,1082.519531,-203.155518,1.269068
-180.999756,1057.891846,-163.330078,1.269805
-371.063232,1080.139160,-132.568359,1.270540
-359.252930,1079.772949,-110.687256,1.271274
-251.770020,1077.117920,-108.306885,1.272012
-17.761230,1074.645996,-132.476807,1.272747
144.653320,1073.547363,-127.349854,1.273482
-93.841553,1059.814453,-56.304932,1.274216
-189.056396,1109.436035,6.408691,1.274952
-752.105713,1120.239258,127.624512,1.275686
-702.301025,1177.459717,155.639648,1.276419
-184.570312,1207.763672,159.118652,1.277165
256.530762,1192.657471,114.715576,1.277903
268.524170,1144.500732,52.551270,1.278637
103.363037,1129.943848,68.664551,1.279371
-16.937256,1128.112793,90.179443,1.280120
42.114258,1143.218994,112.426758,1.280858
45.410156,1152.557373,155.090332,1.281605
15.472412,1144.500732,126.800537,1.282346
-9.704590,1105.773926,54.382324,1.283085
-8.972168,1084.808350,-1.098633,1.283825
58.959961,1068.054199,-4.394531,1.284564
115.722656,1074.096680,1.007080,1.285308
116.638184,1077.301025,-11.077881,1.286046
95.489502,1040.679932,-71.502686,1.286785
134.033203,1026.306152,-118.103027,1.287525
154.083252,1016.693115,-104.827881,1.288265
178.710938,1007.720947,-92.468262,1.289004
167.358398,996.002197,-103.363037,1.289744
163.421631,968.261719,-139.801025,1.290486
131.195068,933.013916,-151.702881,1.291225
113.708496,900.787354,-152.801514,1.291964
108.764648,898.040771,-166.809082,1.292703
193.725586,906.921387,-158.752441,1.293439
221.099854,903.900146,-170.104980,1.294175
169.647217,869.018555,-180.908203,1.294911
132.751465,856.109619,-200.408936,1.295672
98.144531,846.313477,-189.514160,1.296410
137.695312,855.926514,-151.611328,1.297144
175.872803,874.237061,-164.703369,1.297879
168.090820,859.130859,-201.416016,1.298619
127.349854,840.728760,-212.677002,1.299355
122.039795,846.588135,-195.281982,1.300090
108.947754,864.166260,-178.253174,1.300825
161.224365,877.532959,-172.485352,1.301561
151.428223,881.286621,-209.747314,1.302295
106.475830,869.384766,-213.226318,1.303031
91.369629,875.061035,-217.529297,1.303770
96.130371,891.265869,-176.605225,1.304505
116.180420,906.738281,-173.492432,1.305240
113.433838,900.970459,-190.246582,1.305975
104.736328,884.582520,-221.374512,1.306710
100.891113,888.244629,-208.831787,1.307446
118.469238,894.927979,-191.986084,1.308181
139.892578,908.843994,-191.162109,1.308936
109.130859,914.611816,-186.401367,1.309673
88.714600,896.209717,-220.458984,1.310408
116.271973,904.083252,-217.437744,1.311143
120.300293,934.753418,-187.133789,1.311879
130.004883,925.598145,-180.541992,1.312614
134.124756,938.690186,-171.386719,1.313348
101.531982,940.338135,-189.331055,1.314089
104.736328,956.726074,-204.620361,1.314825
101.531982,966.064453,-180.358887,1.315560
117.645264,974.761963,-178.985596,1.316295
196.105957,976.226807,-198.486328,1.317036
220.825195,962.127686,-227.508545,1.317772
193.267822,971.099854,-211.853027,1.318506
156.646729,971.923828,-176.330566,1.319240
141.815186,976.684570,-170.013428,1.319975
163.696289,989.501953,-184.570312,1.320709
169.738770,997.924805,-173.767090,1.321443
163.879395,998.565674,-181.823730,1.322180
164.703369,986.846924,-198.303223,1.322915
182.464600,991.790771,-172.027588,1.323650
136.413574,1009.826660,-139.526367,1.324385
89.447021,1027.770996,-116.180420,1.325119
96.130371,1024.658203,-130.737305,1.325853
104.187012,1023.010254,-115.905762,1.326587
74.615479,1021.820068,-80.200195,1.327338
65.460205,1017.791748,-75.439453,1.328083
103.454590,1028.045654,-86.883545,1.328821
108.398438,1023.193359,-80.749512,1.329557
23.437500,1021.636963,-47.790527,1.330292
44.494629,1015.045166,-52.093506,1.331027
44.036865,1007.812500,-59.051514,1.331762
51.818848,1004.699707,-62.713623,1.332508
20.050049,1012.573242,-52.093506,1.333273
-0.091553,1001.953125,-65.277100,1.334009
-5.859375,1007.904053,-64.544678,1.334744
8.331299,1006.072998,-64.544678,1.335482
11.077881,999.755859,-69.854736,1.336216
30.578613,978.515625,-90.545654,1.336951
28.106689,973.388672,-117.919922,1.337686
24.810791,971.099854,-122.131348,1.338421
27.832031,967.346191,-126.251221,1.339156
50.079346,957.641602,-129.547119,1.339891
67.199707,952.514648,-150.970459,1.340629
51.177979,938.964844,-168.731689,1.341364
50.079346,932.647705,-172.851562,1.342098
60.058594,940.155029,-193.267822,1.342833
79.650879,938.873291,-209.014893,1.343567
83.862305,935.302734,-190.155029,1.344301
75.988770,943.176270,-199.127197,1.345058
69.122314,939.697266,-207.458496,1.345818
80.474854,941.894531,-198.394775,1.346561
75.622559,948.760986,-185.028076,1.347299
81.207275,958.190918,-188.690186,1.348037
56.213379,956.359863,-176.330566,1.348776
56.579590,958.282471,-184.112549,1.349520
68.023682,968.811035,-177.337646,1.350264
69.488525,972.564697,-169.830322,1.351016
69.763184,977.416992,-161.132812,1.351755
55.023193,961.120605,-167.907715,1.352494
47.698975,984.008789,-172.485352,1.353233
34.790039,987.762451,-166.168213,1.353972
33.782959,1000.854492,-154.449463,1.354710
40.191650,985.473633,-161.499023,1.355455
38.635254,985.473633,-162.322998,1.356195
19.409180,991.699219,-159.301758,1.356934
16.662598,997.283936,-154.357910,1.357672
44.036865,970.916748,-173.492432,1.358413
34.240723,971.466064,-165.069580,1.359151
23.071289,980.987549,-172.210693,1.359889
3.570557,985.015869,-187.957764,1.360627
-4.943848,968.811035,-194.458008,1.361367
-2.014160,973.205566,-187.591553,1.362105
1.556396,972.290039,-180.450439,1.362842
-10.345459,972.015381,-190.338135,1.363583
-36.071777,969.635010,-202.789307,1.364320
-52.551270,959.197998,-207.550049,1.365058
-43.395996,960.937500,-198.394775,1.365798
-47.241211,942.718506,-215.515137,1.366539
-64.910889,940.155029,-231.903076,1.367277
-103.637695,945.922852,-303.771973,1.368014
-127.349854,927.978516,-251.861572,1.368760
-173.126221,919.189453,-256.713867,1.369506
1.098633,921.112061,-312.469482,1.370242
-52.276611,904.907227,-279.785156,1.370977
-109.130859,928.710938,-288.574219,1.371717
-100.616455,916.351318,-289.947510,1.372450
-63.262939,917.541504,-311.645508,1.373182
-57.952881,912.139893,-270.446777,1.373914
-86.608887,911.407471,-263.488770,1.374645
-58.044434,938.049316,-271.362305,1.375378
-62.164307,941.619873,-250.488281,1.376110
-75.897217,962.493896,-238.677979,1.376845
-93.292236,966.979980,-225.677490,1.377578
-65.002441,976.959229,-195.007324,1.378309
-41.931152,985.931396,-185.577393,1.379046
-79.284668,990.234375,-202.789307,1.379781
-96.588135,971.740723,-197.845459,1.380515
-102.630615,972.564697,-208.557129,1.381249
-64.453125,961.212158,-209.106445,1.381986
-71.136475,956.542969,-193.084717,1.382721
-92.193604,944.458008,-212.402344,1.383454
-58.044434,935.119629,-235.473633,1.384189
-71.960449,934.844971,-224.487305,1.384923
-78.002930,939.422607,-219.451904,1.385658
-77.728271,930.450439,-228.881836,1.386392
-81.390381,906.280518,-250.671387,1.387130
-97.229004,911.041260,-244.995117,1.387864
-100.250244,902.069092,-243.438721,1.388599
-101.074219,898.315430,-238.403320,1.389334
-103.546143,883.300781,-244.354248,1.390070
-112.243652,881.103516,-251.220703,1.390804
-114.166260,867.736816,-247.741699,1.391539
-105.651855,882.202148,-234.558105,1.392275
-111.968994,868.560791,-240.966797,1.393010
-106.292725,871.673584,-239.227295,1.393744
-100.158691,869.476318,-235.473633,1.394478
-94.482422,864.257812,-224.395752,1.395232
-87.890625,868.652344,-215.332031,1.395969
-90.911865,843.841553,-191.802979,1.396704
-83.129883,838.897705,-247.924805,1.397439
-72.235107,840.362549,-226.318359,1.398173
-99.792480,862.426758,-188.507080,1.398908
-61.248779,863.983154,-189.147949,1.399643
-75.256348,850.250244,-208.099365,1.400399
-68.664551,846.588135,-209.564209,1.401136
-92.468262,840.820312,-200.134277,1.401872
-79.833984,848.968506,-195.465088,1.402607
-66.467285,844.299316,-201.049805,1.403346
-72.143555,834.594727,-195.465088,1.404111
-72.326660,845.123291,-199.768066,1.404846
-64.819336,838.531494,-205.261230,1.405584
-72.509766,823.883057,-198.303223,1.406318
-72.967529,823.425293,-205.078125,1.407053
-69.030762,828.826904,-210.296631,1.407788
-63.446045,829.193115,-209.197998,1.408526
-76.171875,826.904297,-204.437256,1.409261
-71.685791,833.587646,-201.965332,1.409995
-57.678223,832.031250,-190.795898,1.410731
-56.579590,837.066650,-191.253662,1.411465
-67.749023,827.728271,-183.197021,1.412199
-71.868896,833.679199,-185.394287,1.412934
-60.699463,843.109131,-177.062988,1.413681
-43.212891,842.102051,-179.626465,1.414416
-46.691895,848.876953,-171.112061,1.415167
-50.170898,856.201172,-171.478271,1.415909
-46.875000,848.693848,-176.239014,1.416647
-42.938232,846.954346,-173.217773,1.417384
-33.782959,856.750488,-173.126221,1.418123
-32.135010,843.292236,-177.246094,1.418868
-37.994385,843.658447,-178.436279,1.419606
-26.458740,844.940186,-173.950195,1.420344
-26.916504,849.884033,-176.422119,1.421081
-26.550293,821.502686,-183.288574,1.421820
-23.712158,841.918945,-175.598145,1.422558
-18.218994,850.250244,-175.964355,1.423296
-6.225586,858.581543,-180.450439,1.424037
-13.641357,854.003906,-179.260254,1.424772
-23.162842,850.524902,-173.492432,1.425506
-18.585205,852.447510,-169.647217,1.426243
-13.275146,859.863281,-168.365479,1.426978
-8.239746,852.081299,-164.520264,1.427712
-8.880615,852.813721,-170.928955,1.428447
-8.605957,855.285645,-167.083740,1.429184
-15.655518,863.250732,-178.710938,1.429918
6.317139,858.673096,-170.928955,1.430652
2.746582,859.405518,-179.718018,1.431387
9.246826,853.912354,-176.971436,1.432125
5.310059,847.320557,-169.372559,1.432859
17.761230,859.130859,-176.513672,1.433593
20.141602,858.123779,-174.224854,1.434326
20.599365,859.863281,-172.210693,1.435061
26.550293,865.173340,-173.950195,1.435794
27.648926,857.116699,-173.767090,1.436552
41.290283,858.673096,-164.886475,1.437295
38.085938,865.631104,-157.653809,1.438030
30.212402,864.440918,-162.048340,1.438765
33.416748,869.201660,-160.675049,1.439502
35.339355,868.835449,-153.076172,1.440237
35.797119,882.293701,-142.547607,1.440972
38.909912,874.328613,-136.230469,1.441707
46.600342,880.554199,-124.328613,1.442445
38.360596,881.744385,-123.687744,1.443180
33.691406,879.821777,-118.377686,1.443914
37.628174,878.265381,-120.941162,1.444649
34.881592,878.082275,-119.110107,1.445384
36.529541,878.631592,-121.215820,1.446118
42.663574,867.004395,-122.497559,1.446853
39.276123,871.673584,-113.616943,1.447590
42.114258,869.842529,-127.807617,1.448325
45.501709,850.524902,-126.800537,1.449059
44.677734,874.053955,-125.335693,1.449794
47.515869,872.680664,-142.456055,1.450545
44.952393,867.645264,-138.610840,1.451282
43.579102,861.602783,-139.160156,1.452018
37.536621,863.067627,-140.899658,1.452773
39.550781,859.771729,-132.110596,1.453509
36.163330,857.391357,-139.068604,1.454244
37.445068,862.701416,-140.167236,1.454979
43.487549,860.137939,-141.815186,1.455719
41.381836,861.511230,-130.187988,1.456455
37.536621,854.827881,-133.026123,1.457190
39.550781,871.582031,-124.786377,1.457927
36.529541,871.673584,-131.195068,1.458662
36.071777,861.419678,-142.822266,1.459398
31.036377,860.412598,-144.470215,1.460132
28.106689,860.321045,-137.237549,1.460882
28.656006,868.652344,-140.441895,1.461620
23.803711,854.370117,-144.012451,1.462362
25.543213,859.130859,-136.505127,1.463105
22.430420,861.236572,-137.786865,1.463844
18.035889,860.321045,-131.927490,1.464583
9.796143,865.997314,-125.061035,1.465321
8.514404,870.666504,-140.075684,1.466064
12.817383,851.440430,-145.202637,1.466802
9.979248,850.433350,-141.448975,1.467547
-6.866455,867.645264,-126.525879,1.468298
-12.268066,862.243652,-139.709473,1.469032
-4.577637,860.778809,-150.146484,1.469767
-11.718750,857.482910,-136.596680,1.470502
-6.317139,864.074707,-131.927490,1.471240
-1.098633,869.018555,-143.646240,1.471982
-10.803223,862.518311,-146.209717,1.472718
-16.021729,860.229492,-150.238037,1.473465
-23.986816,861.694336,-152.893066,1.474204
-20.324707,874.053955,-143.829346,1.474942
-17.395020,873.779297,-150.878906,1.475717
-16.937256,874.603271,-161.407471,1.476455
-20.874023,875.976562,-159.942627,1.477193
-26.458740,884.399414,-153.991699,1.477931
-28.106689,884.948730,-150.970459,1.478671
-25.634766,882.568359,-161.224365,1.479408
-19.042969,884.674072,-152.709961,1.480154
-36.895752,890.991211,-151.702881,1.480905
-35.705566,887.969971,-142.181396,1.481645
-40.924072,891.174316,-147.949219,1.482383
-43.945312,888.977051,-144.195557,1.483125
-41.290283,886.047363,-138.427734,1.483863
-44.677734,889.160156,-142.822266,1.484601
-48.797607,900.329590,-133.666992,1.485341
-49.896240,897.857666,-143.371582,1.486086
-51.727295,889.801025,-143.188477,1.486824
-60.974121,908.386230,-146.392822,1.487563
-53.009033,890.167236,-157.196045,1.488315
-52.642822,890.075684,-168.914795,1.489062
-60.791016,881.469727,-165.344238,1.489802
-56.304932,886.505127,-161.865234,1.490539
-58.227539,884.124756,-166.076660,1.491279
-57.586670,883.026123,-161.224365,1.492018
-66.101074,884.124756,-168.823242,1.492754
-63.079834,877.075195,-178.802490,1.493493
-53.833008,885.406494,-168.548584,1.494233
-58.502197,901.794434,-165.252686,1.494971
-56.671143,889.526367,-178.253174,1.495710
-55.480957,894.836426,-172.668457,1.496447
-55.297852,899.597168,-171.752930,1.497185
-50.262451,910.308838,-167.175293,1.497922
-45.593262,899.871826,-170.837402,1.498666
-48.614502,907.745361,-166.442871,1.499419
-46.142578,908.660889,-171.844482,1.500163
-40.649414,916.168213,-163.879395,1.500900
-36.987305,920.471191,-157.928467,1.501637
-39.093018,921.020508,-154.266357,1.502372
-37.353516,907.928467,-159.942627,1.503107
-36.712646,924.957275,-159.210205,1.503842
-33.233643,925.506592,-157.104492,1.504582
-34.423828,923.675537,-158.203125,1.505317
-30.212402,918.823242,-158.386230,1.506052
-29.296875,921.295166,-161.865234,1.506787
-29.846191,926.239014,-158.752441,1.507530
-20.324707,924.407959,-164.978027,1.508268
-1.098633,925.598145,-163.421631,1.509004
-23.803711,922.668457,-167.266846,1.509744
-25.360107,928.710938,-170.104980,1.510481
-35.888672,927.795410,-176.055908,1.511216
-24.444580,934.112549,-175.415039,1.511957
-23.529053,930.267334,-168.823242,1.512693
-29.022217,936.309814,-177.978516,1.513429
-23.529053,938.690186,-173.309326,1.514164
-31.219482,936.309814,-173.034668,1.514908
-28.564453,924.499512,-176.788330,1.515645
-29.663086,928.253174,-175.506592,1.516384
-30.761719,933.563232,-159.393311,1.517122
-24.810791,956.542969,-162.322998,1.517861
-31.585693,936.676025,-159.393311,1.518599
-29.479980,935.485840,-158.843994,1.519337
-26.733398,947.753906,-154.724121,1.520078
-30.853271,950.225830,-155.364990,1.520816
-34.790039,951.507568,-156.463623,1.521555
-34.606934,957.000732,-148.406982,1.522293
-36.254883,958.374023,-151.336670,1.523035
-18.310547,954.803467,-143.920898,1.523773
-25.451660,954.986572,-158.111572,1.524511
-31.219482,950.775146,-153.167725,1.525252
-36.163330,952.056885,-161.682129,1.525990
-33.874512,949.401855,-160.217285,1.526728
-28.015137,939.788818,-159.393311,1.527466
-29.479980,939.880371,-158.111572,1.528207
-29.022217,948.394775,-155.364990,1.528945
-35.980225,944.641113,-158.020020,1.529684
-33.142090,950.225830,-160.308838,1.530422
-33.508301,945.190430,-158.477783,1.531160
-41.107178,940.521240,-155.731201,1.531899
-36.254883,947.296143,-145.935059,1.532636
-33.325195,951.141357,-150.970459,1.533380
-33.508301,950.134277,-147.308350,1.534119
-32.135010,956.909180,-145.477295,1.534857
-30.120850,948.577881,-146.850586,1.535595
-29.937744,950.958252,-153.259277,1.536335
-30.487061,941.894531,-158.935547,1.537074
-18.493652,951.049805,-160.675049,1.537812
-22.613525,947.387695,-161.315918,1.538553
-22.705078,949.035645,-164.703369,1.539297
-19.409180,954.620361,-158.020020,1.540037
-20.690918,948.760986,-158.020020,1.540776
-24.444580,959.197998,-169.921875,1.541514
-29.113770,950.866699,-162.780762,1.542252
-2.471924,958.374023,-160.675049,1.542990
-20.507812,959.472656,-168.640137,1.543733
-33.325195,961.120605,-167.633057,1.544472
-28.930664,959.930420,-165.344238,1.545210
-29.296875,957.641602,-171.661377,1.545975
-26.824951,965.881348,-174.407959,1.546714
-33.508301,967.254639,-174.591064,1.547452
-38.543701,969.818115,-177.795410,1.548190
-30.303955,972.381592,-181.182861,1.548932
-25.543213,968.353271,-195.373535,1.549670
-21.148682,979.156494,-189.422607,1.550408
-32.409668,985.839844,-188.873291,1.551146
-30.944824,987.945557,-190.155029,1.551884
-26.275635,986.938477,-187.957764,1.552623
-23.986816,989.593506,-185.485840,1.553361
-28.930664,991.424561,-173.126221,1.554102
-18.127441,996.093750,-182.189941,1.554840
-17.578125,997.283936,-175.964355,1.555578
-20.782471,996.826172,-171.112061,1.556319
-22.430420,1000.030518,-170.104980,1.557069
-22.338867,1007.080078,-172.851562,1.557810
-22.796631,1003.326416,-180.999756,1.558547
-26.733398,1000.762939,-175.323486,1.559287
-24.719238,1022.644043,-174.316406,1.560022
-21.881104,1024.475098,-175.506592,1.560763
-24.353027,1025.390625,-172.027588,1.561506
-17.852783,1025.390625,-162.597656,1.562248
-24.169922,1023.193359,-166.442871,1.562986
-25.909424,1024.200439,-171.478271,1.563724
-44.586182,1024.841309,-167.724609,1.564463
-32.775879,1024.291992,-164.886475,1.565202
-30.670166,1032.348633,-161.041260,1.565942
-33.142090,1027.679443,-159.851074,1.566686
-29.113770,1026.214600,-155.273438,1.567428
-39.093018,1024.475098,-154.815674,1.568167
-44.403076,1034.820557,-154.083252,1.568906
-41.839600,1025.848389,-151.794434,1.569645
-44.677734,1031.066895,-148.406982,1.570383
-48.706055,1019.348145,-149.688721,1.571122
-55.755615,1018.341064,-153.808594,1.571860
-51.544189,1011.566162,-149.139404,1.572598
-51.269531,1014.495850,-151.153564,1.573334
-55.755615,1008.544922,-151.794434,1.574078
-58.319092,1005.615234,-142.639160,1.574817
-56.304932,1010.101318,-150.695801,1.575556
-65.185547,1002.868652,-146.850586,1.576295
-61.614990,997.375488,-146.026611,1.577033
-58.044434,997.924805,-147.949219,1.577776
-53.833008,987.945557,-152.069092,1.578516
-61.065674,993.713379,-141.540527,1.579255
-60.150146,995.544434,-147.491455,1.579999
-55.114746,985.565186,-147.949219,1.580739
-61.614990,976.684570,-145.477295,1.581479
-62.255859,978.057861,-145.751953,1.582218
-69.488525,978.240967,-141.082764,1.582960
-64.910889,975.128174,-147.949219,1.583699
-54.199219,971.374512,-148.132324,1.584438
-61.065674,955.902100,-142.272949,1.585176
-58.502197,952.514648,-141.265869,1.585911
-59.234619,955.261230,-146.301270,1.586646
-59.509277,955.078125,-145.568848,1.587382
-61.248779,942.810059,-148.406982,1.588127
-61.065674,946.105957,-154.815674,1.588865
-54.199219,942.718506,-154.998779,1.589603
-60.424805,937.042236,-152.160645,1.590342
-59.967041,959.014893,-148.315430,1.591083
-56.213379,930.816650,-152.069092,1.591821
-58.959961,938.507080,-145.477295,1.592559
-64.910889,928.436279,-158.477783,1.593300
-50.079346,925.415039,-162.414551,1.594041
-52.642822,928.710938,-160.400391,1.594781
-58.227539,929.718018,-165.710449,1.595520
-48.797607,933.471680,-167.083740,1.596262
-48.248291,930.908203,-165.069580,1.597002
-49.713135,932.006836,-166.534424,1.597741
-48.248291,933.288574,-170.928955,1.598480
-50.170898,931.274414,-166.992188,1.599219
-46.691895,938.507080,-170.654297,1.599959
-39.093018,942.169189,-169.738770,1.600698
-41.198730,941.802979,-167.083740,1.601440
-36.987305,952.972412,-173.675537,1.602179
-44.769287,949.951172,-174.407959,1.602918
-39.550781,963.226318,-170.562744,1.603655
-31.494141,964.324951,-167.175293,1.604390
-33.233643,971.008301,-161.132812,1.605126
-35.705566,961.578369,-166.168213,1.605861
-31.677246,979.431152,-151.794434,1.606604
-35.705566,981.994629,-152.618408,1.607343
-39.550781,981.628418,-155.639648,1.608082
-34.423828,979.980469,-159.393311,1.608822
-31.494141,987.030029,-151.062012,1.609562
-33.691406,986.846924,-159.851074,1.610300
-32.318115,1000.305176,-150.878906,1.611040
-34.606934,994.903564,-152.252197,1.611782
-30.303955,994.445801,-159.027100,1.612521
-20.599365,997.924805,-157.470703,1.613259
-27.282715,991.699219,-162.872314,1.613998
-25.451660,997.283936,-154.907227,1.614733
-17.852783,1002.044678,-169.006348,1.615468
-24.353027,1007.904053,-163.787842,1.616227
-18.402100,1003.875732,-171.478271,1.616967
-36.254883,1016.052246,-184.020996,1.617702
-48.522949,1010.284424,-161.865234,1.618436
-7.873535,1014.312744,-156.555176,1.619168
6.958008,1002.960205,-177.886963,1.619905
-17.303467,999.938965,-169.281006,1.620640
-33.050537,1011.383057,-161.224365,1.621376
-27.099609,1012.847900,-156.921387,1.622115
1.831055,1013.031006,-152.709961,1.622850
-20.507812,1011.474609,-150.970459,1.623586
-5.126953,1023.284912,-144.561768,1.624321
-7.690430,1024.841309,-135.681152,1.625056
-13.732910,1009.735107,-150.512695,1.625789
-7.781982,1013.854980,-140.441895,1.626520
-2.380371,1015.502930,-134.490967,1.627254
-7.965088,1013.397217,-136.505127,1.627997
-4.669189,1009.460449,-138.519287,1.628735
1.739502,1002.593994,-140.625000,1.629473
-6.500244,1007.080078,-135.681152,1.630219
-6.774902,989.776611,-144.470215,1.630964
0.915527,994.354248,-142.272949,1.631701
-3.753662,989.959717,-140.899658,1.632441
-6.134033,988.677979,-145.385742,1.633178
-2.563477,978.149414,-151.611328,1.633914
4.486084,989.044189,-148.773193,1.634647
-1.281738,986.572266,-146.026611,1.635384
1.831055,977.874756,-150.054932,1.636116
-20.599365,972.747803,-152.893066,1.636849
-2.655029,964.965820,-153.717041,1.637581
0.274658,963.226318,-155.731201,1.638314
1.464844,973.937988,-142.913818,1.639045
-0.823975,965.332031,-151.885986,1.639778
-18.676758,969.268799,-147.125244,1.640530
-3.295898,953.247070,-150.146484,1.641268
0.366211,951.049805,-153.442383,1.642002
2.197266,957.916260,-145.111084,1.642737
-8.972168,959.655762,-150.238037,1.643472
-3.753662,956.726074,-142.364502,1.644206
-15.838623,959.564209,-146.942139,1.644941
-12.817383,955.169678,-141.632080,1.645679
-16.204834,958.465576,-148.223877,1.646414
-13.275146,960.845947,-146.759033,1.647150
-13.641357,957.550049,-151.245117,1.647885
-8.514404,957.183838,-156.280518,1.648637
-17.486572,956.909180,-154.815674,1.649374
-20.324707,941.711426,-161.590576,1.650109
-25.177002,952.880859,-162.414551,1.650844
-23.620605,947.662354,-158.111572,1.651579
-0.366211,951.049805,-163.421631,1.652314
-32.501221,948.669434,-158.386230,1.653048
-27.740479,944.915771,-142.822266,1.653802
-28.198242,947.845459,-162.872314,1.654539
-26.641846,959.838867,-157.836914,1.655275
-27.465820,964.782715,-153.076172,1.656012
-33.416748,962.860107,-153.625488,1.656746
-30.670166,965.789795,-157.470703,1.657482
-29.479980,963.043213,-152.069092,1.658217
-31.127930,968.444824,-150.421143,1.658955
-33.325195,961.303711,-166.992188,1.659687
-39.184570,954.803467,-164.062500,1.660420
-35.156250,962.127686,-155.090332,1.661152
-39.642334,957.366943,-153.533936,1.661885
-42.572021,970.001221,-151.519775,1.662618
-41.015625,958.465576,-147.033691,1.663350
-47.973633,960.113525,-155.181885,1.664088
-45.501709,959.014893,-155.731201,1.664822
-48.706055,958.190918,-165.069580,1.665557
-49.346924,960.296631,-154.174805,1.666296
-55.572510,950.134277,-157.379150,1.667038
-55.847168,951.873779,-164.245605,1.667774
-61.340332,947.479248,-167.816162,1.668516
-61.981201,948.303223,-169.555664,1.669255
-63.537598,955.718994,-170.379639,1.669994
-62.622070,950.408936,-173.400879,1.670732
-67.474365,947.753906,-169.464111,1.671471
-63.354492,952.880859,-175.689697,1.672213
-72.875977,944.641113,-177.429199,1.672952
-80.017090,955.718994,-164.520264,1.673688
-75.164795,942.626953,-187.408447,1.674422
-78.094482,946.746826,-182.189941,1.675154
-75.073242,943.817139,-180.816650,1.675887
-76.538086,948.852539,-180.633545,1.676619
-79.467773,960.937500,-170.562744,1.677358
-82.122803,955.169678,-177.612305,1.678093
-90.454102,953.979492,-179.809570,1.678829
-81.115723,964.233398,-171.844482,1.679565
-88.439941,960.571289,-170.288086,1.680300
-92.926025,951.324463,-163.146973,1.681036
-88.714600,957.458496,-164.428711,1.681772
-83.953857,960.662842,-167.541504,1.682520
-88.623047,958.923340,-166.717529,1.683257
-70.495605,965.332031,-166.351318,1.683992
-92.193604,963.226318,-166.442871,1.684727
-99.517822,958.648682,-161.865234,1.685470
-87.799072,964.508057,-168.182373,1.686205
-91.003418,963.043213,-171.752930,1.686983
-87.341309,979.614258,-169.097900,1.687725
-89.263916,972.198486,-169.281006,1.688463
-90.270996,965.332031,-178.802490,1.689201
-79.467773,969.818115,-175.140381,1.689939
-78.735352,974.670410,-169.738770,1.690680
-75.805664,971.832275,-170.745850,1.691419
-76.538086,974.029541,-176.147461,1.692156
-73.059082,980.529785,-168.914795,1.692894
-66.833496,984.558105,-175.140381,1.693632
-60.699463,980.621338,-181.823730,1.694371
-56.488037,987.121582,-174.224854,1.695109
-62.530518,990.509033,-175.323486,1.695848
-55.938721,990.600586,-173.950195,1.696586
-54.473877,987.304688,-175.140381,1.697322
-42.388916,993.438721,-177.154541,1.698071
-42.572021,997.192383,-166.992188,1.698815
-41.290283,997.467041,-166.534424,1.699556
-32.409668,1001.129150,-168.273926,1.700295
-40.283203,1003.051758,-169.738770,1.701037
-37.170410,1005.981445,-151.336670,1.701777
-37.353516,1007.904053,-148.590088,1.702516
-36.529541,1009.460449,-165.527344,1.703255
-36.071777,990.417480,-143.554688,1.703993
-28.289795,1013.397217,-140.808105,1.704731
-34.240723,1014.038086,-137.603760,1.705470
-35.980225,999.206543,-141.265869,1.706209
-27.740479,1000.030518,-139.526367,1.706945
-24.261475,999.206543,-136.596680,1.707680
-22.521973,999.847412,-140.625000,1.708415
-30.578613,996.734619,-147.125244,1.709150
-17.211914,999.481201,-141.357422,1.709884
-9.246826,994.995117,-154.998779,1.710618
-16.387939,992.523193,-143.005371,1.711356
-18.402100,981.903076,-147.308350,1.712092
-17.395020,972.015381,-153.991699,1.712827
-12.908936,973.571777,-145.751953,1.713561
-9.521484,966.979980,-151.794434,1.714295
-18.676758,963.043213,-156.280518,1.715030
-8.697510,958.465576,-152.160645,1.715765
-1.647949,965.240479,-147.125244,1.716502
-1.739502,960.571289,-146.209717,1.717237
-4.943848,954.620361,-142.089844,1.717971
-9.613037,958.648682,-143.280029,1.718705
2.288818,966.064453,-131.561279,1.719460
-2.014160,960.754395,-135.406494,1.720195
-9.063721,963.867188,-131.286621,1.720927
-4.028320,953.704834,-130.920410,1.721669
-4.486084,941.894531,-130.645752,1.722405
-6.774902,948.028564,-119.750977,1.723140
-4.302979,951.416016,-120.300293,1.723875
-6.042480,950.683594,-119.201660,1.724620
-12.451172,949.493408,-112.243652,1.725356
-9.887695,940.246582,-123.413086,1.726091
-4.760742,919.830322,-117.462158,1.726828
-1.831055,937.591553,-140.533447,1.727562
-4.394531,938.049316,-122.680664,1.728296
-8.148193,931.732178,-121.032715,1.729031
-11.535645,928.894043,-115.814209,1.729767
-14.190674,928.894043,-116.821289,1.730502
-10.620117,925.048828,-109.039307,1.731236
-15.289307,923.309326,-108.398438,1.731975
-8.148193,922.760010,-116.638184,1.732709
-17.120361,906.463623,-118.469238,1.733443
-16.937256,909.027100,-115.539551,1.734179
-18.310547,909.118652,-122.680664,1.734915
-16.845703,906.738281,-126.434326,1.735649
-10.528564,905.364990,-125.885010,1.736386
-12.542725,896.301270,-128.448486,1.737121
-16.662598,901.885986,-128.173828,1.737858
-19.866943,902.252197,-135.498047,1.738592
-19.775391,898.498535,-126.983643,1.739327
-18.768311,894.836426,-139.617920,1.740064
-16.662598,889.251709,-141.723633,1.740799
-20.507812,896.392822,-133.026123,1.741534
-23.071289,896.759033,-141.174316,1.742269
-26.641846,898.498535,-136.871338,1.743007
-27.282715,901.885986,-140.533447,1.743742
-23.803711,905.548096,-140.441895,1.744477
-26.000977,900.695801,-149.139404,1.745212
-27.099609,903.991699,-138.793945,1.745946
-35.156250,908.843994,-135.681152,1.746681
-34.606934,902.526855,-139.160156,1.747416
-34.423828,910.583496,-132.385254,1.748165
-39.001465,915.985107,-147.125244,1.748902
-42.663574,919.555664,-137.054443,1.749637
-40.924072,918.640137,-143.371582,1.750373
-53.100586,919.921875,-144.653320,1.751108
-40.557861,933.471680,-138.427734,1.751843
-44.860840,935.852051,-139.892578,1.752578
-43.670654,930.084229,-125.701904,1.753318
-48.339844,923.950195,-134.857178,1.754053
-54.931641,934.112549,-133.666992,1.754787
-56.762695,937.957764,-136.688232,1.755522
-66.009521,933.380127,-127.441406,1.756258
-68.389893,938.415527,-128.265381,1.757028
-68.298340,942.626953,-129.180908,1.757762
-73.516846,941.162109,-136.322021,1.758500
-77.819824,938.964844,-135.131836,1.759234
-79.650879,941.253662,-133.483887,1.759969
-80.749512,947.113037,-136.962891,1.760704
-79.467773,951.232910,-128.173828,1.761441
-76.629639,946.472168,-124.145508,1.762176
-85.418701,942.718506,-134.307861,1.762911
-102.630615,951.324463,-133.666992,1.763647
-100.067139,946.197510,-131.652832,1.764381
-101.165771,940.887451,-130.004883,1.765116
-98.693848,948.028564,-123.504639,1.765850
-101.348877,946.929932,-126.617432,1.766587
-105.560303,959.197998,-131.011963,1.767322
-106.292725,963.775635,-131.561279,1.768055
-101.348877,952.606201,-131.652832,1.768809
-108.947754,959.289551,-131.744385,1.769554
-107.757568,978.790283,-132.659912,1.770297
-113.342285,960.296631,-135.955811,1.771036
-105.560303,961.303711,-125.244141,1.771780
-109.497070,965.332031,-125.610352,1.772518
-105.743408,964.416504,-132.385254,1.773258
-102.355957,963.409424,-124.420166,1.773999
-107.666016,937.957764,-122.772217,1.774745
-106.933594,954.437256,-132.385254,1.775485
-102.905273,958.465576,-122.497559,1.776225
-107.482910,957.366943,-123.138428,1.776969
-109.130859,954.895020,-113.616943,1.777708
-100.708008,950.225830,-112.701416,1.778447
-94.299316,940.979004,-115.539551,1.779187
-97.778320,947.113037,-112.060547,1.779926
-94.207764,954.895020,-107.757568,1.780665
-95.214844,948.394775,-108.215332,1.781405
-89.355469,948.577881,-106.750488,1.782148
-87.432861,941.345215,-105.651855,1.782887
-86.608887,942.077637,-107.757568,1.783626
-87.341309,938.232422,-105.560303,1.784366
-88.256836,932.739258,-112.884521,1.785107
-81.939697,921.386719,-111.419678,1.785847
-74.981689,922.943115,-105.651855,1.786586
-77.087402,917.266846,-109.313965,1.787328
-80.932617,908.386230,-110.595703,1.788068
-81.207275,903.991699,-120.025635,1.788807
-66.925049,889.526367,-114.166260,1.789549
-99.884033,873.504639,-122.772217,1.790290
-59.875488,855.377197,-160.766602,1.791030
-35.522461,921.936035,-130.920410,1.791769
-67.291260,922.576904,-87.890625,1.792507
-105.834961,872.772217,-123.321533,1.793246
-51.452637,843.475342,-190.887451,1.793985
-44.952393,868.011475,-132.019043,1.794724
-85.052490,893.646240,-80.841064,1.795466
-71.594238,853.820801,-131.561279,1.796205
-43.212891,861.328125,-124.786377,1.796944
-49.255371,862.884521,-114.532471,1.797683
-86.975098,869.201660,-93.841553,1.798423
-59.143066,864.624023,-120.391846,1.799162
-47.790527,865.814209,-96.221924,1.799901
-58.044434,851.165771,-95.855713,1.800644
-54.016113,858.215332,-102.996826,1.801383
-64.086914,854.919434,-111.694336,1.802122
-58.685303,850.067139,-103.546143,1.802861
-52.642822,854.644775,-103.088379,1.803600
-58.593750,842.559814,-119.201660,1.804339
-75.714111,832.672119,-109.954834,1.805078
-59.875488,851.440430,-107.391357,1.805820
-53.009033,855.010986,-103.088379,1.806559
-76.354980,849.975586,-121.948242,1.807298
-89.263916,838.256836,-127.807617,1.808037
-80.108643,862.792969,-113.250732,1.808776
-87.524414,867.279053,-135.498047,1.809514
-86.425781,846.221924,-132.110596,1.810253
-63.903809,844.390869,-142.639160,1.810995
-38.452148,846.038818,-129.821777,1.811734
-67.840576,847.045898,-119.110107,1.812472
-51.177979,841.094971,-133.026123,1.813212
-64.086914,827.911377,-163.146973,1.813951
-81.024170,835.144043,-126.983643,1.814690
-80.474854,852.813721,-103.454590,1.815429
-31.311035,874.877930,-106.658936,1.816170
-43.395996,884.582520,-105.468750,1.816910
-76.354980,892.547607,-105.468750,1.817649
-100.799561,896.850586,-108.856201,1.818387
-73.791504,898.498535,-111.968994,1.819128
-77.545166,918.182373,-106.842041,1.819868
-121.673584,915.985107,-106.567383,1.820606
-130.645752,921.020508,-108.673096,1.821348
-113.800049,925.140381,-125.610352,1.822086
-99.884033,923.492432,-125.976562,1.822825
-110.961914,934.295654,-123.779297,1.823564
-126.800537,933.654785,-128.631592,1.824305
-127.716064,943.542480,-129.364014,1.825044
-125.244141,949.951172,-121.765137,1.825783
-131.286621,955.078125,-111.968994,1.826522
-132.659912,968.444824,-119.384766,1.827293
-140.991211,978.332520,-124.420166,1.828032
-143.829346,985.656738,-111.328125,1.828772
-161.682129,996.002197,-114.257812,1.829514
-135.498047,1003.784180,-115.814209,1.830253
-143.005371,1006.164551,-118.560791,1.830992
-145.843506,996.368408,-120.208740,1.831732
-143.188477,1001.953125,-116.180420,1.832470
-136.413574,1008.544922,-118.560791,1.833209
-136.688232,1010.101318,-127.624512,1.833948
-139.251709,1015.045166,-131.103516,1.834688
-138.885498,1013.580322,-127.166748,1.835424
-137.512207,1013.122559,-130.004883,1.836159
-140.808105,1018.066406,-121.124268,1.836896
-140.350342,1017.883301,-129.455566,1.837631
-142.639160,1023.651123,-131.835938,1.838367
-145.294189,1028.045654,-117.553711,1.839104
-143.188477,1024.658203,-119.934082,1.839845
-138.702393,1025.024414,-116.455078,1.840581
-137.878418,1037.384033,-107.391357,1.841317
-139.251709,1040.222168,-111.053467,1.842053
-146.301270,1040.313721,-107.849121,1.842789
-144.378662,1039.398193,-107.299805,1.843525
-151.062012,1034.179688,-108.032227,1.844261
-148.315430,1025.207520,-112.792969,1.844999
-151.062012,1032.623291,-116.271973,1.845735
-143.920898,1008.636475,-111.602783,1.846470
-143.188477,1023.010254,-110.412598,1.847205
-150.970459,1022.003174,-112.609863,1.847943
-145.477295,1016.601562,-113.067627,1.848679
-144.836426,1013.397217,-118.011475,1.849415
-138.977051,1013.854980,-115.356445,1.850152
-148.864746,1007.354736,-119.110107,1.850887
-144.287109,1012.939453,-113.800049,1.851623
-149.871826,998.474121,-120.025635,1.852358
-145.202637,999.023438,-122.589111,1.853114
-145.843506,995.452881,-118.927002,1.853853
-135.955811,994.262695,-126.800537,1.854588
-134.216309,998.748779,-117.645264,1.855344
-142.639160,989.135742,-122.680664,1.856080
-140.625000,985.839844,-123.229980,1.856815
-132.476807,983.642578,-121.124268,1.857549
-147.033691,1001.312256,-121.673584,1.858288
-140.808105,975.585938,-128.814697,1.859023
-136.322021,974.029541,-128.631592,1.859771
-134.216309,980.804443,-118.011475,1.860508
-127.716064,976.684570,-121.765137,1.861244
-127.441406,970.733643,-125.244141,1.861979
-122.039795,977.783203,-127.166748,1.862713
-119.934082,975.311279,-113.525391,1.863453
-118.652344,967.712402,-128.631592,1.864187
-127.441406,970.550537,-127.716064,1.864923
-125.793457,974.395752,-121.673584,1.865657
-120.941162,968.719482,-120.025635,1.866402
-114.807129,974.395752,-94.482422,1.867139
-111.968994,970.825195,-113.891602,1.867874
-105.285645,971.740723,-127.716064,1.868610
-104.003906,973.571777,-120.941162,1.869345
-109.313965,971.649170,-119.750977,1.870082
-109.313965,969.635010,-124.969482,1.870818
-104.187012,971.099854,-118.652344,1.871556
-104.095459,974.029541,-125.427246,1.872291
-97.686768,973.480225,-123.779297,1.873027
-93.292236,973.205566,-123.413086,1.873763
-82.855225,978.149414,-121.948242,1.874499
-88.256836,983.825684,-123.413086,1.875235
-84.960938,981.445312,-124.969482,1.875971
-93.475342,986.022949,-123.046875,1.876709
-91.003418,986.846924,-122.589111,1.877445
-89.263916,988.403320,-121.215820,1.878180
-92.742920,981.903076,-126.434326,1.878916
-87.524414,988.220215,-126.159668,1.879651
-89.721680,989.318848,-122.863770,1.880387
-85.235596,1000.854492,-115.722656,1.881122
-83.221436,998.565674,-114.807129,1.881860
-87.890625,1009.094238,-96.588135,1.882596
-86.151123,1009.185791,-120.666504,1.883331
-87.982178,1013.214111,-122.406006,1.884068
-87.066650,1013.031006,-131.561279,1.884822
-74.890137,1014.862061,-126.159668,1.885559
-85.144043,1013.580322,-128.265381,1.886294
-75.256348,1021.820068,-127.258301,1.887029
-76.080322,1022.918701,-129.821777,1.887764
-74.981689,1027.313232,-126.251221,1.888500
-76.171875,1023.376465,-119.476318,1.889235
-82.580566,1020.904541,-127.349854,1.889984
-79.010010,1023.834229,-123.504639,1.890719
-83.496094,1027.130127,-128.540039,1.891452
-75.622559,1040.405273,-124.237061,1.892198
-83.770752,1038.940430,-116.271973,1.892941
-84.686279,1042.419434,-120.483398,1.893686
-82.031250,1044.158936,-125.885010,1.894424
-87.158203,1046.997070,-118.377686,1.895164
-81.756592,1049.102783,-118.011475,1.895924
-84.228516,1061.737061,-112.426758,1.896659
-79.376221,1056.701660,-119.110107,1.897395
-78.643799,1054.229736,-114.349365,1.898131
-80.017090,1056.884766,-122.772217,1.898866
-81.756592,1057.250977,-129.089355,1.899601
-80.749512,1070.892334,-126.251221,1.900339
-80.566406,1066.497803,-119.110107,1.901075
-75.714111,1066.497803,-115.264893,1.901811
-81.390381,1064.666748,-125.610352,1.902547
-80.383301,1065.948486,-132.385254,1.903282
-85.052490,1064.849854,-134.948730,1.904018
-75.622559,1065.673828,-125.061035,1.904753
-77.362061,1073.455811,-125.335693,1.905492
-82.855225,1080.047607,-125.976562,1.906227
-80.932617,1073.822021,-131.195068,1.906962
-81.024170,1069.976807,-131.927490,1.907697
-81.207275,1071.350098,-132.843018,1.908433
-86.059570,1070.709229,-130.554199,1.909179
-95.764160,1056.701660,-120.941162,1.909929
-88.348389,1066.680908,-143.188477,1.910672
-91.003418,1065.490723,-151.885986,1.911409
-95.123291,1068.511963,-140.441895,1.912145
-95.031738,1067.871094,-154.632568,1.912880
-100.708008,1063.201904,-145.568848,1.913616
-100.158691,1060.089111,-144.470215,1.914352
-106.109619,1060.913086,-155.548096,1.915087
-104.370117,1069.244385,-149.139404,1.915832
-109.680176,1069.610596,-154.815674,1.916576
-96.771240,1065.582275,-151.153564,1.917318
-112.884521,1066.223145,-149.688721,1.918059
-116.455078,1069.244385,-153.442383,1.918798
-124.053955,1061.920166,-155.456543,1.919537
-124.603271,1066.680908,-151.336670,1.920277
-129.547119,1067.962646,-152.252197,1.921021
-130.737305,1070.159912,-148.040771,1.921761
-130.371094,1069.335938,-149.505615,1.922500
-137.695312,1070.800781,-154.449463,1.923240
-140.716553,1077.575684,-149.780273,1.923980
-141.357422,1071.075439,-152.709961,1.924719
-162.872314,1066.680908,-159.210205,1.925458
-144.927979,1068.969727,-146.667480,1.926208
-149.322510,1068.695068,-154.357910,1.926949
-147.399902,1061.737061,-150.695801,1.927689
-151.062012,1069.427490,-149.414062,1.928428
-165.985107,1073.822021,-156.280518,1.929168
-156.097412,1080.230713,-157.287598,1.929907
-159.851074,1074.279785,-156.646729,1.930646
-152.984619,1072.174072,-149.688721,1.931391
-157.104492,1070.892334,-155.456543,1.932130
-156.188965,1078.765869,-153.259277,1.932869
-163.513184,1066.406250,-158.477783,1.933608
-165.802002,1076.202393,-154.815674,1.934347
-163.879395,1072.357178,-160.766602,1.935085
-167.724609,1067.230225,-154.174805,1.935825
-165.893555,1062.103271,-157.562256,1.936567
-164.428711,1074.645996,-155.822754,1.937307
-156.921387,1072.998047,-152.801514,1.938046
-157.287598,1070.434570,-158.294678,1.938785
-164.611816,1061.370850,-149.414062,1.939527
-170.837402,1071.899414,-152.893066,1.940265
-171.386719,1065.307617,-152.526855,1.941004
-176.605225,1074.188232,-151.062012,1.941743
-174.041748,1056.243896,-144.744873,1.942478
-170.654297,1061.004639,-148.773193,1.943215
-178.710938,1063.018799,-148.132324,1.943951
-174.133301,1061.004639,-155.731201,1.944693
-173.583984,1053.588867,-154.083252,1.945431
-170.837402,1055.145264,-153.442383,1.946170
-175.048828,1055.603027,-147.857666,1.946909
-179.992676,1045.898438,-155.364990,1.947649
-177.795410,1041.412354,-158.935547,1.948388
-172.302246,1037.658691,-161.865234,1.949127
-180.267334,1040.313721,-152.343750,1.949869
-182.098389,1034.637451,-151.702881,1.950608
-182.189941,1031.524658,-152.709961,1.951347
-181.823730,1029.968262,-152.526855,1.952084
-180.175781,1034.454346,-147.308350,1.952820
-182.647705,1038.391113,-153.076172,1.953555
-190.155029,1034.271240,-153.991699,1.954291
-182.098389,1037.841797,-143.096924,1.955033
-179.534912,1029.876709,-151.885986,1.955770
-175.598145,1028.045654,-151.153564,1.956508
-179.901123,1024.566650,-151.153564,1.957246
-177.062988,1025.299072,-140.808105,1.957984
-179.534912,1030.426025,-138.977051,1.958722
-179.718018,1025.756836,-146.118164,1.959461
-174.774170,1031.433105,-148.498535,1.960201
-181.091309,1024.749756,-150.604248,1.960940
-176.879883,1021.728516,-145.385742,1.961677
-178.894043,1017.608643,-150.421143,1.962415
-177.795410,1019.714355,-137.786865,1.963183
-177.520752,1017.242432,-138.793945,1.963921
-170.928955,1013.122559,-133.758545,1.964657
-176.696777,1011.840820,-136.779785,1.965396
-173.034668,1018.341064,-134.216309,1.966131
-170.654297,1014.678955,-137.237549,1.966866
-169.830322,1009.826660,-139.434814,1.967601
-176.147461,1008.361816,-143.646240,1.968339
-143.188477,1012.573242,-138.610840,1.969074
-161.773682,1012.207031,-137.878418,1.969809
-162.414551,1011.016846,-130.462646,1.970547
-161.224365,1007.629395,-137.145996,1.971281
-158.111572,1002.960205,-139.617920,1.972016
-186.126709,1011.291504,-134.490967,1.972751
-159.210205,1003.234863,-141.998291,1.973504
-151.611328,1008.453369,-136.779785,1.974242
-144.561768,1008.728027,-134.399414,1.974977
-148.315430,1007.720947,-141.357422,1.975711
-144.836426,1014.038086,-137.329102,1.976445
-139.068604,1017.608643,-145.019531,1.977225
-135.681152,1010.192871,-139.434814,1.977972
-131.103516,1012.847900,-137.878418,1.978726
-129.455566,1013.854980,-137.512207,1.979466
-134.765625,1012.023926,-130.737305,1.980204
-134.765625,1030.792236,-136.322021,1.980950
-128.448486,1012.664795,-134.216309,1.981688
-120.391846,1011.566162,-131.378174,1.982426
-118.286133,1014.404297,-121.948242,1.983164
-120.941162,1023.834229,-119.476318,1.983902
-118.743896,1022.827148,-124.694824,1.984640
-109.771729,1026.763916,-128.540039,1.985379
-114.440918,1021.087646,-123.046875,1.986121
-119.750977,1018.524170,-130.371094,1.986858
-107.757568,1032.531738,-115.997314,1.987597
-107.574463,1026.672363,-123.962402,1.988335
-110.687256,1018.981934,-114.166260,1.989076
-110.046387,1022.094727,-121.124268,1.989815
-108.398438,1022.094727,-122.680664,1.990553
-102.081299,1024.017334,-115.814209,1.991294
-107.482910,1024.200439,-115.905762,1.992032
-105.468750,1030.334473,-121.124268,1.992769
-105.377197,1025.482178,-120.666504,1.993507
-102.905273,1019.165039,-115.997314,1.994247
-106.292725,1027.862549,-113.159180,1.994985
-106.384277,1025.207520,-94.299316,1.995736
-114.166260,1020.812988,-112.243652,1.996482
-113.342285,1025.207520,-117.004395,1.997220
-113.800049,1023.834229,-106.933594,1.997959
-116.363525,1020.721436,-105.468750,1.998697
-116.912842,1024.108887,-108.215332,1.999438
-118.103027,1015.686035,-108.947754,2.000176
-119.293213,1012.207031,-112.518311,2.000914
-116.455078,1017.333984,-106.658936,2.001654
-116.455078,1015.228271,-104.278564,2.002392
-118.560791,1010.650635,-101.165771,2.003129
-124.511719,1006.072998,-111.785889,2.003866
-132.476807,1007.446289,-110.137939,2.004606
-138.885498,996.551514,-114.807129,2.005344
-137.054443,997.192383,-107.208252,2.006081
-119.384766,993.896484,-115.997314,2.006819
-131.286621,998.107910,-107.299805,2.007558
-141.357422,998.840332,-109.771729,2.008295
-146.759033,990.966797,-111.236572,2.009033
-148.681641,987.213135,-112.152100,2.009774
-147.033691,983.734131,-111.236572,2.010512
-144.287109,975.402832,-110.137939,2.011250
-153.900146,972.290039,-111.694336,2.011988
-151.519775,982.543945,-138.702393,2.012726
-156.738281,972.930908,-120.117188,2.013463
-157.928467,971.740723,-111.785889,2.014201
-158.294678,969.268799,-119.476318,2.014943
-168.914795,965.972900,-119.018555,2.015680
-160.766602,965.972900,-121.765137,2.016418
-161.407471,971.649170,-99.792480,2.017156
-159.210205,965.606689,-115.722656,2.017894
-175.231934,967.346191,-124.694824,2.018632
-171.844482,964.508057,-118.835449,2.019370
-169.555664,958.007812,-123.687744,2.020110
-170.013428,972.198486,-121.307373,2.020847
-182.006836,959.472656,-121.032715,2.021585
-173.400879,955.352783,-120.666504,2.022323
-175.506592,964.508057,-122.680664,2.023062
-176.971436,960.296631,-119.750977,2.023799
-179.534912,965.057373,-114.807129,2.024538
-174.407959,966.705322,-114.532471,2.025279
-173.034668,972.564697,-114.074707,2.026016
-183.197021,961.212158,-114.990234,2.026754
-186.676025,965.881348,-118.927002,2.027491
-183.929443,958.099365,-114.257812,2.028232
-186.401367,958.374023,-118.194580,2.028970
-190.338135,955.444336,-95.031738,2.029708
-182.006836,967.346191,-118.377686,2.030449
-188.049316,962.127686,-114.532471,2.031228
-185.943604,966.339111,-110.412598,2.031966
-183.013916,965.148926,-124.053955,2.032705
-183.197021,963.409424,-114.898682,2.033443
-182.739258,983.917236,-109.405518,2.034180
-178.436279,970.733643,-118.743896,2.034919
-188.598633,962.310791,-113.159180,2.035661
-187.866211,965.240479,-112.426758,2.036400
-181.823730,971.191406,-107.391357,2.037137
-207.641602,972.564697,-106.109619,2.037876
-187.042236,976.409912,-110.504150,2.038616
-182.830811,964.416504,-111.053467,2.039354
-173.126221,959.381104,-106.109619,2.040092
-174.224854,971.557617,-109.222412,2.040832
-168.914795,973.114014,-106.384277,2.041570
-177.062988,977.783203,-109.405518,2.042308
-166.259766,975.128174,-115.264893,2.043046
-161.865234,975.952148,-118.103027,2.043787
-143.920898,978.424072,-109.222412,2.044545
-141.815186,977.691650,-106.842041,2.045302
-161.682129,980.529785,-100.524902,2.046048
-152.984619,981.719971,-98.968506,2.046785
-157.196045,990.692139,-103.546143,2.047524
-153.991699,989.044189,-98.876953,2.048260
-162.048340,982.269287,-100.616455,2.048995
-158.843994,992.340088,-103.088379,2.049729
-155.364990,983.642578,-91.735840,2.050464
