ACC_X,ACC_Y,ACC_Z,Time
-423.065186,561.676025,697.174072,0.000054
-425.537109,584.472656,703.674316,0.000800
-423.065186,570.648193,684.356689,0.001536
-420.318604,566.894531,695.526123,0.002271
-424.255371,560.211182,699.829102,0.003006
-402.648926,566.619873,704.040527,0.003742
-421.142578,563.598633,699.005127,0.004478
-420.501709,564.422607,723.358154,0.005213
-421.417236,576.324463,707.153320,0.005951
-412.078857,575.408936,713.836670,0.006687
-435.882568,574.676514,703.399658,0.007422
-419.403076,575.958252,706.604004,0.008160
-425.354004,576.416016,707.702637,0.008901
-415.924072,585.754395,709.442139,0.009638
-417.663574,588.317871,712.188721,0.010374
-420.227051,575.317383,720.245361,0.011109
-420.410156,602.233887,714.843750,0.011844
-416.107178,592.163086,716.033936,0.012580
-411.529541,589.050293,710.174561,0.013315
-418.304443,581.817627,704.772949,0.014054
-398.620605,586.029053,707.244873,0.014795
-417.388916,586.212158,704.498291,0.015531
-416.198730,577.606201,702.758789,0.016264
-421.142578,580.261230,698.089600,0.016999
-417.114258,586.853027,700.378418,0.017734
-418.762207,589.141846,699.920654,0.018468
-410.614014,580.352783,703.033447,0.019225
-416.656494,580.169678,700.653076,0.019963
-417.297363,584.564209,704.681396,0.020698
-417.663574,587.677002,697.814941,0.021433
-423.889160,582.366943,702.575684,0.022168
-416.931152,580.993652,703.216553,0.022903
-419.860840,584.289551,701.843262,0.023637
-416.748047,585.479736,703.308105,0.024392
-418.762207,588.409424,702.850342,0.025130
-418.395996,587.951660,707.336426,0.025866
-413.818359,586.578369,705.047607,0.026602
-421.600342,609.191895,702.026367,0.027343
-425.354004,595.092773,680.145264,0.028077
-427.459717,586.944580,705.780029,0.028812
-431.304932,591.247559,706.604004,0.029556
-428.741455,583.007812,695.251465,0.030300
-426.727295,587.219238,694.885254,0.031039
-421.783447,580.535889,688.842773,0.031777
-431.030273,574.768066,698.638916,0.032518
-422.790527,582.641602,695.251465,0.033271
-425.628662,576.324463,695.159912,0.034011
-429.382324,590.332031,694.244385,0.034753
-429.840088,579.071045,691.864014,0.035491
-426.452637,573.028564,692.321777,0.036230
-427.459717,571.472168,696.624756,0.036969
-429.565430,570.281982,692.779541,0.037708
-426.269531,577.239990,695.251465,0.038447
-423.706055,579.437256,702.667236,0.039186
-429.382324,564.239502,705.322266,0.039927
-420.959473,588.592529,707.977295,0.040666
-429.565430,591.705322,718.139648,0.041405
-429.473877,592.163086,711.273193,0.042144
-425.262451,590.057373,711.547852,0.042881
-427.459717,580.535889,723.449707,0.043619
-429.931641,587.951660,722.076416,0.044359
-423.248291,595.092773,722.076416,0.045102
-421.051025,589.874268,721.343994,0.045841
-428.100586,582.366943,719.329834,0.046579
-427.459717,585.388184,711.730957,0.047316
-419.769287,576.324463,709.808350,0.048058
-420.501709,584.564209,705.780029,0.048799
-423.156738,578.613281,699.188232,0.049537
-415.008545,572.662354,696.533203,0.050279
-409.606934,566.528320,697.174072,0.051017
-406.036377,569.366455,681.152344,0.051755
-399.902344,570.648193,679.046631,0.052493
-401.733398,563.323975,681.243896,0.053232
-398.712158,561.218262,686.187744,0.053970
-399.627686,561.218262,684.997559,0.054707
-397.705078,560.760498,697.448730,0.055445
-404.846191,568.725586,700.561523,0.056188
-403.930664,572.296143,709.075928,0.056928
-402.557373,574.035645,711.822510,0.057667
-405.761719,578.155518,713.195801,0.058409
-402.008057,569.641113,721.435547,0.059147
-398.895264,572.113037,710.632324,0.059885
-397.979736,572.204590,719.696045,0.060627
-392.852783,567.810059,706.512451,0.061365
-391.479492,567.169189,712.097168,0.062103
-391.662598,571.289062,714.111328,0.062842
-385.253906,564.971924,704.956055,0.063582
-390.197754,563.781738,697.265625,0.064321
-387.451172,555.358887,692.962646,0.065058
-381.225586,561.584473,689.941406,0.065799
-382.507324,558.746338,690.765381,0.066539
-378.387451,565.063477,693.878174,0.067277
-379.028320,555.908203,700.195312,0.068014
-383.331299,564.788818,704.589844,0.068756
-387.634277,563.049316,709.167480,0.069493
-387.542725,540.344238,708.160400,0.070282
-387.359619,565.795898,710.998535,0.071022
-389.739990,569.183350,708.526611,0.071760
-395.050049,563.140869,716.674805,0.072498
-394.866943,570.739746,710.357666,0.073236
-420.043945,560.394287,704.315186,0.073979
-399.353027,567.901611,696.716309,0.074717
-402.282715,556.823730,696.899414,0.075454
-399.078369,552.612305,691.680908,0.076193
-402.191162,552.246094,692.962646,0.076931
-405.029297,559.936523,682.434082,0.077670
-404.296875,559.387207,686.004639,0.078408
-409.515381,542.175293,674.102783,0.079151
-411.437988,554.351807,677.398682,0.079893
-410.980225,550.323486,681.060791,0.080643
-412.902832,555.084229,678.131104,0.081383
-414.367676,553.527832,677.856445,0.082121
-416.473389,553.070068,685.638428,0.082859
-420.776367,555.358887,682.434082,0.083597
-423.522949,551.788330,661.285400,0.084339
-422.058105,556.823730,686.279297,0.085078
-421.051025,550.506592,680.694580,0.085816
-443.664551,551.422119,679.504395,0.086551
-424.255371,556.915283,679.687500,0.087286
-420.227051,558.837891,679.595947,0.088022
-416.381836,556.732178,679.870605,0.088756
-416.931152,559.295654,672.546387,0.089493
-422.332764,556.182861,675.476074,0.090228
-422.058105,555.541992,682.342529,0.090963
-422.241211,556.365967,683.166504,0.091699
-420.593262,558.837891,682.800293,0.092436
-414.367676,567.993164,687.561035,0.093172
-422.790527,565.521240,687.652588,0.093906
-419.860840,572.662354,683.898926,0.094642
-422.973633,576.232910,685.180664,0.095378
-420.867920,580.352783,683.166504,0.096113
-424.987793,580.352783,681.060791,0.096848
-423.614502,577.514648,686.737061,0.097585
-422.241211,578.063965,690.216064,0.098319
-423.797607,576.690674,693.511963,0.099056
-421.142578,585.205078,688.476562,0.099793
-421.875000,588.226318,689.392090,0.100529
-420.593262,591.064453,692.687988,0.101264
-445.312500,588.043213,700.012207,0.101999
-424.804688,592.346191,701.751709,0.102757
-418.029785,598.388672,698.181152,0.103496
-421.508789,599.945068,702.575684,0.104232
-419.677734,595.458984,705.322266,0.104968
-416.198730,592.163086,705.596924,0.105705
-415.283203,600.494385,698.089600,0.106441
-413.909912,605.621338,706.237793,0.107177
-412.536621,602.966309,707.336426,0.107920
-416.839600,597.747803,707.519531,0.108656
-421.142578,603.607178,693.328857,0.109392
-408.325195,603.057861,694.793701,0.110128
-415.374756,600.769043,701.751709,0.110866
-413.909912,601.776123,705.047607,0.111602
-417.572021,609.008789,707.153320,0.112338
-409.973145,611.755371,713.012695,0.113074
-415.832520,614.593506,718.414307,0.113809
-418.121338,615.325928,720.336914,0.114545
-411.071777,608.551025,720.153809,0.115281
-414.184570,608.917236,722.991943,0.116021
-419.952393,615.509033,722.900391,0.116756
-420.410156,614.685059,731.506348,0.117491
-418.121338,603.881836,720.886230,0.118227
-420.227051,588.684082,723.175049,0.118963
-430.114746,602.416992,747.619629,0.119699
-424.713135,601.409912,718.139648,0.120435
-421.234131,598.388672,714.111328,0.121183
-414.276123,592.529297,709.442139,0.121919
-406.311035,570.739746,700.744629,0.122652
-403.839111,579.620361,693.695068,0.123386
-413.726807,580.169678,687.011719,0.124120
-399.078369,576.965332,694.885254,0.124853
-398.620605,577.697754,691.497803,0.125586
-395.233154,577.331543,688.842773,0.126325
-401.824951,573.944092,689.758301,0.127059
-413.177490,571.014404,689.666748,0.127793
-406.311035,570.739746,691.131592,0.128525
-408.874512,575.775146,690.673828,0.129261
-414.550781,633.728027,688.110352,0.129993
-386.535645,679.138184,707.519531,0.130726
-433.868408,756.134033,707.611084,0.131460
-399.993896,650.665283,746.337891,0.132194
-494.110107,559.661865,839.630127,0.132945
-456.024170,588.684082,806.945801,0.133679
-427.185059,634.368896,879.180908,0.134416
-362.091064,677.764893,885.955811,0.135149
-369.964600,668.060303,865.081787,0.135883
-359.985352,667.877197,876.983643,0.136617
-356.048584,670.989990,795.410156,0.137350
-454.650879,648.742676,787.719727,0.138083
-429.199219,596.374512,753.387451,0.138817
-509.674072,565.795898,672.912598,0.139557
-480.285645,548.858643,634.460449,0.140321
-459.869385,551.147461,598.388672,0.141054
-468.383789,559.387207,589.965820,0.141787
-423.339844,555.084229,592.529297,0.142527
-381.591797,560.943604,597.198486,0.143262
-439.361572,547.393799,615.692139,0.143996
-400.726318,542.083740,631.805420,0.144731
-407.226562,540.161133,629.974365,0.145466
-421.325684,543.914795,632.812500,0.146201
-390.838623,542.175293,634.277344,0.146935
-437.805176,549.591064,641.784668,0.147673
-405.670166,556.732178,643.890381,0.148407
-425.537109,560.577393,657.073975,0.149142
-460.510254,563.781738,665.863037,0.149879
-452.819824,567.901611,678.405762,0.150612
-486.328125,560.119629,679.962158,0.151346
-473.327637,566.711426,677.215576,0.152099
-494.476318,560.668945,683.258057,0.152846
-484.497070,571.472168,676.208496,0.153582
-484.954834,561.035156,672.821045,0.154317
-468.933105,558.929443,676.849365,0.155055
-453.918457,565.612793,672.271729,0.155794
-448.608398,563.690186,678.863525,0.156529
-410.156250,573.577881,680.328369,0.157264
-433.227539,579.620361,685.272217,0.158007
-436.614990,577.239990,682.708740,0.158743
-439.086914,576.599121,688.751221,0.159479
-474.792480,580.535889,689.575195,0.160217
-460.784912,581.451416,691.955566,0.160952
-480.468750,584.564209,698.455811,0.161686
-492.004395,580.902100,707.244873,0.162421
-489.440918,580.718994,715.667725,0.163158
-472.503662,586.303711,725.463867,0.163892
-458.129883,591.979980,723.541260,0.164627
-454.193115,592.712402,728.302002,0.165363
-446.136475,601.409912,723.541260,0.166116
-440.277100,597.106934,723.907471,0.166862
-441.101074,590.881348,714.385986,0.167601
-439.086914,580.169678,705.688477,0.168344
-447.784424,583.190918,696.990967,0.169083
-446.319580,590.240479,679.046631,0.169821
-455.841064,584.747314,674.011230,0.170560
-453.552246,584.655762,701.477051,0.171302
-453.918457,589.782715,678.314209,0.172041
-451.995850,592.803955,679.595947,0.172812
-446.319580,586.486816,694.061279,0.173570
-449.798584,585.021973,700.469971,0.174310
-446.502686,590.515137,710.998535,0.175048
-428.009033,588.775635,726.745605,0.175788
-436.614990,588.317871,746.337891,0.176532
-427.734375,595.550537,724.273682,0.177272
-432.312012,597.564697,719.055176,0.178010
-444.396973,593.902588,719.055176,0.178753
-442.291260,586.120605,704.864502,0.179491
-444.763184,590.332031,707.519531,0.180229
-454.010010,578.338623,702.941895,0.180968
-451.812744,575.500488,696.166992,0.181711
-437.164307,575.866699,692.504883,0.182450
-436.614990,570.922852,694.335938,0.183188
-419.860840,573.944092,687.469482,0.183926
-411.163330,566.436768,690.490723,0.184670
-405.212402,578.247070,685.089111,0.185407
-400.543213,575.775146,690.765381,0.186140
-407.043457,574.768066,694.152832,0.186879
-411.987305,575.317383,693.786621,0.187612
-418.212891,577.972412,695.617676,0.188345
-411.529541,576.965332,693.969727,0.189078
-429.382324,571.197510,700.012207,0.189810
-433.319092,573.394775,708.435059,0.190542
-433.044434,578.521729,708.801270,0.191274
-434.509277,577.697754,703.674316,0.192008
-422.607422,583.099365,705.322266,0.192741
-414.733887,586.669922,710.540771,0.193481
-398.986816,581.359863,711.181641,0.194214
-396.881104,583.831787,707.427979,0.194972
-399.902344,580.169678,704.589844,0.195711
-398.071289,580.718994,703.857422,0.196450
-400.817871,587.768555,710.266113,0.197191
-409.973145,586.120605,703.948975,0.197931
-422.149658,590.332031,703.399658,0.198667
-422.149658,584.838867,698.181152,0.199418
-432.952881,589.782715,702.941895,0.200161
-438.812256,591.888428,706.787109,0.200898
-445.770264,594.177246,709.533691,0.201633
-443.572998,602.416992,701.385498,0.202371
-449.340820,607.086182,714.569092,0.203107
-449.615479,609.283447,713.104248,0.203843
-439.086914,608.093262,703.582764,0.204579
-438.537598,614.868164,717.590332,0.205318
-440.826416,621.185303,720.611572,0.206054
-447.967529,624.481201,711.456299,0.206790
-445.495605,634.552002,712.554932,0.207526
-452.178955,625.305176,714.752197,0.208263
-464.813232,624.481201,721.252441,0.208999
-470.397949,635.101318,715.118408,0.209735
-451.812744,637.207031,719.512939,0.210471
-466.094971,642.059326,721.343994,0.211250
-474.151611,642.517090,730.865479,0.211987
-468.933105,641.052246,730.316162,0.212725
-462.341309,653.320312,736.633301,0.213464
-456.115723,651.763916,748.626709,0.214200
-452.911377,654.602051,747.253418,0.214936
-457.580566,654.510498,745.788574,0.215687
-457.946777,658.630371,755.493164,0.216424
-453.002930,660.461426,755.584717,0.217159
-472.778320,660.003662,747.253418,0.217894
-456.665039,660.736084,747.528076,0.218633
-464.263916,660.095215,750.549316,0.219369
-466.003418,656.524658,748.168945,0.220103
-473.052979,657.989502,744.964600,0.220845
-468.750000,654.876709,744.964600,0.221580
-464.813232,649.749756,737.823486,0.222321
-464.263916,655.059814,748.077393,0.223063
-465.362549,654.052734,736.999512,0.223807
-470.214844,647.918701,730.773926,0.224543
-466.644287,630.249023,733.520508,0.225282
-467.926025,640.136719,731.689453,0.226017
-464.538574,636.566162,727.203369,0.226752
-463.989258,628.692627,718.963623,0.227487
-466.735840,628.143311,725.921631,0.228222
-464.355469,628.234863,716.766357,0.228961
-469.390869,622.741699,716.033936,0.229696
-462.432861,613.311768,725.006104,0.230431
-464.263916,614.501953,716.949463,0.231169
-474.426270,611.846924,715.393066,0.231914
-449.249268,610.290527,705.963135,0.232653
-470.581055,598.297119,707.061768,0.233391
-463.897705,592.071533,696.075439,0.234133
-463.714600,597.015381,690.307617,0.234872
-476.348877,585.113525,689.758301,0.235610
-462.799072,581.359863,679.412842,0.236348
-477.905273,572.937012,674.102783,0.237087
-472.412109,566.986084,670.257568,0.237825
-477.264404,567.993164,667.694092,0.238564
-446.868896,560.943604,669.433594,0.239305
-451.995850,561.584473,676.483154,0.240042
-460.144043,559.661865,675.292969,0.240782
-449.707031,555.908203,677.764893,0.241520
-451.812744,552.337646,685.913086,0.242261
-448.883057,541.625977,685.638428,0.243000
-467.559814,539.154053,694.335938,0.243739
-454.376221,523.132324,696.899414,0.244481
-442.382812,542.907715,681.060791,0.245219
-446.777344,536.590576,700.286865,0.245957
-439.819336,528.350830,690.673828,0.246695
-435.058594,520.843506,681.335449,0.247437
-442.657471,511.596680,672.180176,0.248173
-440.368652,507.568359,666.687012,0.248907
-438.629150,512.512207,659.454346,0.249641
-431.579590,503.082275,661.102295,0.250377
-426.544189,505.004883,665.954590,0.251112
-419.036865,503.173828,655.975342,0.251847
-403.198242,510.498047,662.841797,0.252585
-412.261963,510.681152,669.342041,0.253320
-402.374268,509.674072,676.849365,0.254056
-429.199219,506.561279,667.236328,0.254791
-424.530029,504.272461,668.243408,0.255525
-420.684814,509.216309,675.750732,0.256260
-434.143066,499.694824,676.849365,0.256995
-432.769775,504.272461,675.292969,0.257732
-433.593750,497.222900,675.842285,0.258467
-431.945801,505.645752,676.483154,0.259202
-437.622070,512.512207,681.152344,0.259936
-420.867920,506.103516,692.687988,0.260674
-416.107178,514.434814,686.828613,0.261409
-408.508301,508.117676,688.476562,0.262144
-404.388428,523.132324,701.751709,0.262882
-404.205322,528.717041,703.033447,0.263617
-407.409668,523.681641,704.223633,0.264351
-405.120850,528.442383,706.054688,0.265086
-405.120850,540.710449,705.780029,0.265841
-419.586182,541.900635,714.294434,0.266581
-410.247803,543.457031,729.858398,0.267318
-417.022705,548.126221,723.541260,0.268055
-409.698486,560.302734,729.400635,0.268790
-408.966064,562.316895,734.619141,0.269525
-409.606934,566.253662,731.414795,0.270260
-407.592773,560.760498,745.239258,0.271007
-402.740479,567.535400,742.034912,0.271741
-398.162842,570.098877,750.823975,0.272474
-403.015137,570.739746,751.098633,0.273208
-391.021729,572.570801,757.232666,0.273944
-405.487061,573.486328,754.119873,0.274680
-400.817871,572.937012,748.352051,0.275415
-385.253906,586.761475,748.168945,0.276154
-398.712158,579.803467,743.682861,0.276890
-392.486572,586.578369,739.746094,0.277625
-393.218994,585.479736,738.098145,0.278361
-376.281738,585.205078,731.689453,0.279099
-400.543213,592.254639,731.872559,0.279836
-389.648438,594.818115,735.717773,0.280570
-392.395020,593.627930,728.576660,0.281352
-392.120361,590.148926,733.245850,0.282088
-390.289307,597.198486,727.752686,0.282823
-399.536133,600.769043,729.858398,0.283557
-405.395508,590.057373,737.823486,0.284308
-401.000977,608.825684,735.260010,0.285045
-413.543701,608.642578,735.076904,0.285780
-416.748047,612.396240,744.781494,0.286516
-410.522461,618.988037,744.506836,0.287252
-414.733887,621.185303,753.936768,0.287987
-423.797607,616.424561,757.507324,0.288723
-422.058105,629.791260,756.774902,0.289462
-419.128418,626.495361,759.246826,0.290205
-425.262451,628.509521,761.169434,0.290944
-425.720215,631.164551,763.183594,0.291682
-413.726807,637.939453,758.789062,0.292433
-420.501709,610.290527,754.669189,0.293175
-423.522949,609.741211,764.190674,0.293924
-422.332764,633.728027,754.852295,0.294671
-430.572510,624.755859,765.197754,0.295409
-403.930664,632.080078,784.790039,0.296149
-416.015625,641.052246,783.599854,0.296896
-385.070801,648.010254,795.135498,0.297646
-403.472900,643.066406,802.734375,0.298383
-410.430908,653.411865,792.938232,0.299118
-400.543213,654.052734,781.219482,0.299853
-431.579590,636.657715,772.888184,0.300589
-424.530029,637.207031,768.127441,0.301323
-454.467773,614.776611,760.070801,0.302062
-463.806152,623.199463,748.352051,0.302798
-453.186035,614.593506,753.570557,0.303533
-474.975586,614.685059,739.105225,0.304269
-457.855225,615.051270,744.140625,0.305007
-452.178955,617.614746,758.697510,0.305744
-433.868408,613.403320,760.345459,0.306480
-406.036377,607.177734,772.064209,0.307219
-414.550781,602.416992,765.655518,0.307958
-415.374756,598.846436,768.493652,0.308696
-421.325684,598.480225,762.817383,0.309433
-424.072266,587.219238,772.064209,0.310174
-415.649414,592.071533,774.444580,0.310912
-426.910400,587.402344,781.127930,0.311649
-419.219971,581.268311,775.726318,0.312387
-451.080322,584.472656,766.113281,0.313128
-457.763672,570.739746,764.739990,0.313877
-470.855713,557.281494,745.330811,0.314617
-485.046387,551.055908,730.957031,0.315358
-448.608398,547.485352,732.330322,0.316095
-474.151611,539.978027,716.217041,0.316831
-463.439941,535.583496,705.688477,0.317574
-448.242188,518.463135,698.822021,0.318314
-441.284180,518.554688,686.187744,0.319053
-413.818359,513.977051,685.546875,0.319791
-413.269043,508.300781,676.849365,0.320533
-398.345947,493.927002,684.265137,0.321271
-400.817871,494.201660,664.947510,0.322008
-412.628174,478.912354,676.574707,0.322747
-427.551270,472.961426,676.208496,0.323486
-437.072754,477.355957,672.912598,0.324223
-447.875977,476.348877,673.828125,0.324962
-455.108643,481.567383,667.785645,0.325702
-446.777344,479.095459,669.982910,0.326440
-441.192627,478.546143,681.427002,0.327178
-432.678223,473.144531,689.208984,0.327916
-424.438477,469.940186,680.236816,0.328654
-431.945801,474.609375,680.694580,0.329391
-414.550781,475.524902,668.518066,0.330129
-424.438477,468.933105,669.891357,0.330872
-415.557861,472.778320,667.053223,0.331610
-424.896240,473.510742,663.482666,0.332347
-424.438477,461.517334,658.264160,0.333085
-424.621582,459.228516,652.404785,0.333826
-439.636230,450.439453,648.284912,0.334564
-434.509277,457.672119,643.432617,0.335303
-430.664062,471.130371,653.411865,0.336043
-428.375244,474.609375,662.567139,0.336782
-426.177979,466.644287,672.546387,0.337520
-426.910400,473.144531,681.610107,0.338258
-416.107178,477.355957,680.236816,0.338999
-417.388916,489.257812,695.983887,0.339737
-431.488037,481.384277,706.420898,0.340475
-431.030273,489.624023,708.251953,0.341213
-436.798096,490.631104,715.576172,0.341951
-444.396973,489.715576,719.329834,0.342690
-433.868408,495.483398,722.900391,0.343427
-431.945801,503.082275,718.872070,0.344169
-433.319092,498.504639,721.435547,0.344906
-433.685303,506.286621,719.696045,0.345644
-432.586670,508.026123,717.956543,0.346382
-428.924561,513.793945,728.027344,0.347121
-422.241211,517.547607,727.569580,0.347859
-417.388916,521.667480,731.964111,0.348597
-423.156738,519.744873,737.731934,0.349339
-424.530029,523.590088,736.267090,0.350076
-428.833008,526.245117,731.689453,0.350814
-430.023193,523.590088,737.091064,0.351598
-430.755615,524.505615,741.943359,0.352336
-437.072754,531.188965,744.323730,0.353074
-444.854736,529.357910,735.900879,0.353812
-443.572998,532.653809,742.767334,0.354553
-443.481445,537.872314,744.873047,0.355291
-445.220947,539.611816,736.175537,0.356028
-439.178467,539.886475,748.626709,0.356777
-435.699463,543.731689,740.844727,0.357519
-440.460205,544.006348,752.105713,0.358258
-430.114746,548.950195,739.746094,0.358996
-440.185547,549.041748,752.655029,0.359737
-445.678711,545.837402,743.133545,0.360475
-441.650391,547.668457,755.035400,0.361217
-450.164795,548.309326,772.705078,0.361956
-451.629639,566.345215,751.373291,0.362699
-455.474854,552.795410,748.535156,0.363438
-456.115723,555.541992,760.070801,0.364176
-454.559326,558.471680,762.359619,0.364919
-455.291748,559.661865,767.852783,0.365657
-448.608398,553.344727,771.331787,0.366395
-440.917969,559.204102,771.514893,0.367136
-430.755615,548.217773,769.500732,0.367874
-406.768799,555.084229,785.522461,0.368614
-412.078857,559.387207,792.938232,0.369352
-408.966064,555.908203,794.219971,0.370090
-404.022217,560.211182,787.811279,0.370825
-406.311035,553.436279,794.860840,0.371560
-407.135010,555.084229,792.572021,0.372294
-409.698486,556.457520,772.155762,0.373029
-419.494629,560.302734,769.409180,0.373764
-442.657471,541.717529,752.197266,0.374514
-441.833496,546.203613,748.901367,0.375252
-451.080322,539.520264,744.781494,0.375992
-457.489014,544.830322,742.309570,0.376729
-457.305908,541.534424,745.330811,0.377464
-449.707031,542.816162,745.513916,0.378205
-441.101074,548.492432,755.035400,0.378944
-446.319580,542.541504,757.598877,0.379689
-435.607910,544.464111,765.930176,0.380428
-438.354492,537.231445,763.916016,0.381167
-419.219971,556.182861,766.937256,0.381907
-402.648926,572.937012,788.360596,0.382646
-427.368164,554.718018,799.987793,0.383387
-395.507812,551.696777,815.368652,0.384126
-457.855225,545.288086,798.797607,0.384869
-444.305420,547.119141,799.804688,0.385608
-464.080811,536.682129,790.191650,0.386347
-486.968994,544.189453,785.614014,0.387086
-455.474854,555.450439,787.445068,0.387829
-459.686279,546.569824,789.001465,0.388568
-440.917969,528.808594,790.008545,0.389307
-434.143066,516.540527,764.648438,0.390049
-425.079346,517.089844,747.619629,0.390788
-416.198730,520.019531,743.774414,0.391528
-391.571045,512.512207,743.499756,0.392265
-380.950928,510.131836,738.922119,0.393018
-371.154785,505.187988,741.302490,0.393756
-369.506836,499.328613,744.140625,0.394491
-387.451172,492.004395,738.372803,0.395226
-398.712158,488.708496,731.964111,0.395961
-424.530029,481.109619,731.414795,0.396696
-433.044434,484.863281,738.098145,0.397431
-440.551758,483.489990,746.612549,0.398173
-436.889648,486.877441,743.865967,0.398909
-437.713623,486.511230,748.718262,0.399644
-433.502197,480.285645,752.105713,0.400379
-427.551270,476.623535,738.739014,0.401114
-421.600342,479.553223,727.661133,0.401849
-428.741455,473.144531,720.062256,0.402584
-418.121338,464.172363,713.653564,0.403321
-416.931152,453.186035,712.738037,0.404056
-411.804199,451.995850,705.871582,0.404791
-418.029785,450.622559,704.589844,0.405526
-419.311523,444.946289,693.145752,0.406261
-427.093506,450.531006,689.758301,0.406996
-434.875488,447.875977,684.356689,0.407731
-439.727783,449.340820,696.258545,0.408482
-452.911377,454.650879,699.371338,0.409218
-446.777344,458.953857,704.406738,0.409954
-458.496094,485.412598,720.520020,0.410687
-452.453613,470.672607,747.894287,0.411428
-455.566406,475.341797,737.457275,0.412163
-458.038330,478.912354,743.316650,0.412898
-462.890625,489.074707,737.548828,0.413633
-462.982178,499.511719,745.880127,0.414369
-473.693848,496.307373,733.428955,0.415103
-484.222412,478.729248,725.280762,0.415839
-501.159668,478.271484,729.858398,0.416591
-496.765137,478.729248,714.569092,0.417330
-503.356934,479.644775,712.554932,0.418066
-501.525879,475.708008,715.393066,0.418802
-492.095947,485.961914,709.533691,0.419536
-488.067627,494.750977,713.562012,0.420269
-479.919434,498.504639,726.013184,0.421003
-477.539062,500.244141,737.457275,0.421748
-470.306396,501.525879,743.957520,0.422527
-470.123291,506.561279,742.309570,0.423267
-473.876953,505.828857,746.704102,0.424011
-476.074219,514.068604,759.704590,0.424748
-488.891602,509.399414,760.162354,0.425483
-480.926514,522.583008,755.126953,0.426218
-496.124268,538.055420,760.620117,0.426963
-489.624023,527.435303,777.374268,0.427699
-499.511719,519.927979,777.282715,0.428434
-492.004395,526.702881,781.219482,0.429169
-473.510742,526.611328,781.036377,0.429917
-463.531494,531.555176,790.100098,0.430651
-450.897217,538.513184,798.431396,0.431384
-442.565918,541.534424,797.882080,0.432121
-436.157227,537.506104,797.973633,0.432871
-435.699463,539.611816,805.572510,0.433612
-442.565918,541.168213,804.656982,0.434348
-449.981689,535.949707,796.234131,0.435090
-462.066650,532.196045,782.409668,0.435826
-463.989258,530.731201,756.408691,0.436561
-473.327637,518.737793,770.507812,0.437300
-458.587646,521.392822,764.923096,0.438037
-435.882568,536.499023,773.712158,0.438773
-433.959961,535.583496,805.938721,0.439508
-405.029297,536.224365,824.615479,0.440251
-403.564453,540.344238,821.411133,0.440990
-409.881592,550.781250,820.037842,0.441728
-418.762207,542.541504,824.707031,0.442465
-441.467285,536.407471,815.460205,0.443199
-441.558838,528.533936,807.586670,0.443934
-459.320068,533.111572,789.550781,0.444670
-465.362549,520.019531,784.881592,0.445408
-464.813232,501.983643,779.022217,0.446143
-472.320557,495.391846,769.866943,0.446879
-463.806152,500.244141,756.500244,0.447614
-436.431885,493.469238,757.049561,0.448348
-417.297363,499.053955,758.056641,0.449084
-392.944336,494.201660,767.852783,0.449818
-386.352539,489.532471,778.656006,0.450556
-386.444092,492.462158,784.240723,0.451292
-392.395020,484.039307,786.163330,0.452028
-408.599854,487.792969,783.508301,0.452762
-439.819336,473.144531,787.628174,0.453497
-451.080322,471.221924,788.085938,0.454231
-468.292236,465.911865,775.268555,0.454984
-472.961426,467.376709,784.515381,0.455730
-474.609375,476.623535,784.881592,0.456468
-463.531494,456.207275,796.508789,0.457206
-437.072754,452.911377,797.698975,0.457944
-423.614502,463.073730,792.938232,0.458682
-401.000977,452.636719,785.522461,0.459419
-414.367676,450.439453,775.360107,0.460157
-407.867432,449.798584,773.254395,0.460898
-399.719238,457.672119,755.310059,0.461635
-437.896729,442.382812,753.204346,0.462373
-439.361572,441.375732,739.929199,0.463112
-466.278076,444.946289,725.463867,0.463854
-477.539062,443.206787,733.428955,0.464592
-472.229004,450.897217,739.105225,0.465331
-486.328125,442.108154,739.288330,0.466072
-453.918457,460.418701,747.344971,0.466811
-462.249756,466.094971,763.916016,0.467548
-436.706543,471.405029,779.754639,0.468286
-440.460205,474.334717,796.325684,0.469028
-435.333252,446.685791,796.234131,0.469767
-424.713135,472.229004,774.169922,0.470504
-437.255859,469.299316,795.867920,0.471243
-450.988770,471.954346,787.994385,0.471981
-454.284668,474.700928,783.966064,0.472718
-468.017578,463.439941,770.507812,0.473457
-467.651367,463.531494,766.937256,0.474197
-468.475342,460.784912,766.845703,0.474936
-456.665039,462.158203,762.176514,0.475675
-441.375732,467.651367,755.676270,0.476413
-427.917480,470.489502,778.930664,0.477151
-419.586182,447.052002,791.656494,0.477889
-412.445068,469.848633,794.677734,0.478627
-426.452637,467.193604,789.184570,0.479368
-437.622070,463.165283,761.993408,0.480107
-459.686279,456.115723,772.064209,0.480845
-465.454102,455.932617,757.415771,0.481585
-482.940674,460.418701,761.169434,0.482323
-494.659424,446.502686,746.704102,0.483061
-494.567871,439.819336,747.161865,0.483799
-480.377197,439.086914,754.302979,0.484539
-459.869385,431.488037,742.218018,0.485277
-445.587158,441.467285,752.014160,0.486014
-416.473389,445.404053,742.584229,0.486752
-396.240234,435.882568,752.471924,0.487489
-397.796631,395.874023,805.114746,0.488227
-292.053223,421.783447,851.348877,0.488965
-312.835693,452.178955,866.088867,0.489706
-272.918701,461.700439,884.582520,0.490444
-266.510010,462.524414,856.567383,0.491183
-327.117920,460.510254,839.447021,0.491920
-363.464355,450.714111,796.691895,0.492707
-456.298828,437.713623,771.057129,0.493447
-460.968018,428.741455,748.168945,0.494185
-529.083252,415.283203,732.971191,0.494929
-502.166748,412.902832,723.083496,0.495667
-500.518799,409.423828,723.815918,0.496405
-501.525879,414.093018,731.414795,0.497143
-433.868408,429.016113,741.760254,0.497880
-398.803711,431.396484,759.155273,0.498618
-346.527100,453.460693,775.543213,0.499356
-325.286865,452.911377,788.360596,0.500096
-313.659668,451.629639,793.579102,0.500834
-328.125000,443.298340,790.740967,0.501573
-358.428955,437.988281,798.339844,0.502312
-408.050537,433.959961,789.184570,0.503049
-457.580566,427.368164,783.050537,0.503808
-490.447998,435.333252,779.571533,0.504556
-529.815674,432.861328,769.500732,0.505303
-514.251709,429.565430,774.444580,0.506041
-495.117188,434.417725,782.867432,0.506778
-474.609375,433.502197,787.170410,0.507519
-427.459717,439.453125,794.403076,0.508258
-395.141602,443.939209,798.889160,0.508997
-381.134033,437.622070,797.607422,0.509734
-366.668701,439.727783,785.705566,0.510475
-364.288330,440.185547,785.705566,0.511213
-377.014160,431.945801,780.395508,0.511951
-399.353027,424.163818,774.993896,0.512690
-454.650879,429.016113,768.310547,0.513430
-466.461182,414.276123,755.126953,0.514169
-497.589111,415.374756,747.253418,0.514906
-513.519287,410.705566,755.401611,0.515647
-510.131836,409.881592,771.423340,0.516385
-487.701416,409.698486,787.078857,0.517123
-447.875977,412.536621,807.861328,0.517862
-429.840088,421.234131,810.607910,0.518603
-400.085449,420.593262,813.903809,0.519340
-386.718750,412.719727,809.143066,0.520079
-384.704590,403.839111,807.037354,0.520817
-396.148682,389.739990,787.902832,0.521556
-440.917969,383.789062,777.374268,0.522294
-449.066162,374.267578,754.669189,0.523031
-474.792480,358.245850,736.083984,0.523771
-495.758057,356.048584,733.795166,0.524508
-497.589111,357.421875,734.619141,0.525271
-484.680176,361.358643,745.422363,0.526017
-473.693848,361.450195,752.105713,0.526756
-428.192139,357.238770,767.669678,0.527494
-434.783936,354.583740,764.282227,0.528233
-412.170410,345.977783,778.106689,0.528975
-408.050537,332.794189,767.395020,0.529713
-397.430420,335.540771,764.556885,0.530451
-411.163330,336.273193,743.316650,0.531190
-444.030762,321.807861,746.704102,0.531928
-438.446045,317.779541,735.260010,0.532666
-454.010010,311.370850,723.358154,0.533404
-476.806641,310.913086,737.640381,0.534145
-478.820801,301.666260,723.907471,0.534882
-486.328125,292.877197,724.639893,0.535620
-479.187012,292.968750,728.759766,0.536358
-461.517334,295.715332,729.309082,0.537096
-443.389893,289.581299,746.246338,0.537834
-426.361084,288.757324,720.520020,0.538571
-421.417236,276.489258,727.661133,0.539313
-398.895264,266.052246,727.478027,0.540051
-417.388916,265.228271,720.245361,0.540789
-429.016113,263.214111,714.111328,0.541530
-445.404053,252.777100,707.244873,0.542268
-456.756592,250.122070,710.449219,0.543005
-458.496094,238.861084,700.286865,0.543740
-463.897705,237.670898,701.751709,0.544477
-457.305908,236.297607,700.744629,0.545212
-447.967529,230.621338,695.434570,0.545947
-435.150146,239.776611,688.018799,0.546682
-421.966553,237.304688,690.856934,0.547418
-398.803711,229.797363,684.356689,0.548152
-412.902832,226.593018,681.335449,0.548887
-410.980225,225.585938,674.926758,0.549625
-416.748047,224.945068,666.687012,0.550360
-418.304443,227.783203,666.046143,0.551095
-444.671631,223.663330,669.067383,0.551830
-425.720215,224.578857,673.553467,0.552566
-426.177979,229.888916,681.701660,0.553301
-434.326172,234.466553,681.793213,0.554035
-429.840088,239.868164,688.110352,0.554769
-425.354004,253.143311,709.808350,0.555503
-418.762207,256.347656,718.231201,0.556237
-404.846191,260.833740,731.781006,0.556970
-410.339355,266.876221,746.246338,0.557711
-405.761719,276.397705,753.387451,0.558448
-400.726318,273.742676,765.838623,0.559183
-398.254395,279.968262,769.500732,0.559917
-396.881104,280.334473,782.592773,0.560652
-392.944336,279.418945,784.698486,0.561386
-396.240234,287.750244,796.417236,0.562120
-393.218994,290.039062,789.642334,0.562904
-396.606445,295.898438,791.198730,0.563640
-390.838623,299.194336,776.367188,0.564372
-389.739990,300.201416,756.225586,0.565106
-395.965576,306.060791,770.141602,0.565840
-392.578125,296.356201,752.838135,0.566574
-401.916504,300.476074,742.492676,0.567309
-409.149170,304.412842,732.147217,0.568047
-408.416748,302.490234,725.097656,0.568781
-409.240723,313.659668,733.886719,0.569515
-421.051025,326.019287,722.351074,0.570251
-434.417725,331.420898,721.252441,0.570989
-451.171875,338.378906,719.787598,0.571724
-462.707520,334.716797,727.844238,0.572458
-478.363037,340.026855,728.210449,0.573193
-486.694336,346.435547,740.295410,0.573928
-491.638184,363.189697,749.816895,0.574665
-490.814209,365.020752,772.521973,0.575400
-487.060547,372.528076,780.395508,0.576154
-469.573975,372.894287,793.853760,0.576913
-447.967529,375.274658,792.938232,0.577664
-432.403564,381.958008,791.381836,0.578410
-424.530029,375.457764,799.530029,0.579148
-429.473877,390.014648,785.339355,0.579888
-431.762695,377.014160,791.931152,0.580627
-446.960449,361.358643,778.839111,0.581366
-458.129883,365.295410,778.015137,0.582104
-491.729736,354.400635,765.472412,0.582843
-480.468750,330.963135,766.662598,0.583585
-489.532471,351.837158,768.951416,0.584324
-488.067627,351.837158,765.197754,0.585063
-491.271973,350.921631,755.401611,0.585801
-470.306396,349.731445,763.824463,0.586542
-466.186523,348.083496,762.634277,0.587280
-463.256836,345.703125,761.993408,0.588019
-445.953369,341.308594,766.937256,0.588761
-447.875977,346.069336,759.887695,0.589500
-446.960449,346.252441,752.471924,0.590239
-452.087402,341.217041,760.162354,0.590977
-464.630127,344.238281,767.395020,0.591719
-476.715088,338.104248,762.817383,0.592458
-489.349365,338.012695,762.908936,0.593197
-483.764648,334.167480,761.627197,0.593934
-498.321533,333.618164,770.324707,0.594672
-492.919922,338.012695,779.388428,0.595427
-492.095947,337.554932,785.522461,0.596167
-478.088379,337.554932,799.072266,0.596916
-473.693848,334.991455,774.719238,0.597654
-463.256836,333.801270,790.466309,0.598389
-463.623047,325.744629,782.775879,0.599123
-475.250244,320.709229,786.712646,0.599868
-471.862793,310.455322,774.444580,0.600608
-483.673096,308.807373,758.422852,0.601348
-488.067627,298.919678,753.845215,0.602093
-489.807129,294.891357,752.014160,0.602832
-488.983154,297.088623,752.563477,0.603569
-476.623535,294.891357,746.246338,0.604307
-474.609375,299.285889,748.443604,0.605044
-468.017578,296.356201,755.035400,0.605785
-452.178955,294.250488,760.162354,0.606522
-453.277588,299.468994,761.627197,0.607264
-450.714111,294.433594,764.556885,0.608002
-445.953369,293.701172,764.739990,0.608746
-448.974609,293.884277,768.585205,0.609486
-456.665039,284.362793,768.310547,0.610226
-462.066650,285.003662,760.070801,0.610965
-464.721680,289.306641,759.613037,0.611704
-464.263916,293.060303,756.774902,0.612445
-471.405029,288.848877,761.352539,0.613184
-463.073730,294.616699,758.789062,0.613921
-456.024170,292.419434,760.711670,0.614657
-450.714111,295.623779,763.458252,0.615398
-442.749023,298.278809,766.021729,0.616133
-434.875488,284.179688,768.493652,0.616876
-430.297852,298.187256,768.768311,0.617620
-422.332764,294.250488,772.888184,0.618356
-427.642822,299.468994,776.000977,0.619091
-433.502197,299.560547,771.057129,0.619837
-430.938721,287.658691,772.521973,0.620574
-445.587158,287.658691,765.747070,0.621309
-445.678711,284.729004,766.937256,0.622047
-444.763184,291.412354,762.908936,0.622801
-439.544678,288.299561,767.486572,0.623536
-423.614502,283.172607,764.556885,0.624272
-419.036865,285.278320,767.303467,0.625008
-402.099609,293.884277,772.064209,0.625743
-395.782471,295.166016,764.190674,0.626479
-396.148682,299.468994,758.239746,0.627214
-399.902344,294.708252,757.049561,0.627952
-414.093018,293.884277,755.310059,0.628687
-431.854248,288.757324,742.126465,0.629422
-443.115234,283.538818,741.577148,0.630157
-444.946289,289.398193,739.746094,0.630895
-454.833984,285.827637,744.140625,0.631630
-452.728271,283.264160,754.669189,0.632366
-437.896729,283.813477,754.394531,0.633159
-407.775879,290.313721,771.606445,0.633899
-388.000488,287.292480,782.226562,0.634638
-359.985352,293.609619,790.100098,0.635377
-348.541260,295.715332,806.304932,0.636118
-346.252441,300.018311,808.685303,0.636854
-341.033936,306.610107,800.628662,0.637589
-367.126465,299.468994,791.290283,0.638328
-386.718750,289.581299,765.655518,0.639064
-403.930664,283.355713,740.203857,0.639799
-423.980713,277.587891,728.302002,0.640534
-437.255859,268.157959,722.351074,0.641272
-444.763184,248.382568,711.364746,0.642007
-423.980713,250.030518,703.308105,0.642743
-413.085938,246.734619,713.104248,0.643478
-378.753662,252.868652,716.308594,0.644244
-346.435547,270.721436,735.809326,0.644995
-317.871094,275.207520,760.162354,0.645745
-322.174072,290.496826,771.697998,0.646486
-316.589355,304.779053,763.092041,0.647237
-353.668213,315.856934,746.429443,0.647972
-382.781982,303.497314,716.217041,0.648714
-414.184570,296.997070,683.258057,0.649450
-465.545654,299.926758,659.637451,0.650198
-491.363525,291.961670,675.292969,0.650947
-498.138428,290.313721,655.700684,0.651684
-496.398926,299.377441,666.961670,0.652419
-469.940186,304.687500,683.624268,0.653155
-455.291748,330.230713,704.132080,0.653894
-427.368164,325.653076,731.140137,0.654629
-397.247314,346.343994,728.302002,0.655365
-374.267578,346.984863,760.620117,0.656100
-362.548828,350.738525,771.789551,0.656835
-370.971680,355.682373,773.071289,0.657570
-400.360107,359.710693,783.599854,0.658305
-423.614502,358.154297,776.824951,0.659057
-466.918945,352.569580,761.169434,0.659793
-490.173340,344.421387,751.647949,0.660528
-500.701904,336.639404,739.013672,0.661263
-496.765137,332.702637,734.802246,0.662020
-496.032715,331.054688,733.703613,0.662755
-469.207764,330.596924,727.752686,0.663487
-435.516357,334.533691,719.055176,0.664246
-399.810791,335.906982,713.195801,0.664989
-385.528564,339.019775,723.541260,0.665727
-384.979248,331.787109,714.660645,0.666473
-371.520996,335.998535,717.773438,0.667214
-398.712158,331.329346,721.618652,0.667952
-421.325684,327.667236,710.357666,0.668691
-454.833984,319.335938,712.097168,0.669435
-473.785400,318.786621,717.773438,0.670174
-484.039307,320.159912,720.245361,0.670914
-495.666504,323.455811,728.210449,0.671653
-493.286133,324.737549,734.161377,0.672393
-479.827881,324.920654,727.569580,0.673129
-459.869385,317.321777,740.478516,0.673865
-428.100586,315.490723,740.203857,0.674604
-427.642822,308.624268,733.154297,0.675340
-420.410156,317.047119,713.653564,0.676075
-412.719727,301.666260,705.230713,0.676811
-424.530029,296.264648,693.695068,0.677552
-433.135986,293.792725,674.926758,0.678291
-464.813232,282.073975,663.848877,0.679029
-460.601807,276.031494,654.418945,0.679769
-467.102051,252.044678,652.404785,0.680508
-466.827393,255.249023,662.384033,0.681247
-443.756104,251.953125,665.405273,0.681985
-428.375244,252.868652,678.131104,0.682728
-411.163330,255.432129,691.314697,0.683466
-396.331787,238.311768,702.667236,0.684204
-375.366211,250.213623,709.442139,0.684941
-371.612549,242.248535,711.273193,0.685678
-362.823486,247.924805,712.371826,0.686422
-365.203857,238.494873,706.329346,0.687163
-369.049072,227.233887,701.568604,0.687904
-363.830566,223.937988,703.216553,0.688648
-367.950439,228.057861,700.469971,0.689388
-364.196777,212.585449,700.836182,0.690126
-355.957031,205.902100,698.913574,0.690861
-352.752686,208.282471,706.878662,0.691597
-342.224121,205.902100,707.061768,0.692332
-327.575684,202.331543,705.322266,0.693074
-324.371338,193.542480,714.477539,0.693810
-314.208984,193.084717,716.125488,0.694555
-307.250977,190.063477,733.978271,0.695296
-294.891357,181.549072,699.920654,0.696053
-313.568115,168.823242,689.758301,0.696793
-308.532715,148.040771,685.272217,0.697529
-332.061768,142.456055,675.201416,0.698265
-334.350586,142.547607,643.890381,0.699001
-333.160400,123.962402,645.904541,0.699737
-317.962646,113.708496,635.559082,0.700471
-334.808350,120.758057,604.705811,0.701213
-310.638428,125.335693,605.987549,0.701948
-323.730469,135.314941,597.381592,0.702683
-300.292969,132.293701,597.015381,0.703419
-329.864502,124.145508,600.769043,0.704208
-304.138184,142.456055,584.381104,0.704963
-319.793701,138.702393,586.486816,0.705699
-294.616699,135.864258,583.465576,0.706437
-300.476074,135.223389,579.528809,0.707173
-283.081055,146.484375,590.515137,0.707905
-262.115479,141.723633,603.057861,0.708639
-247.558594,156.188965,598.297119,0.709377
-235.382080,185.852051,601.043701,0.710113
-199.310303,201.507568,599.395752,0.710848
-215.148926,208.923340,612.213135,0.711584
-210.937500,208.923340,618.621826,0.712343
-130.096436,219.360352,553.802490,0.713083
71.044922,363.189697,481.109619,0.713823
-26.641846,335.632324,491.363525,0.714567
91.278076,306.427002,496.490479,0.715302
147.949219,323.364258,453.826904,0.716037
-4.577637,281.616211,428.558350,0.716788
107.391357,323.822021,417.205811,0.717533
42.755127,302.398682,424.621582,0.718272
22.155762,290.496826,431.945801,0.719008
97.961426,286.102295,435.150146,0.719745
22.247314,325.836182,408.325195,0.720480
40.466309,363.922119,394.775391,0.721216
35.430908,406.768799,403.656006,0.721956
11.169434,435.974121,422.424316,0.722693
-7.415771,453.094482,469.390869,0.723429
-32.867432,533.843994,524.871826,0.724165
-161.315918,552.520752,533.111572,0.724921
-140.533447,538.146973,547.119141,0.725658
-99.700928,487.243652,576.782227,0.726392
-153.625488,471.130371,632.080078,0.727127
-165.618896,507.568359,614.410400,0.727861
-124.603271,537.414551,610.015869,0.728596
-348.632812,488.891602,654.693604,0.729330
-445.770264,505.004883,634.643555,0.730071
-447.143555,542.724609,618.438721,0.730806
-458.038330,565.063477,619.171143,0.731540
-449.798584,588.684082,662.292480,0.732278
-464.813232,616.790771,684.265137,0.733013
-482.116699,645.446777,710.998535,0.733748
-465.087891,662.750244,747.161865,0.734483
-476.623535,676.849365,756.134033,0.735221
-493.652344,692.413330,784.332275,0.735955
-481.018066,685.638428,807.312012,0.736690
-480.743408,713.012695,831.848145,0.737426
-472.137451,731.872559,842.376709,0.738160
-458.587646,731.231689,851.440430,0.738895
-435.241699,758.697510,851.898193,0.739630
-427.642822,737.182617,849.792480,0.740366
-395.507812,736.907959,841.186523,0.741111
-359.985352,744.140625,806.213379,0.741850
-345.245361,763.000488,772.247314,0.742589
-291.961670,764.831543,752.471924,0.743330
-323.089600,752.288818,722.717285,0.744069
-330.871582,757.965088,693.420410,0.744808
-371.612549,761.444092,641.235352,0.745545
-392.852783,755.859375,640.045166,0.746284
-410.614014,767.852783,631.988525,0.747022
-460.144043,770.507812,619.262695,0.747761
-463.806152,785.614014,623.199463,0.748502
-471.130371,801.086426,642.700195,0.749239
-482.666016,800.262451,668.975830,0.749977
-475.158691,819.671631,692.596436,0.750715
-479.736328,842.468262,695.892334,0.751454
-482.391357,849.609375,716.308594,0.752192
-489.257812,843.841553,727.386475,0.752930
-495.300293,863.250732,717.681885,0.753676
-516.174316,850.799561,709.808350,0.754416
-509.948730,837.890625,698.181152,0.755153
-538.787842,821.411133,699.462891,0.755894
-530.731201,823.059082,695.983887,0.756633
-532.470703,827.453613,687.927246,0.757371
-560.668945,812.530518,703.216553,0.758109
-523.864746,815.277100,713.653564,0.758849
-524.230957,813.812256,745.330811,0.759587
-528.717041,812.988281,731.231689,0.760326
-514.160156,806.030273,746.246338,0.761064
-513.977051,808.227539,757.690430,0.761803
-522.491455,802.093506,763.275146,0.762540
-519.470215,777.648926,754.669189,0.763279
-526.245117,789.001465,754.119873,0.764020
-533.477783,785.339355,751.190186,0.764758
-545.654297,769.775391,745.239258,0.765496
-539.978027,766.113281,734.344482,0.766234
-539.245605,765.106201,724.273682,0.766975
-534.118652,760.528564,717.773438,0.767713
-535.583496,761.993408,713.378906,0.768452
-546.020508,744.781494,696.807861,0.769193
-534.667969,745.422363,693.054199,0.769931
-530.639648,741.119385,685.089111,0.770669
-542.083740,703.216553,676.025391,0.771408
-528.808594,720.428467,674.011230,0.772148
-529.632568,714.660645,670.257568,0.772885
-526.153564,700.744629,661.834717,0.773624
-520.660400,694.335938,649.475098,0.774395
-493.286133,687.469482,638.122559,0.775133
-506.286621,677.673340,624.664307,0.775870
-509.765625,674.194336,618.621826,0.776607
-502.258301,658.447266,601.776123,0.777348
-505.004883,663.665771,590.972900,0.778086
-489.166260,659.912109,571.655273,0.778824
-486.419678,652.404785,561.859131,0.779561
-472.503662,658.996582,551.239014,0.780299
-463.806152,655.792236,550.506592,0.781036
-473.052979,663.482666,535.308838,0.781775
-456.756592,676.757812,521.484375,0.782516
-453.552246,676.116943,520.477295,0.783254
-450.256348,685.638428,510.131836,0.783992
-437.530518,703.125000,518.280029,0.784731
-425.811768,724.273682,524.780273,0.785492
-400.360107,734.985352,533.477783,0.786254
-389.007568,750.732422,554.901123,0.786998
-351.928711,755.584717,577.423096,0.787737
-343.963623,772.521973,596.099854,0.788476
-331.420898,784.973145,619.445801,0.789222
-309.356689,787.994385,628.509521,0.789975
-305.969238,809.234619,654.235840,0.790717
-299.926758,804.290771,644.165039,0.791462
-309.906006,816.741943,651.397705,0.792203
-324.005127,819.763184,650.939941,0.792941
-333.709717,829.650879,649.108887,0.793680
-358.978271,842.010498,652.954102,0.794418
-371.429443,826.721191,647.460938,0.795160
-382.781982,808.319092,642.608643,0.795900
-383.331299,822.967529,650.665283,0.796639
-372.802734,831.115723,642.150879,0.797381
-374.908447,837.341309,646.087646,0.798120
-338.104248,835.327148,649.566650,0.798859
-344.879150,837.341309,655.609131,0.799599
-317.596436,849.151611,640.869141,0.800338
-320.526123,843.109131,646.820068,0.801073
-322.631836,840.911865,633.361816,0.801807
-319.335938,833.770752,625.579834,0.802542
-338.836670,833.862305,627.044678,0.803276
-352.294922,838.348389,612.945557,0.804011
-372.436523,835.968018,612.213135,0.804746
-385.162354,843.109131,610.382080,0.805482
-394.409180,837.890625,625.488281,0.806229
-406.219482,834.686279,629.241943,0.806965
-402.465820,838.897705,644.073486,0.807698
-410.247803,814.636230,638.854980,0.808441
-399.627686,815.277100,649.108887,0.809177
-376.647949,810.791016,665.588379,0.809920
-387.542725,810.241699,660.552979,0.810663
-383.056641,804.931641,663.024902,0.811401
-376.281738,802.642822,657.623291,0.812141
-379.760742,798.248291,646.820068,0.812879
-384.063721,790.466309,635.375977,0.813617
-389.373779,782.135010,631.347656,0.814353
-376.190186,784.240723,622.283936,0.815088
-387.451172,781.494141,621.276855,0.815824
-376.831055,775.726318,613.586426,0.816561
-380.950928,775.634766,609.100342,0.817297
-381.500244,776.550293,611.022949,0.818033
-383.605957,779.022217,613.769531,0.818775
-385.437012,778.839111,608.276367,0.819516
-385.620117,788.543701,613.586426,0.820257
-393.859863,786.712646,606.719971,0.820997
-400.543213,789.367676,621.368408,0.821735
-402.191162,783.508301,628.875732,0.822473
-410.339355,778.381348,641.235352,0.823213
-419.219971,777.557373,641.235352,0.823955
-405.578613,788.909912,647.460938,0.824694
-403.106689,764.099121,651.489258,0.825433
-390.563965,763.458252,648.193359,0.826170
-386.718750,766.937256,634.643555,0.826906
-382.781982,760.711670,632.720947,0.827642
-376.007080,760.986328,593.078613,0.828378
-373.260498,758.148193,605.072021,0.829120
-372.711182,758.331299,596.466064,0.829859
-382.873535,754.669189,588.317871,0.830598
-393.218994,757.415771,590.881348,0.831336
-388.000488,767.028809,580.993652,0.832075
-396.057129,768.585205,583.465576,0.832814
-396.789551,775.909424,579.895020,0.833553
-407.318115,782.318115,587.219238,0.834295
-405.303955,791.107178,592.987061,0.835033
-402.191162,789.367676,606.719971,0.835772
-410.247803,790.924072,600.860596,0.836512
-397.064209,784.423828,596.282959,0.837250
-389.190674,793.853760,597.656250,0.837985
-381.134033,794.586182,583.648682,0.838721
-352.844238,786.987305,581.085205,0.839462
-366.119385,777.099609,573.944092,0.840200
-365.844727,778.930664,580.902100,0.840938
-370.422363,764.465332,577.239990,0.841676
-367.950439,757.598877,572.845459,0.842416
-367.126465,751.464844,570.556641,0.843153
-356.872559,749.176025,572.937012,0.843892
-362.823486,741.027832,573.577881,0.844629
-355.865479,740.112305,580.444336,0.845399
-350.006104,739.562988,575.683594,0.846138
-354.034424,736.907959,579.986572,0.846876
-355.224609,731.872559,576.324463,0.847616
-358.520508,729.949951,567.443848,0.848354
-359.985352,733.703613,571.472168,0.849092
-370.605469,738.464355,540.344238,0.849830
-376.190186,720.062256,518.096924,0.850568
-386.993408,697.998047,482.757568,0.851306
-393.218994,705.139160,476.715088,0.852044
-396.423340,724.548340,479.827881,0.852785
-380.035400,723.632812,481.842041,0.853524
-369.781494,728.118896,486.328125,0.854262
-340.576172,746.612549,488.525391,0.854999
-319.244385,761.810303,485.687256,0.855755
-286.834717,776.275635,508.941650,0.856498
-257.263184,785.430908,515.533447,0.857238
-248.748779,791.290283,522.491455,0.857986
-213.134766,803.283691,528.625488,0.858725
-202.789307,819.854736,524.871826,0.859467
-186.492920,816.284180,518.188477,0.860209
-185.760498,823.150635,497.039795,0.860948
-182.556152,824.707031,475.982666,0.861686
-188.140869,824.340820,464.172363,0.862425
-193.176270,823.608398,451.354980,0.863167
-201.141357,814.819336,446.044922,0.863906
-205.444336,826.538086,439.453125,0.864645
-217.803955,831.573486,433.502197,0.865385
-192.169189,837.982178,427.459717,0.866124
-204.437256,837.982178,433.959961,0.866863
-203.247070,845.397949,438.629150,0.867601
-198.120117,851.898193,454.193115,0.868343
-203.430176,850.250244,453.002930,0.869082
-203.704834,860.504150,465.270996,0.869821
-206.359863,875.061035,466.369629,0.870560
-216.979980,883.941650,462.615967,0.871299
-250.213623,879.455566,485.046387,0.872038
-268.707275,883.209229,479.919434,0.872777
-314.849854,868.743896,486.877441,0.873519
-337.921143,870.117188,504.089355,0.874259
-334.716797,861.511230,500.976562,0.874998
-350.097656,857.208252,507.934570,0.875737
-362.823486,856.842041,495.391846,0.876476
-371.795654,849.517822,490.539551,0.877214
-391.204834,835.693359,482.940674,0.877954
-407.043457,813.903809,465.362549,0.878696
-417.388916,791.473389,444.763184,0.879436
-434.783936,774.810791,429.290771,0.880174
-462.890625,752.471924,422.790527,0.880911
-458.953857,742.218018,416.931152,0.881649
-415.924072,728.393555,422.424316,0.882384
-402.557373,707.061768,408.782959,0.883120
-406.768799,709.075928,383.697510,0.883856
-403.198242,705.596924,371.795654,0.884592
-375.640869,684.356689,351.562500,0.885328
-382.965088,675.567627,337.280273,0.886063
-371.520996,678.222656,327.575684,0.886801
-376.739502,701.385498,306.701660,0.887537
-369.781494,698.364258,297.088623,0.888272
-363.372803,713.012695,283.996582,0.889008
-365.753174,714.294434,272.003174,0.889743
-378.021240,717.681885,276.489258,0.890479
-376.831055,717.864990,274.475098,0.891215
-377.197266,718.963623,291.046143,0.891953
-372.894287,714.935303,288.116455,0.892689
-371.063232,714.752197,304.962158,0.893425
-388.732910,713.562012,305.786133,0.894164
-397.888184,713.836670,326.110840,0.894900
-399.627686,718.963623,328.125000,0.895636
-404.663086,704.315186,337.371826,0.896372
-413.269043,708.526611,338.562012,0.897111
-428.649902,706.329346,329.864502,0.897847
-431.213379,712.005615,314.392090,0.898583
-432.586670,706.329346,309.448242,0.899318
-428.741455,693.878174,325.378418,0.900056
-484.405518,711.456299,295.806885,0.900792
-529.083252,727.111816,276.672363,0.901527
-541.809082,743.591309,261.749268,0.902263
-549.133301,780.487061,261.291504,0.902999
-589.233398,809.600830,221.740723,0.903736
-553.619385,826.904297,247.467041,0.904471
-357.421875,792.572021,406.402588,0.905209
-513.610840,873.229980,395.050049,0.905945
-493.652344,955.078125,388.732910,0.906681
-298.187256,985.382080,434.692383,0.907417
-340.393066,989.776611,433.502197,0.908152
-268.157959,998.199463,420.501709,0.908888
-230.072021,984.832764,397.247314,0.909624
-241.516113,981.811523,385.162354,0.910362
-236.114502,971.466064,368.774414,0.911097
-207.458496,942.901611,350.189209,0.911832
-235.931396,980.987549,354.309082,0.912568
-220.367432,997.924805,349.090576,0.913304
-257.354736,1009.735107,347.167969,0.914040
-258.361816,1001.586914,333.618164,0.914776
-281.799316,985.931396,338.012695,0.915555
-303.955078,994.079590,338.012695,0.916291
-314.300537,1020.904541,335.632324,0.917027
-287.567139,1052.032471,331.787109,0.917763
-279.052734,1092.590332,330.505371,0.918524
-247.467041,1104.309082,338.470459,0.919264
-292.053223,1104.492188,353.576660,0.920000
-304.229736,1105.224609,352.569580,0.920742
-235.473633,1123.992920,312.286377,0.921478
-226.867676,1127.197266,261.291504,0.922212
-181.915283,1177.276611,256.622314,0.922946
-165.618896,1165.283203,230.987549,0.923682
-204.528809,1148.803711,229.888916,0.924417
-207.550049,1129.486084,204.071045,0.925152
-215.606689,1132.324219,194.000244,0.925891
-426.452637,1041.961670,191.436768,0.926626
-661.010742,1083.801270,203.338623,0.927362
-77.545166,1178.466797,223.480225,0.928097
-336.822510,1174.163818,211.395264,0.928832
-501.068115,1177.368164,213.134766,0.929568
-406.219482,1199.707031,223.754883,0.930304
-320.526123,1193.389893,222.473145,0.931050
-564.514160,1177.093506,242.065430,0.931803
-238.677979,979.980469,267.883301,0.932541
-237.396240,1126.281738,422.241211,0.933276
-167.633057,1189.178467,445.770264,0.934016
146.118164,1236.145020,425.994873,0.934750
42.388916,1268.646240,433.868408,0.935485
125.244141,1222.778320,415.008545,0.936223
163.696289,1250.518799,383.697510,0.936959
148.040771,1241.271973,388.000488,0.937694
121.215820,1252.532959,385.894775,0.938428
-63.171387,1214.172363,391.204834,0.939166
-423.614502,1196.228027,398.620605,0.939901
-286.285400,1214.904785,417.205811,0.940636
-299.102783,1231.750488,430.114746,0.941371
-476.165771,1227.539062,419.586182,0.942106
-663.940430,1224.609375,411.804199,0.942840
-536.773682,1238.067627,397.247314,0.943574
-578.704834,1208.496094,396.789551,0.944311
-592.346191,1166.748047,406.036377,0.945046
-562.683105,1178.466797,422.698975,0.945780
-509.490967,1176.818848,436.065674,0.946515
-480.194092,1116.851807,454.010010,0.947260
-428.649902,1086.639404,470.489502,0.948014
-370.697021,1073.638916,466.644287,0.948751
-306.884766,1034.637451,476.348877,0.949494
-334.533691,1006.530762,478.729248,0.950230
-411.346436,1003.143311,459.777832,0.950965
-417.388916,1002.685547,440.002441,0.951701
-413.543701,988.952637,406.127930,0.952437
-486.511230,960.662842,396.697998,0.953172
-523.315430,931.182861,341.491699,0.953908
-515.808105,914.886475,280.517578,0.954648
-590.240479,821.685791,789.001465,0.955384
-85.418701,937.042236,199.584961,0.956119
-624.389648,959.106445,-90.087891,0.956855
-364.837646,980.712891,127.990723,0.957590
-196.105957,821.228027,247.009277,0.958326
-502.349854,894.470215,-46.051025,0.959061
-324.371338,828.369141,87.432861,0.959814
-281.616211,782.043457,-17.303467,0.960552
-395.050049,843.658447,-30.761719,0.961290
-281.250000,860.778809,195.739746,0.962028
-437.622070,897.033691,378.112793,0.962766
-965.423584,844.573975,760.894775,0.963504
-1096.069336,1042.327881,784.149170,0.964241
-1283.294678,1097.991943,654.510498,0.964982
-1369.445801,973.754883,542.175293,0.965720
-947.113037,865.631104,264.678955,0.966459
-593.811035,933.288574,-26.641846,0.967197
-960.205078,817.749023,-146.301270,0.967936
-1138.183594,729.400635,-248.016357,0.968674
1477.203369,482.299805,-58.593750,0.969413
2944.152832,1204.925537,-99.517822,0.970153
86.242676,773.437500,-80.749512,0.970891
-1110.900879,788.818359,-108.673096,0.971630
-1016.326904,915.435791,-131.378174,0.972368
-1816.680908,823.333740,-36.437988,0.973109
-1489.746094,790.283203,-19.866943,0.973847
-33.966064,843.566895,-70.220947,0.974585
2174.560547,1162.536621,-242.797852,0.975324
-310.363770,898.223877,-301.025391,0.976062
-1202.362061,836.791992,-280.517578,0.976800
-525.054932,1314.331055,2975.006104,0.977538
2999.908447,2974.639893,2999.908447,0.978278
2999.908447,2999.908447,2999.908447,0.979016
1067.596436,1837.005615,410.614014,0.979754
-126.525879,689.575195,-1578.186035,0.980493
-341.400146,320.159912,-2008.300781,0.981231
-1403.869629,264.312744,-1379.058838,0.981970
-1584.960938,667.419434,-661.285400,0.982708
-1866.027832,1338.867188,933.563232,0.983448
-1191.833496,1766.510010,1508.514404,0.984222
-1207.672119,1578.094482,717.041016,0.984963
-1113.281250,1257.385254,-195.465088,0.985701
-664.123535,1208.587646,-319.976807,0.986440
393.402100,1235.137939,-130.462646,0.987178
841.918945,1356.445312,-38.635254,0.987917
742.767334,1354.522705,-25.634766,0.988659
145.568848,1212.890625,-147.216797,0.989397
-275.024414,1236.328125,-26.367188,0.990136
-787.445068,1420.166016,915.893555,0.990878
-170.562744,1898.071289,1661.682129,0.991616
210.479736,1910.339355,1319.000244,0.992354
-437.255859,1409.729004,-312.194824,0.993093
-866.546631,1001.129150,-1288.696289,0.993834
-831.207275,1039.398193,-874.511719,0.994572
-368.774414,1161.163330,1.739502,0.995310
138.519287,1349.029541,197.845459,0.996049
129.089355,1322.113037,-285.461426,0.996815
-259.460449,1188.812256,-534.118652,0.997556
-1067.504883,1102.935791,-603.515625,0.998306
-1111.724854,1135.253906,-353.851318,0.999054
-485.137939,1317.901611,182.281494,0.999794
-49.804688,1559.234619,756.500244,1.000533
459.503174,1593.109131,454.559326,1.001273
263.854980,1503.845215,-361.541748,1.002017
1611.511230,1018.524170,-596.191406,1.002758
545.013428,935.668945,-859.863281,1.003501
-618.530273,1153.198242,-392.761230,1.004245
-759.796143,1258.758545,9.155273,1.004984
-758.972168,1335.754395,23.162842,1.005723
-835.235596,1364.959717,286.010742,1.006462
-869.567871,1504.577637,490.447998,1.007201
-758.239746,1542.663574,547.119141,1.007940
-542.541504,1427.032471,12.725830,1.008679
-603.881836,1251.068115,-384.521484,1.009422
-820.129395,1180.023193,-373.992920,1.010161
-722.442627,1192.291260,-286.560059,1.010900
639.770508,1152.832031,90.911865,1.011639
1234.588623,1215.362549,213.867188,1.012378
729.034424,1252.075195,193.176270,1.013117
330.871582,1176.177979,28.381348,1.013856
-492.004395,1163.818359,-176.330566,1.014598
-1030.975342,1204.467773,-218.170166,1.015337
-1271.667480,1183.410645,-144.378662,1.016076
-1443.145752,1217.926025,45.318604,1.016824
-1178.466797,1220.855713,95.947266,1.017564
-525.604248,1060.180664,359.710693,1.018299
1102.111816,1014.862061,346.618652,1.019035
1197.143555,1227.355957,298.736572,1.019775
596.557617,1244.384766,279.510498,1.020511
79.559326,1110.992432,-32.226562,1.021246
-141.174316,1052.673340,-212.860107,1.021982
-484.771729,1118.774414,82.305908,1.022727
-529.541016,1163.818359,575.683594,1.023464
-415.283203,1264.343262,674.652100,1.024199
-226.593018,1339.324951,567.260742,1.024939
-79.101562,1296.752930,332.336426,1.025675
-126.251221,1234.130859,187.042236,1.026411
-222.015381,1201.995850,208.099365,1.027146
-234.558105,1199.981689,196.563721,1.027884
-227.142334,1200.256348,150.604248,1.028621
-243.255615,1214.538574,99.792480,1.029356
-259.643555,1211.608887,74.981689,1.030092
-282.531738,1195.037842,22.064209,1.030828
-328.582764,1157.501221,-23.712158,1.031564
-349.090576,1142.211914,-126.251221,1.032301
-398.345947,1130.676270,-181.091309,1.033048
-414.916992,1126.281738,-161.132812,1.033784
-428.100586,1138.732910,-140.625000,1.034519
-407.958984,1150.634766,-163.604736,1.035254
-375.823975,1146.148682,-211.669922,1.035988
-413.635254,1131.134033,-267.608643,1.036722
-425.994873,1132.415771,-256.256104,1.037457
-445.861816,1142.578125,-251.495361,1.038197
-458.404541,1165.100098,-259.002686,1.038931
-462.432861,1158.325195,-285.369873,1.039665
-473.144531,1147.796631,-314.208984,1.040400
-446.685791,1152.740479,-308.074951,1.041153
-422.515869,1165.100098,-268.981934,1.041890
-406.585693,1143.585205,-383.697510,1.042635
-321.350098,1176.910400,-275.848389,1.043376
-346.984863,1165.557861,-255.798340,1.044112
-394.958496,1118.682861,-361.175537,1.044847
-406.036377,1097.442627,-354.766846,1.045582
-377.563477,1150.177002,-310.180664,1.046326
-674.835205,1153.930664,-312.927246,1.047065
-947.387695,1173.706055,-229.522705,1.047801
-847.045898,1230.926514,-165.618896,1.048552
-730.682373,1240.447998,-203.979492,1.049288
-463.806152,1209.594727,-282.348633,1.050025
-297.912598,1163.818359,-340.301514,1.050762
-105.377197,1150.909424,-324.371338,1.051498
-186.309814,1143.859863,-361.907959,1.052234
-272.827148,1183.959961,-309.814453,1.052998
-528.808594,1188.262939,-173.950195,1.053738
-783.599854,1210.052490,-150.238037,1.054474
-552.520752,1207.031250,-235.382080,1.055210
-76.904297,1200.805664,-319.793701,1.055946
47.698975,1174.438477,-355.041504,1.056682
-102.355957,1180.847168,-275.024414,1.057417
-363.555908,1214.355469,-236.846924,1.058153
-354.675293,1249.328613,-226.776123,1.058902
-184.387207,1239.532471,-274.291992,1.059638
-244.628906,1216.186523,-240.783691,1.060374
-332.977295,1245.758057,-179.718018,1.061109
-416.107178,1273.406982,-145.935059,1.061848
-273.834229,1288.146973,-152.893066,1.062583
-160.217285,1278.625488,-186.218262,1.063318
-147.125244,1282.287598,-159.484863,1.064053
-174.041748,1301.147461,-123.779297,1.064787
-204.986572,1316.070557,-62.622070,1.065539
-145.660400,1347.106934,-40.191650,1.066278
-100.982666,1347.106934,-32.226562,1.067012
-143.188477,1345.275879,34.973145,1.067757
-226.593018,1369.171143,78.460693,1.068498
-214.141846,1371.002197,54.565430,1.069242
-180.725098,1361.938477,47.607422,1.069985
-144.470215,1367.065430,56.762695,1.070727
-128.173828,1368.804932,67.657471,1.071467
-88.897705,1362.579346,31.860352,1.072209
-55.206299,1332.458496,48.248291,1.072948
-48.431396,1305.175781,33.966064,1.073688
-29.022217,1298.492432,23.071289,1.074430
-46.417236,1279.449463,16.479492,1.075169
-22.338867,1264.892578,-1.098633,1.075908
-26.367188,1236.328125,-39.459229,1.076647
-5.859375,1198.333740,-39.001465,1.077390
24.353027,1185.150146,-37.811279,1.078129
54.199219,1167.755127,-47.882080,1.078868
47.149658,1140.014648,-57.403564,1.079606
42.297363,1127.929688,-81.573486,1.080345
52.459717,1110.351562,-81.665039,1.081084
58.776855,1082.702637,-96.679688,1.081823
77.728271,1068.237305,-87.249756,1.082564
75.347900,1053.131104,-81.665039,1.083303
81.848145,1037.109375,-86.425781,1.084041
95.397949,1028.045654,-78.918457,1.084780
88.714600,1010.833740,-55.023193,1.085529
102.905273,1001.403809,-69.396973,1.086270
95.672607,998.016357,-66.101074,1.087009
73.974609,989.959717,-66.284180,1.087753
63.079834,971.649170,-63.995361,1.088492
58.044434,966.430664,-58.044434,1.089231
62.988281,954.437256,-91.735840,1.089970
61.798096,946.014404,-57.952881,1.090709
41.198730,943.817139,-48.065186,1.091448
37.261963,927.978516,-83.404541,1.092187
39.825439,923.309326,-66.284180,1.092930
40.283203,927.520752,-54.748535,1.093668
26.641846,911.499023,-61.614990,1.094407
15.014648,904.998779,-68.115234,1.095146
1.739502,888.702393,-69.671631,1.095884
-13.275146,893.371582,-64.178467,1.096623
-25.177002,884.582520,-90.087891,1.097361
-32.318115,862.335205,-101.440430,1.098103
-49.896240,863.433838,-80.017090,1.098843
-45.501709,856.384277,-77.636719,1.099583
-37.170410,856.842041,-104.278564,1.100325
-83.129883,856.567383,-105.102539,1.101066
-81.481934,851.531982,-105.834961,1.101806
-84.960938,846.588135,-102.996826,1.102545
-88.989258,848.785400,-121.124268,1.103286
-103.454590,840.820312,-147.674561,1.104026
-115.722656,849.700928,-119.476318,1.104766
-114.074707,851.715088,-142.181396,1.105505
-93.383789,846.679688,-141.174316,1.106248
-97.320557,858.856201,-142.089844,1.106987
-101.989746,859.039307,-128.540039,1.107727
-112.976074,863.891602,-137.786865,1.108469
-101.806641,867.279053,-146.850586,1.109208
-103.179932,876.892090,-136.962891,1.109947
-71.136475,878.631592,-122.863770,1.110686
-63.720703,879.638672,-122.314453,1.111427
-52.276611,877.075195,-130.096436,1.112166
-80.841064,880.279541,-111.145020,1.112905
-71.136475,883.850098,-124.603271,1.113645
-103.179932,876.159668,-102.630615,1.114384
-92.559814,880.828857,-99.975586,1.115124
-101.715088,880.004883,-111.877441,1.115863
-105.194092,880.920410,-122.863770,1.116605
-111.694336,880.645752,-121.124268,1.117343
-111.785889,876.159668,-126.068115,1.118082
-92.468262,905.639648,-84.960938,1.118819
-98.693848,891.448975,-109.588623,1.119555
-92.010498,891.265869,-122.772217,1.120291
-90.087891,879.272461,-134.216309,1.121027
-80.749512,885.589600,-99.151611,1.121769
-74.066162,896.850586,-80.108643,1.122504
-72.326660,883.300781,-112.243652,1.123265
-94.116211,869.567871,-94.299316,1.124000
-90.270996,878.356934,-101.165771,1.124736
-75.256348,885.681152,-60.150146,1.125471
-59.417725,892.639160,-67.016602,1.126206
-55.755615,877.441406,-63.995361,1.126945
-86.883545,880.096436,-49.255371,1.127681
-70.495605,882.293701,-49.163818,1.128417
-54.931641,875.244141,-50.628662,1.129152
-61.340332,866.455078,-24.810791,1.129885
-66.650391,850.433350,-31.494141,1.130620
-90.911865,844.207764,-48.614502,1.131355
-58.227539,843.658447,-44.128418,1.132092
-35.247803,852.081299,-18.402100,1.132826
-38.452148,844.940186,-25.177002,1.133570
-79.742432,838.989258,-15.838623,1.134311
-80.749512,826.995850,-8.789062,1.135057
-63.629150,836.151123,-26.184082,1.135797
-70.495605,830.383301,-12.725830,1.136534
-62.072754,834.320068,6.134033,1.137276
-59.509277,830.841064,-18.035889,1.138014
-54.565430,832.397461,-15.197754,1.138752
-53.466797,836.608887,-30.944824,1.139490
-66.467285,839.538574,-5.310059,1.140231
-44.403076,841.552734,-9.063721,1.140969
-25.543213,840.179443,-16.479492,1.141706
-44.586182,829.376221,-30.029297,1.142444
-50.262451,833.587646,-32.318115,1.143182
-54.382324,835.144043,-26.000977,1.143919
-15.472412,838.165283,-20.782471,1.144657
-25.543213,834.320068,-37.170410,1.145398
-28.198242,835.968018,-51.544189,1.146136
-37.628174,833.129883,-54.199219,1.146875
-31.494141,843.750000,-43.579102,1.147613
-4.943848,846.771240,-48.339844,1.148351
-16.571045,843.658447,-54.748535,1.149088
-30.578613,845.672607,-54.473877,1.149826
-37.902832,850.433350,-52.551270,1.150567
-20.507812,847.137451,-65.551758,1.151305
-20.507812,849.151611,-50.628662,1.152043
-20.874023,866.363525,-46.966553,1.152782
-37.170410,852.722168,-50.720215,1.153519
-32.775879,856.201172,-73.516846,1.154257
-31.585693,854.827881,-68.481445,1.154995
-29.754639,852.081299,-64.727783,1.155750
-28.930664,857.666016,-69.854736,1.156491
-37.261963,851.074219,-74.890137,1.157229
-37.078857,864.715576,-71.228027,1.157967
-46.508789,860.321045,-71.685791,1.158705
-35.247803,860.595703,-79.193115,1.159443
-43.579102,857.666016,-86.608887,1.160180
-49.987793,852.905273,-93.200684,1.160923
-66.467285,860.046387,-92.559814,1.161661
-85.784912,854.553223,-82.763672,1.162399
-79.193115,844.299316,-98.419189,1.163137
-73.242188,841.827393,-115.722656,1.163877
-94.024658,838.897705,-85.784912,1.164615
-110.961914,834.777832,-94.665527,1.165354
-106.109619,819.122314,-105.926514,1.166095
-98.968506,830.566406,-112.060547,1.166834
-121.948242,811.248779,-99.700928,1.167572
-127.990723,812.622070,-116.638184,1.168318
-129.364014,805.572510,-122.680664,1.169064
-141.448975,801.269531,-105.468750,1.169802
-142.913818,801.910400,-102.264404,1.170542
-140.625000,797.332764,-109.405518,1.171278
-160.583496,799.438477,-99.700928,1.172013
-174.682617,784.240723,-106.933594,1.172747
-168.914795,783.416748,-114.624023,1.173481
-167.907715,779.571533,-105.651855,1.174221
-180.908203,785.430908,-96.862793,1.174959
-191.253662,776.916504,-100.708008,1.175695
-194.732666,762.359619,-112.518311,1.176432
-202.606201,752.288818,-109.313965,1.177169
-209.106445,761.535645,-94.390869,1.177905
-206.268311,777.191162,-87.799072,1.178642
-210.662842,750.640869,-96.496582,1.179382
-220.825195,742.675781,-110.870361,1.180118
-222.747803,743.682861,-104.003906,1.180854
-224.945068,729.400635,-98.236084,1.181591
-219.635010,741.851807,-94.390869,1.182327
-232.086182,741.210938,-109.313965,1.183063
-220.458984,733.520508,-115.631104,1.183799
-225.036621,733.337402,-108.398438,1.184539
-228.149414,740.844727,-96.221924,1.185275
-224.670410,733.154297,-107.482910,1.186012
-232.177734,736.541748,-107.940674,1.186749
-227.966309,740.478516,-115.447998,1.187485
-227.966309,737.823486,-116.455078,1.188221
-227.874756,743.865967,-117.828369,1.188958
-221.740723,743.225098,-109.771729,1.189697
-220.825195,733.520508,-95.489502,1.190433
-220.916748,738.830566,-100.708008,1.191170
-227.142334,737.548828,-105.834961,1.191907
-224.304199,733.337402,-106.842041,1.192646
-209.289551,736.999512,-102.813721,1.193383
-214.874268,739.013672,-95.581055,1.194155
-217.712402,738.006592,-97.412109,1.194894
-216.613770,749.908447,-91.094971,1.195629
-211.395264,747.528076,-104.278564,1.196364
-216.522217,764.282227,-90.728760,1.197106
-215.240479,774.719238,-91.461182,1.197845
-219.726562,786.804199,-83.862305,1.198581
-210.571289,786.895752,-93.566895,1.199325
-197.753906,798.614502,-113.983154,1.200068
-203.979492,813.262939,-90.179443,1.200804
-220.001221,820.404053,-83.312988,1.201540
-209.472656,822.235107,-92.468262,1.202277
-189.514160,817.565918,-93.109131,1.203015
-186.218262,814.361572,-85.784912,1.203750
-168.090820,819.396973,-93.017578,1.204485
-174.407959,847.961426,-76.171875,1.205240
-202.148438,839.813232,-70.312500,1.205976
-166.442871,827.453613,-93.475342,1.206710
-152.801514,836.608887,-90.454102,1.207443
-138.427734,829.742432,-73.699951,1.208181
-161.499023,849.060059,-65.917969,1.208914
-145.751953,841.278076,-65.826416,1.209647
-124.237061,843.292236,-77.178955,1.210381
-131.652832,843.383789,-81.939697,1.211114
-122.497559,865.539551,-81.665039,1.211847
-104.278564,852.539062,-55.847168,1.212580
-106.018066,855.926514,-67.565918,1.213315
-98.602295,848.968506,-69.122314,1.214048
-82.031250,851.531982,-66.925049,1.214786
-48.522949,839.996338,-77.270508,1.215535
-55.297852,837.432861,-74.432373,1.216274
-69.030762,843.200684,-66.467285,1.217010
-62.713623,837.158203,-58.502197,1.217746
-45.684814,828.186035,-73.699951,1.218487
-51.544189,820.404053,-67.108154,1.219223
-39.367676,829.650879,-67.657471,1.219959
-32.867432,802.093506,-78.918457,1.220696
-38.269043,817.016602,-86.517334,1.221432
-43.579102,809.509277,-61.431885,1.222168
-33.416748,811.248779,-61.248779,1.222904
-23.071289,810.241699,-62.072754,1.223643
-30.120850,808.868408,-64.361572,1.224379
-17.028809,809.509277,-66.101074,1.225116
-39.550781,797.973633,-68.481445,1.225852
-27.832031,815.368652,-57.128906,1.226590
-30.853271,814.910889,-44.494629,1.227327
13.732910,817.932129,-64.636230,1.228064
9.887695,816.833496,-73.242188,1.228804
-39.459229,804.840088,-65.917969,1.229540
-31.860352,811.431885,-49.987793,1.230276
-20.874023,820.495605,-41.931152,1.231013
-19.683838,809.875488,-42.022705,1.231752
-29.022217,804.840088,-38.726807,1.232488
-29.663086,806.488037,-57.952881,1.233225
-21.331787,809.875488,-60.333252,1.233961
-31.951904,808.776855,-64.636230,1.234697
-39.642334,817.565918,-37.719727,1.235434
-44.219971,824.340820,-37.719727,1.236171
-36.346436,816.467285,-64.086914,1.236911
-58.868408,813.171387,-66.741943,1.237648
-61.340332,818.664551,-56.854248,1.238385
-46.051025,824.707031,-33.966064,1.239122
-57.037354,826.812744,-48.339844,1.239858
-93.292236,820.312500,-59.143066,1.240594
-73.242188,827.728271,-44.036865,1.241331
-71.044922,828.918457,-63.262939,1.242073
-79.467773,825.531006,-64.270020,1.242810
-88.714600,835.510254,-57.312012,1.243547
-87.799072,829.742432,-70.953369,1.244284
-97.595215,835.784912,-65.551758,1.245021
-102.081299,839.538574,-60.424805,1.245757
-90.820312,844.024658,-83.038330,1.246494
-85.510254,834.869385,-99.609375,1.247234
-92.468262,845.947266,-96.954346,1.247981
-113.525391,850.341797,-79.010010,1.248720
-109.039307,861.511230,-84.411621,1.249458
-99.884033,853.179932,-89.447021,1.250196
-119.567871,856.842041,-106.292725,1.250935
-111.877441,854.370117,-113.891602,1.251673
-119.476318,855.743408,-77.453613,1.252412
-116.455078,868.103027,-84.411621,1.253146
-123.229980,858.306885,-107.849121,1.253880
-131.378174,849.975586,-101.165771,1.254614
-140.533447,860.595703,-107.849121,1.255348
-132.568359,859.863281,-122.955322,1.256082
-137.969971,851.165771,-139.801025,1.256816
-145.385742,851.531982,-125.793457,1.257552
-149.963379,852.355957,-127.258301,1.258283
-146.209717,849.334717,-130.920410,1.259014
-172.943115,862.426758,-139.434814,1.259745
-174.316406,871.124268,-141.174316,1.260499
-170.562744,878.356934,-120.391846,1.261238
-180.816650,886.596680,-116.546631,1.261973
-183.013916,887.786865,-137.878418,1.262713
-172.302246,885.681152,-141.815186,1.263448
-180.541992,905.181885,-138.427734,1.264182
-178.161621,914.062500,-137.695312,1.264965
-191.436768,918.457031,-133.117676,1.265724
-195.007324,931.274414,-127.716064,1.266470
-193.359375,943.267822,-138.610840,1.267214
-196.655273,944.824219,-135.223389,1.267969
-207.183838,941.711426,-144.378662,1.268707
-180.267334,945.465088,-147.033691,1.269442
-188.507080,958.740234,-134.948730,1.270178
-188.690186,957.824707,-140.350342,1.270918
-182.922363,981.719971,-136.138916,1.271654
-211.944580,972.473145,-136.322021,1.272389
-199.035645,960.021973,-138.977051,1.273128
-167.999268,953.704834,-136.047363,1.273865
-187.408447,960.845947,-130.279541,1.274599
-185.119629,962.310791,-120.941162,1.275334
-189.971924,962.493896,-126.525879,1.276081
-193.725586,966.613770,-136.322021,1.276823
-197.845459,969.177246,-132.110596,1.277561
-197.204590,981.445312,-102.905273,1.278299
-207.275391,987.487793,-90.911865,1.279045
-201.049805,983.734131,-99.334717,1.279783
-197.113037,978.515625,-123.046875,1.280520
-178.710938,982.269287,-120.117188,1.281261
-170.288086,984.008789,-108.947754,1.281998
-182.647705,987.854004,-86.425781,1.282735
-182.556152,972.015381,-93.292236,1.283472
-182.464600,977.600098,-103.454590,1.284209
-161.407471,971.649170,-83.496094,1.284945
-151.611328,984.649658,-66.741943,1.285682
-177.337646,977.600098,-86.151123,1.286422
-161.132812,952.697754,-113.159180,1.287159
-202.972412,955.902100,-185.852051,1.287895
-79.559326,938.690186,-235.015869,1.288632
-1.647949,916.351318,-234.741211,1.289370
-56.579590,921.020508,-240.234375,1.290106
-67.749023,936.035156,-163.513184,1.290842
-47.973633,966.705322,-114.440918,1.291582
-31.677246,942.718506,-147.491455,1.292318
-9.613037,945.007324,-137.603760,1.293055
-53.924561,944.091797,-128.631592,1.293791
-76.538086,958.740234,-92.010498,1.294530
-93.750000,964.416504,-76.080322,1.295267
-99.334717,970.092773,-65.093994,1.296005
-91.918945,971.557617,-74.523926,1.296742
-87.432861,979.248047,-65.551758,1.297485
-85.601807,971.832275,-63.171387,1.298225
-104.461670,965.881348,-66.650391,1.298961
-114.532471,976.776123,-49.346924,1.299701
-115.905762,968.261719,-61.889648,1.300438
-93.658447,960.479736,-67.932129,1.301174
-89.538574,956.451416,-72.692871,1.301910
-78.918457,950.225830,-94.116211,1.302646
-63.079834,955.352783,-98.876953,1.303382
-57.952881,950.225830,-109.680176,1.304118
-54.565430,955.169678,-100.433350,1.304858
-59.234619,963.043213,-107.574463,1.305595
-31.860352,964.599609,-102.630615,1.306331
-36.437988,974.487305,-96.954346,1.307069
-24.993896,962.860107,-114.166260,1.307805
-1.464844,966.613770,-108.673096,1.308546
-17.120361,967.895508,-79.742432,1.309283
-35.064697,979.797363,-71.136475,1.310024
-24.993896,975.585938,-97.778320,1.310760
-28.472900,988.494873,-79.559326,1.311497
-38.269043,987.487793,-90.270996,1.312233
-33.050537,981.445312,-94.390869,1.312966
-35.888672,977.508545,-88.165283,1.313700
-39.276123,988.403320,-81.115723,1.314433
-41.473389,983.459473,-84.503174,1.315169
-45.776367,985.473633,-93.475342,1.315909
-26.092529,976.226807,-107.666016,1.316650
-41.564941,981.170654,-125.793457,1.317389
-33.508301,974.761963,-119.293213,1.318128
-34.698486,976.135254,-121.398926,1.318864
-40.649414,974.029541,-110.595703,1.319600
-46.508789,982.269287,-113.800049,1.320339
-40.191650,984.100342,-118.560791,1.321075
-53.192139,981.994629,-129.730225,1.321811
-51.635742,977.600098,-130.371094,1.322547
-54.016113,982.177734,-109.130859,1.323288
-70.770264,995.544434,-104.187012,1.324024
-67.016602,990.051270,-114.440918,1.324760
-59.051514,962.036133,-125.061035,1.325496
-68.572998,991.149902,-114.166260,1.326233
-88.714600,997.924805,-114.440918,1.326969
-73.974609,1003.509521,-107.116699,1.327705
-97.961426,1003.417969,-123.229980,1.328444
-87.615967,998.657227,-126.251221,1.329180
-98.510742,1030.792236,-117.919922,1.329921
-93.933105,1012.115479,-95.855713,1.330658
-102.539062,1012.664795,-112.701416,1.331394
-101.989746,1014.770508,-125.244141,1.332130
-108.947754,1010.101318,-127.166748,1.332866
-107.299805,1019.439697,-125.152588,1.333607
-115.356445,1017.974854,-128.540039,1.334343
-108.306885,1025.482178,-124.969482,1.335112
-115.356445,1023.101807,-124.969482,1.335848
-128.173828,1024.017334,-113.891602,1.336583
-131.744385,1028.778076,-119.659424,1.337318
-132.019043,1021.636963,-123.870850,1.338055
-132.751465,1019.073486,-122.680664,1.338794
-139.617920,1023.559570,-125.061035,1.339530
-150.787354,1025.390625,-119.750977,1.340266
-153.442383,1022.827148,-122.131348,1.341002
-159.484863,1024.291992,-121.948242,1.341739
-160.675049,1030.426025,-131.378174,1.342476
-166.809082,1015.136719,-135.131836,1.343212
-164.245605,1022.460938,-122.589111,1.343951
-176.971436,1012.115479,-126.068115,1.344684
-173.675537,1008.270264,-135.498047,1.345417
-183.837891,1010.559082,-127.258301,1.346150
-187.683105,1001.037598,-137.237549,1.346890
-188.415527,1000.305176,-138.885498,1.347624
-186.676025,996.002197,-145.660400,1.348358
-187.408447,994.445801,-128.723145,1.349091
-196.014404,998.657227,-136.413574,1.349823
-197.113037,992.614746,-144.653320,1.350557
-209.197998,989.044189,-141.906738,1.351290
-212.310791,989.501953,-138.336182,1.352026
-211.395264,992.248535,-136.779785,1.352759
-207.092285,985.656738,-132.843018,1.353491
-215.057373,989.868164,-130.737305,1.354224
-213.226318,979.156494,-135.314941,1.354957
-208.740234,981.719971,-142.639160,1.355690
-217.437744,979.431152,-135.314941,1.356424
-223.205566,981.903076,-132.568359,1.357161
-203.613281,1005.523682,-128.906250,1.357894
-209.381104,984.832764,-131.835938,1.358627
-213.409424,986.846924,-142.730713,1.359360
-228.424072,992.340088,-128.997803,1.360095
-188.873291,998.016357,-131.286621,1.360828
-188.873291,1003.051758,-124.969482,1.361560
-193.817139,999.389648,-125.701904,1.362310
-185.119629,1012.298584,-120.208740,1.363057
-191.619873,1014.587402,-120.849609,1.363793
-183.654785,1021.087646,-128.265381,1.364529
-165.435791,1013.671875,-112.518311,1.365265
-158.111572,1031.433105,-98.785400,1.366000
-168.731689,1024.475098,-119.842529,1.366736
-155.548096,1007.263184,-134.948730,1.367484
-154.541016,1007.720947,-131.103516,1.368221
-138.244629,1007.537842,-124.694824,1.368956
-138.702393,1005.798340,-129.455566,1.369692
-133.758545,997.009277,-126.708984,1.370428
-128.448486,992.156982,-144.470215,1.371163
-161.132812,984.924316,-129.638672,1.371899
-204.528809,992.431641,-147.491455,1.372639
-148.223877,981.262207,-124.786377,1.373375
-123.413086,991.424561,-127.441406,1.374111
-105.560303,996.551514,-107.849121,1.374849
-91.552734,1003.234863,-80.841064,1.375584
-97.045898,994.262695,-115.905762,1.376320
-114.166260,968.261719,-150.512695,1.377056
-118.835449,967.895508,-154.357910,1.377797
-119.842529,962.768555,-156.280518,1.378532
-132.385254,958.465576,-143.737793,1.379268
-99.426270,946.838379,-160.125732,1.380004
-97.961426,951.049805,-112.426758,1.380744
-103.912354,966.796875,-134.307861,1.381478
-102.172852,973.480225,-140.533447,1.382211
-81.024170,949.035645,-197.021484,1.382945
-97.045898,919.464111,-238.220215,1.383678
-125.793457,899.505615,-259.918213,1.384411
-131.195068,901.519775,-204.895020,1.385145
-127.349854,914.611816,-187.225342,1.385898
-117.462158,921.112061,-217.071533,1.386635
-128.082275,910.583496,-201.232910,1.387370
-119.476318,894.012451,-268.432617,1.388105
-132.843018,870.391846,-278.228760,1.388839
-129.180908,866.088867,-270.263672,1.389574
-109.405518,887.695312,-235.839844,1.390309
-99.151611,928.070068,-156.738281,1.391051
-136.962891,945.648193,-222.473145,1.391786
-128.723145,898.315430,-275.848389,1.392521
-156.097412,881.469727,-230.529785,1.393255
-177.612305,899.963379,-221.740723,1.393990
-112.792969,899.322510,-299.652100,1.394726
-178.894043,862.518311,-331.970215,1.395461
-216.613770,889.343262,-301.483154,1.396199
-226.867676,884.857178,-347.167969,1.396934
-161.315918,886.047363,-338.562012,1.397668
-155.181885,907.012939,-232.727051,1.398402
-200.317383,951.965332,-217.163086,1.399140
-241.424561,944.549561,-249.664307,1.399875
-321.350098,925.140381,-363.372803,1.400610
-366.119385,865.356445,-333.709717,1.401352
-287.384033,897.308350,-277.862549,1.402088
-260.742188,941.070557,-253.417969,1.402824
-193.817139,994.079590,-105.651855,1.403586
-215.881348,980.987549,-268.798828,1.404333
-364.562988,943.267822,-328.216553,1.405067
-374.725342,915.802002,-283.264160,1.405801
-395.416260,923.126221,-381.408691,1.406533
-346.984863,930.908203,-290.130615,1.407268
-332.794189,920.928955,-313.751221,1.408002
-373.901367,878.265381,-396.240234,1.408735
-411.346436,869.384766,-441.741943,1.409472
-447.967529,831.848145,-470.031738,1.410205
-493.377686,783.508301,-534.759521,1.410938
-542.358398,738.922119,-599.395752,1.411671
-584.197998,719.879150,-667.785645,1.412404
-629.150391,680.694580,-707.519531,1.413138
-632.904053,647.186279,-747.894287,1.413870
-533.386230,606.628418,-849.884033,1.414658
-511.779785,535.217285,-930.999756,1.415399
-570.922852,507.659912,-1105.041504,1.416157
-803.466797,388.641357,-1181.396484,1.416910
-1033.996582,426.910400,-837.982178,1.417663
1280.090332,1117.767334,814.361572,1.418426
1204.376221,1584.136963,600.585938,1.419194
-55.023193,1109.710693,-99.243164,1.419937
-1017.974854,724.090576,-1172.698975,1.420685
-1572.052002,467.102051,-1438.385010,1.421445
-1163.085938,472.595215,-1597.503662,1.422184
-1008.270264,485.870361,-1675.140381,1.422924
-1206.298828,383.514404,-2051.879883,1.423664
345.336914,153.259277,-1801.574707,1.424407
2999.908447,912.322998,-1959.503174,1.425145
2999.908447,1030.517578,-1648.590088,1.425883
732.330322,142.730713,-1245.391846,1.426620
-1528.106689,348.266602,-1015.411377,1.427361
-1074.279785,620.727539,-611.206055,1.428118
527.801514,452.270508,-41.381836,1.428862
1749.664307,863.067627,119.384766,1.429607
2296.966553,991.516113,26.367188,1.430343
2073.852539,1318.267822,120.300293,1.431078
2014.068604,875.335693,736.450195,1.431818
-553.344727,533.569336,721.984863,1.432554
-967.803955,980.804443,238.769531,1.433290
-780.303955,1103.576660,-129.272461,1.434026
54.840088,1078.125000,-309.997559,1.434765
558.013916,1167.205811,-412.445068,1.435500
972.747803,1209.045410,-599.304199,1.436237
888.061523,1138.275146,-730.499268,1.436972
318.603516,1019.439697,-344.604492,1.437709
-1832.702637,918.273926,-118.927002,1.438446
-2311.798096,1066.131592,-177.429199,1.439181
-1420.898438,1239.715576,-196.105957,1.439920
-869.567871,1334.838867,-151.245117,1.440655
-391.204834,1282.104492,98.144531,1.441390
560.028076,1103.851318,196.655273,1.442127
1547.058105,1295.928955,190.979004,1.442862
432.952881,1134.246826,91.552734,1.443598
-501.617432,1229.003906,-58.502197,1.444334
-727.111816,1201.171875,-82.672119,1.445073
-1363.769531,1165.924072,133.758545,1.445809
-2054.443359,1142.578125,206.176758,1.446544
-1618.743896,1347.381592,94.116211,1.447280
-1152.191162,1506.683350,-1.647949,1.448020
-1193.115234,1517.120361,-0.274658,1.448755
-1236.877441,1508.605957,-26.367188,1.449491
-1208.038330,1475.555420,-6.500244,1.450238
-509.490967,1385.650635,43.853760,1.450973
1346.923828,1247.131348,356.781006,1.451707
1898.345947,1531.677246,266.967773,1.452440
1687.500000,1453.674316,-51.818848,1.453178
235.473633,1403.320312,99.975586,1.453912
339.385986,1354.339600,171.020508,1.454645
170.928955,1389.404297,128.265381,1.455378
-626.678467,1403.045654,164.520264,1.456111
-864.257812,1304.809570,186.676025,1.456844
-882.110596,1268.188477,-24.993896,1.457577
142.089844,1349.304199,-163.146973,1.458313
525.695801,1400.115967,-132.751465,1.459045
496.856689,1339.965820,-8.514404,1.459790
421.234131,1334.106445,6.317139,1.460525
378.479004,1341.613770,119.567871,1.461260
133.850098,1357.452393,181.732178,1.461994
-161.865234,1358.001709,196.746826,1.462728
-448.699951,1347.015381,223.480225,1.463465
-677.581787,1392.700195,221.832275,1.464198
-736.358643,1401.397705,176.055908,1.464933
-829.101562,1398.101807,138.702393,1.465667
-819.488525,1336.212158,83.587646,1.466415
-719.879150,1257.202148,14.831543,1.467152
-489.807129,1123.443604,-143.737793,1.467890
-274.291992,1015.228271,-376.647949,1.468637
-15.930176,976.318359,-433.227539,1.469374
63.629150,981.811523,-403.656006,1.470109
108.673096,1016.784668,-343.872070,1.470845
118.103027,1030.059814,-305.969238,1.471584
31.127930,1046.905518,-284.362793,1.472367
-63.812256,1055.328369,-235.473633,1.473107
-81.390381,1024.841309,-274.749756,1.473851
-175.872803,983.825684,-359.527588,1.474590
-324.096680,942.535400,-390.106201,1.475328
-352.020264,923.034668,-388.000488,1.476063
-245.178223,909.118652,-406.494141,1.476801
-164.520264,897.125244,-437.255859,1.477535
-29.205322,888.244629,-453.094482,1.478271
-23.529053,868.194580,-463.348389,1.479007
-115.081787,843.658447,-469.299316,1.479742
-208.007812,810.241699,-482.757568,1.480478
-212.951660,843.109131,-420.501709,1.481213
-244.354248,901.885986,-330.139160,1.481951
-270.172119,898.864746,-340.667725,1.482687
-258.087158,883.392334,-348.632812,1.483422
-174.774170,878.997803,-354.217529,1.484157
-143.554688,837.341309,-385.620117,1.484904
-129.638672,785.980225,-465.362549,1.485641
-127.899170,761.718750,-529.357910,1.486377
-119.659424,750.183105,-468.933105,1.487124
-139.526367,792.663574,-423.706055,1.487860
-158.386230,835.327148,-358.062744,1.488594
-204.071045,852.355957,-331.512451,1.489328
-227.050781,832.305908,-356.048584,1.490061
-214.324951,829.101562,-406.951904,1.490795
-182.922363,785.522461,-440.917969,1.491528
-126.068115,763.641357,-466.461182,1.492265
-113.708496,784.240723,-419.494629,1.492998
-108.032227,797.698975,-381.591797,1.493731
-160.766602,817.840576,-398.162842,1.494464
-216.613770,801.910400,-396.148682,1.495199
-240.051270,800.628662,-395.782471,1.495932
-216.522217,810.333252,-391.204834,1.496665
-195.831299,788.909912,-420.501709,1.497398
-144.378662,777.740479,-443.481445,1.498130
-120.574951,778.015137,-432.128906,1.498863
-112.976074,796.600342,-398.162842,1.499596
-148.498535,804.290771,-386.169434,1.500341
-168.457031,813.812256,-399.444580,1.501078
-228.515625,828.918457,-380.950928,1.501813
-266.326904,830.841064,-384.246826,1.502550
-241.882324,825.164795,-392.944336,1.503287
-188.415527,823.974609,-410.156250,1.504023
-138.519287,823.516846,-421.966553,1.504765
-109.039307,819.396973,-434.509277,1.505524
-102.813721,815.917969,-440.551758,1.506261
-152.435303,827.270508,-427.185059,1.506997
-220.550537,862.243652,-393.676758,1.507734
-264.221191,884.216309,-363.922119,1.508471
-264.038086,874.053955,-393.035889,1.509207
-244.537354,862.243652,-438.537598,1.509942
-167.724609,837.341309,-446.777344,1.510685
-99.700928,845.031738,-444.305420,1.511421
-84.503174,844.299316,-447.509766,1.512157
-159.118652,850.708008,-450.805664,1.512893
-179.992676,880.920410,-422.424316,1.513629
-261.657715,867.095947,-388.183594,1.514361
-259.185791,870.758057,-401.367188,1.515094
-225.585938,874.969482,-416.656494,1.515829
-149.505615,870.941162,-441.192627,1.516564
-135.955811,867.095947,-448.516846,1.517299
-117.645264,859.313965,-457.855225,1.518034
-149.871826,847.869873,-459.869385,1.518771
-193.176270,865.722656,-448.791504,1.519506
-239.593506,880.004883,-422.058105,1.520242
-254.241943,887.145996,-417.572021,1.520977
-241.699219,882.202148,-428.192139,1.521712
-208.740234,887.786865,-427.551270,1.522447
-162.322998,880.462646,-433.502197,1.523182
-151.885986,863.983154,-470.123291,1.523924
-154.998779,845.672607,-484.588623,1.524656
-181.823730,844.940186,-471.496582,1.525390
-214.782715,861.785889,-442.565918,1.526125
-242.156982,889.526367,-392.761230,1.526858
-244.812012,892.822266,-382.781982,1.527591
-217.437744,881.744385,-406.951904,1.528324
-212.310791,846.588135,-462.890625,1.529061
-182.830811,823.059082,-511.138916,1.529795
-168.640137,805.755615,-511.688232,1.530528
-174.591064,814.910889,-486.511230,1.531262
-189.422607,859.680176,-425.537109,1.531998
-222.198486,905.364990,-381.774902,1.532731
-255.523682,868.377686,-383.422852,1.533483
-274.291992,872.131348,-418.121338,1.534224
-255.981445,852.630615,-434.234619,1.534970
-234.649658,830.749512,-471.405029,1.535711
-208.099365,823.516846,-490.356445,1.536450
-207.733154,837.432861,-459.136963,1.537192
-220.367432,855.743408,-414.642334,1.537931
-246.002197,878.265381,-379.119873,1.538670
-268.341064,877.899170,-401.916504,1.539409
-280.151367,861.785889,-433.685303,1.540148
-270.721436,839.538574,-451.446533,1.540927
-240.325928,836.151123,-469.390869,1.541667
-244.537354,835.693359,-473.419189,1.542409
-228.240967,841.735840,-454.742432,1.543147
-228.240967,848.144531,-437.896729,1.543886
-238.220215,875.610352,-414.550781,1.544625
-246.917725,870.300293,-408.874512,1.545364
-259.002686,870.300293,-415.466309,1.546102
-270.812988,864.257812,-439.544678,1.546841
-261.383057,852.447510,-471.588135,1.547583
-246.002197,834.960938,-483.306885,1.548321
-221.282959,840.637207,-479.370117,1.549059
-217.346191,856.475830,-444.213867,1.549798
-205.993652,890.441895,-410.247803,1.550536
-223.480225,876.434326,-408.050537,1.551274
-242.431641,883.392334,-405.578613,1.552013
-247.833252,872.863770,-403.015137,1.552758
-238.220215,855.651855,-426.452637,1.553496
-223.480225,836.517334,-450.439453,1.554250
-203.613281,841.094971,-452.819824,1.555004
-185.394287,863.616943,-431.304932,1.555745
-170.104980,854.919434,-417.205811,1.556484
-175.506592,869.934082,-392.669678,1.557223
-189.605713,866.363525,-390.106201,1.557969
-205.810547,852.539062,-415.924072,1.558708
-202.606201,834.686279,-446.777344,1.559447
-188.323975,831.115723,-455.566406,1.560185
-177.978516,833.953857,-424.713135,1.560924
-158.020020,846.405029,-422.882080,1.561677
-157.196045,864.715576,-423.431396,1.562431
-170.562744,861.145020,-428.283691,1.563168
-183.929443,866.180420,-420.593262,1.563905
-192.718506,870.574951,-421.875000,1.564640
-198.211670,865.447998,-438.171387,1.565383
-184.295654,861.236572,-450.531006,1.566119
-173.492432,862.701416,-449.707031,1.566855
-143.646240,864.074707,-437.713623,1.567591
-146.575928,867.553711,-428.009033,1.568329
-157.745361,868.927002,-431.762695,1.569065
-186.676025,862.426758,-420.501709,1.569801
-196.289062,863.250732,-434.692383,1.570536
-206.085205,851.165771,-450.805664,1.571273
-190.521240,851.165771,-457.489014,1.572009
-170.928955,849.792480,-447.875977,1.572745
-153.442383,858.947754,-448.699951,1.573487
-146.759033,868.011475,-438.629150,1.574223
-159.301758,872.222900,-423.889160,1.574958
-178.436279,881.744385,-416.839600,1.575694
-204.620361,883.483887,-415.466309,1.576430
-211.486816,877.624512,-438.903809,1.577166
-210.662842,872.039795,-452.087402,1.577901
-197.113037,867.645264,-446.228027,1.578654
-178.161621,872.314453,-435.150146,1.579391
-172.119141,882.293701,-426.818848,1.580124
-183.380127,882.568359,-440.643311,1.580858
-200.225830,878.356934,-441.284180,1.581591
-210.754395,878.906250,-439.086914,1.582324
-221.649170,875.976562,-438.995361,1.583058
-222.839355,877.075195,-436.340332,1.583797
-221.008301,885.406494,-432.312012,1.584530
-202.239990,870.025635,-435.699463,1.585263
-197.479248,866.821289,-435.424805,1.585997
-185.394287,856.658936,-425.811768,1.586733
-195.098877,869.842529,-428.375244,1.587465
-213.409424,876.525879,-415.649414,1.588202
-241.424561,873.962402,-418.121338,1.588941
-247.741699,867.370605,-410.430908,1.589673
-249.389648,867.919922,-415.740967,1.590404
-231.353760,865.539551,-399.627686,1.591139
-210.845947,852.813721,-421.966553,1.591882
-198.944092,842.926025,-427.368164,1.592617
-196.472168,857.574463,-418.853760,1.593353
-215.515137,859.497070,-414.550781,1.594089
-236.389160,858.856201,-408.966064,1.594824
-243.896484,859.039307,-401.458740,1.595558
-242.706299,857.574463,-412.353516,1.596293
-237.762451,854.919434,-412.445068,1.597031
-228.790283,839.721680,-426.086426,1.597765
-213.226318,842.834473,-419.219971,1.598500
-209.289551,847.595215,-411.071777,1.599235
-210.021973,846.862793,-407.775879,1.599971
-233.917236,851.989746,-406.768799,1.600712
-252.868652,851.165771,-406.585693,1.601445
-259.368896,847.961426,-407.043457,1.602185
-262.573242,841.278076,-400.268555,1.602918
-248.474121,850.708008,-407.135010,1.603649
-233.367920,839.904785,-423.339844,1.604382
-213.226318,836.334229,-425.720215,1.605133
-203.430176,828.002930,-431.488037,1.605871
-207.000732,835.235596,-425.445557,1.606607
-229.339600,836.517334,-404.296875,1.607342
-244.079590,843.383789,-413.360596,1.608078
-241.424561,848.144531,-413.726807,1.608813
-213.134766,845.306396,-407.684326,1.609580
-229.156494,840.270996,-425.262451,1.610334
-201.873779,841.644287,-430.023193,1.611074
-192.626953,836.791992,-439.270020,1.611812
-191.528320,839.813232,-435.791016,1.612551
-204.254150,848.327637,-429.931641,1.613289
-232.910156,855.560303,-412.994385,1.614028
-216.888428,858.306885,-414.733887,1.614767
-221.740723,866.729736,-441.925049,1.615508
-203.338623,849.517822,-429.473877,1.616246
-186.218262,848.327637,-438.354492,1.616986
-163.330078,846.588135,-435.882568,1.617724
-167.633057,848.693848,-431.854248,1.618463
-166.900635,860.870361,-427.185059,1.619201
-182.739258,860.870361,-423.431396,1.619948
-192.352295,872.131348,-426.818848,1.620689
-203.063965,867.828369,-416.931152,1.621440
-193.176270,868.194580,-424.896240,1.622190
-176.055908,870.025635,-429.473877,1.622930
-165.618896,870.849609,-430.938721,1.623664
-155.731201,876.342773,-441.467285,1.624397
-161.041260,868.743896,-438.354492,1.625133
-166.076660,879.089355,-427.368164,1.625877
-179.443359,880.737305,-421.234131,1.626610
-207.550049,893.737793,-408.599854,1.627344
-189.422607,890.441895,-417.205811,1.628081
-185.394287,883.666992,-444.030762,1.628814
-171.295166,882.568359,-431.030273,1.629548
-160.308838,876.525879,-449.157715,1.630281
-154.266357,880.004883,-437.438965,1.631018
-165.069580,876.525879,-414.642334,1.631751
-175.140381,889.068604,-407.135010,1.632484
-189.697266,889.892578,-403.472900,1.633217
-201.599121,894.012451,-410.705566,1.633968
-193.084717,894.195557,-425.994873,1.634703
-188.598633,877.075195,-428.833008,1.635436
-181.640625,873.321533,-438.446045,1.636170
-167.541504,872.497559,-426.818848,1.636906
-171.112061,864.624023,-415.374756,1.637641
-177.337646,870.208740,-418.029785,1.638375
-194.366455,877.807617,-416.107178,1.639127
-205.810547,875.061035,-411.712646,1.639865
-213.134766,878.448486,-409.057617,1.640600
-211.669922,867.736816,-414.184570,1.641336
-198.577881,868.194580,-418.121338,1.642085
-180.908203,865.631104,-422.058105,1.642822
-180.541992,867.004395,-414.550781,1.643559
-174.957275,866.638184,-409.790039,1.644301
-192.443848,876.983643,-413.635254,1.645037
-211.029053,878.082275,-404.571533,1.645772
-217.895508,870.849609,-399.353027,1.646509
-222.198486,865.814209,-405.487061,1.647244
-222.930908,865.447998,-412.994385,1.647980
-211.395264,872.863770,-407.318115,1.648716
-196.655273,877.441406,-424.438477,1.649455
-190.155029,864.532471,-423.431396,1.650191
-192.626953,872.680664,-418.304443,1.650927
-205.169678,875.610352,-404.296875,1.651662
-218.902588,864.532471,-410.247803,1.652411
-227.600098,868.194580,-410.430908,1.653148
-224.395752,873.687744,-414.093018,1.653885
-219.818115,863.891602,-401.916504,1.654620
-210.479736,858.215332,-402.008057,1.655355
-196.105957,864.990234,-405.303955,1.656091
-183.288574,862.426758,-400.177002,1.656827
-189.880371,855.468750,-415.924072,1.657581
-201.141357,850.341797,-404.937744,1.658316
-210.754395,852.813721,-403.472900,1.659049
-213.958740,846.405029,-401.916504,1.659782
-203.338623,851.623535,-395.324707,1.660516
-188.507080,846.954346,-395.324707,1.661250
-181.823730,849.792480,-403.381348,1.661983
-177.246094,841.918945,-408.050537,1.662735
-175.872803,842.926025,-402.648926,1.663472
-188.232422,843.658447,-402.557373,1.664207
-200.866699,845.214844,-401.000977,1.664946
-201.507568,853.454590,-403.472900,1.665685
-193.908691,863.616943,-391.021729,1.666421
-191.436768,861.694336,-400.543213,1.667162
-184.936523,866.638184,-401.733398,1.667905
-170.928955,855.560303,-408.325195,1.668644
-177.978516,857.940674,-410.888672,1.669383
-183.380127,853.363037,-411.071777,1.670122
-197.021484,847.595215,-414.367676,1.670864
-197.845459,850.799561,-409.332275,1.671603
-198.394775,843.750000,-407.684326,1.672342
-196.380615,842.651367,-410.430908,1.673083
-180.816650,839.447021,-409.881592,1.673822
-178.710938,834.869385,-416.564941,1.674561
-181.365967,830.566406,-429.199219,1.675300
-178.253174,826.171875,-425.811768,1.676038
-197.479248,822.052002,-427.642822,1.676774
-213.684082,836.975098,-425.628662,1.677510
-205.718994,833.587646,-421.600342,1.678295
-208.190918,841.552734,-407.592773,1.679035
-203.887939,842.834473,-414.459229,1.679773
-205.078125,845.855713,-426.910400,1.680510
-203.521729,842.926025,-435.150146,1.681253
-213.775635,835.968018,-435.607910,1.681991
-214.050293,841.827393,-440.826416,1.682729
-219.085693,855.743408,-422.241211,1.683467
-225.219727,859.313965,-419.219971,1.684204
-230.712891,864.624023,-423.248291,1.684943
-229.980469,857.391357,-433.502197,1.685681
-225.585938,861.236572,-436.706543,1.686422
-217.987061,856.384277,-445.404053,1.687159
-230.163574,852.172852,-450.531006,1.687907
-234.466553,863.983154,-432.678223,1.688651
-233.367920,876.434326,-436.523438,1.689389
-235.198975,873.504639,-427.185059,1.690128
-234.008789,884.216309,-424.530029,1.690866
-235.198975,881.835938,-429.840088,1.691622
-235.565186,871.398926,-439.270020,1.692365
-237.304688,874.603271,-441.741943,1.693106
-230.438232,880.187988,-438.262939,1.693852
-225.952148,887.695312,-431.579590,1.694591
-233.917236,909.393311,-428.924561,1.695336
-240.234375,891.540527,-435.058594,1.696077
-227.874756,895.751953,-429.290771,1.696825
-236.572266,895.385742,-449.066162,1.697564
-230.621338,897.308350,-451.904297,1.698303
-229.431152,901.245117,-443.115234,1.699043
-227.142334,899.597168,-441.650391,1.699782
-217.254639,912.139893,-428.192139,1.700521
-218.719482,908.111572,-425.903320,1.701260
-222.930908,912.231445,-422.790527,1.702002
-218.170166,909.301758,-424.530029,1.702744
-222.198486,896.850586,-436.248779,1.703482
-214.324951,897.399902,-433.319092,1.704220
-214.874268,898.864746,-426.452637,1.704962
-206.726074,900.604248,-425.354004,1.705701
-202.148438,900.054932,-410.797119,1.706439
-198.394775,895.935059,-415.100098,1.707180
-197.387695,889.984131,-422.332764,1.707919
-199.676514,867.919922,-416.290283,1.708657
-194.732666,887.420654,-413.085938,1.709394
-193.176270,881.561279,-416.381836,1.710131
-191.070557,878.356934,-421.875000,1.710883
-181.732178,878.356934,-419.128418,1.711624
-175.048828,871.582031,-419.860840,1.712367
-177.429199,870.300293,-410.797119,1.713103
-170.745850,880.096436,-408.691406,1.713838
-171.936035,872.406006,-408.691406,1.714576
-167.449951,872.589111,-402.923584,1.715312
-163.146973,871.398926,-413.726807,1.716047
-163.696289,868.560791,-414.733887,1.716782
-160.125732,867.736816,-412.719727,1.717519
-150.329590,861.419678,-407.867432,1.718254
-157.470703,864.166260,-412.353516,1.718989
-157.653809,857.391357,-409.790039,1.719723
-187.042236,860.046387,-414.276123,1.720456
-167.541504,854.553223,-419.128418,1.721189
-167.358398,861.145020,-398.712158,1.721926
-163.879395,858.947754,-409.515381,1.722666
-160.308838,865.173340,-405.395508,1.723398
-159.027100,862.060547,-409.332275,1.724131
-163.696289,856.933594,-418.395996,1.724864
-162.231445,858.215332,-412.811279,1.725602
-165.344238,855.926514,-410.797119,1.726336
-164.703369,862.792969,-416.290283,1.727072
-159.393311,866.729736,-414.001465,1.727808
-170.379639,860.137939,-415.924072,1.728543
-170.288086,854.461670,-420.959473,1.729278
-172.760010,853.912354,-425.079346,1.730013
-176.055908,852.355957,-433.776855,1.730767
-178.894043,866.088867,-431.213379,1.731505
-207.366943,868.011475,-429.382324,1.732241
-191.253662,860.412598,-427.917480,1.732985
-206.085205,861.968994,-424.438477,1.733721
-196.105957,866.455078,-428.192139,1.734469
-204.620361,869.110107,-429.656982,1.735208
-211.212158,868.560791,-446.960449,1.735951
-212.219238,874.877930,-446.319580,1.736689
-216.796875,883.850098,-449.890137,1.737428
-222.106934,892.639160,-457.672119,1.738168
-222.290039,894.744873,-445.953369,1.738907
-224.212646,897.308350,-452.819824,1.739646
-230.987549,900.878906,-455.017090,1.740385
-236.297607,898.223877,-457.580566,1.741126
-239.227295,899.871826,-453.186035,1.741865
-234.832764,898.498535,-457.397461,1.742603
-246.551514,901.428223,-457.855225,1.743343
-249.114990,906.646729,-455.749512,1.744085
-258.453369,904.632568,-455.749512,1.744823
-255.523682,913.330078,-450.714111,1.745561
-270.080566,902.618408,-455.932617,1.746303
-268.432617,911.041260,-453.918457,1.747081
-265.686035,902.435303,-472.045898,1.747834
-273.193359,906.738281,-466.644287,1.748573
-270.996094,899.688721,-467.926025,1.749316
-276.214600,906.280518,-459.228516,1.750054
-264.587402,909.393311,-461.334229,1.750793
-270.904541,906.555176,-459.869385,1.751533
-267.150879,904.998779,-457.031250,1.752271
-266.967773,907.653809,-459.960938,1.753010
-270.721436,902.343750,-454.284668,1.753748
-266.418457,905.731201,-453.186035,1.754494
-268.615723,910.675049,-448.699951,1.755233
-267.608643,906.005859,-458.404541,1.755970
-257.995605,905.090332,-450.988770,1.756706
-258.453369,907.012939,-442.657471,1.757446
-261.199951,901.611328,-445.861816,1.758179
-258.544922,907.012939,-442.108154,1.758912
-263.946533,902.984619,-444.030762,1.759649
-261.291504,903.900146,-448.791504,1.760407
-254.608154,910.675049,-447.326660,1.761172
-248.474121,904.998779,-447.784424,1.761913
-242.706299,901.611328,-440.460205,1.762649
-241.149902,905.639648,-438.720703,1.763386
-234.649658,903.808594,-443.298340,1.764142
-230.529785,902.801514,-442.108154,1.764894
-233.825684,903.259277,-422.332764,1.765647
-238.311768,902.984619,-423.156738,1.766388
-227.416992,904.815674,-414.184570,1.767128
-225.585938,903.900146,-419.494629,1.767867
-220.184326,899.322510,-414.459229,1.768607
-220.092773,895.385742,-425.079346,1.769347
-213.043213,890.533447,-414.642334,1.770091
-209.289551,891.174316,-425.445557,1.770831
-233.551025,897.125244,-414.367676,1.771571
-211.395264,871.398926,-414.642334,1.772310
-207.000732,887.878418,-417.114258,1.773050
-198.944092,894.470215,-418.395996,1.773789
-206.359863,879.455566,-418.853760,1.774529
-190.155029,883.758545,-419.219971,1.775271
-188.140869,884.857178,-416.839600,1.776012
-188.598633,878.356934,-415.832520,1.776751
-190.795898,880.462646,-414.001465,1.777491
-183.837891,893.554688,-407.958984,1.778231
-194.458008,877.624512,-408.416748,1.778985
-185.394287,886.413574,-414.642334,1.779724
-187.133789,871.032715,-415.374756,1.780464
-182.830811,869.659424,-420.776367,1.781200
-178.436279,872.406006,-423.797607,1.781936
-180.725098,878.997803,-413.360596,1.782672
-172.943115,879.913330,-402.740479,1.783411
-174.591064,877.899170,-406.860352,1.784148
-167.724609,878.265381,-410.888672,1.784885
-172.119141,883.026123,-404.479980,1.785622
-174.591064,877.807617,-416.656494,1.786359
-181.549072,874.969482,-422.332764,1.787095
-175.781250,872.772217,-419.769287,1.787833
-172.760010,868.011475,-416.381836,1.788570
-173.400879,881.195068,-411.987305,1.789307
-166.442871,884.857178,-411.346436,1.790041
-170.928955,878.814697,-410.888672,1.790777
-170.104980,879.547119,-422.790527,1.791512
-161.773682,877.899170,-417.480469,1.792247
-160.217285,869.110107,-417.572021,1.792982
-160.766602,876.068115,-408.050537,1.793738
-157.836914,870.208740,-418.945312,1.794476
-163.421631,870.758057,-415.649414,1.795211
-152.801514,864.990234,-413.543701,1.795946
-155.273438,859.405518,-410.339355,1.796681
-161.956787,859.405518,-407.867432,1.797415
-151.428223,856.475830,-407.501221,1.798150
-149.230957,846.496582,-406.219482,1.798889
-147.857666,845.123291,-414.459229,1.799624
-148.590088,841.827393,-407.409668,1.800358
-153.991699,840.637207,-424.621582,1.801094
-152.801514,841.644287,-422.058105,1.801831
-154.998779,832.214355,-411.987305,1.802566
-163.604736,837.066650,-417.297363,1.803301
-169.464111,837.799072,-415.283203,1.804035
-176.696777,835.235596,-415.740967,1.804769
-182.556152,843.109131,-408.874512,1.805503
-177.612305,847.503662,-417.846680,1.806238
-178.436279,855.377197,-412.261963,1.806976
-181.915283,852.813721,-412.445068,1.807711
-193.450928,854.187012,-415.832520,1.808446
-195.098877,858.673096,-416.107178,1.809180
-200.317383,865.447998,-416.015625,1.809915
-203.887939,859.497070,-412.902832,1.810650
-201.507568,861.602783,-415.466309,1.811384
-205.169678,865.264893,-439.270020,1.812127
-195.556641,875.061035,-424.255371,1.812874
-199.035645,868.194580,-423.889160,1.813621
-227.416992,874.420166,-422.607422,1.814360
-213.409424,872.039795,-428.558350,1.815099
-216.522217,877.716064,-423.614502,1.815870
-215.972900,882.110596,-422.607422,1.816609
-227.783203,878.814697,-429.016113,1.817350
-231.811523,884.674072,-424.346924,1.818088
-223.114014,879.180908,-423.522949,1.818829
-227.325439,885.040283,-425.445557,1.819570
-229.888916,885.589600,-422.241211,1.820308
-230.621338,885.040283,-426.727295,1.821047
-233.734131,887.512207,-423.248291,1.821786
-235.931396,885.040283,-420.410156,1.822527
-237.854004,877.349854,-423.339844,1.823266
-238.952637,882.843018,-421.417236,1.824004
-237.396240,878.448486,-422.698975,1.824742
-233.734131,886.688232,-436.340332,1.825482
-245.452881,883.209229,-430.480957,1.826221
-242.248535,884.124756,-431.945801,1.826959
-244.079590,882.476807,-421.508789,1.827699
-241.973877,882.385254,-420.043945,1.828437
-241.973877,888.793945,-428.100586,1.829179
-252.960205,884.948730,-423.431396,1.829918
-241.058350,891.540527,-423.156738,1.830659
-246.185303,884.124756,-432.586670,1.831396
-244.628906,890.167236,-425.994873,1.832131
-240.692139,877.899170,-425.628662,1.832868
-247.924805,887.145996,-435.607910,1.833604
-255.798340,882.110596,-430.389404,1.834340
-250.030518,882.293701,-419.677734,1.835074
-249.664307,870.666504,-418.579102,1.835811
-247.283936,880.187988,-431.213379,1.836546
-242.889404,875.610352,-427.642822,1.837295
-248.199463,873.962402,-424.163818,1.838038
-243.164062,871.398926,-427.185059,1.838773
-238.769531,873.138428,-425.262451,1.839508
-250.305176,878.173828,-424.255371,1.840243
-242.431641,876.708984,-417.846680,1.840981
-245.635986,871.124268,-414.184570,1.841717
-242.431641,870.849609,-416.290283,1.842451
-244.262695,877.807617,-415.374756,1.843186
-243.255615,874.328613,-423.797607,1.843922
-242.431641,861.328125,-411.895752,1.844657
-241.149902,888.610840,-418.029785,1.845392
-236.206055,869.384766,-419.860840,1.846144
-231.903076,862.518311,-418.762207,1.846882
-229.522705,859.588623,-416.381836,1.847620
-227.966309,866.821289,-410.339355,1.848357
-220.825195,865.814209,-406.860352,1.849113
-220.550537,862.884521,-409.240723,1.849851
-215.332031,865.631104,-410.339355,1.850587
-221.923828,865.905762,-415.100098,1.851328
-221.649170,875.701904,-411.346436,1.852063
-217.895508,871.673584,-407.318115,1.852799
-221.374512,869.476318,-410.705566,1.853534
-224.304199,875.610352,-406.402588,1.854274
-224.578857,876.434326,-416.290283,1.855011
-216.613770,866.455078,-416.381836,1.855747
-215.057373,872.589111,-414.459229,1.856483
-216.888428,871.765137,-406.494141,1.857218
-219.360352,864.074707,-403.564453,1.857953
-214.416504,875.061035,-407.775879,1.858688
-211.761475,880.371094,-405.303955,1.859435
-217.803955,874.145508,-410.430908,1.860173
-217.346191,877.807617,-406.036377,1.860909
-215.057373,888.793945,-396.972656,1.861647
-211.853027,874.237061,-398.437500,1.862383
-209.014893,873.870850,-405.853271,1.863119
-204.986572,870.849609,-394.317627,1.863855
-208.007812,878.906250,-411.071777,1.864595
-209.381104,880.279541,-409.515381,1.865331
-209.838867,881.011963,-404.388428,1.866067
-214.141846,882.568359,-405.670166,1.866803
-208.374023,874.969482,-403.015137,1.867541
-214.508057,881.652832,-400.909424,1.868276
-221.649170,871.673584,-406.585693,1.869012
-210.021973,868.011475,-421.691895,1.869761
-212.310791,875.885010,-400.268555,1.870499
-208.557129,872.131348,-407.867432,1.871235
-189.147949,868.469238,-408.050537,1.871973
-209.381104,876.434326,-400.268555,1.872721
-203.887939,876.434326,-402.374268,1.873456
-206.726074,868.103027,-392.669678,1.874187
-210.021973,876.708984,-386.627197,1.874921
-210.845947,876.983643,-388.366699,1.875653
-202.880859,867.004395,-389.099121,1.876385
-212.402344,866.912842,-386.260986,1.877117
-205.169678,867.828369,-392.211914,1.877857
-212.951660,867.828369,-393.768311,1.878592
-210.662842,864.166260,-386.993408,1.879326
-216.979980,858.306885,-390.014648,1.880062
-215.972900,858.123779,-385.437012,1.880796
-219.635010,864.074707,-390.014648,1.881531
-214.416504,862.060547,-385.894775,1.882266
-214.965820,862.609863,-392.211914,1.883004
-212.860107,859.954834,-392.852783,1.883739
-202.789307,868.469238,-389.282227,1.884473
-210.937500,862.335205,-392.303467,1.885252
-219.909668,854.003906,-395.141602,1.885991
-219.451904,854.370117,-395.141602,1.886729
-218.627930,860.595703,-397.155762,1.887465
-221.099854,853.637695,-394.500732,1.888204
-224.212646,864.166260,-399.993896,1.888939
-222.106934,858.215332,-387.451172,1.889674
-226.135254,848.693848,-392.395020,1.890408
-221.740723,852.539062,-384.979248,1.891151
-225.769043,846.862793,-403.747559,1.891888
-223.937988,829.650879,-399.536133,1.892624
-227.600098,840.179443,-390.289307,1.893359
-235.382080,832.397461,-391.662598,1.894096
-239.135742,832.580566,-395.965576,1.894831
-233.367920,828.369141,-387.451172,1.895567
-231.903076,831.115723,-395.141602,1.896314
-217.803955,830.841064,-386.444092,1.897057
-215.881348,826.538086,-388.458252,1.897805
-226.593018,821.502686,-390.106201,1.898567
-239.685059,820.220947,-390.472412,1.899305
-237.030029,821.594238,-392.120361,1.900046
-234.558105,820.587158,-384.155273,1.900795
-235.656738,833.770752,-387.634277,1.901536
-235.107422,829.650879,-388.549805,1.902272
-235.931396,832.489014,-387.817383,1.903013
-233.276367,831.024170,-391.662598,1.903750
-233.642578,830.841064,-392.669678,1.904489
-237.396240,824.066162,-395.233154,1.905226
-237.213135,828.277588,-396.240234,1.905965
-235.382080,831.481934,-396.331787,1.906705
-243.621826,834.045410,-394.683838,1.907441
-229.888916,829.467773,-390.655518,1.908176
-239.776611,838.439941,-403.381348,1.908912
-234.649658,836.791992,-409.332275,1.909648
-237.487793,841.552734,-407.135010,1.910383
-232.269287,849.243164,-405.120850,1.911119
-230.804443,855.468750,-397.613525,1.911865
-231.170654,853.729248,-404.937744,1.912601
-234.008789,858.947754,-410.247803,1.913336
-234.558105,864.440918,-405.578613,1.914071
-240.692139,864.257812,-410.522461,1.914821
-236.572266,864.807129,-402.923584,1.915556
-226.135254,874.328613,-402.923584,1.916288
-234.741211,877.166748,-396.423340,1.917028
-231.994629,879.730225,-400.085449,1.917766
-236.022949,873.962402,-399.810791,1.918503
-226.409912,880.187988,-401.550293,1.919239
-233.459473,880.645752,-412.078857,1.919979
-212.402344,883.026123,-406.585693,1.920715
-230.255127,887.878418,-409.240723,1.921450
-225.860596,881.927490,-379.760742,1.922186
-225.402832,882.659912,-399.719238,1.922921
-233.093262,885.406494,-394.958496,1.923657
-230.163574,897.216797,-397.888184,1.924393
-224.487305,913.330078,-397.430420,1.925135
-226.593018,904.357910,-394.683838,1.925874
-236.022949,888.336182,-398.986816,1.926613
-239.044189,897.216797,-400.268555,1.927352
-232.086182,903.900146,-399.536133,1.928091
-234.191895,900.512695,-390.930176,1.928830
-227.050781,905.181885,-388.458252,1.929569
-222.656250,903.442383,-390.289307,1.930307
-221.923828,910.858154,-392.486572,1.931043
-224.578857,902.618408,-390.930176,1.931778
-226.867676,908.477783,-381.683350,1.932515
-224.029541,904.266357,-385.253906,1.933254
-230.346680,897.308350,-382.232666,1.933992
-224.121094,910.766602,-384.796143,1.934730
-214.782715,915.527344,-378.295898,1.935471
-213.317871,908.477783,-379.760742,1.936209
-208.740234,913.421631,-373.718262,1.936947
-209.838867,909.210205,-376.373291,1.937686
-209.289551,918.548584,-372.528076,1.938426
-218.719482,913.238525,-369.689941,1.939164
-222.839355,911.682129,-376.464844,1.939903
-215.606689,914.703369,-363.739014,1.940640
-189.788818,917.449951,-366.851807,1.941379
-211.212158,923.950195,-361.724854,1.942117
-208.282471,912.872314,-396.697998,1.942854
-206.268311,909.576416,-379.394531,1.943595
-210.479736,904.449463,-383.239746,1.944333
-204.803467,900.970459,-377.380371,1.945071
-197.662354,901.611328,-376.098633,1.945809
-203.887939,899.047852,-369.598389,1.946544
-210.754395,890.533447,-354.309082,1.947278
-206.726074,877.349854,-384.796143,1.948013
-207.000732,883.392334,-386.901855,1.948750
-211.395264,873.779297,-383.422852,1.949486
-222.564697,886.230469,-378.387451,1.950220
-211.486816,869.110107,-355.957031,1.950955
-200.134277,863.800049,-372.070312,1.951689
-190.704346,852.630615,-366.851807,1.952425
-192.535400,849.426270,-373.626709,1.953159
-188.690186,848.510742,-369.781494,1.953934
-188.323975,844.757080,-374.176025,1.954669
-186.401367,842.376709,-366.577148,1.955404
-187.042236,849.060059,-355.041504,1.956139
-190.246582,851.440430,-353.851318,1.956874
-191.528320,851.348877,-355.133057,1.957609
-187.774658,851.898193,-369.323730,1.958343
-194.458008,850.708008,-359.527588,1.959082
-202.331543,841.918945,-363.830566,1.959816
-198.120117,841.918945,-360.260010,1.960551
-196.197510,837.524414,-365.844727,1.961285
-195.190430,841.735840,-362.915039,1.962022
-199.035645,846.862793,-358.612061,1.962757
-199.859619,844.482422,-364.379883,1.963492
-200.042725,834.594727,-369.323730,1.964227
-199.584961,832.855225,-371.429443,1.964961
-201.049805,822.875977,-373.260498,1.965695
-198.852539,824.249268,-382.324219,1.966429
-197.296143,825.988770,-379.394531,1.967170
-194.915771,827.362061,-383.056641,1.967905
-194.915771,825.805664,-381.408691,1.968641
-200.775146,820.678711,-374.450684,1.969375
-203.704834,820.037842,-373.992920,1.970112
-197.296143,823.974609,-380.126953,1.970848
-201.141357,824.249268,-380.035400,1.971583
-205.169678,819.854736,-382.507324,1.972322
-210.754395,818.847656,-380.218506,1.973058
-213.684082,828.460693,-376.556396,1.973794
-214.782715,821.228027,-370.788574,1.974529
-221.008301,815.917969,-379.577637,1.975266
-228.332520,827.728271,-386.901855,1.976001
-232.360840,829.742432,-370.880127,1.976736
-225.402832,829.467773,-371.612549,1.977490
-228.881836,832.855225,-398.162842,1.978229
-232.177734,829.284668,-380.310059,1.978964
-234.466553,843.658447,-368.774414,1.979699
-237.854004,834.869385,-371.063232,1.980438
-242.980957,838.165283,-379.119873,1.981173
-248.199463,840.637207,-378.570557,1.981907
-259.460449,843.200684,-382.415771,1.982642
-262.023926,839.172363,-382.690430,1.983377
-261.108398,853.729248,-377.655029,1.984112
-263.031006,848.419189,-380.584717,1.984847
-264.953613,848.602295,-372.344971,1.985600
-262.756348,855.468750,-385.070801,1.986342
-267.242432,855.468750,-386.077881,1.987082
-272.186279,862.701416,-384.338379,1.987819
-271.179199,858.673096,-379.486084,1.988554
-274.108887,861.328125,-378.845215,1.989290
-282.257080,863.891602,-390.289307,1.990026
-279.602051,863.800049,-387.725830,1.990765
-282.989502,869.201660,-387.817383,1.991500
-283.630371,864.807129,-387.725830,1.992235
-283.721924,876.068115,-391.296387,1.992971
-295.532227,875.244141,-392.852783,1.993713
-300.384521,874.694824,-395.324707,1.994448
-295.074463,881.103516,-390.106201,1.995183
-294.067383,883.575439,-391.479492,1.995923
-282.897949,888.977051,-395.599365,1.996657
-288.848877,890.167236,-389.923096,1.997392
-289.123535,886.871338,-390.197754,1.998127
-292.419434,891.998291,-395.141602,1.998874
-299.560547,899.139404,-398.437500,1.999608
-301.208496,896.026611,-390.930176,2.000341
-296.447754,898.773193,-388.275146,2.001074
-295.166016,893.096924,-390.014648,2.001809
-295.989990,898.956299,-389.648438,2.002544
-299.743652,895.568848,-389.831543,2.003279
-282.348633,902.343750,-389.099121,2.004021
-303.314209,897.216797,-388.183594,2.004758
-296.264648,899.871826,-381.774902,2.005495
-300.018311,891.448975,-390.014648,2.006239
-294.616699,891.815186,-382.781982,2.006983
-297.180176,891.082764,-382.324219,2.007722
-292.144775,889.526367,-377.197266,2.008460
-302.215576,911.041260,-372.436523,2.009203
-294.616699,892.822266,-375.915527,2.009942
-288.940430,899.230957,-373.077393,2.010681
-285.827637,889.160156,-372.436523,2.011420
-284.637451,895.111084,-375.640869,2.012156
-291.595459,892.913818,-371.154785,2.012891
-291.595459,893.005371,-370.971680,2.013627
-284.729004,891.632080,-371.246338,2.014369
-288.757324,898.773193,-362.731934,2.015107
-285.003662,894.104004,-369.415283,2.015844
-281.524658,896.850586,-366.760254,2.016583
-288.024902,887.420654,-376.098633,2.017323
-285.644531,892.913818,-374.633789,2.018061
-281.982422,885.131836,-372.253418,2.018799
-292.877197,879.455566,-375.091553,2.019539
-292.236328,877.441406,-365.936279,2.020277
-297.180176,861.785889,-366.027832,2.021014
-285.736084,869.201660,-359.619141,2.021752
-286.834717,858.489990,-356.689453,2.022536
-266.967773,856.658936,-351.104736,2.023274
-272.094727,847.137451,-357.788086,2.024010
-254.608154,849.426270,-348.999023,2.024752
-265.960693,847.045898,-356.323242,2.025490
-261.108398,837.066650,-353.576660,2.026227
-267.333984,835.144043,-351.745605,2.026966
-255.889893,831.481934,-357.147217,2.027707
-261.749268,850.250244,-350.738525,2.028443
-259.277344,843.566895,-351.196289,2.029190
-260.650635,844.665527,-348.449707,2.029932
-263.580322,832.305908,-347.442627,2.030671
-253.967285,838.531494,-356.140137,2.031409
-253.875732,830.291748,-360.260010,2.032146
-258.361816,830.200195,-361.175537,2.032887
-256.988525,833.312988,-362.182617,2.033625
-251.678467,825.714111,-361.633301,2.034363
-247.100830,826.629639,-366.119385,2.035100
-245.086670,828.277588,-367.034912,2.035866
-244.354248,834.411621,-361.999512,2.036607
-240.142822,827.728271,-357.330322,2.037352
-235.382080,832.214355,-358.062744,2.038098
-233.551025,834.320068,-353.759766,2.038837
-242.065430,844.207764,-360.260010,2.039576
-246.643066,850.616455,-359.252930,2.040330
-250.762939,851.165771,-358.795166,2.041079
