ACC_X,ACC_Y,ACC_Z,Time
68.023682,897.766113,458.404541,2.133079
70.404053,910.03418,453.277588,2.133818
74.34082,909.484863,462.799072,2.134558
58.959961,902.893066,458.404541,2.135307
69.580078,903.991699,461.791992,2.136048
72.784424,900.146484,457.855225,2.136788
58.776855,906.463623,457.763672,2.137529
66.28418,896.209717,459.777832,2.138279
74.066162,901.062012,463.531494,2.139019
66.28418,899.230957,467.376709,2.139758
65.093994,895.477295,463.623047,2.140498
68.847656,892.913818,461.425781,2.141247
65.185547,896.118164,458.679199,2.141987
63.446045,897.857666,461.791992,2.142727
61.248779,889.160156,457.763672,2.143467
58.410645,894.927979,451.721191,2.144217
52.734375,885.223389,451.721191,2.144957
49.713135,885.681152,443.206787,2.145697
46.600342,886.322021,443.664551,2.146436
53.283691,882.019043,439.544678,2.147186
51.269531,875.244141,439.453125,2.147926
49.530029,875.152588,429.840088,2.148667
47.88208,874.511719,433.59375,2.149407
50.262451,872.314453,427.276611,2.150156
58.410645,870.941162,428.741455,2.150896
47.241211,874.237061,438.812256,2.151636
53.466797,870.025635,433.959961,2.152376
52.642822,875.244141,428.375244,2.153125
50.628662,873.413086,436.065674,2.153865
54.840088,868.927002,445.953369,2.154697
63.446045,876.89209,432.58667,2.155438
57.861328,875.793457,444.30542,2.156189
64.086914,877.807617,447.692871,2.156931
73.150635,879.730225,456.207275,2.157671
63.537598,875.518799,452.453613,2.15841
73.974609,874.511719,448.791504,2.159161
75.256348,879.821777,446.136475,2.159902
72.784424,875.335693,444.030762,2.160642
68.939209,877.807617,448.883057,2.161382
65.826416,875.88501,444.946289,2.162134
68.023682,877.990723,438.446045,2.162876
76.080322,875.610352,441.558838,2.163618
69.213867,870.025635,439.544678,2.164357
71.136475,865.081787,442.108154,2.165113
76.904297,868.286133,441.650391,2.165854
79.833984,872.86377,440.917969,2.166593
77.087402,874.420166,437.805176,2.167382
77.453613,874.511719,439.453125,2.168139
82.855225,874.328613,452.087402,2.168903
71.594238,878.082275,457.580566,2.169652
77.911377,880.371094,447.692871,2.170418
80.200195,879.089355,458.03833,2.171159
77.728271,881.92749,460.05249,2.1719
82.855225,872.497559,459.777832,2.172666
76.99585,880.92041,453.643799,2.173442
87.341309,881.103516,452.545166,2.174212
83.770752,878.723145,458.587646,2.17496
77.819824,871.490479,446.960449,2.175702
78.643799,870.574951,450.805664,2.176476
77.270508,870.391846,447.967529,2.177218
77.362061,864.532471,440.826416,2.177958
83.679199,868.835449,437.438965,2.178699
78.460693,865.905762,442.474365,2.179453
74.432373,868.927002,433.135986,2.180237
71.685791,867.553711,436.340332,2.180988
69.396973,867.553711,430.480957,2.181751
69.946289,869.384766,458.03833,2.182498
67.565918,869.20166,443.572998,2.183237
75.531006,871.948242,448.883057,2.183976
70.678711,873.962402,445.129395,2.18473
68.115234,876.525879,448.516846,2.185486
67.932129,876.068115,456.573486,2.186228
67.29126,877.075195,460.601807,2.186968
67.474365,879.730225,464.904785,2.187718
62.255859,870.849609,457.305908,2.188455
69.763184,875.701904,465.270996,2.189207
61.523438,880.004883,459.228516,2.189947
65.368652,879.272461,447.692871,2.19065
61.61499,874.328613,450.164795,2.191394
53.55835,878.173828,449.707031,2.192135
58.227539,879.638672,448.883057,2.192876
55.847168,876.89209,448.242188,2.19363
55.389404,871.032715,434.509277,2.194371
44.586182,871.124268,437.713623,2.195112
45.684814,871.490479,440.2771,2.195852
49.255371,872.955322,436.523438,2.196607
55.389404,869.20166,429.107666,2.197348
58.59375,869.20166,439.727783,2.198088
61.523438,878.173828,448.33374,2.198829
54.748535,875.88501,449.157715,2.19958
51.818848,876.617432,449.981689,2.200322
51.086426,882.93457,467.376709,2.201062
52.093506,877.349854,446.044922,2.201803
48.706055,881.744385,445.3125,2.202554
57.678223,875.061035,448.425293,2.203295
48.88916,865.081787,444.671631,2.204036
56.304932,869.842529,421.966553,2.204777
57.128906,870.666504,442.657471,2.205527
57.495117,869.842529,442.932129,2.206268
55.389404,868.469238,444.946289,2.207009
49.713135,867.919922,437.255859,2.207749
54.199219,863.433838,433.319092,2.208496
51.086426,865.997314,437.164307,2.209227
47.149658,865.17334,439.63623,2.209958
53.741455,867.553711,439.819336,2.210688
50.994873,873.504639,433.410645,2.211442
54.931641,878.448486,441.101074,2.212181
51.361084,869.384766,440.460205,2.21292
54.382324,873.687744,435.974121,2.213659
54.840088,872.589111,438.812256,2.214299
50.079346,866.088867,442.474365,2.215039
51.269531,873.138428,440.185547,2.215778
47.698975,874.328613,438.537598,2.216517
46.508789,867.462158,446.31958,2.21719
54.56543,877.441406,444.030762,2.217929
46.875,881.286621,431.304932,2.218668
57.952881,877.990723,426.269531,2.219407
60.516357,880.004883,428.55835,2.220157
59.234619,883.392334,431.945801,2.220896
55.480957,882.110596,430.57251,2.221635
55.023193,873.22998,439.819336,2.222373
52.093506,877.532959,438.171387,2.223123
57.58667,873.504639,438.812256,2.223862
56.396484,880.737305,436.981201,2.224601
50.90332,872.406006,440.185547,2.22534
54.016113,882.476807,439.910889,2.226089
50.720215,885.5896,439.453125,2.226828
57.678223,880.096436,441.009521,2.227567
53.466797,882.751465,437.896729,2.228307
55.755615,882.751465,444.030762,2.22915
61.340332,878.356934,450.622559,2.229891
58.502197,891.448975,445.678711,2.23063
62.805176,890.808105,443.664551,2.231369
62.347412,888.244629,444.213867,2.232118
64.910889,889.801025,445.129395,2.232857
67.474365,890.441895,448.883057,2.233597
70.953369,893.371582,455.108643,2.234336
66.925049,890.808105,454.650879,2.235086
67.932129,889.434814,461.242676,2.235838
69.213867,893.096924,464.355469,2.236578
66.28418,898.223877,460.784912,2.237317
66.375732,893.920898,461.608887,2.237964
61.706543,890.625,465.911865,2.238703
69.488525,895.202637,464.72168,2.239442
70.678711,893.188477,456.848145,2.240181
70.129395,892.547607,461.517334,2.240941
72.784424,889.709473,455.108643,2.241678
72.601318,890.533447,452.362061,2.242414
68.939209,867.736816,457.305908,2.243158
70.587158,878.448486,449.981689,2.243906
69.213867,880.737305,451.904297,2.244643
64.544678,879.821777,452.178955,2.245384
72.875977,882.293701,442.932129,2.246185
60.791016,877.532959,446.868896,2.246937
58.959961,882.476807,446.502686,2.247704
65.826416,882.385254,445.770264,2.248451
70.953369,889.160156,447.601318,2.249215
70.953369,888.885498,441.375732,2.249955
47.88208,882.202148,450.98877,2.250695
65.917969,874.328613,443.206787,2.251434
69.946289,880.828857,451.812744,2.252186
64.453125,875.701904,444.030762,2.252926
60.974121,876.342773,439.544678,2.253665
49.89624,869.750977,448.608398,2.254404
65.917969,866.546631,442.565918,2.255153
70.3125,877.807617,449.890137,2.255893
60.150146,875.244141,437.530518,2.256676
70.3125,877.89917,439.27002,2.257481
65.093994,870.849609,438.720703,2.258243
48.065186,876.617432,446.502686,2.258999
71.228027,874.694824,450.3479,2.259742
74.707031,877.89917,441.650391,2.260485
71.777344,877.990723,437.530518,2.261228
70.3125,875.152588,442.108154,2.261971
74.523926,880.096436,442.565918,2.262778
73.059082,869.20166,446.044922,2.26353
74.798584,869.476318,444.213867,2.264277
75.897217,868.927002,447.601318,2.265073
80.474854,871.21582,441.925049,2.265851
78.369141,874.603271,445.953369,2.266622
80.108643,876.159668,439.63623,2.267366
76.629639,871.032715,452.636719,2.26811
78.918457,872.86377,444.30542,2.268855
83.312988,870.483398,448.791504,2.26961
83.221436,879.455566,443.115234,2.270354
80.566406,875.152588,441.833496,2.271098
79.284668,874.969482,438.720703,2.271903
74.157715,870.300293,443.115234,2.272658
77.545166,872.039795,445.587158,2.273455
77.178955,870.117188,448.608398,2.27425
78.918457,864.624023,444.488525,2.275046
81.665039,876.617432,455.01709,2.275808
74.615479,866.088867,443.939209,2.276591
73.425293,858.856201,446.31958,2.277357
79.650879,862.060547,444.488525,2.278135
88.165283,864.532471,439.27002,2.278898
84.136963,862.518311,439.544678,2.279735
89.080811,845.489502,440.551758,2.280523
78.369141,869.567871,439.361572,2.281267
77.636719,864.349365,446.960449,2.282071
78.00293,859.130859,437.713623,2.282888
74.34082,866.18042,436.61499,2.283736
80.108643,867.004395,441.192627,2.284526
79.01001,867.370605,438.079834,2.285267
81.848145,869.750977,442.29126,2.286001
78.552246,866.363525,441.650391,2.286734
81.02417,871.21582,440.002441,2.287499
73.608398,868.927002,443.664551,2.288233
71.228027,878.448486,451.080322,2.288966
74.615479,865.264893,443.023682,2.289699
74.249268,872.131348,450.3479,2.290449
72.601318,867.004395,450.164795,2.291182
75.164795,870.941162,451.080322,2.291995
78.643799,868.652344,423.065186,2.292758
71.868896,871.398926,438.812256,2.293532
74.523926,871.673584,445.3125,2.294266
73.059082,874.87793,445.770264,2.294999
68.664551,881.744385,451.812744,2.295732
74.523926,878.448486,446.411133,2.296478
76.080322,872.314453,442.108154,2.297211
78.643799,875.335693,441.558838,2.297945
72.967529,875.335693,447.509766,2.298678
75.531006,869.110107,443.664551,2.299423
76.171875,872.131348,446.411133,2.300157
75.622559,873.687744,443.206787,2.30089
75.073242,875.88501,455.841064,2.301623
78.186035,882.568359,444.763184,2.302366
89.447021,882.202148,449.157715,2.30311
80.01709,870.574951,466.094971,2.303852
82.214355,870.483398,442.474365,2.304699
83.770752,878.631592,440.460205,2.305458
85.784912,877.532959,439.453125,2.306201
79.467773,878.631592,436.889648,2.306944
88.256836,871.032715,447.509766,2.307742
83.312988,881.011963,445.220947,2.308509
86.883545,881.011963,442.016602,2.309252
83.679199,878.631592,439.086914,2.309994
92.193604,887.145996,448.699951,2.310736
81.298828,876.525879,446.411133,2.311488
83.221436,886.230469,444.213867,2.312231
84.503174,883.94165,446.411133,2.312973
87.982178,884.033203,451.446533,2.313715
86.700439,887.420654,459.594727,2.314469
81.573486,878.173828,450.98877,2.315211
90.270996,892.63916,465.270996,2.315954
90.72876,883.392334,452.728271,2.316697
95.031738,884.490967,459.320068,2.317449
86.608887,889.709473,454.467773,2.318224
90.72876,884.307861,451.446533,2.31902
88.165283,889.984131,452.728271,2.319772
85.235596,882.751465,455.657959,2.320514
84.869385,886.230469,457.763672,2.321256
82.397461,878.723145,448.242188,2.321998
79.467773,882.843018,445.037842,2.322741
73.791504,877.716064,447.143555,2.323484
77.362061,876.525879,446.411133,2.324227
78.918457,876.708984,443.389893,2.324969
83.03833,878.90625,443.756104,2.325803
85.784912,877.532959,445.678711,2.326544
85.601807,869.750977,440.368652,2.327283
77.545166,872.131348,442.565918,2.328043
80.749512,880.096436,445.953369,2.328852
77.087402,877.532959,441.28418,2.329596
77.636719,876.983643,446.411133,2.33034
74.615479,871.765137,447.052002,2.331078
82.305908,879.638672,450.805664,2.331812
81.207275,869.659424,443.023682,2.332546
79.284668,871.673584,438.903809,2.33328
76.446533,877.075195,444.30542,2.334029
73.516846,878.90625,438.354492,2.334773
86.334229,881.011963,442.199707,2.335515
85.510254,874.328613,439.544678,2.336257
94.024658,879.730225,446.685791,2.337
91.094971,874.87793,446.136475,2.337744
82.397461,874.694824,443.664551,2.338487
85.235596,879.180908,451.812744,2.33923
83.312988,867.1875,446.228027,2.339972
82.305908,873.22998,443.023682,2.340736
70.587158,845.123291,447.32666,2.341482
84.777832,857.940674,438.995361,2.342226
75.805664,874.145508,442.565918,2.342985
77.819824,871.032715,436.981201,2.34373
79.193115,869.567871,430.755615,2.344474
74.615479,874.237061,430.023193,2.345218
77.453613,872.497559,432.312012,2.345965
79.559326,872.2229,425.079346,2.3467
81.298828,872.406006,419.219971,2.347434
77.270508,870.941162,424.163818,2.348168
79.833984,869.20166,416.656494,2.348911
75.622559,873.138428,424.255371,2.349653
76.263428,866.271973,420.959473,2.350396
77.636719,873.596191,419.403076,2.351139
77.911377,879.638672,422.424316,2.351892
76.721191,878.723145,418.121338,2.352635
72.601318,887.786865,427.55127,2.353378
80.932617,882.293701,431.488037,2.354186
72.235107,881.195068,429.840088,2.354941
72.418213,880.828857,432.58667,2.355719
83.129883,889.984131,444.946289,2.356518
79.284668,894.561768,440.734863,2.357261
84.411621,887.969971,448.242188,2.358083
73.883057,888.336182,449.157715,2.358853
81.298828,885.955811,448.883057,2.359605
78.735352,886.962891,457.214355,2.360348
73.33374,890.533447,447.418213,2.361116
51.818848,890.075684,449.981689,2.361859
70.953369,891.815186,443.664551,2.362602
68.847656,887.237549,447.052002,2.363345
66.467285,909.667969,438.812256,2.364099
65.551758,883.117676,438.995361,2.364842
60.699463,888.977051,432.769775,2.365585
70.587158,888.61084,425.354004,2.366328
67.199707,879.272461,434.509277,2.367081
69.580078,880.92041,435.974121,2.367824
65.368652,884.58252,437.072754,2.368566
75.531006,889.434814,440.093994,2.369343
74.523926,884.307861,443.023682,2.370099
72.784424,887.786865,442.108154,2.370842
91.461182,895.751953,449.890137,2.371585
76.35498,899.963379,453.460693,2.372328
64.819336,898.31543,453.369141,2.373081
75.98877,908.111572,459.411621,2.373824
71.411133,903.259277,456.298828,2.374567
70.404053,911.682129,452.911377,2.375309
71.777344,912.597656,457.122803,2.376062
74.157715,912.414551,472.503662,2.376805
78.094482,921.112061,473.693848,2.377548
71.044922,917.724609,472.045898,2.37829
71.685791,921.661377,475.799561,2.379043
68.756104,921.844482,479.644775,2.379882
70.678711,914.703369,478.179932,2.380625
77.819824,917.08374,478.45459,2.381367
69.213867,914.0625,475.250244,2.382125
71.31958,917.633057,476.165771,2.382868
71.411133,916.625977,468.292236,2.383611
70.220947,916.351318,469.573975,2.384353
64.27002,914.154053,466.644287,2.385106
68.572998,908.294678,463.531494,2.385848
71.960449,905.456543,460.327148,2.386591
72.601318,902.526855,461.334229,2.387333
70.037842,895.477295,449.249268,2.388084
61.431885,890.258789,436.706543,2.388827
65.2771,893.920898,447.967529,2.38957
61.706543,891.357422,441.833496,2.39031
58.319092,889.61792,440.917969,2.391072
58.135986,884.765625,432.861328,2.391815
59.051514,886.779785,433.685303,2.392634
59.234619,880.279541,430.664062,2.393376
64.453125,889.801025,429.656982,2.39413
70.861816,878.448486,430.114746,2.394873
65.734863,881.469727,419.677734,2.395614
65.185547,881.744385,428.192139,2.396356
73.059082,876.525879,425.354004,2.397145
66.192627,873.962402,442.657471,2.397949
72.601318,876.159668,430.023193,2.398701
70.037842,881.103516,427.734375,2.399463
72.32666,882.293701,426.177979,2.400205
63.62915,891.082764,438.354492,2.400948
58.410645,884.490967,434.417725,2.40169
58.410645,875.701904,425.90332,2.402447
63.171387,888.153076,426.727295,2.403189
60.241699,887.237549,434.051514,2.403931
62.62207,885.406494,437.713623,2.404685
53.009033,886.047363,433.776855,2.405428
50.079346,887.145996,434.143066,2.406171
54.748535,885.5896,438.62915,2.406913
49.530029,887.878418,426.361084,2.407654
42.297363,885.314941,429.473877,2.408407
44.86084,911.315918,430.847168,2.40915
41.381836,891.815186,430.389404,2.409892
37.811279,881.195068,433.685303,2.410634
39.18457,892.730713,433.227539,2.411387
32.867432,890.441895,431.213379,2.41213
32.592773,880.462646,428.466797,2.412872
34.698486,885.772705,433.044434,2.413615
29.11377,884.857178,432.495117,2.414365
30.212402,877.89917,427.825928,2.415106
37.628174,883.94165,431.304932,2.415846
37.811279,887.60376,430.206299,2.416622
31.860352,882.659912,428.741455,2.417368
31.951904,884.307861,428.55835,2.418111
30.395508,881.286621,424.438477,2.418853
24.353027,881.744385,424.255371,2.419606
23.712158,884.857178,428.924561,2.420349
22.43042,878.356934,426.177979,2.421091
25.909424,880.645752,420.86792,2.421834
21.697998,878.723145,423.339844,2.422577
23.254395,880.187988,429.840088,2.423319
22.705078,880.096436,424.621582,2.424062
31.402588,875.244141,431.030273,2.424804
27.282715,875.518799,424.163818,2.425547
33.325195,871.21582,419.677734,2.4263
37.353516,869.659424,428.55835,2.427043
30.761719,870.941162,415.740967,2.427785
33.599854,868.011475,416.473389,2.428527
38.635254,869.659424,418.121338,2.429279
43.670654,867.828369,408.508301,2.430022
37.902832,864.257812,408.691406,2.430764
39.733887,858.123779,403.106689,2.431506
34.515381,862.609863,405.12085,2.432259
35.888672,860.50415,403.930664,2.433002
41.8396,860.046387,410.064697,2.433745
41.107178,849.060059,405.303955,2.434487
49.530029,860.229492,411.987305,2.435239
56.213379,867.462158,415.008545,2.435982
52.825928,863.15918,411.804199,2.436724
56.945801,866.729736,425.170898,2.437467
59.417725,869.018555,426.727295,2.438219
59.509277,872.955322,426.9104,2.438962
63.079834,866.912842,433.319092,2.439704
67.657471,872.2229,438.446045,2.440447
63.079834,874.420166,449.707031,2.441199
71.228027,877.807617,446.136475,2.441942
78.643799,874.87793,444.213867,2.442684
81.848145,867.828369,446.136475,2.443427
80.841064,875.88501,449.798584,2.44418
83.587646,881.561279,445.678711,2.444922
80.932617,874.328613,444.763184,2.445665
85.235596,878.631592,446.228027,2.446407
83.770752,876.159668,441.558838,2.44716
82.122803,867.553711,441.467285,2.447904
84.869385,874.87793,449.34082,2.448646
88.531494,871.032715,444.213867,2.449388
86.791992,878.173828,445.678711,2.450141
90.820312,878.448486,447.875977,2.450884
87.890625,878.082275,447.967529,2.451651
96.496582,876.617432,445.587158,2.452474
92.926025,881.652832,449.157715,2.453272
105.560303,890.350342,452.545166,2.454019
110.961914,891.448975,460.05249,2.454866
105.834961,868.286133,459.136963,2.455628
105.377197,888.977051,457.855225,2.456371
106.384277,893.737793,468.475342,2.457114
111.877441,894.836426,465.545654,2.457857
109.954834,894.836426,465.270996,2.4586
115.264893,896.850586,471.496582,2.459342
118.469238,895.294189,469.573975,2.460085
110.961914,900.32959,475.616455,2.460827
115.722656,897.125244,478.820801,2.461659
111.785889,904.907227,478.729248,2.462404
108.215332,901.245117,476.715088,2.463147
108.123779,895.202637,483.856201,2.463893
112.518311,899.688721,494.476318,2.464695
110.137939,898.406982,483.398438,2.465439
110.229492,893.188477,481.018066,2.466182
106.47583,897.399902,488.433838,2.466991
116.271973,903.442383,481.567383,2.467766
117.645264,873.321533,480.834961,2.468531
116.729736,882.93457,483.398438,2.469285
114.532471,885.406494,478.637695,2.470049
106.567383,873.138428,478.088379,2.47079
117.279053,877.624512,472.320557,2.47153
110.778809,875.610352,465.362549,2.472308
110.137939,858.947754,450.714111,2.473091
116.363525,863.433838,447.143555,2.473866
105.743408,865.081787,443.389893,2.47461
102.264404,852.539062,432.037354,2.475352
95.581055,857.299805,429.473877,2.476115
96.496582,851.348877,429.199219,2.476858
98.144531,851.165771,429.016113,2.4776
101.44043,862.1521,436.431885,2.478342
98.968506,856.292725,432.861328,2.479094
99.609375,857.574463,439.910889,2.479837
103.546143,866.821289,454.101562,2.480579
107.757568,864.257812,463.7146,2.481406
100.43335,860.412598,460.876465,2.482206
97.869873,855.194092,461.791992,2.482958
97.961426,853.820801,460.418701,2.4837
93.933105,847.869873,457.122803,2.48444
91.73584,842.74292,454.376221,2.485212
88.531494,845.214844,445.953369,2.485955
84.960938,850.799561,433.776855,2.486697
75.3479,848.052979,434.326172,2.487439
85.784912,839.630127,439.63623,2.488192
47.424316,819.946289,432.312012,2.488934
58.044434,814.361572,432.037354,2.489676
81.298828,808.135986,424.255371,2.490418
79.650879,806.57959,415.740967,2.491194
63.171387,821.136475,403.564453,2.491939
81.756592,816.741943,403.4729,2.492682
70.037842,812.896729,400.726318,2.493425
80.841064,816.558838,399.536133,2.494182
75.897217,810.058594,410.247803,2.494924
84.136963,816.009521,409.14917,2.495667
86.975098,822.967529,404.937744,2.49641
86.975098,822.692871,401.916504,2.497162
92.102051,819.30542,402.374268,2.497904
87.70752,815.643311,406.677246,2.498647
88.256836,801.818848,410.064697,2.499389
96.405029,809.783936,414.001465,2.500142
94.116211,829.376221,412.902832,2.500884
83.312988,829.650879,421.783447,2.501627
108.215332,815.643311,427.001953,2.502369
101.348877,812.347412,434.509277,2.503122
94.482422,805.847168,436.248779,2.503865
97.503662,788.818359,428.009033,2.504608
96.588135,777.832031,420.776367,2.50535
85.235596,778.564453,419.586182,2.506109
85.05249,779.11377,401.367188,2.506852
91.827393,765.380859,394.775391,2.507595
79.101562,761.444092,394.592285,2.508337
78.00293,764.465332,386.352539,2.509089
87.158203,753.479004,384.338379,2.509832
78.00293,748.809814,384.429932,2.510575
80.932617,743.682861,385.070801,2.511317
95.581055,753.662109,384.155273,2.512068
94.940186,746.063232,386.993408,2.512811
66.009521,688.934326,403.289795,2.513553
96.038818,686.279297,373.901367,2.514295
82.946777,698.730469,364.28833,2.515047
102.44751,690.124512,385.070801,2.51579
98.236084,697.723389,375.549316,2.516532
96.77124,723.175049,362.731934,2.517275
98.419189,724.731445,362.457275,2.518027
103.820801,731.231689,360.076904,2.51877
103.637695,760.986328,340.667725,2.519512
104.919434,751.281738,322.174072,2.520254
94.75708,766.387939,316.040039,2.521007
73.974609,776.824951,292.236328,2.521749
77.087402,770.599365,290.679932,2.522492
79.467773,757.232666,275.482178,2.523235
78.735352,758.056641,274.017334,2.523987
65.460205,745.880127,273.101807,2.524822
64.453125,713.562012,281.982422,2.525565
63.171387,709.075928,290.130615,2.526307
81.115723,705.13916,290.313721,2.527061
69.580078,701.477051,312.37793,2.527803
82.489014,705.688477,315.490723,2.528546
96.862793,710.357666,323.272705,2.529384
89.996338,716.766357,318.878174,2.53014
95.581055,722.167969,324.09668,2.530886
103.637695,706.14624,336.639404,2.531676
103.271484,723.815918,331.878662,2.532419
104.736328,713.378906,334.350586,2.533162
106.750488,720.245361,333.343506,2.533905
107.025146,710.357666,319.335938,2.534647
106.018066,707.885742,324.920654,2.535389
112.243652,709.80835,315.032959,2.536142
104.095459,720.794678,313.568115,2.536912
107.391357,718.048096,309.082031,2.537668
103.546143,711.914062,309.997559,2.538411
104.553223,703.674316,305.69458,2.539154
102.996826,708.984375,299.285889,2.539897
99.060059,706.237793,296.081543,2.540639
101.165771,707.244873,290.496826,2.541382
102.996826,708.1604,284.729004,2.542124
113.708496,709.991455,278.045654,2.542867
107.48291,714.935303,282.440186,2.543609
111.236572,726.654053,287.017822,2.544351
97.320557,718.505859,294.158936,2.545105
118.011475,727.020264,289.855957,2.545846
110.687256,724.365234,288.757324,2.546586
108.764648,727.020264,298.64502,2.547351
112.426758,738.464355,294.891357,2.548105
120.20874,756.225586,297.729492,2.548895
115.081787,755.584717,315.765381,2.549645
121.856689,759.063721,317.687988,2.550412
123.779297,765.014648,320.159912,2.551155
113.15918,767.39502,321.075439,2.551898
126.251221,768.035889,331.237793,2.552641
116.088867,757.965088,337.646484,2.553394
104.827881,760.894775,338.470459,2.554137
126.708984,774.169922,336.730957,2.554879
106.933594,779.846191,322.265625,2.555652
113.708496,787.811279,309.906006,2.556409
115.356445,784.14917,305.236816,2.557152
102.539062,774.993896,286.468506,2.557898
102.081299,753.936768,275.482178,2.558674
102.722168,770.965576,273.284912,2.559424
84.320068,758.239746,262.481689,2.560226
77.362061,754.119873,266.876221,2.561008
81.848145,760.345459,263.85498,2.561759
70.495605,753.936768,246.734619,2.562526
60.333252,735.900879,237.213135,2.563269
83.496094,749.359131,240.41748,2.564012
86.151123,756.500244,224.67041,2.564755
54.748535,752.746582,223.114014,2.565505
74.34082,754.852295,223.114014,2.56627
53.192139,753.753662,221.740723,2.567016
52.642822,735.351562,215.606689,2.567759
59.967041,744.415283,212.310791,2.568515
51.269531,748.352051,211.94458,2.569257
55.480957,741.119385,228.607178,2.569999
62.988281,760.803223,210.205078,2.570742
72.418213,728.210449,207.000732,2.571503
48.339844,730.773926,212.768555,2.572246
60.791016,732.696533,224.395752,2.572989
71.960449,743.31665,206.085205,2.573731
60.516357,753.387451,218.536377,2.574484
77.636719,746.612549,216.61377,2.575227
93.292236,766.937256,210.662842,2.575969
69.030762,765.930176,184.47876,2.576712
54.748535,763.458252,187.042236,2.577465
95.123291,748.077393,157.287598,2.578207
51.544189,740.753174,170.654297,2.57895
57.769775,733.886719,179.992676,2.579692
91.827393,744.781494,147.766113,2.580444
79.467773,739.837646,162.04834,2.581186
60.882568,724.456787,157.012939,2.581929
78.369141,734.619141,170.562744,2.582671
89.538574,731.414795,167.816162,2.583424
88.989258,752.105713,147.491455,2.584158
83.129883,760.894775,182.739258,2.584891
99.42627,750.732422,189.331055,2.585625
99.700928,749.176025,200.683594,2.586381
104.095459,766.937256,203.430176,2.587123
127.716064,786.529541,190.979004,2.587866
100.43335,796.783447,189.605713,2.588609
116.638184,820.678711,197.387695,2.589361
102.44751,843.658447,147.583008,2.590104
87.982178,836.334229,131.92749,2.590846
100.799561,833.953857,162.04834,2.591589
107.757568,825.805664,160.491943,2.59234
105.377197,833.221436,172.668457,2.593083
74.981689,833.404541,187.316895,2.593825
107.940674,842.559814,193.817139,2.594568
123.962402,872.680664,183.288574,2.595393
85.784912,908.843994,177.886963,2.596142
106.750488,909.210205,162.689209,2.596885
122.680664,961.029053,111.14502,2.597627
103.820801,974.487305,58.410645,2.598385
62.255859,964.599609,60.60791,2.599128
87.249756,981.811523,-38.17749,2.599869
58.959961,978.881836,-81.115723,2.600612
17.028809,951.965332,-67.199707,2.601367
28.015137,985.107422,-74.798584,2.602109
105.834961,1013.122559,-95.581055,2.602947
54.840088,993.07251,-119.110107,2.603691
15.838623,955.169678,-144.104004,2.604434
138.793945,946.380615,-203.613281,2.605176
-205.26123,981.719971,-220.001221,2.605918
84.228516,994.354248,-305.877686,2.606661
73.974609,1003.601074,-350.55542,2.607418
-135.314941,969.818115,-411.346436,2.60816
-155.090332,961.94458,-444.854736,2.608903
-121.490479,981.262207,-471.862793,2.609645
-151.428223,993.255615,-527.709961,2.61044
-195.281982,962.585449,-573.394775,2.611183
-153.533936,984.100342,-613.037109,2.611926
-186.859131,1001.12915,-694.061279,2.612669
-200.22583,985.015869,-733.24585,2.613412
-237.121582,949.676514,-762.72583,2.614154
-289.306641,982.635498,-771.240234,2.614897
-374.633789,1022.735596,-767.944336,2.61564
-331.420898,1034.637451,-746.246338,2.616394
-392.944336,1050.750732,-726.837158,2.617137
-356.872559,1054.229736,-680.877686,2.617879
-330.688477,1044.250488,-634.918213,2.618621
-339.935303,1018.615723,-624.11499,2.619373
-332.15332,1040.771484,-601.135254,2.620116
-136.505127,719.787598,-552.520752,2.620858
1034.088135,1165.83252,-284.545898,2.621601
-886.138916,921.112061,-159.759521,2.622397
355.499268,863.983154,-192.810059,2.623178
-411.895752,889.434814,-190.246582,2.623924
125.427246,979.705811,-202.606201,2.624729
17.120361,1132.141113,-208.92334,2.625473
-236.572266,982.269287,-164.611816,2.626216
393.218994,199.127197,-119.567871,2.626958
136.688232,1432.525635,-38.543701,2.627711
-148.498535,1592.468262,-14.923096,2.628454
411.254883,1610.870361,85.784912,2.629197
-131.378174,1633.300781,285.095215,2.62994
-256.80542,-454.833984,1236.053467,2.630684
-1871.429443,1261.230469,1676.696777,2.631427
-1605.010986,1237.701416,1686.035156,2.63217
2455.9021,1473.54126,1534.790039,2.632913
2966.308594,2057.4646,1293.914795,2.633723
2158.813477,1684.295654,1053.405762,2.634466
11.535645,1792.144775,536.499023,2.63521
-151.885986,1691.619873,637.756348,2.635953
211.303711,1744.171143,745.788574,2.636706
-106.384277,1712.585449,690.124512,2.637449
-208.190918,1734.283447,596.099854,2.638192
638.85498,1860.534668,606.079102,2.638935
324.920654,1790.771484,686.553955,2.639709
247.558594,1733.093262,686.462402,2.640455
379.852295,1773.55957,673.187256,2.641198
580.444336,1825.836182,738.006592,2.64194
480.560303,1790.039062,813.446045,2.642701
-86.791992,1763.763428,892.272949,2.643444
-0.091553,1779.052734,1036.834717,2.644187
337.371826,1782.165527,1101.470947,2.644932
653.503418,1745.727539,1078.765869,2.645687
554.626465,1720.825195,1022.277832,2.64643
111.236572,1703.338623,986.663818,2.647173
256.713867,1708.465576,940.246582,2.647916
419.494629,1705.078125,901.153564,2.648666
482.757568,1702.880859,907.37915,2.649409
397.613525,1695.281982,911.773682,2.650152
180.725098,1676.513672,916.900635,2.650895
120.20874,1677.978516,939.056396,2.651647
188.50708,1667.541504,937.316895,2.65239
257.446289,1592.559814,908.38623,2.653134
222.106934,1509.155273,860.137939,2.653877
79.376221,1458.526611,805.206299,2.65463
-197.570801,1320.465088,712.463379,2.655373
-286.560059,1288.238525,618.164062,2.656116
-363.555908,1247.772217,563.964844,2.656858
-297.729492,1220.76416,481.567383,2.657611
-93.75,1209.136963,442.199707,2.658355
8.422852,1176.452637,320.251465,2.659098
-6.68335,1169.769287,208.465576,2.65984
41.19873,1116.577148,150.32959,2.660593
112.518311,1098.815918,69.946289,2.661335
327.11792,1087.554932,37.902832,2.662078
387.176514,1031.524658,-25.817871,2.662821
346.5271,1005.065918,-76.721191,2.66355
271.54541,957.641602,-120.20874,2.664336
196.380615,906.738281,-207.000732,2.665092
180.267334,882.293701,-259.643555,2.665843
142.913818,874.694824,-292.96875,2.666638
143.737793,853.271484,-366.851807,2.667388
181.549072,842.834473,-408.966064,2.668131
231.262207,830.200195,-473.602295,2.668874
242.156982,805.389404,-545.379639,2.669629
239.227295,788.269043,-588.684082,2.670372
223.754883,771.789551,-651.397705,2.671115
205.9021,754.669189,-668.884277,2.671858
217.62085,745.880127,-749.725342,2.672611
218.994141,799.438477,-787.17041,2.673354
-106.933594,829.559326,-357.421875,2.674196
72.692871,864.715576,-137.420654,2.674939
313.476562,1061.737061,92.285156,2.675697
425.628662,1162.261963,116.18042,2.67644
600.311279,1193.756104,80.200195,2.677182
591.247559,1082.061768,-8.605957,2.677925
404.022217,1054.6875,-51.269531,2.678676
251.312256,1044.891357,-129.364014,2.679419
252.960205,1059.7229,-205.169678,2.680162
249.11499,1035.27832,-252.044678,2.680904
169.372559,965.057373,-346.069336,2.681657
47.058105,948.486328,-381.317139,2.6824
-262.390137,929.077148,-367.401123,2.683142
-224.487305,921.936035,-317.871094,2.683885
170.196533,977.69165,-300.018311,2.684638
359.436035,987.854004,-326.568604,2.685381
334.533691,983.642578,-360.992432,2.686124
317.871094,953.521729,-408.14209,2.686867
351.013184,917.633057,-433.319092,2.687696
449.432373,913.421631,-514.160156,2.688434
580.627441,930.81665,-536.956787,2.689169
1235.321045,869.293213,-169.006348,2.689904
530.731201,822.784424,61.340332,2.690661
-1595.581055,857.666016,280.24292,2.691402
210.113525,1006.256104,101.44043,2.692173
1411.468506,1113.830566,-60.333252,2.692931
892.730713,1111.816406,-81.665039,2.693672
-101.165771,946.380615,-158.111572,2.694411
-453.918457,850.250244,-239.501953,2.695152
360.443115,864.349365,-450.805664,2.695949
143.64624,817.840576,-479.919434,2.696709
-218.811035,776.000977,-539.978027,2.697522
-188.415527,734.527588,-697.540283,2.698268
60.60791,739.654541,-762.084961,2.699033
15.655518,708.709717,-883.94165,2.699777
-65.093994,693.328857,-953.979492,2.70052
-194.274902,648.651123,-983.184814,2.701263
-71.136475,592.803955,-1128.479004,2.702013
100.250244,590.423584,-1231.292725,2.702756
-1222.320557,364.929199,-889.709473,2.703499
-1255.828857,335.723877,-526.153564,2.704242
791.381836,752.288818,-504.91333,2.704995
1415.130615,1062.194824,-589.416504,2.705738
454.01001,1005.889893,-588.867188,2.706481
-750.549316,758.056641,-769.134521,2.707224
-657.440186,749.084473,-1113.006592,2.707974
272.460938,869.567871,-1274.597168,2.708715
765.930176,888.519287,-1124.725342,2.709456
1964.172363,779.11377,-1000.488281,2.710197
-78.735352,531.463623,-715.85083,2.710962
-1412.29248,913.146973,-427.368164,2.711708
-1359.649658,1135.620117,-480.194092,2.712451
-1173.88916,1123.260498,-563.232422,2.713194
1219.573975,1390.869141,-637.207031,2.71395
2999.908447,1258.758545,-272.644043,2.714694
2032.104492,956.726074,-171.569824,2.715437
-562.225342,802.91748,247.467041,2.71618
-2835.479736,1231.750488,269.897461,2.716933
-2179.046631,1073.730469,35.247803,2.717677
242.248535,1111.083984,-130.737305,2.71842
2130.249023,1666.625977,-625.12207,2.719162
2674.987793,1828.582764,-471.221924,2.719925
2999.908447,1710.754395,-445.3125,2.720668
294.98291,1314.605713,-353.57666,2.721411
-134.216309,1239.807129,-238.40332,2.722154
142.730713,1487.823486,-205.444336,2.722907
-340.484619,1398.101807,148.681641,2.72365
-1852.386475,1345.916748,314.483643,2.724393
-1980.560303,1430.511475,283.447266,2.725135
-1034.637451,1481.506348,-12.451172,2.725888
-137.237549,1586.05957,-280.975342,2.726631
-442.29126,1351.959229,-164.886475,2.727397
737.731934,1476.104736,-91.644287,2.728197
2206.878662,1568.664551,-171.020508,2.72897
710.998535,1353.69873,-106.933594,2.729715
-587.95166,1229.827881,-10.71167,2.730459
-1801.300049,1204.01001,-12.72583,2.731203
-392.76123,1275.787354,-68.481445,2.731998
699.829102,1366.607666,-88.07373,2.732789
1326.782227,1429.6875,-23.712158,2.733593
-257.720947,1288.879395,13.73291,2.734392
-727.294922,1254.272461,-53.192139,2.73519
-738.739014,1260.131836,-62.438965,2.735983
-508.392334,1239.898682,-81.756592,2.736778
-519.561768,1146.331787,40.83252,2.737608
-118.469238,1125.640869,98.602295,2.738403
630.981445,1159.606934,100.158691,2.739193
490.631104,1122.161865,81.756592,2.739982
101.257324,1082.061768,46.691895,2.740801
-278.503418,1032.165527,27.191162,2.741592
182.006836,1060.36377,-17.39502,2.742383
447.235107,1088.287354,-69.213867,2.743175
517.63916,1067.230225,-94.75708,2.744004
184.295654,978.881836,-237.304688,2.744922
308.349609,963.226318,-303.68042,2.745717
743.31665,896.30127,-462.06665,2.746516
938.415527,804.382324,-576.965332,2.747309
966.97998,774.993896,-599.029541,2.748103
890.258789,755.950928,-584.289551,2.748889
751.00708,784.332275,-558.563232,2.749683
683.532715,791.748047,-567.443848,2.750473
560.394287,784.14917,-579.25415,2.751263
262.756348,733.062744,-595.916748,2.752051
-180.999756,696.075439,-419.494629,2.752874
-371.154785,733.978271,-388.641357,2.753666
1136.260986,1006.072998,-500.152588,2.754454
1543.945312,1011.383057,-626.678467,2.755245
1299.957275,1096.252441,-123.413086,2.756068
2811.126709,2475.219727,2999.908447,2.756863
1143.127441,2565.765381,2999.908447,2.757659
765.563965,2376.983643,1212.799072,2.758453
949.768066,1884.70459,268.341064,2.759278
31.677246,1067.321777,-1339.233398,2.760071
250.854492,663.208008,-2200.195312,2.760861
212.677002,404.571533,-2138.122559,2.761681
-121.21582,41.290283,-1269.561768,2.762472
-165.252686,268.432617,-506.835938,2.763257
-10.620117,456.02417,-237.579346,2.764048
154.632568,869.934082,-46.325684,2.764865
435.241699,1087.738037,93.566895,2.765654
502.807617,1116.943359,-232.269287,2.766478
329.223633,954.803467,-743.774414,2.767322
196.655273,727.386475,-856.018066,2.768124
104.095459,629.058838,-869.567871,2.768974
156.646729,626.861572,-655.24292,2.769843
227.69165,711.730957,-581.817627,2.770643
359.344482,848.327637,-490.356445,2.771437
409.14917,920.196533,-557.922363,2.772224
359.25293,905.181885,-608.825684,2.773045
383.880615,805.57251,-691.314697,2.773851
493.103027,770.874023,-710.81543,2.774648
328.765869,823.150635,-676.300049,2.775437
237.39624,858.764648,-517.181396,2.776262
64.178467,932.922363,-481.658936,2.777054
18.951416,976.043701,-466.094971,2.777845
36.346436,964.691162,-479.553223,2.778642
33.782959,942.077637,-490.264893,2.779462
25.177002,940.155029,-483.764648,2.780255
3.387451,959.106445,-442.382812,2.78104
-207.183838,975.311279,-391.75415,2.781901
-270.53833,983.093262,-410.339355,2.782684
-319.610596,991.973877,-422.058105,2.783462
-267.51709,968.078613,-461.700439,2.784245
-171.295166,951.873779,-453.186035,2.785103
-142.181396,958.374023,-453.369141,2.785898
-99.884033,955.993652,-480.102539,2.786694
-95.031738,936.035156,-532.928467,2.787485
-8.239746,909.484863,-507.843018,2.788309
53.283691,900.512695,-502.624512,2.789106
113.525391,863.250732,-518.463135,2.789902
107.574463,802.55127,-582.458496,2.790706
109.588623,752.288818,-659.637451,2.791523
88.806152,764.923096,-660.919189,2.792313
116.271973,765.838623,-583.282471,2.793104
125.427246,782.958984,-563.049316,2.793893
111.968994,753.936768,-613.952637,2.794823
103.088379,719.055176,-610.565186,2.795659
84.04541,725.372314,-568.084717,2.796483
79.193115,733.154297,-538.238525,2.797274
102.905273,720.428467,-602.416992,2.798103
124.603271,702.484131,-625.671387,2.798925
137.237549,685.546875,-674.285889,2.79973
153.35083,687.103271,-670.166016,2.800528
159.118652,703.033447,-653.869629,2.801322
109.222412,783.325195,-653.594971,2.802146
67.657471,783.416748,-678.863525,2.802938
67.016602,785.797119,-661.102295,2.803726
138.061523,770.965576,-615.509033,2.804518
116.546631,770.141602,-685.272217,2.805346
98.876953,777.008057,-709.899902,2.806138
89.904785,773.529053,-738.555908,2.806929
116.455078,763.641357,-766.571045,2.80772
97.686768,783.874512,-758.605957,2.80849
93.017578,788.269043,-705.230713,2.809293
100.43335,822.418213,-685.272217,2.810088
94.940186,862.335205,-680.786133,2.810882
108.306885,856.384277,-672.729492,2.811715
-55.023193,846.313477,-684.356689,2.812514
-307.891846,861.419678,-709.716797,2.813303
-403.747559,863.15918,-692.871094,2.814104
-361.999512,871.307373,-716.583252,2.814901
5.950928,836.975098,-802.185059,2.815693
158.203125,807.861328,-854.46167,2.816486
439.178467,822.143555,-799.438477,2.817279
432.861328,889.984131,-722.259521,2.818071
462.890625,956.726074,-676.66626,2.818863
541.168213,950.134277,-793.395996,2.819658
335.083008,928.070068,-744.873047,2.820462
-66.28418,998.199463,-721.069336,2.821386
-459.503174,1097.076416,-566.162109,2.822184
-793.579102,1140.838623,-442.565918,2.822975
-767.76123,1102.935791,-532.012939,2.823797
213.500977,1090.209961,-847.686768,2.824624
781.860352,829.559326,-985.290527,2.825444
830.932617,829.833984,-758.056641,2.826266
986.114502,967.529297,-710.357666,2.827064
950.683594,1049.743652,-692.779541,2.827854
931.45752,1064.208984,-658.355713,2.828646
474.609375,1062.37793,-692.962646,2.829469
-32.043457,1080.596924,-584.655762,2.830269
-311.004639,1134.521484,-522.949219,2.831081
-765.197754,1175.994873,-403.839111,2.831883
-965.789795,1172.515869,-345.062256,2.83271
550.323486,1121.97876,-1001.403809,2.833507
481.109619,989.685059,-998.10791,2.834295
444.763184,1170.776367,-428.283691,2.835116
233.184814,1210.235596,-412.902832,2.835907
70.3125,1141.937256,-715.759277,2.836761
20.324707,1114.837646,-741.027832,2.837557
5.584717,1034.545898,-756.68335,2.838398
30.212402,1098.999023,-695.068359,2.839217
-89.72168,1115.020752,-618.621826,2.840012
-6.04248,1147.43042,-497.955322,2.840865
47.515869,1172.058105,-467.834473,2.84166
32.318115,1174.163818,-491.363525,2.84245
30.853271,1117.126465,-509.216309,2.84331
13.916016,1046.081543,-565.246582,2.84414
264.862061,1077.484131,-376.098633,2.844934
-603.057861,1235.687256,-540.985107,2.845751
544.372559,1018.615723,-685.272217,2.846573
645.721436,1005.523682,-548.675537,2.847367
-36.895752,1106.689453,-497.039795,2.848155
216.522217,1223.693848,-263.031006,2.848941
105.010986,1214.813232,-312.103271,2.849769
-186.767578,1192.29126,-347.167969,2.850568
260.925293,1200.3479,-494.567871,2.851498
221.008301,1041.320801,-450.897217,2.8523
151.519775,1036.834717,-468.75,2.853093
130.279541,1071.807861,-418.762207,2.853884
200.683594,1049.6521,-486.785889,2.854715
131.195068,1044.433594,-565.429688,2.855502
253.875732,993.896484,-599.761963,2.856416
230.895996,960.754395,-606.628418,2.857214
294.525146,975.036621,-621.09375,2.858006
231.536865,964.508057,-632.8125,2.858799
245.819092,981.170654,-604.3396,2.859627
260.375977,994.354248,-563.964844,2.860426
306.884766,990.875244,-576.782227,2.861255
284.27124,922.851562,-618.438721,2.862055
282.806396,917.907715,-629.516602,2.862852
256.164551,890.716553,-693.603516,2.863648
240.05127,880.462646,-714.569092,2.864439
225.036621,890.716553,-733.520508,2.865279
226.959229,873.138428,-743.133545,2.866071
257.446289,843.475342,-751.281738,2.866862
272.644043,839.355469,-761.444092,2.86765
289.581299,836.242676,-761.352539,2.86847
251.953125,824.523926,-755.126953,2.86926
246.368408,820.770264,-746.795654,2.870054
242.06543,825.805664,-742.492676,2.870849
250.12207,823.883057,-733.337402,2.871675
266.052246,834.228516,-743.865967,2.872476
288.94043,813.812256,-792.114258,2.873266
274.200439,807.220459,-751.098633,2.87406
197.387695,817.657471,-682.983398,2.874879
191.619873,834.960938,-645.446777,2.875669
206.542969,828.186035,-643.157959,2.876458
223.022461,831.848145,-700.286865,2.877243
210.662842,843.566895,-678.497314,2.878002
167.266846,849.79248,-671.447754,2.878763
164.611816,855.285645,-639.678955,2.879524
180.999756,848.7854,-674.926758,2.880296
217.071533,832.946777,-660.461426,2.881073
228.33252,824.34082,-659.912109,2.881835
202.880859,821.411133,-664.764404,2.882579
186.584473,846.679688,-654.052734,2.883323
178.070068,842.651367,-671.813965,2.884066
180.541992,827.728271,-669.342041,2.884808
192.077637,823.150635,-689.941406,2.885551
213.409424,816.925049,-707.702637,2.886293
194.915771,816.192627,-669.433594,2.887036
173.858643,824.523926,-706.237793,2.887778
174.682617,813.537598,-709.259033,2.888521
180.541992,839.996338,-635.83374,2.889263
172.027588,889.068604,-552.703857,2.890006
165.06958,962.219238,-399.993896,2.890748
176.696777,970.367432,-513.244629,2.891493
188.964844,871.124268,-616.790771,2.89224
204.528809,784.057617,-752.746582,2.892994
206.451416,734.619141,-797.241211,2.893752
160.125732,746.520996,-751.098633,2.894497
152.435303,811.157227,-653.961182,2.895252
172.119141,853.363037,-616.607666,2.895993
202.880859,873.596191,-611.297607,2.896841
188.049316,857.940674,-708.526611,2.897587
136.138916,820.220947,-709.350586,2.898346
97.045898,829.193115,-709.259033,2.899089
86.700439,839.538574,-688.018799,2.899832
169.647217,854.553223,-644.622803,2.900574
206.726074,882.019043,-548.400879,2.901327
154.724121,896.575928,-555.358887,2.90207
58.959961,847.229004,-655.426025,2.902813
50.079346,831.115723,-704.681396,2.903555
129.547119,834.503174,-682.342529,2.904319
156.37207,860.412598,-645.53833,2.905062
166.625977,871.490479,-654.785156,2.905805
173.400879,863.525391,-616.424561,2.906548
150.421143,865.997314,-619.537354,2.907303
124.328613,872.680664,-583.007812,2.908047
122.314453,891.174316,-589.233398,2.908791
118.19458,880.645752,-663.299561,2.909534
196.838379,849.975586,-626.678467,2.910287
178.436279,836.975098,-655.609131,2.911027
112.060547,771.697998,-764.373779,2.9118
166.809082,786.804199,-565.338135,2.912557
134.58252,844.940186,-537.597656,2.91334
138.885498,833.679199,-625.488281,2.914089
193.634033,802.91748,-565.795898,2.914832
156.921387,807.861328,-519.836426,2.915576
100.250244,779.846191,-683.898926,2.916319
94.940186,721.5271,-825.622559,2.917061
135.131836,701.202393,-675.567627,2.917804
124.420166,712.463379,-530.822754,2.918547
65.368652,727.478027,-618.255615,2.91929
54.290771,689.666748,-704.223633,2.920033
131.011963,713.012695,-529.998779,2.920775
63.262939,746.97876,-544.555664,2.921539
61.61499,732.60498,-601.776123,2.922283
53.55835,696.716309,-621.551514,2.923025
28.839111,665.039062,-617.797852,2.923768
43.212891,659.27124,-634.460449,2.924519
50.445557,638.671875,-640.319824,2.925263
7.873535,636.932373,-620.452881,2.926006
-42.938232,657.623291,-553.253174,2.926748
-111.877441,627.7771,-672.821045,2.92749
-194.18335,602.966309,-737.457275,2.928243
-237.030029,599.212646,-653.045654,2.928986
-274.108887,601.226807,-726.196289,2.929729
-208.190918,567.901611,-691.864014,2.930471
-235.38208,537.231445,-763.549805,2.931221
-220.550537,528.991699,-726.287842,2.931962
-216.430664,537.414551,-699.09668,2.932702
-316.040039,514.61792,-699.920654,2.933466
-479.919434,428.649902,-743.225098,2.934217
-498.504639,418.487549,-623.748779,2.934961
-406.585693,417.022705,-506.103516,2.935704
89.080811,415.557861,-270.080566,2.93647
319.244385,381.591797,-328.857422,2.937213
571.380615,373.077393,-310.72998,2.937956
952.514648,534.118652,-765.74707,2.938699
2150.115967,548.034668,-1284.759521,2.939452
1110.626221,130.462646,-1679.992676,2.940195
847.229004,11.810303,-1754.974365,2.940938
208.92334,22.521973,-1780.883789,2.94185
430.938721,53.466797,-1726.226807,2.942609
905.273438,-0.640869,-1861.541748,2.943456
1461.090088,0.732422,-2069.641113,2.944222
987.304688,-54.199219,-1623.321533,2.944972
-660.919189,-456.115723,-1379.333496,2.945802
-1184.417725,-553.344727,-1465.393066,2.946553
-570.19043,-247.283936,-1772.003174,2.947297
463.165283,-187.316895,-1677.062988,2.94804
1980.651855,-99.151611,-1244.476318,2.948783
1595.855713,-55.664062,-1205.474854,2.949526
345.794678,-72.875977,-1160.339355,2.950269
-373.99292,-134.216309,-1153.4729,2.951029
-866.821289,-80.657959,-1171.966553,2.951773
498.046875,245.178223,-1012.298584,2.952515
735.076904,406.768799,-391.387939,2.953258
1054.321289,882.843018,112.426758,2.954001
873.504639,1241.546631,802.001953,2.954744
142.089844,1269.744873,752.563477,2.955487
457.03125,1042.236328,-156.646729,2.95623
427.55127,844.75708,-723.266602,2.956973
183.105469,477.996826,-1240.264893,2.957731
131.469727,654.052734,-1117.767334,2.95848
238.40332,767.211914,-873.22998,2.959222
414.276123,812.896729,-459.320068,2.959965
227.874756,741.210938,-266.418457,2.960718
-208.557129,585.205078,-264.038086,2.961462
-119.750977,520.477295,-337.005615,2.962205
124.786377,532.470703,-393.218994,2.963037
291.687012,623.657227,-352.020264,2.963797
1063.110352,752.838135,-398.803711,2.964555
1317.993164,797.88208,-496.032715,2.965312
522.125244,756.68335,-518.005371,2.966072
549.591064,1332.275391,-253.417969,2.966834
287.658691,1328.24707,190.612793,2.967717
51.9104,1160.614014,-19.775391,2.968481
-18.585205,976.409912,-178.619385,2.969274
466.186523,1051.757812,-407.684326,2.970037
360.717773,980.987549,-290.313721,2.970785
261.108398,926.78833,-90.911865,2.971528
242.889404,1009.552002,220.275879,2.972295
306.793213,1041.320801,194.366455,2.973038
273.010254,1131.500244,143.64624,2.97378
186.218262,1389.587402,1341.156006,2.974523
-201.23291,1835.266113,1255.096436,2.975276
-191.436768,1388.214111,-614.501953,2.976019
366.668701,1213.165283,-1146.972656,2.976762
833.03833,815.460205,-882.568359,2.977505
165.344238,759.063721,-409.973145,2.978259
-16.845703,836.791992,-292.877197,2.979001
419.494629,898.498535,-193.908691,2.979743
376.831055,900.787354,-123.413086,2.980486
31.12793,894.65332,-88.989258,2.981238
-12.908936,876.617432,-100.708008,2.981982
187.683105,925.964355,-123.779297,2.982725
196.746826,960.113525,-224.304199,2.983468
139.892578,950.775146,-260.742188,2.984256
144.195557,927.79541,-272.369385,2.985
201.23291,888.061523,-307.800293,2.985743
214.691162,866.546631,-327.484131,2.986486
214.324951,827.453613,-359.710693,2.987236
205.718994,769.134521,-411.804199,2.987987
214.782715,751.831055,-428.283691,2.988735
165.618896,723.54126,-510.498047,2.98952
143.554688,693.695068,-535.217285,2.99029
126.068115,679.779053,-549.499512,2.991065
118.19458,686.737061,-567.260742,2.99182
115.447998,685.455322,-575.22583,2.992613
110.595703,667.785645,-571.014404,2.993358
125.976562,670.349121,-589.416504,2.994101
140.167236,686.096191,-599.67041,2.994843
147.125244,671.081543,-594.177246,2.995596
146.30127,674.926758,-591.247559,2.996339
152.984619,679.6875,-595.001221,2.997081
150.695801,702.11792,-587.402344,2.997824
148.223877,680.236816,-591.247559,2.998613
140.625,673.278809,-613.494873,2.999365
147.30835,674.102783,-627.593994,3.000133
153.167725,677.124023,-628.692627,3.000873
175.598145,722.53418,-590.881348,3.001617
154.083252,756.774902,-500.244141,3.002359
129.272461,795.776367,-455.566406,3.003104
138.61084,828.186035,-409.240723,3.003889
125.793457,852.996826,-392.486572,3.004677
120.117188,861.694336,-366.485596,3.005424
124.237061,870.849609,-348.54126,3.006167
115.447998,875.152588,-333.984375,3.00691
109.771729,878.356934,-330.413818,3.007665
130.187988,869.293213,-339.202881,3.008408
131.744385,851.715088,-365.570068,3.00915
164.978027,835.510254,-386.71875,3.009893
198.303223,786.712646,-460.327148,3.010646
208.740234,758.789062,-559.387207,3.011389
246.09375,688.018799,-607.910156,3.012132
272.369385,647.460938,-663.574219,3.012875
272.003174,636.749268,-689.575195,3.013627
263.946533,641.876221,-679.870605,3.01437
255.157471,640.136719,-676.300049,3.015113
221.008301,657.25708,-652.679443,3.015902
197.021484,679.321289,-610.565186,3.016662
184.387207,687.103271,-592.895508,3.017406
172.302246,685.913086,-585.9375,3.018149
163.330078,675.476074,-589.96582,3.018892
153.625488,661.468506,-612.762451,3.019645
164.794922,629.425049,-631.072998,3.020389
159.942627,630.432129,-641.876221,3.021132
175.048828,618.438721,-640.869141,3.021874
205.352783,624.755859,-630.889893,3.022627
202.148438,626.312256,-625.12207,3.023401
206.726074,617.06543,-619.903564,3.024159
222.839355,588.500977,-642.425537,3.024946
230.255127,603.149414,-633.178711,3.025702
220.458984,593.62793,-632.904053,3.026465
221.099854,595.550537,-623.931885,3.027242
212.493896,600.67749,-623.565674,3.028009
201.965332,615.142822,-598.022461,3.028792
204.25415,619.812012,-579.89502,3.029552
201.324463,616.790771,-581.451416,3.030303
217.254639,602.416992,-614.593506,3.031071
235.839844,587.860107,-629.425049,3.03183
260.467529,577.056885,-640.594482,3.032581
260.284424,582.000732,-629.150391,3.033386
255.615234,582.91626,-596.64917,3.034149
233.36792,580.627441,-603.881836,3.034895
228.424072,580.9021,-605.163574,3.035635
222.381592,586.94458,-619.628906,3.036415
213.134766,577.972412,-627.502441,3.037154
232.635498,579.711914,-625.396729,3.037923
235.290527,579.986572,-611.206055,3.03867
244.903564,608.459473,-611.480713,3.039491
252.044678,583.190918,-615.142822,3.04023
249.572754,583.190918,-606.536865,3.040982
253.601074,581.726074,-602.783203,3.041722
249.11499,593.078613,-594.085693,3.042459
245.361328,600.402832,-591.064453,3.043203
241.333008,605.072021,-594.818115,3.043945
243.164062,593.62793,-600.128174,3.04469
249.298096,587.585449,-601.593018,3.045422
256.713867,590.332031,-604.980469,3.046152
268.249512,590.515137,-604.248047,3.046883
264.312744,591.61377,-598.022461,3.047622
253.509521,598.022461,-603.33252,3.048364
250.305176,609.100342,-601.135254,3.049104
242.614746,609.924316,-598.846436,3.049845
232.910156,619.903564,-578.521729,3.050577
231.628418,635.467529,-588.867188,3.051308
233.917236,633.270264,-597.839355,3.052038
255.889893,631.256104,-621.002197,3.052769
241.149902,634.643555,-627.502441,3.053507
252.227783,639.678955,-627.685547,3.054251
256.80542,642.974854,-606.170654,3.054994
254.516602,661.468506,-583.099365,3.055735
241.882324,671.356201,-573.760986,3.056477
230.529785,675.384521,-586.029053,3.057208
220.001221,674.285889,-587.219238,3.057939
205.535889,671.173096,-598.66333,3.058673
196.105957,672.637939,-597.65625,3.059493
200.683594,679.412842,-599.212646,3.060246
213.134766,672.729492,-608.551025,3.060995
214.141846,672.088623,-610.473633,3.061735
228.790283,675.842285,-607.818604,3.062497
213.775635,669.525146,-608.734131,3.063238
205.26123,666.412354,-613.586426,3.06398
203.613281,670.806885,-620.08667,3.06472
192.993164,670.806885,-622.283936,3.065473
186.035156,671.264648,-617.431641,3.066214
181.732178,681.152344,-612.487793,3.066954
182.4646,680.603027,-593.902588,3.067695
198.944092,683.624268,-592.803955,3.068438
165.06958,686.004639,-603.240967,3.069168
180.175781,690.490723,-615.142822,3.069899
188.323975,682.250977,-603.149414,3.070629
178.070068,684.997559,-601.043701,3.071376
177.886963,687.286377,-601.501465,3.072106
173.034668,694.152832,-600.952148,3.072836
163.238525,689.666748,-603.240967,3.073593
161.04126,686.828613,-612.945557,3.074375
162.414551,677.307129,-612.213135,3.075126
169.0979,676.483154,-631.164551,3.075875
178.161621,679.504395,-605.34668,3.076637
187.774658,685.36377,-606.811523,3.077455
177.520752,670.257568,-605.712891,3.078216
171.478271,661.92627,-609.100342,3.07896
165.06958,652.862549,-608.917236,3.079736
155.456543,651.306152,-606.445312,3.080484
148.773193,644.348145,-609.832764,3.081227
151.885986,643.890381,-616.790771,3.081971
154.632568,638.122559,-613.677979,3.082742
161.224365,628.875732,-615.05127,3.083488
172.119141,636.749268,-614.4104,3.084233
177.79541,634.918213,-609.649658,3.084975
177.246094,624.389648,-618.896484,3.085738
175.598145,633.453369,-614.318848,3.086493
171.661377,630.706787,-595.458984,3.087253
147.491455,623.565674,-586.94458,3.088012
145.111084,623.016357,-582.91626,3.0888
142.272949,626.312256,-586.486816,3.089545
152.984619,626.403809,-603.424072,3.090287
163.879395,629.241943,-599.761963,3.091029
169.0979,628.509521,-593.261719,3.091782
177.886963,616.790771,-579.711914,3.092523
178.253174,599.761963,-580.444336,3.093264
171.569824,595.092773,-579.345703,3.094005
172.668457,585.9375,-612.487793,3.094757
165.435791,575.683594,-623.474121,3.095499
162.689209,573.669434,-619.720459,3.09624
159.118652,571.838379,-597.564697,3.096981
150.970459,569.000244,-588.317871,3.097733
145.751953,567.352295,-589.416504,3.098474
154.541016,562.316895,-617.980957,3.099215
166.351318,559.47876,-617.340088,3.099956
166.992188,553.619385,-623.657227,3.100697
176.055908,554.260254,-617.980957,3.101429
176.605225,557.922363,-621.002197,3.102159
171.020508,559.020996,-591.61377,3.10289
169.0979,563.690186,-601.501465,3.103643
163.146973,574.310303,-603.881836,3.104384
150.421143,582.641602,-606.628418,3.105126
144.927979,592.071533,-588.134766,3.105867
148.681641,596.64917,-592.895508,3.106609
157.836914,594.726562,-592.437744,3.10734
145.843506,598.480225,-588.134766,3.108071
150.054932,601.959229,-584.838867,3.108802
158.02002,608.917236,-590.881348,3.10956
158.752441,613.037109,-596.923828,3.110301
153.533936,606.719971,-598.205566,3.11113
149.688721,606.35376,-616.973877,3.111871
142.913818,587.036133,-611.297607,3.112619
135.314941,613.037109,-608.734131,3.11336
162.231445,628.78418,-603.33252,3.1141
147.949219,634.460449,-604.3396,3.11484
151.519775,639.587402,-598.754883,3.115592
161.04126,637.115479,-612.213135,3.116333
157.37915,639.221191,-619.354248,3.117073
156.188965,639.678955,-627.593994,3.117814
152.801514,649.108887,-629.79126,3.118564
146.942139,655.151367,-623.931885,3.119305
137.237549,661.2854,-620.269775,3.120046
143.188477,666.046143,-612.579346,3.120787
146.209717,672.363281,-617.248535,3.121538
155.914307,698.455811,-625.671387,3.122279
156.829834,680.969238,-624.938965,3.12302
186.584473,678.405762,-624.389648,3.12376
161.865234,663.94043,-611.206055,3.124509
160.583496,681.060791,-629.699707,3.12525
155.273438,681.152344,-632.8125,3.12599
153.991699,676.483154,-626.77002,3.12673
154.815674,685.455322,-623.382568,3.1275
151.33667,691.040039,-624.389648,3.128243
150.146484,682.983398,-626.220703,3.128984
157.470703,690.216064,-635.83374,3.129724
160.400391,692.962646,-635.559082,3.130464
161.773682,696.716309,-636.84082,3.131216
162.963867,699.279785,-631.988525,3.131973
161.682129,700.836182,-636.383057,3.132727
166.625977,702.392578,-641.51001,3.133493
162.231445,702.484131,-646.362305,3.134241
156.280518,702.850342,-649.841309,3.134982
156.463623,705.780029,-650.482178,3.135722
166.351318,710.266113,-638.397217,3.136463
158.38623,713.83667,-638.305664,3.137202
168.182373,712.921143,-637.756348,3.137943
163.146973,712.005615,-649.383545,3.138702
168.365479,707.977295,-644.53125,3.139443
173.492432,713.195801,-646.728516,3.140183
170.288086,717.132568,-646.362305,3.140926
171.295166,715.301514,-646.820068,3.141667
159.667969,730.682373,-638.580322,3.142408
155.456543,728.851318,-642.700195,3.143148
156.738281,724.456787,-645.53833,3.143888
162.780762,726.5625,-632.263184,3.144642
170.013428,727.478027,-633.81958,3.145383
183.288574,722.991943,-635.375977,3.146175
186.309814,718.322754,-635.284424,3.146937
181.549072,706.14624,-647.460938,3.147695
183.654785,701.477051,-655.334473,3.148446
185.577393,700.378418,-653.22876,3.149188
197.296143,706.970215,-649.108887,3.14996
191.436768,710.357666,-635.284424,3.150702
200.592041,720.153809,-641.693115,3.151443
192.169189,722.625732,-613.861084,3.152184
189.971924,725.738525,-633.270264,3.152925
183.288574,749.908447,-631.347656,3.153666
191.070557,730.773926,-639.678955,3.154407
198.21167,729.949951,-634.552002,3.155147
200.500488,731.781006,-634.460449,3.155888
202.056885,730.041504,-627.410889,3.156629
203.887939,726.470947,-622.10083,3.157369
206.817627,737.823486,-622.10083,3.158109
218.719482,732.971191,-628.326416,3.158868
221.191406,705.13916,-631.164551,3.159609
220.733643,714.202881,-627.593994,3.160351
221.740723,707.977295,-627.685547,3.161092
220.64209,712.097168,-655.975342,3.161829
218.719482,694.610596,-633.81958,3.16256
219.543457,700.195312,-627.319336,3.163291
216.247559,702.301025,-636.749268,3.164022
191.986084,697.723389,-637.756348,3.164759
210.571289,705.505371,-630.065918,3.165498
206.634521,703.216553,-626.861572,3.166238
218.261719,693.603516,-630.065918,3.166979
208.190918,691.864014,-636.749268,3.16772
228.607178,690.39917,-639.49585,3.168459
230.163574,691.497803,-640.50293,3.169198
228.240967,682.891846,-635.559082,3.169937
229.797363,691.955566,-632.171631,3.170678
228.607178,687.011719,-625.579834,3.171417
224.761963,682.342529,-627.044678,3.172157
214.599609,686.279297,-621.368408,3.172896
200.866699,687.561035,-620.269775,3.173635
198.760986,681.884766,-627.868652,3.174375
193.908691,676.116943,-629.058838,3.175114
194.641113,669.708252,-642.150879,3.175854
189.331055,660.644531,-656.341553,3.176597
196.19751,651.855469,-653.686523,3.177337
200.866699,652.954102,-655.975342,3.178076
205.627441,654.693604,-650.756836,3.178815
198.486328,658.172607,-646.636963,3.179564
200.500488,659.27124,-651.2146,3.180304
188.873291,654.23584,-654.968262,3.181043
184.387207,649.658203,-643.707275,3.181873
187.042236,674.377441,-650.57373,3.182614
181.915283,658.905029,-650.20752,3.183353
183.563232,657.623291,-645.996094,3.184093
178.710938,654.510498,-646.087646,3.184832
177.978516,658.721924,-648.834229,3.185571
175.506592,656.341553,-640.319824,3.186311
165.893555,655.334473,-648.010254,3.187052
157.470703,646.362305,-645.721436,3.187792
162.322998,649.108887,-646.911621,3.18853
150.970459,642.974854,-651.123047,3.189261
161.224365,644.989014,-655.059814,3.189992
142.181396,637.664795,-659.820557,3.190723
154.266357,643.066406,-663.757324,3.191455
156.463623,648.010254,-662.93335,3.192195
158.02002,647.460938,-662.658691,3.192934
151.33667,655.517578,-660.736084,3.193674
154.541016,661.193848,-665.588379,3.194413
146.209717,670.166016,-651.031494,3.195152
131.469727,690.216064,-648.010254,3.195891
127.166748,684.448242,-647.186279,3.19663
122.680664,685.089111,-647.186279,3.197381
124.420166,693.054199,-652.587891,3.198144
131.652832,698.730469,-651.763916,3.198892
145.751953,704.772949,-652.496338,3.199632
141.082764,699.279785,-645.996094,3.20039
136.59668,714.660645,-642.150879,3.201128
140.075684,717.956543,-642.333984,3.201872
141.174316,719.604492,-642.425537,3.202613
118.560791,716.125488,-638.946533,3.203387
128.082275,716.766357,-639.129639,3.204174
135.040283,717.773438,-647.55249,3.204924
133.209229,706.787109,-655.059814,3.205689
147.399902,718.139648,-650.848389,3.20643
147.033691,713.562012,-657.714844,3.20717
145.568848,720.703125,-649.200439,3.20791
145.477295,719.604492,-652.038574,3.208662
148.31543,721.801758,-653.778076,3.209403
134.857178,726.379395,-657.897949,3.210144
163.787842,728.57666,-654.968262,3.210885
142.364502,724.822998,-652.862549,3.211636
146.484375,728.485107,-656.524658,3.212405
144.012451,733.886719,-655.609131,3.213166
156.646729,733.612061,-654.052734,3.213914
164.337158,738.372803,-650.115967,3.214687
161.499023,746.063232,-648.376465,3.215429
167.541504,744.415283,-644.073486,3.21617
162.963867,734.436035,-646.453857,3.21691
164.337158,738.28125,-648.376465,3.217666
166.809082,729.58374,-655.517578,3.21841
164.520264,725.55542,-649.383545,3.219151
165.985107,724.822998,-651.306152,3.219892
174.682617,716.766357,-649.658203,3.220646
174.682617,722.442627,-651.672363,3.221387
176.239014,715.301514,-653.869629,3.222128
172.485352,725.55542,-651.855469,3.222869
175.140381,725.738525,-675.292969,3.223625
176.055908,713.83667,-660.919189,3.224366
164.703369,708.435059,-653.411865,3.225107
169.555664,713.562012,-659.637451,3.225848
167.449951,711.914062,-656.799316,3.226599
169.0979,708.1604,-664.306641,3.22734
179.718018,704.040527,-661.834717,3.22808
177.79541,708.435059,-658.355713,3.228821
187.042236,705.871582,-663.848877,3.229572
193.908691,716.674805,-656.707764,3.230313
186.401367,716.674805,-659.820557,3.231053
184.753418,711.181641,-659.912109,3.231794
176.605225,717.224121,-657.989502,3.232534
176.147461,718.505859,-658.905029,3.233265
174.133301,721.252441,-655.700684,3.233996
173.675537,723.266602,-650.756836,3.234727
170.837402,723.449707,-647.827148,3.235488
173.675537,724.731445,-651.306152,3.236228
175.506592,731.689453,-653.320312,3.236968
172.485352,736.358643,-644.989014,3.237709
176.239014,728.942871,-653.503418,3.23846
186.401367,726.379395,-657.714844,3.239199
177.062988,725.738525,-661.92627,3.239939
178.985596,725.646973,-664.672852,3.240678
176.330566,731.231689,-659.820557,3.241427
182.830811,737.915039,-657.348633,3.242167
176.78833,725.006104,-665.313721,3.242906
175.140381,742.858887,-649.658203,3.243645
180.541992,738.464355,-653.503418,3.244394
160.949707,723.175049,-660.461426,3.245133
157.470703,715.118408,-665.405273,3.245872
170.837402,716.308594,-662.200928,3.246611
175.872803,715.026855,-675.384521,3.24736
172.210693,699.645996,-673.736572,3.2481
175.048828,698.730469,-668.97583,3.248839
174.77417,702.209473,-669.891357,3.249579
179.534912,705.596924,-671.264648,3.250329
176.147461,695.343018,-670.532227,3.25107
171.020508,704.498291,-672.637939,3.251811
177.337646,703.857422,-674.835205,3.252642
173.492432,705.963135,-671.99707,3.2534
177.520752,716.674805,-664.672852,3.254141
174.591064,716.949463,-664.031982,3.254881
171.295166,718.231201,-661.2854,3.255621
168.09082,719.696045,-665.222168,3.256372
169.647217,719.87915,-663.94043,3.257112
173.583984,723.083496,-660.736084,3.257851
172.851562,724.182129,-653.869629,3.258591
173.858643,724.914551,-656.158447,3.25934
173.950195,722.808838,-654.876709,3.26008
178.253174,726.5625,-658.447266,3.260819
183.47168,729.400635,-661.651611,3.261558
177.79541,726.287842,-667.144775,3.262307
176.055908,720.611572,-667.236328,3.263047
180.999756,740.661621,-663.665771,3.263786
170.562744,737.915039,-667.419434,3.264526
168.09082,737.915039,-665.679932,3.265279
176.239014,747.253418,-660.919189,3.266019
175.323486,742.401123,-670.806885,3.266759
177.246094,743.041992,-673.64502,3.267499
179.901123,747.802734,-676.757812,3.268249
187.683105,742.858887,-671.173096,3.268989
192.443848,752.655029,-668.701172,3.269728
188.690186,748.260498,-665.863037,3.270468
186.401367,751.739502,-665.95459,3.271217
191.619873,753.570557,-660.552979,3.271957
186.676025,753.02124,-663.391113,3.272696
188.690186,747.253418,-671.630859,3.273436
179.534912,736.26709,-669.799805,3.274231
181.732178,741.760254,-671.081543,3.275026
178.710938,742.492676,-679.6875,3.275778
179.351807,734.344482,-679.6875,3.276517
183.654785,735.26001,-683.71582,3.277257
168.457031,731.231689,-685.36377,3.277996
174.407959,733.337402,-676.025391,3.278735
181.640625,735.900879,-676.574707,3.279472
170.837402,735.351562,-672.180176,3.280209
164.154053,722.625732,-672.912598,3.280946
164.978027,727.478027,-675.292969,3.281748
166.351318,725.830078,-677.032471,3.282504
168.914795,721.618652,-684.7229,3.283267
161.499023,723.358154,-685.36377,3.284016
160.491943,722.076416,-675.201416,3.284776
151.519775,718.139648,-682.70874,3.285523
152.893066,725.097656,-670.898438,3.286263
141.357422,718.505859,-674.468994,3.287004
140.441895,716.125488,-670.806885,3.287757
142.547607,710.81543,-677.124023,3.288499
143.188477,701.019287,-679.046631,3.28924
146.026611,704.681396,-668.243408,3.289982
139.801025,692.687988,-675.933838,3.290735
143.463135,691.772461,-675.567627,3.291477
143.554688,690.124512,-675.933838,3.292218
140.808105,684.082031,-676.483154,3.29296
147.491455,688.201904,-673.370361,3.293711
130.462646,681.976318,-656.433105,3.294452
134.58252,689.483643,-660.552979,3.295192
135.406494,697.723389,-668.426514,3.295933
131.744385,702.392578,-666.046143,3.296684
143.920898,706.237793,-658.538818,3.297425
149.597168,702.941895,-658.996582,3.298166
154.724121,702.850342,-655.700684,3.298907
150.604248,708.435059,-659.637451,3.299657
157.37915,708.068848,-662.841797,3.300398
156.738281,708.251953,-657.531738,3.301139
154.815674,712.554932,-657.897949,3.30188
145.843506,710.81543,-658.081055,3.30262
138.336182,712.005615,-664.215088,3.303351
133.117676,716.491699,-677.764893,3.304082
134.033203,725.830078,-657.165527,3.304813
128.631592,746.704102,-656.890869,3.305566
133.850098,728.851318,-661.376953,3.306305
134.674072,727.294922,-673.278809,3.307045
137.054443,725.463867,-664.306641,3.307785
143.463135,725.921631,-671.539307,3.308535
147.216797,736.633301,-663.391113,3.309274
141.906738,738.28125,-665.130615,3.310014
150.238037,742.401123,-662.475586,3.310753
146.118164,737.548828,-658.630371,3.311503
152.618408,743.499756,-654.876709,3.312242
149.505615,735.534668,-658.905029,3.312982
144.836426,740.570068,-659.179688,3.313721
149.047852,742.30957,-662.109375,3.31447
145.843506,736.999512,-667.419434,3.315209
142.730713,745.697021,-662.29248,3.315949
139.892578,733.886719,-669.799805,3.316688
141.174316,735.900879,-662.200928,3.317427
144.65332,738.647461,-667.877197,3.318165
147.766113,729.858398,-670.898438,3.318907
140.625,729.217529,-648.010254,3.319652
153.259277,736.724854,-663.94043,3.3204
155.822754,730.773926,-670.074463,3.32114
153.167725,733.978271,-671.99707,3.32188
154.449463,738.006592,-673.00415,3.322619
154.083252,734.893799,-665.313721,3.32346
155.090332,737.640381,-669.433594,3.324202
156.829834,745.513916,-671.99707,3.324941
152.709961,733.612061,-662.750244,3.32568
160.217285,745.97168,-670.257568,3.326432
152.435303,742.218018,-666.503906,3.327172
156.463623,742.218018,-675.476074,3.327911
166.168213,742.584229,-665.863037,3.32865
165.710449,733.886719,-679.138184,3.329418
161.04126,728.302002,-677.032471,3.330155
166.351318,725.646973,-672.454834,3.330886
169.281006,742.584229,-696.533203,3.331617
165.161133,727.203369,-683.532715,3.332414
174.591064,734.069824,-686.645508,3.333145
164.0625,733.24585,-684.906006,3.333876
162.322998,734.802246,-679.779053,3.334606
159.0271,736.907959,-686.553955,3.335349
165.710449,735.992432,-678.68042,3.33608
170.837402,740.661621,-679.046631,3.336811
171.478271,733.062744,-679.046631,3.337542
179.534912,745.239258,-672.912598,3.338284
180.725098,746.795654,-679.595947,3.339015
178.436279,741.119385,-681.335449,3.339746
179.901123,738.098145,-673.553467,3.340477
177.612305,746.520996,-673.095703,3.34123
176.239014,738.739014,-677.856445,3.341969
175.231934,738.922119,-670.623779,3.342708
173.76709,735.443115,-674.194336,3.343447
168.365479,728.942871,-685.272217,3.344197
173.858643,740.936279,-675.567627,3.344972
170.654297,737.091064,-678.955078,3.345759
171.295166,738.006592,-675.476074,3.346529
170.196533,725.830078,-674.01123,3.347268
167.724609,725.55542,-677.398682,3.348004
165.985107,722.991943,-688.110352,3.348759
151.794434,726.013184,-674.285889,3.349515
156.280518,723.54126,-670.715332,3.350256
158.111572,726.928711,-667.785645,3.350997
161.499023,718.322754,-676.757812,3.351738
161.132812,717.590332,-674.6521,3.352488
160.675049,717.498779,-675.842285,3.353229
162.04834,714.569092,-678.405762,3.35397
157.653809,716.85791,-683.807373,3.354711
158.935547,712.371826,-676.757812,3.355462
158.111572,714.477539,-678.131104,3.356204
158.660889,716.308594,-670.440674,3.356945
153.259277,712.280273,-685.913086,3.357686
157.562256,708.435059,-682.342529,3.358437
155.914307,704.864502,-672.637939,3.359178
148.31543,704.681396,-684.356689,3.35992
148.590088,692.321777,-677.124023,3.360661
147.033691,696.624756,-684.7229,3.361415
147.583008,697.44873,-689.575195,3.362156
141.63208,706.054688,-684.173584,3.362913
144.104004,708.618164,-697.08252,3.363667
140.716553,708.709717,-698.822021,3.364434
139.892578,707.977295,-683.441162,3.365183
137.237549,704.772949,-685.089111,3.365925
136.59668,711.273193,-680.419922,3.366665
135.864258,715.942383,-677.764893,3.367425
137.512207,710.357666,-675.567627,3.368166
139.434814,717.224121,-672.637939,3.368907
141.906738,715.484619,-678.314209,3.369649
142.089844,716.125488,-669.708252,3.370406
137.786865,716.491699,-675.933838,3.371148
142.63916,712.921143,-672.637939,3.371889
134.033203,710.174561,-674.01123,3.37263
132.019043,706.237793,-670.440674,3.373371
134.124756,712.371826,-671.722412,3.374102
137.145996,696.899414,-673.278809,3.374833
131.286621,699.829102,-669.799805,3.375564
125.793457,707.061768,-684.539795,3.376316
129.821777,709.442139,-681.793213,3.377056
137.145996,707.977295,-676.66626,3.377795
131.652832,706.970215,-679.6875,3.378535
127.807617,709.16748,-681.152344,3.379284
132.476807,710.174561,-678.68042,3.380024
129.455566,709.625244,-680.603027,3.380763
127.89917,714.752197,-675.567627,3.381503
122.680664,722.351074,-676.849365,3.382261
132.568359,723.907471,-674.6521,3.383
130.279541,723.175049,-673.736572,3.38374
126.525879,728.393555,-667.053223,3.38448
128.448486,725.372314,-676.025391,3.385231
131.103516,723.449707,-675.292969,3.385972
134.033203,731.781006,-675.384521,3.386711
138.336182,721.893311,-682.891846,3.387451
134.399414,725.189209,-673.64502,3.388201
133.026123,703.308105,-670.806885,3.388941
134.124756,723.358154,-666.778564,3.389681
127.258301,722.53418,-669.891357,3.390421
128.082275,728.210449,-670.440674,3.39117
139.709473,727.935791,-663.757324,3.39191
136.322021,723.999023,-666.96167,3.39265
136.413574,722.351074,-663.94043,3.393389
138.061523,718.322754,-670.440674,3.394139
145.477295,728.485107,-666.778564,3.394967
146.66748,722.991943,-661.010742,3.395707
145.568848,722.259521,-659.27124,3.396447
147.857666,719.146729,-664.215088,3.397201
155.914307,724.731445,-659.454346,3.397942
148.498535,731.872559,-656.25,3.398681
160.125732,731.231689,-652.587891,3.399421
156.921387,728.485107,-655.059814,3.400172
159.210205,717.956543,-659.27124,3.400911
160.491943,722.167969,-660.095215,3.401651
156.280518,724.914551,-660.827637,3.40239
155.273438,722.351074,-666.412354,3.403137
159.301758,713.104248,-666.778564,3.403874
165.893555,709.442139,-660.003662,3.404611
151.702881,706.878662,-669.433594,3.405349
157.196045,713.653564,-656.982422,3.406113
165.710449,714.660645,-666.778564,3.406855
164.703369,708.80127,-662.200928,3.407595
163.879395,715.759277,-661.651611,3.408336
161.956787,720.153809,-664.031982,3.409088
165.527344,719.055176,-656.616211,3.409828
160.308838,711.090088,-655.24292,3.410568
160.491943,716.125488,-655.151367,3.411308
167.816162,716.674805,-661.102295,3.412055
158.477783,717.224121,-662.017822,3.412795
165.161133,719.970703,-661.92627,3.413534
163.421631,717.86499,-659.27124,3.414274
159.301758,718.414307,-656.158447,3.41505
159.667969,717.681885,-641.876221,3.415837
157.653809,722.808838,-654.602051,3.41659
161.773682,718.231201,-656.341553,3.417358
161.773682,720.88623,-651.123047,3.418098
161.315918,720.611572,-657.806396,3.418837
166.534424,721.069336,-660.552979,3.419576
169.647217,713.562012,-656.433105,3.420324
166.717529,714.019775,-660.827637,3.421085
163.513184,710.81543,-666.137695,3.421835
173.400879,717.224121,-669.616699,3.422606
173.583984,715.576172,-669.158936,3.423382
166.168213,712.463379,-653.686523,3.424124
166.442871,718.322754,-663.94043,3.424865
167.816162,720.794678,-652.587891,3.425605
169.281006,716.308594,-669.342041,3.426357
172.393799,723.632812,-665.863037,3.427098
172.851562,724.182129,-668.701172,3.42784
178.436279,747.802734,-655.151367,3.428581
178.344727,721.5271,-660.369873,3.429333
171.295166,724.914551,-660.736084,3.430074
177.062988,720.336914,-668.151855,3.430832
176.605225,721.160889,-661.2854,3.43158
170.10498,721.160889,-669.799805,3.432322
164.337158,715.759277,-669.067383,3.433064
162.231445,718.597412,-664.489746,3.433805
163.513184,716.85791,-669.891357,3.434546
163.970947,718.963623,-665.222168,3.435287
167.633057,719.512939,-674.377441,3.436028
166.168213,719.238281,-670.074463,3.436768
159.484863,718.780518,-661.92627,3.437509
159.301758,721.160889,-664.306641,3.438251
154.815674,713.745117,-671.905518,3.438999
163.787842,725.55542,-673.553467,3.439742
161.773682,726.196289,-676.025391,3.440484
161.773682,727.844238,-668.97583,3.441225
157.104492,727.203369,-669.98291,3.441966
159.759521,738.098145,-669.158936,3.442707
153.442383,743.591309,-674.743652,3.443499
153.076172,742.492676,-670.166016,3.444233
154.35791,746.154785,-666.046143,3.444964
157.37915,744.689941,-667.96875,3.445695
159.576416,747.619629,-673.00415,3.446428
154.449463,747.436523,-673.278809,3.447169
153.442383,747.344971,-671.447754,3.447909
157.196045,752.838135,-665.771484,3.448649
155.36499,740.29541,-670.257568,3.449391
153.625488,745.239258,-672.821045,3.450129
160.675049,751.464844,-668.518066,3.450885
153.35083,745.147705,-672.637939,3.451627
155.914307,745.147705,-675.65918,3.452367
151.794434,744.232178,-673.278809,3.453107
157.012939,754.302979,-672.454834,3.453846
168.823242,745.788574,-668.609619,3.454586
163.238525,751.647949,-676.025391,3.455326
159.942627,757.141113,-666.137695,3.456065
164.337158,763.549805,-666.687012,3.456805
164.794922,759.70459,-669.158936,3.457544
164.428711,755.126953,-674.01123,3.458297
168.914795,759.429932,-669.158936,3.459037
160.125732,757.598877,-664.031982,3.459777
165.802002,753.479004,-666.229248,3.460516
160.03418,748.535156,-671.264648,3.461266
167.816162,753.112793,-692.138672,3.462007
162.689209,751.831055,-673.187256,3.462747
162.597656,753.387451,-665.679932,3.463487
164.428711,752.563477,-671.356201,3.464227
155.731201,750.732422,-674.560547,3.464967
185.119629,754.760742,-674.926758,3.465843
162.231445,747.711182,-676.483154,3.466583
166.717529,739.929199,-671.722412,3.467323
166.717529,740.844727,-668.426514,3.468063
165.802002,748.260498,-660.27832,3.468803
166.900635,743.682861,-670.532227,3.469542
162.689209,738.098145,-673.187256,3.470295
160.308838,733.703613,-664.581299,3.471035
159.118652,741.027832,-665.771484,3.471774
158.569336,728.118896,-666.778564,3.472513
156.463623,729.492188,-669.342041,3.473254
154.907227,729.217529,-672.637939,3.473994
163.146973,733.062744,-668.151855,3.474733
157.196045,723.175049,-666.320801,3.475473
157.928467,721.618652,-666.595459,3.476215
154.266357,721.252441,-655.700684,3.476954
155.090332,721.343994,-661.468506,3.477694
154.907227,727.386475,-661.560059,3.478435
155.914307,724.365234,-660.369873,3.479176
159.851074,720.245361,-658.538818,3.479915
161.590576,713.745117,-658.630371,3.480655
157.012939,713.012695,-656.982422,3.481395
155.548096,705.413818,-662.109375,3.482147
146.392822,709.991455,-662.750244,3.482887
148.040771,702.941895,-663.116455,3.483628
148.773193,701.019287,-666.229248,3.484369
150.146484,696.075439,-663.208008,3.485123
149.047852,701.568604,-664.123535,3.485864
154.998779,708.709717,-660.919189,3.486604
150.512695,698.730469,-652.954102,3.487415
148.498535,680.786133,-652.770996,3.488169
152.34375,702.758789,-654.144287,3.488909
147.125244,707.336426,-659.088135,3.489648
148.498535,702.667236,-679.229736,3.490388
142.364502,704.864502,-659.820557,3.491155
161.773682,703.308105,-665.863037,3.491906
144.195557,705.13916,-637.115479,3.492654
136.962891,711.090088,-652.496338,3.493398
133.483887,700.653076,-659.454346,3.494136
127.624512,699.737549,-660.003662,3.494873
130.92041,699.09668,-658.630371,3.495611
127.807617,693.695068,-661.560059,3.496393
130.279541,688.842773,-665.771484,3.497139
136.688232,694.335938,-664.764404,3.497881
131.469727,696.807861,-667.510986,3.498622
140.258789,696.075439,-664.398193,3.499364
137.237549,694.610596,-670.806885,3.500105
131.561279,694.152832,-662.567139,3.500847
133.850098,689.666748,-661.376953,3.501588
133.300781,699.005127,-659.362793,3.502332
134.490967,700.286865,-658.447266,3.503075
127.990723,700.744629,-655.24292,3.503816
125.88501,697.998047,-653.503418,3.504557
127.075195,709.533691,-654.876709,3.505299
126.525879,699.09668,-653.503418,3.50604
133.392334,703.033447,-647.094727,3.506781
132.93457,711.456299,-644.073486,3.507522
127.166748,682.342529,-655.334473,3.508276
131.652832,711.090088,-654.693604,3.509018
132.019043,711.364746,-650.57373,3.50976
136.138916,707.336426,-644.439697,3.510501
135.223389,703.308105,-658.630371,3.511243
132.110596,705.13916,-659.27124,3.511985
143.554688,705.047607,-657.989502,3.512726
130.004883,698.272705,-654.785156,3.513468
130.92041,708.251953,-658.813477,3.514215
137.695312,704.498291,-655.426025,3.514946
139.709473,706.329346,-654.968262,3.515677
138.153076,705.871582,-653.869629,3.516408
139.434814,713.470459,-666.870117,3.517145
145.202637,721.069336,-660.186768,3.517885
148.864746,717.132568,-657.348633,3.518624
141.174316,718.87207,-646.179199,3.519364
143.371582,720.062256,-647.003174,3.520112
150.146484,713.928223,-657.806396,3.520851
146.026611,717.86499,-656.524658,3.521591
144.012451,721.160889,-651.2146,3.52233
138.519287,711.82251,-657.348633,3.523078
136.779785,716.125488,-650.939941,3.523818
134.490967,717.407227,-656.799316,3.524558
140.808105,725.55542,-658.081055,3.525297
142.822266,710.998535,-660.552979,3.526037
145.294189,719.238281,-662.200928,3.526777
141.63208,722.717285,-635.375977,3.527516
145.385742,721.893311,-654.418945,3.528256
143.188477,720.794678,-650.57373,3.528996
144.470215,718.963623,-649.841309,3.529735
145.568848,717.407227,-656.616211,3.530475
143.554688,719.329834,-657.623291,3.531214
147.857666,713.562012,-656.616211,3.531965
147.30835,714.385986,-658.996582,3.532705
142.547607,706.329346,-661.010742,3.533444
153.717041,705.596924,-652.679443,3.534183
147.399902,717.681885,-662.017822,3.534932
152.069092,707.336426,-655.059814,3.535672
138.244629,714.569092,-662.200928,3.536498
138.793945,715.301514,-667.694092,3.537238
145.111084,712.463379,-666.137695,3.537978
147.766113,720.062256,-660.003662,3.538718
147.491455,722.351074,-659.820557,3.539459
149.414062,719.055176,-657.440186,3.540198
147.399902,714.294434,-656.799316,3.540942
153.717041,719.970703,-668.243408,3.541682
156.921387,724.182129,-660.736084,3.542422
157.37915,721.069336,-661.102295,3.543162
160.125732,719.787598,-667.236328,3.543918
159.942627,719.970703,-665.95459,3.544659
147.857666,715.301514,-660.003662,3.545398
146.118164,717.86499,-664.581299,3.546137
147.125244,724.731445,-666.320801,3.546888
143.280029,708.251953,-673.64502,3.547628
146.942139,710.540771,-659.27124,3.548367
150.146484,704.040527,-663.299561,3.549106
153.533936,716.85791,-666.503906,3.549855
156.646729,711.181641,-668.609619,3.550594
149.688721,714.202881,-666.320801,3.551334
152.709961,714.202881,-661.010742,3.552074
150.512695,710.81543,-669.250488,3.552813
152.526855,706.604004,-667.602539,3.553553
154.724121,711.090088,-661.193848,3.554293
162.04834,715.85083,-656.982422,3.555032
149.32251,709.899902,-650.756836,3.555772
145.568848,707.336426,-660.736084,3.556512
143.920898,704.498291,-664.672852,3.557251
152.526855,703.308105,-655.700684,3.558008
154.449463,705.505371,-662.658691,3.558811
156.738281,694.976807,-658.721924,3.55958
156.005859,694.335938,-659.27124,3.560327
150.695801,693.878174,-663.94043,3.56108
153.533936,696.624756,-656.707764,3.561824
150.878906,688.201904,-669.067383,3.562563
154.083252,705.047607,-654.327393,3.563303
150.146484,700.195312,-659.545898,3.564043
143.188477,697.540283,-659.27124,3.564782
148.040771,703.674316,-654.693604,3.565522
143.188477,707.611084,-666.503906,3.566262
142.547607,706.970215,-660.186768,3.567
150.238037,715.118408,-658.905029,3.567739
144.561768,712.921143,-634.82666,3.568482
143.188477,714.202881,-663.482666,3.569261
142.456055,712.463379,-666.503906,3.57002
144.104004,720.88623,-663.94043,3.570768
139.61792,720.428467,-665.405273,3.571509
136.688232,723.266602,-668.884277,3.572252
139.526367,714.477539,-662.567139,3.572993
134.857178,713.470459,-663.299561,3.573733
137.420654,709.350586,-667.236328,3.574473
136.962891,713.562012,-666.778564,3.575213
134.307861,717.86499,-665.679932,3.575953
143.005371,716.217041,-660.919189,3.576693
133.026123,715.942383,-664.855957,3.577432
133.300781,717.132568,-666.687012,3.578172
130.645752,721.893311,-671.630859,3.578912
127.716064,712.554932,-666.229248,3.579651
127.441406,718.139648,-673.370361,3.580391
126.068115,719.421387,-662.93335,3.581151
121.307373,715.026855,-664.855957,3.581901
121.582031,718.87207,-667.694092,3.582643
128.997803,723.724365,-663.665771,3.583384
126.434326,717.224121,-664.215088,3.584139
130.92041,717.86499,-665.771484,3.584882
128.631592,727.111816,-662.567139,3.585623
136.138916,727.844238,-660.919189,3.586362
126.708984,723.815918,-662.841797,3.587109
126.708984,717.956543,-661.010742,3.587841
117.462158,722.900391,-658.355713,3.588583
122.955322,722.351074,-666.687012,3.589319
120.483398,721.893311,-666.595459,3.590078
118.743896,729.58374,-664.94751,3.590818
123.779297,729.766846,-657.531738,3.591559
124.786377,730.59082,-663.024902,3.592299
116.088867,721.435547,-668.243408,3.59305
129.455566,725.189209,-661.2854,3.593791
126.251221,747.711182,-662.384033,3.594531
123.87085,732.513428,-663.391113,3.595271
135.131836,725.189209,-656.890869,3.59602
132.110596,728.302002,-678.314209,3.596761
134.307861,732.23877,-650.756836,3.597501
133.575439,739.471436,-657.073975,3.598241
135.5896,724.365234,-657.348633,3.598991
136.413574,716.217041,-657.073975,3.599732
136.505127,719.696045,-658.26416,3.600472
144.378662,722.351074,-664.031982,3.601218
145.6604,722.167969,-660.736084,3.601957
139.61792,718.139648,-655.975342,3.602695
140.075684,710.266113,-658.26416,3.603438
143.188477,716.400146,-648.376465,3.604194
141.540527,716.217041,-655.792236,3.604935
143.920898,718.231201,-651.123047,3.605675
147.491455,715.85083,-655.151367,3.606415
150.787354,719.970703,-652.954102,3.60724
152.893066,715.026855,-649.841309,3.607989
155.36499,719.87915,-646.636963,3.608736
157.287598,711.82251,-644.348145,3.609493
151.794434,711.82251,-639.221191,3.610234
160.491943,709.075928,-649.749756,3.610974
156.555176,706.878662,-638.580322,3.611714
154.632568,700.286865,-638.671875,3.612464
159.667969,698.547363,-641.876221,3.613204
158.660889,701.660156,-637.390137,3.613944
168.731689,695.800781,-645.080566,3.614684
174.957275,691.131592,-638.122559,3.615434
165.161133,685.455322,-638.763428,3.616174
170.10498,688.934326,-637.664795,3.616915
175.415039,696.44165,-634.643555,3.617655
168.823242,684.631348,-633.911133,3.618405
185.302734,694.702148,-635.101318,3.619145
164.611816,695.068359,-632.446289,3.619885
161.224365,685.638428,-630.065918,3.620625
167.541504,694.244385,-626.586914,3.621364
161.956787,685.180664,-631.988525,3.622105
169.281006,686.737061,-632.537842,3.622845
175.964355,691.589355,-634.735107,3.623585
169.830322,684.631348,-634.094238,3.624348
145.568848,690.582275,-636.199951,3.625084
162.689209,683.166504,-635.101318,3.625816
159.942627,689.208984,-635.375977,3.626565
156.921387,696.716309,-641.418457,3.62734
159.484863,696.899414,-634.460449,3.628098
152.984619,691.497803,-633.361816,3.628837
153.808594,691.131592,-636.108398,3.629568
153.167725,696.258545,-640.960693,3.630166
158.752441,702.392578,-637.8479,3.630934
141.906738,702.301025,-636.291504,3.631724
138.244629,704.13208,-637.023926,3.632476
140.625,713.012695,-633.270264,3.633217
134.033203,706.420898,-641.601562,3.633958
137.695312,710.357666,-637.115479,3.634705
139.801025,712.554932,-636.84082,3.635436
137.329102,704.13208,-636.474609,3.636167
142.730713,704.498291,-636.474609,3.636898
132.019043,706.787109,-642.425537,3.637653
131.92749,708.343506,-643.157959,3.638394
134.490967,703.308105,-647.644043,3.639134
133.392334,708.068848,-641.601562,3.639875
131.286621,703.582764,-643.615723,3.640616
132.202148,704.589844,-649.658203,3.641347
135.498047,705.688477,-642.791748,3.64208
129.272461,713.287354,-635.375977,3.642811
137.329102,712.921143,-641.51001,3.643572
149.139404,716.674805,-645.172119,3.644314
132.93457,710.174561,-639.862061,3.645054
139.434814,720.336914,-646.453857,3.645795
143.005371,720.062256,-644.989014,3.646545
144.470215,714.294434,-647.735596,3.647286
144.470215,715.026855,-649.108887,3.648024
133.209229,705.963135,-651.580811,3.648766
127.807617,707.977295,-639.49585,3.649666
132.202148,711.82251,-647.094727,3.650784
129.730225,712.371826,-649.749756,3.651895
139.160156,719.87915,-643.249512,3.652805
146.850586,714.752197,-652.313232,3.653902
141.082764,706.970215,-658.26416,3.655002
140.533447,712.280273,-651.947021,3.656115
142.913818,713.378906,-645.172119,3.657225
139.984131,711.090088,-651.489258,3.658324
140.808105,712.371826,-645.355225,3.659419
141.998291,716.949463,-661.560059,3.660515
152.801514,710.357666,-662.475586,3.661644
146.575928,712.738037,-660.552979,3.662755
148.31543,721.069336,-658.996582,3.663867
146.66748,720.336914,-656.616211,3.664992
147.766113,727.020264,-657.806396,3.666103
151.153564,729.309082,-655.609131,3.667239
139.892578,725.280762,-664.855957,3.668389
148.223877,729.492188,-660.736084,3.669501
145.568848,730.224609,-664.123535,3.670638
149.780273,728.302002,-666.595459,3.671752
146.66748,730.59082,-668.609619,3.672863
152.34375,726.928711,-663.574219,3.673974
153.717041,726.104736,-663.391113,3.675086
150.238037,727.56958,-670.532227,3.676196
144.195557,723.175049,-669.616699,3.677307
148.223877,730.316162,-662.567139,3.678418
146.209717,725.830078,-663.024902,3.679533
141.906738,730.224609,-671.264648,3.680629
160.858154,733.978271,-670.257568,3.681725
140.991211,730.316162,-667.510986,3.682882
144.836426,729.400635,-656.524658,3.683995
144.012451,732.147217,-667.144775,3.685108
142.63916,704.589844,-663.482666,3.68622
139.984131,728.118896,-671.264648,3.687331
136.779785,726.928711,-667.053223,3.688476
133.758545,722.900391,-665.313721,3.689589
134.674072,730.773926,-664.489746,3.690699
127.990723,729.400635,-664.94751,3.69183
137.695312,724.822998,-662.841797,3.693093
130.554199,729.492188,-660.552979,3.694232
128.173828,733.154297,-663.299561,3.695329
128.814697,734.25293,-662.200928,3.696426
122.406006,742.858887,-664.581299,3.697637
127.349854,738.098145,-668.151855,3.698747
120.941162,727.111816,-671.356201,3.699865
119.018555,728.393555,-665.771484,3.700985
118.19458,722.167969,-661.743164,3.702097
125.88501,725.55542,-660.644531,3.703224
127.349854,719.055176,-661.560059,3.704335
127.075195,721.618652,-658.813477,3.705446
133.209229,725.006104,-661.010742,3.706557
131.92749,722.808838,-659.454346,3.707695
126.068115,728.027344,-648.834229,3.70882
125.061035,723.083496,-651.763916,3.709974
131.92749,719.146729,-651.397705,3.711124
135.681152,721.893311,-650.57373,3.712263
142.547607,722.53418,-650.024414,3.713375
148.864746,719.87915,-654.052734,3.714487
148.406982,723.175049,-651.031494,3.715597
146.850586,727.111816,-647.918701,3.716708
146.66748,714.660645,-650.57373,3.717821
142.63916,717.315674,-657.165527,3.718918
152.069092,717.132568,-652.130127,3.720015
148.956299,715.667725,-652.22168,3.721147
151.702881,723.083496,-660.736084,3.722258
154.632568,729.034424,-655.792236,3.723366
147.30835,723.175049,-655.609131,3.724477
149.963379,716.583252,-648.742676,3.725424
156.37207,724.090576,-655.334473,3.726164
151.794434,745.697021,-648.55957,3.726915
151.245117,732.147217,-652.038574,3.727655
157.653809,723.266602,-651.2146,3.728397
159.576416,729.400635,-654.144287,3.729151
156.097412,719.787598,-650.665283,3.729929
157.37915,724.731445,-653.22876,3.730672
151.153564,719.787598,-653.869629,3.731418
155.456543,719.421387,-654.052734,3.732163
157.928467,715.026855,-658.172607,3.732925
150.054932,710.357666,-656.066895,3.733684
151.062012,707.702637,-656.433105,3.734425
147.30835,720.428467,-648.193359,3.735163
150.238037,717.315674,-645.721436,3.735894
148.040771,710.723877,-653.503418,3.736625
151.611328,709.442139,-649.56665,3.737356
149.871826,722.259521,-645.446777,3.738092
139.709473,719.146729,-651.2146,3.738833
150.878906,718.87207,-648.55957,3.739573
152.34375,718.231201,-650.390625,3.740314
152.252197,721.435547,-651.489258,3.741053
145.385742,722.442627,-656.799316,3.741784
149.597168,723.175049,-660.644531,3.742541
147.674561,722.625732,-650.57373,3.743284
143.463135,730.316162,-654.418945,3.744024
141.174316,731.506348,-652.130127,3.744765
150.878906,739.929199,-655.609131,3.745505
149.230957,726.5625,-653.320312,3.746245
135.772705,731.140137,-658.355713,3.746986
148.590088,741.027832,-653.503418,3.747727
148.406982,719.421387,-655.334473,3.748467
152.618408,743.95752,-651.2146,3.749208
145.935059,729.217529,-660.186768,3.749946
144.378662,719.329834,-654.876709,3.750704
139.343262,716.400146,-655.24292,3.751447
146.209717,720.428467,-653.045654,3.752187
146.850586,728.118896,-648.834229,3.752927
140.350342,717.773438,-654.693604,3.753668
151.428223,714.935303,-649.383545,3.754409
149.139404,717.590332,-651.123047,3.755149
142.822266,718.688965,-648.925781,3.75589
143.920898,714.84375,-655.151367,3.75663
149.963379,721.710205,-650.939941,3.75737
152.618408,718.505859,-649.56665,3.75811
150.054932,720.703125,-645.629883,3.758845
146.026611,716.125488,-649.841309,3.759576
143.737793,716.766357,-640.594482,3.760307
142.822266,719.238281,-643.432617,3.761037
140.258789,722.259521,-648.468018,3.761775
148.31543,721.710205,-647.644043,3.762515
146.575928,726.928711,-653.045654,3.763257
143.463135,717.224121,-645.629883,3.763999
149.597168,720.977783,-640.045166,3.76474
147.857666,722.808838,-646.362305,3.765481
150.421143,720.428467,-646.728516,3.766223
147.949219,721.435547,-652.954102,3.766979
141.448975,717.315674,-648.55957,3.767745
149.230957,721.343994,-651.489258,3.768509
149.688721,714.385986,-647.369385,3.769283
140.533447,714.385986,-639.129639,3.770038
149.780273,707.885742,-648.376465,3.77082
117.1875,711.181641,-643.890381,3.771571
140.441895,714.84375,-645.721436,3.772317
147.033691,717.590332,-651.031494,3.773086
141.815186,707.794189,-648.284912,3.773898
139.434814,710.906982,-651.672363,3.774746
143.280029,719.604492,-658.721924,3.775548
139.984131,715.118408,-654.144287,3.776342
140.075684,712.554932,-645.446777,3.777088
129.547119,711.090088,-650.390625,3.777867
134.58252,717.315674,-649.017334,3.778625
137.145996,711.547852,-647.827148,3.779404
117.645264,706.970215,-650.848389,3.780145
133.483887,706.237793,-651.031494,3.780886
130.92041,703.765869,-654.968262,3.781627
125.976562,703.857422,-656.158447,3.78238
126.617432,691.864014,-658.081055,3.78312
129.730225,700.836182,-653.778076,3.783877
128.448486,702.301025,-657.25708,3.784624
124.145508,699.829102,-657.623291,3.785376
129.455566,702.11792,-663.665771,3.786126
130.096436,702.11792,-653.411865,3.786875
128.448486,702.850342,-653.961182,3.787617
120.666504,699.188232,-655.517578,3.78836
117.279053,693.328857,-655.151367,3.7891
116.821289,706.695557,-648.284912,3.78984
114.624023,701.934814,-650.57373,3.790581
119.384766,703.033447,-656.890869,3.791322
124.603271,710.266113,-651.123047,3.792062
119.934082,711.730957,-646.453857,3.792802
116.088867,714.477539,-649.108887,3.793541
113.800049,713.287354,-663.482666,3.794272
117.279053,716.766357,-653.22876,3.79504
106.567383,714.294434,-655.517578,3.795794
116.821289,720.611572,-653.778076,3.796563
116.912842,713.653564,-655.059814,3.797327
113.983154,715.85083,-651.947021,3.79807
117.553711,718.322754,-650.024414,3.79881
111.51123,717.681885,-654.693604,3.799569
105.834961,716.217041,-655.24292,3.80031
110.50415,716.400146,-660.003662,3.80105
111.968994,715.85083,-653.961182,3.801791
108.48999,715.301514,-651.2146,3.802535
110.595703,716.125488,-653.320312,3.803267
121.856689,713.104248,-654.510498,3.803998
113.708496,716.85791,-659.545898,3.804728
114.074707,712.005615,-659.637451,3.80546
112.792969,715.942383,-656.341553,3.806191
112.884521,710.723877,-655.059814,3.806922
113.250732,716.125488,-652.770996,3.807652
106.109619,710.083008,-651.580811,3.808392
106.842041,715.759277,-660.919189,3.809132
117.919922,717.498779,-660.095215,3.809873
116.546631,718.780518,-656.524658,3.810613
123.87085,716.308594,-657.440186,3.811355
120.666504,707.977295,-663.391113,3.812097
117.828369,710.357666,-657.073975,3.812837
118.652344,709.442139,-658.813477,3.813578
123.87085,724.731445,-652.313232,3.81432
111.51123,716.674805,-650.756836,3.815061
123.321533,707.244873,-655.883789,3.815802
128.082275,720.703125,-648.925781,3.816543
124.694824,716.949463,-645.355225,3.817288
122.772217,710.449219,-652.130127,3.81802
123.962402,707.336426,-651.306152,3.81875
119.750977,706.970215,-651.947021,3.819481
122.131348,715.759277,-647.55249,3.820221
130.004883,702.941895,-648.193359,3.820961
129.455566,709.442139,-645.263672,3.821702
126.708984,709.625244,-643.249512,3.822442
124.237061,714.294434,-644.348145,3.823178
122.589111,705.780029,-651.580811,3.823908
133.117676,710.357666,-650.024414,3.824639
135.314941,708.435059,-644.256592,3.825369
129.455566,708.343506,-643.707275,3.826106
125.88501,702.941895,-645.355225,3.826846
129.547119,719.421387,-641.876221,3.827587
132.385254,704.956055,-650.939941,3.828347
136.688232,703.857422,-642.608643,3.82909
136.59668,696.44165,-640.228271,3.82983
133.575439,696.807861,-642.700195,3.830589
136.59668,702.026367,-645.53833,3.831331
137.969971,701.385498,-647.003174,3.832085
143.737793,696.44165,-641.326904,3.83283
143.096924,703.399658,-642.333984,3.833573
142.547607,702.11792,-640.777588,3.834325
139.61792,702.026367,-640.960693,3.835083
144.012451,699.462891,-644.439697,3.83583
141.448975,698.730469,-644.989014,3.836571
141.448975,713.012695,-636.291504,3.837329
146.942139,714.935303,-634.277344,3.838083
149.505615,712.005615,-636.016846,3.838824
143.829346,710.449219,-642.791748,3.839565
148.040771,715.942383,-635.467529,3.840306
149.963379,719.421387,-640.777588,3.841056
144.744873,712.921143,-639.953613,3.841797
153.259277,711.914062,-639.587402,3.842538
154.083252,720.52002,-636.291504,3.843278
164.978027,718.048096,-637.207031,3.844018
159.759521,717.498779,-639.862061,3.844748
164.245605,710.174561,-641.235352,3.845571
164.154053,714.569092,-645.172119,3.846302
162.139893,716.949463,-643.981934,3.84706
160.858154,707.427979,-648.193359,3.847801
164.0625,717.86499,-638.122559,3.848541
163.330078,717.590332,-642.791748,3.84929
165.710449,719.329834,-642.333984,3.850044
159.484863,720.428467,-646.54541,3.850785
159.759521,720.703125,-636.199951,3.851525
166.900635,719.238281,-639.953613,3.852265
172.210693,720.977783,-630.79834,3.853016
166.07666,722.076416,-636.657715,3.853756
174.316406,719.87915,-642.51709,3.854496
166.625977,721.801758,-641.326904,3.855236
176.879883,722.167969,-640.136719,3.855977
175.048828,721.984863,-640.045166,3.856708
167.816162,715.301514,-643.798828,3.857438
170.10498,720.245361,-648.55957,3.858169
169.372559,717.315674,-644.897461,3.858923
176.513672,717.773438,-646.636963,3.859664
172.119141,716.583252,-649.475098,3.860404
173.309326,711.090088,-650.115967,3.861167
170.10498,720.794678,-644.165039,3.86191
169.73877,717.681885,-645.812988,3.862651
165.435791,719.970703,-646.820068,3.863391
165.435791,715.209961,-648.742676,3.864132
166.625977,706.604004,-648.284912,3.864872
164.0625,716.033936,-649.108887,3.865613
161.04126,713.287354,-647.277832,3.866354
168.365479,710.083008,-645.996094,3.867126
163.146973,712.738037,-649.108887,3.867869
156.188965,715.85083,-648.834229,3.868622
184.295654,715.85083,-638.122559,3.869363
162.04834,719.87915,-647.918701,3.870104
151.153564,711.456299,-649.749756,3.870844
155.181885,712.280273,-647.003174,3.871584
159.118652,718.688965,-646.636963,3.872322
151.062012,706.787109,-650.756836,3.873088
145.6604,703.216553,-650.20752,3.873859
142.456055,704.406738,-652.770996,3.874616
147.033691,705.13916,-648.651123,3.875365
117.553711,706.512451,-645.904541,3.876132
136.688232,709.533691,-647.55249,3.876873
128.90625,706.787109,-650.57373,3.877614
132.110596,703.765869,-664.764404,3.878355
127.624512,698.822021,-660.552979,3.879105
131.835938,697.357178,-660.461426,3.879845
130.828857,702.850342,-657.25708,3.880586
120.483398,699.005127,-661.651611,3.881327
120.666504,697.357178,-652.770996,3.882068
129.272461,698.364258,-657.073975,3.882801
123.87085,704.406738,-659.179688,3.883531
119.293213,707.336426,-659.545898,3.884262
113.067627,718.414307,-654.602051,3.885022
106.933594,713.378906,-656.616211,3.885762
97.961426,707.336426,-660.095215,3.886503
107.574463,717.041016,-662.841797,3.887243
105.560303,719.604492,-662.200928,3.887993
103.088379,717.041016,-658.26416,3.888733
103.729248,717.315674,-658.538818,3.889473
103.271484,717.86499,-662.017822,3.890214
102.081299,717.041016,-662.384033,3.890966
103.637695,709.80835,-665.039062,3.891709
102.722168,719.970703,-657.714844,3.89245
99.243164,714.569092,-662.29248,3.89319
94.573975,719.787598,-670.898438,3.893943
105.926514,723.358154,-671.447754,3.894706
107.025146,717.132568,-677.032471,3.895464
100.250244,710.906982,-677.032471,3.896222
100.158691,710.632324,-670.349121,3.89701
99.609375,713.104248,-672.912598,3.897762
101.989746,709.259033,-679.504395,3.898504
102.355957,718.231201,-677.856445,3.899244
97.77832,719.512939,-671.722412,3.899992
102.081299,719.787598,-675.018311,3.900723
98.327637,713.562012,-673.370361,3.901453
105.010986,720.794678,-671.173096,3.902185
101.257324,720.428467,-670.532227,3.902926
105.194092,720.153809,-666.96167,3.903658
109.313965,719.696045,-671.356201,3.904389
104.003906,713.470459,-675.750732,3.905119
112.609863,715.667725,-671.356201,3.905874
113.433838,718.780518,-668.701172,3.906615
110.229492,720.153809,-679.962158,3.907355
115.539551,724.54834,-672.912598,3.908095
104.644775,721.710205,-674.926758,3.908845
108.398438,717.590332,-675.842285,3.909586
112.976074,725.55542,-674.6521,3.910326
119.018555,723.999023,-676.757812,3.911067
98.968506,722.53418,-666.046143,3.911819
117.462158,723.083496,-666.503906,3.912559
122.86377,721.710205,-667.510986,3.9133
120.666504,746.154785,-676.391602,3.91404
127.807617,724.182129,-667.785645,3.914808
125.701904,728.942871,-662.475586,3.91555
125.061035,727.111816,-662.29248,3.91629
135.406494,731.689453,-664.764404,3.917116
131.835938,729.034424,-669.433594,3.917872
138.061523,729.858398,-662.200928,3.918613
144.65332,730.59082,-662.567139,3.919353
143.554688,731.506348,-669.158936,3.920097
144.195557,727.203369,-672.912598,3.92084
149.505615,730.773926,-670.715332,3.921581
150.787354,727.294922,-661.651611,3.922322
150.695801,731.140137,-661.651611,3.923063
154.541016,734.161377,-662.200928,3.923804
162.04834,728.210449,-663.665771,3.924544
155.548096,727.111816,-678.68042,3.925285
158.111572,726.928711,-655.517578,3.926025
158.935547,748.809814,-656.433105,3.926756
159.0271,725.006104,-658.355713,3.927487
162.231445,731.964111,-648.742676,3.928218
159.484863,725.738525,-652.130127,3.928948
155.090332,730.316162,-650.756836,3.929706
162.414551,732.879639,-650.848389,3.930446
169.189453,734.344482,-663.482666,3.931187
168.823242,728.210449,-654.510498,3.931927
172.302246,728.942871,-656.25,3.932678
180.175781,725.280762,-653.503418,3.933419
177.978516,731.140137,-656.25,3.934159
180.541992,725.097656,-656.341553,3.934899
171.020508,723.907471,-650.57373,3.935651
174.224854,725.006104,-646.362305,3.936392
179.534912,721.618652,-652.22168,3.937133
177.337646,717.041016,-657.25708,3.937878
169.189453,713.378906,-638.031006,3.938636
168.182373,718.963623,-648.193359,3.939375
180.175781,716.400146,-651.031494,3.940137
178.710938,713.104248,-655.609131,3.940879
180.633545,716.583252,-650.939941,3.941619
175.415039,723.175049,-655.059814,3.94236
179.351807,726.196289,-647.277832,3.9431
179.168701,714.477539,-649.383545,3.94384
186.035156,723.083496,-649.108887,3.94458
178.161621,724.182129,-650.57373,3.94532
164.154053,710.81543,-658.630371,3.946061
181.091309,725.006104,-649.841309,3.946818
174.407959,716.583252,-653.22876,3.947583
172.668457,715.576172,-657.440186,3.948338
173.950195,722.351074,-637.298584,3.949082
170.471191,718.505859,-659.454346,3.949839
167.907715,723.358154,-657.073975,3.950582
165.06958,725.738525,-656.707764,3.951322
166.534424,719.055176,-653.961182,3.952062
156.738281,721.252441,-655.517578,3.952824
154.266357,712.646484,-659.637451,3.953565
158.02002,720.153809,-652.038574,3.954307
156.646729,726.654053,-656.524658,3.955047
147.857666,725.097656,-655.609131,3.955781
147.125244,721.893311,-660.736084,3.956511
149.963379,722.625732,-665.588379,3.957242
142.730713,724.090576,-663.116455,3.957972
142.63916,712.005615,-663.299561,3.958713
139.984131,717.224121,-658.721924,3.959454
135.955811,716.85791,-653.503418,3.960195
142.089844,713.83667,-658.905029,3.960935
143.188477,722.900391,-660.552979,3.961675
136.688232,724.822998,-663.299561,3.962415
128.997803,714.569092,-658.905029,3.963155
129.730225,716.400146,-665.771484,3.963895
127.990723,715.667725,-660.827637,3.964645
126.342773,715.118408,-663.208008,3.965385
131.652832,711.82251,-667.144775,3.966125
123.779297,718.231201,-667.785645,3.966865
121.490479,722.53418,-658.813477,3.96761
117.279053,723.815918,-664.215088,3.968346
120.117188,722.717285,-663.482666,3.969097
108.123779,725.280762,-664.398193,3.969838
108.398438,722.717285,-664.94751,3.97059
119.659424,724.822998,-661.92627,3.971331
115.447998,727.111816,-671.356201,3.972071
114.257812,720.428467,-662.475586,3.972811
113.433838,723.083496,-662.29248,3.973561
115.17334,722.167969,-668.792725,3.974301
110.595703,721.5271,-667.053223,3.975042
112.609863,724.273682,-666.687012,3.975782
113.067627,719.146729,-674.6521,3.976522
117.462158,720.336914,-668.97583,3.977253
115.997314,721.252441,-667.877197,3.977984
120.391846,715.209961,-657.806396,3.978714
120.117188,716.674805,-665.496826,3.979455
115.081787,713.83667,-670.98999,3.980195
119.20166,717.315674,-672.546387,3.980935
118.011475,723.54126,-672.637939,3.981675
117.004395,729.949951,-673.828125,3.982414
112.335205,736.450195,-668.334961,3.983163
117.370605,738.006592,-665.313721,3.983917
120.574951,735.717773,-667.236328,3.984658
117.095947,740.112305,-670.166016,3.985409
109.954834,732.971191,-670.074463,3.986149
116.271973,734.893799,-667.327881,3.986889
121.398926,744.598389,-669.433594,3.98771
140.533447,735.26001,-663.299561,3.988463
127.349854,733.612061,-660.736084,3.989203
124.145508,737.915039,-670.166016,3.989943
120.025635,740.661621,-673.64502,3.990683
124.969482,728.210449,-667.694092,3.991424
128.082275,733.337402,-674.6521,3.992154
128.082275,727.844238,-675.292969,3.992892
119.293213,721.160889,-672.821045,3.993633
125.061035,734.893799,-665.679932,3.994384
126.342773,734.802246,-669.616699,3.995124
123.962402,733.703613,-665.496826,3.995864
131.378174,733.612061,-662.567139,3.996605
130.828857,739.379883,-657.897949,3.997355
127.990723,732.513428,-666.320801,3.998104
130.554199,744.506836,-669.616699,3.998845
130.645752,727.935791,-664.855957,3.999586
117.919922,736.450195,-665.863037,4.000335
127.716064,734.802246,-659.637451,4.001076
125.610352,733.428955,-665.496826,4.001816
131.652832,738.28125,-661.2854,4.002557
128.540039,745.239258,-659.912109,4.003307
122.86377,731.872559,-660.186768,4.004047
123.321533,726.196289,-662.475586,4.004792
129.821777,726.928711,-658.905029,4.005534
133.94165,725.280762,-656.158447,4.006289
128.265381,722.625732,-678.314209,4.00703
131.92749,716.491699,-656.433105,4.007771
134.765625,716.674805,-665.496826,4.008511
132.476807,718.688965,-663.757324,4.009263
133.026123,715.85083,-661.560059,4.010016
137.969971,713.928223,-654.052734,4.01076
130.737305,719.146729,-653.137207,4.011512
131.835938,718.322754,-656.524658,4.012281
130.828857,721.5271,-654.327393,4.013023
131.92749,715.667725,-647.735596,4.013763
131.011963,712.188721,-656.616211,4.014504
141.448975,716.217041,-652.954102,4.015254
133.850098,709.533691,-648.925781,4.015995
130.187988,724.273682,-649.291992,4.016735
130.92041,699.005127,-647.003174,4.017476
131.469727,712.005615,-644.805908,4.018252
132.019043,705.230713,-648.925781,4.019005
123.413086,701.385498,-654.23584,4.019751
128.723145,710.266113,-641.143799,4.0205
124.145508,712.097168,-647.277832,4.021241
123.413086,703.125,-645.53833,4.021981
131.103516,702.575684,-643.066406,4.022721
134.765625,707.519531,-648.376465,4.023463
139.160156,704.589844,-652.130127,4.024203
140.075684,698.272705,-651.123047,4.024945
132.293701,703.216553,-648.651123,4.025685
136.138916,701.477051,-649.932861,4.026426
135.498047,702.484131,-655.059814,4.027157
131.286621,696.075439,-654.418945,4.027888
134.490967,695.43457,-648.010254,4.028619
119.934082,696.350098,-649.658203,4.029411
138.885498,689.758301,-648.925781,4.03015
144.470215,691.772461,-646.362305,4.03089
145.751953,696.258545,-650.024414,4.031646
152.160645,692.504883,-645.263672,4.0324
151.33667,690.307617,-648.193359,4.033141
155.914307,696.533203,-645.263672,4.033881
153.076172,698.730469,-645.53833,4.034622
143.554688,698.547363,-638.031006,4.035362
143.005371,701.202393,-634.643555,4.036093
152.435303,708.435059,-634.918213,4.036824
151.794434,712.097168,-645.721436,4.037555
156.188965,710.540771,-645.446777,4.038296
151.33667,713.012695,-643.157959,4.039037
158.752441,719.787598,-636.199951,4.039777
151.702881,716.308594,-643.52417,4.040517
156.829834,709.716797,-640.319824,4.041258
153.35083,715.667725,-641.876221,4.041999
142.822266,713.104248,-649.658203,4.04274
147.583008,713.287354,-652.404785,4.04348
152.893066,719.238281,-649.017334,4.04422
153.717041,713.470459,-650.024414,4.04496
145.751953,706.054688,-649.475098,4.0457
152.069092,708.251953,-655.24292,4.04644
154.907227,717.498779,-654.510498,4.047181
146.942139,715.301514,-657.897949,4.047912
152.160645,712.371826,-655.334473,4.048642
159.393311,716.491699,-655.792236,4.049373
157.653809,715.759277,-660.461426,4.050112
155.822754,713.653564,-649.658203,4.050852
151.794434,705.13916,-660.461426,4.051593
156.921387,721.069336,-655.334473,4.052333
158.02002,708.618164,-656.341553,4.053074
158.111572,719.696045,-657.165527,4.053815
157.104492,723.175049,-655.609131,4.054555
153.808594,717.590332,-662.567139,4.055295
156.463623,727.203369,-654.327393,4.056046
143.737793,742.950439,-661.743164,4.056787
145.202637,730.041504,-663.94043,4.057528
144.561768,727.935791,-658.813477,4.058354
145.751953,724.639893,-657.623291,4.059134
148.773193,725.738525,-634.735107,4.059875
143.64624,727.661133,-654.876709,4.060633
147.216797,731.506348,-659.912109,4.061384
151.428223,724.914551,-663.665771,4.062161
150.32959,723.175049,-658.172607,4.062906
143.463135,733.795166,-659.729004,4.063646
143.920898,734.802246,-658.447266,4.064386
147.766113,724.182129,-660.369873,4.065143
146.209717,726.745605,-656.707764,4.065884
136.413574,729.858398,-659.820557,4.066625
138.793945,726.379395,-659.088135,4.067365
139.068604,729.766846,-656.433105,4.068117
145.568848,732.879639,-656.799316,4.06886
143.920898,718.414307,-668.060303,4.0696
144.927979,731.506348,-658.538818,4.07034
151.611328,733.520508,-659.454346,4.071095
150.878906,731.964111,-666.870117,4.071835
143.371582,724.822998,-661.651611,4.072575
135.498047,722.717285,-664.306641,4.073315
137.237549,721.893311,-659.179688,4.074064
136.505127,727.935791,-659.27124,4.074804
139.892578,733.062744,-658.172607,4.075544
139.160156,731.231689,-659.362793,4.076285
144.195557,720.245361,-651.397705,4.077026
155.090332,724.456787,-657.531738,4.077757
142.456055,725.830078,-663.299561,4.078488
146.209717,728.485107,-655.975342,4.079219
145.385742,726.745605,-677.856445,4.079978
146.850586,717.590332,-663.848877,4.080729
150.238037,721.069336,-659.362793,4.081483
140.258789,718.87207,-665.130615,4.082231
142.272949,729.217529,-658.447266,4.082994
140.808105,714.385986,-656.158447,4.083736
144.012451,723.815918,-656.158447,4.08448
137.420654,718.048096,-657.714844,4.085259
117.919922,720.062256,-658.447266,4.086031
138.519287,719.329834,-656.25,4.086792
130.554199,726.5625,-658.538818,4.087537
132.843018,722.991943,-653.869629,4.088278
137.145996,728.942871,-652.22168,4.089018
124.786377,725.097656,-660.736084,4.089758
127.075195,722.259521,-660.369873,4.090511
133.300781,729.858398,-655.700684,4.091255
133.483887,720.611572,-662.29248,4.091996
129.547119,721.618652,-673.64502,4.092736
130.462646,722.259521,-663.574219,4.093476
126.800537,722.259521,-670.257568,4.094216
119.018555,718.139648,-664.672852,4.094958
126.800537,718.780518,-666.046143,4.095699
128.814697,717.132568,-666.320801,4.096439
124.969482,719.421387,-665.313721,4.097176
130.187988,714.202881,-665.863037,4.097907
128.814697,716.033936,-666.046143,4.098638
127.258301,721.435547,-667.877197,4.099369
125.427246,714.935303,-668.060303,4.100107
121.673584,713.104248,-666.412354,4.10085
120.025635,718.322754,-666.687012,4.101592
115.081787,717.773438,-676.757812,4.102333
119.567871,716.308594,-664.398193,4.103074
117.279053,712.097168,-665.771484,4.103815
117.553711,707.519531,-669.250488,4.104556
114.715576,711.639404,-662.384033,4.105297
121.673584,710.357666,-667.694092,4.106037
121.765137,712.82959,-662.200928,4.106778
125.427246,710.81543,-668.151855,4.107519
123.504639,716.583252,-671.081543,4.10826
125.427246,711.639404,-669.250488,4.109011
128.90625,708.343506,-664.215088,4.109742
118.469238,705.596924,-663.116455,4.110473
117.095947,701.019287,-671.356201,4.111203
117.736816,698.455811,-665.95459,4.111937
119.476318,707.519531,-673.00415,4.112669
117.919922,706.237793,-668.334961,4.113399
115.997314,701.477051,-667.877197,4.11413
125.335693,699.005127,-661.468506,4.114863
130.279541,696.075439,-668.334961,4.115604
130.187988,700.195312,-665.039062,4.116346
136.779785,703.399658,-668.701172,4.117087
120.483398,699.188232,-661.010742,4.117828
132.202148,699.920654,-663.848877,4.118569
128.356934,679.870605,-663.665771,4.11931
119.384766,694.061279,-668.518066,4.120051
122.589111,698.455811,-670.440674,4.1208
126.617432,708.984375,-668.151855,4.121542
129.547119,703.948975,-663.391113,4.122283
117.279053,709.075928,-670.623779,4.123024
119.110107,705.963135,-671.264648,4.123771
124.237061,710.723877,-664.031982,4.124513
126.434326,709.899902,-667.144775,4.125254
124.87793,716.033936,-674.102783,4.125995
119.20166,713.195801,-669.250488,4.126736
119.384766,724.731445,-662.841797,4.127476
127.349854,723.358154,-660.827637,4.128217
123.504639,728.027344,-668.060303,4.12904
124.969482,726.654053,-667.053223,4.129777
131.286621,726.287842,-662.29248,4.130508
124.328613,720.336914,-668.151855,4.131239
126.434326,723.815918,-669.525146,4.131969
125.152588,719.87915,-666.870117,4.132706
123.87085,718.87207,-668.792725,4.133447
119.20166,726.5625,-670.623779,4.134188
126.800537,724.456787,-670.98999,4.13493
124.420166,721.801758,-669.342041,4.13567
121.307373,723.907471,-667.785645,4.136411
121.307373,707.794189,-663.482666,4.137152
130.187988,722.076416,-664.398193,4.137893
129.638672,715.484619,-664.672852,4.138634
128.997803,716.85791,-661.834717,4.139375
124.420166,712.097168,-669.616699,4.140115
127.716064,718.505859,-667.053223,4.140882
127.532959,716.308594,-659.545898,4.141619
126.800537,718.048096,-664.215088,4.142349
121.856689,718.231201,-674.194336,4.143079
128.448486,711.456299,-668.426514,4.143809
118.927002,711.547852,-667.053223,4.144549
124.328613,712.463379,-668.792725,4.145291
118.19458,707.702637,-670.349121,4.146031
120.391846,708.1604,-675.567627,4.146771
121.124268,708.618164,-670.532227,4.147505
118.377686,711.364746,-666.870117,4.148236
114.074707,713.378906,-663.757324,4.148967
120.574951,714.019775,-664.581299,4.149697
114.440918,713.470459,-667.327881,4.150437
116.363525,709.075928,-676.940918,4.151191
112.1521,709.350586,-670.623779,4.151938
110.137939,713.562012,-666.412354,4.152696
113.250732,712.554932,-672.088623,4.153441
106.018066,714.935303,-663.665771,4.154182
113.067627,705.047607,-669.433594,4.154922
117.553711,708.251953,-667.96875,4.155685
115.722656,709.625244,-666.229248,4.156466
113.433838,700.927734,-675.292969,4.157224
