ACC_X,ACC_Y,ACC_Z,Time
-166.809082,784.790039,599.67041,0.903257
-177.612305,786.621094,603.149414,0.904002
-170.74585,790.740967,608.093262,0.904746
-174.133301,784.606934,602.69165,0.90549
-178.894043,786.071777,609.832764,0.906224
-177.978516,787.628174,605.987549,0.906959
-175.323486,792.297363,604.064941,0.907693
-171.75293,788.452148,597.106934,0.908457
-173.492432,782.226562,593.261719,0.909203
-184.47876,781.402588,596.374512,0.909947
-173.950195,786.529541,589.691162,0.910693
-182.4646,784.332275,587.493896,0.911451
-175.872803,788.17749,595.367432,0.912196
-180.633545,788.452148,588.317871,0.91294
-179.168701,789.001465,582.000732,0.913798
-177.703857,792.480469,589.782715,0.914547
-175.964355,790.466309,585.754395,0.915282
-170.654297,787.719727,593.902588,0.916016
-174.865723,783.233643,589.050293,0.916751
-172.576904,791.290283,594.360352,0.917507
-174.865723,788.269043,595.092773,0.918252
-178.436279,797.88208,593.719482,0.918997
-165.710449,794.128418,608.001709,0.919741
-175.506592,794.494629,603.33252,0.920494
-172.485352,790.83252,595.092773,0.921239
-179.351807,799.89624,600.860596,0.921983
-171.936035,801.361084,603.149414,0.922727
-174.407959,795.959473,605.621338,0.923481
-173.126221,796.691895,595.367432,0.924226
-163.787842,799.89624,603.424072,0.924995
-169.647217,795.318604,603.424072,0.925785
-165.161133,804.473877,593.811035,0.926544
-165.252686,798.065186,597.930908,0.927288
-166.992188,794.494629,602.783203,0.928033
-160.583496,797.332764,599.761963,0.928777
-155.639648,805.755615,596.64917,0.92962
-157.470703,809.326172,597.930908,0.930365
-155.548096,807.403564,602.966309,0.93116
-149.32251,805.206299,606.445312,0.931917
-149.871826,810.241699,613.677979,0.932662
-151.245117,810.516357,609.466553,0.933406
-151.062012,803.55835,612.579346,0.93415
-150.146484,805.480957,613.128662,0.934895
-147.766113,805.755615,618.164062,0.93564
-149.871826,810.974121,613.952637,0.936385
-146.30127,806.762695,605.712891,0.937129
-118.927002,808.685303,614.318848,0.937874
-140.258789,808.227539,610.38208,0.938618
-142.456055,806.304932,613.220215,0.939363
-138.702393,806.213379,609.100342,0.940107
-141.174316,807.58667,608.642578,0.940859
-140.441895,807.037354,608.276367,0.941604
-136.962891,810.699463,606.903076,0.942349
-140.808105,801.361084,616.241455,0.943093
-131.011963,806.396484,612.030029,0.943837
-131.652832,809.783936,621.185303,0.944591
-135.772705,806.762695,619.537354,0.945336
-129.638672,802.001953,615.234375,0.94608
-127.990723,811.798096,614.4104,0.946825
-121.032715,816.558838,615.325928,0.947579
-115.722656,802.55127,615.325928,0.948324
-117.279053,811.248779,617.797852,0.949069
-120.025635,804.473877,626.861572,0.949813
-124.969482,805.755615,614.135742,0.950564
-124.237061,808.410645,618.804932,0.951305
-119.659424,808.410645,616.333008,0.952047
-123.046875,801.727295,612.670898,0.952833
-121.398926,806.57959,604.248047,0.953579
-123.962402,799.530029,607.543945,0.954314
-118.011475,795.593262,605.163574,0.955048
-119.110107,800.537109,606.903076,0.955786
-116.546631,795.410156,602.783203,0.956529
-120.849609,799.163818,601.043701,0.957272
-114.532471,797.607422,600.311279,0.958015
-111.14502,803.466797,608.734131,0.958758
-114.715576,800.262451,606.903076,0.959501
-107.940674,791.473389,606.811523,0.960244
-111.053467,798.797607,614.868164,0.960987
-106.384277,792.663574,609.649658,0.961731
-112.518311,797.332764,620.910645,0.962487
-118.103027,793.487549,618.988037,0.963292
-110.321045,790.466309,619.903564,0.964132
-110.50415,816.467285,618.255615,0.964922
-113.342285,788.635254,624.11499,0.965711
-108.764648,793.395996,628.509521,0.966464
-110.321045,788.543701,622.558594,0.967208
-113.15918,786.071777,618.530273,0.967974
-102.539062,794.952393,624.572754,0.968718
-114.807129,790.374756,622.283936,0.969461
-105.377197,790.100098,616.699219,0.970204
-101.44043,797.332764,612.854004,0.970956
-108.581543,791.290283,611.663818,0.971699
-109.954834,789.001465,619.903564,0.972441
-111.785889,791.107178,617.340088,0.973183
-112.609863,794.219971,616.699219,0.973936
-114.074707,794.219971,625.12207,0.974679
-113.891602,794.403076,621.185303,0.975421
-114.074707,788.360596,630.340576,0.976165
-110.412598,800.445557,625.488281,0.976916
-119.018555,804.199219,628.234863,0.977672
-121.490479,809.143066,651.855469,0.97842
-121.307373,799.804688,636.566162,0.979165
-119.110107,798.431396,623.10791,0.979922
-124.053955,797.332764,636.291504,0.980667
-126.159668,801.086426,635.192871,0.981411
-121.673584,812.164307,635.375977,0.982156
-126.159668,804.931641,637.8479,0.982909
-126.251221,798.065186,631.80542,0.983654
-136.322021,794.677734,634.094238,0.984398
-136.688232,801.361084,634.368896,0.985145
-135.314941,796.600342,614.593506,0.985901
-142.913818,800.170898,628.143311,0.986645
-139.892578,800.90332,632.537842,0.98739
-140.808105,796.508789,634.002686,0.988162
-145.568848,786.346436,624.298096,0.989066
-143.64624,795.043945,621.643066,0.989816
-145.385742,786.895752,623.748779,0.99056
-140.167236,787.536621,623.291016,0.991302
-144.287109,787.17041,610.198975,0.992036
-145.019531,785.614014,609.924316,0.992771
-146.209717,784.515381,618.438721,0.993505
-142.089844,782.958984,604.980469,0.994242
-143.188477,785.430908,603.973389,0.994986
-163.970947,781.585693,608.276367,0.995728
-152.801514,773.986816,602.325439,0.996471
-150.32959,768.951416,601.409912,0.997214
-150.970459,762.908936,601.409912,0.997971
-148.773193,778.106689,607.086182,0.998714
-147.30835,766.387939,598.114014,0.999456
-152.160645,761.169434,603.973389,1.000199
-155.181885,764.73999,599.029541,1.000953
-155.456543,762.542725,589.782715,1.001785
-146.484375,756.408691,587.860107,1.002528
-155.36499,750.732422,594.63501,1.003271
-146.484375,731.689453,584.197998,1.004029
-148.040771,740.386963,587.768555,1.00477
-145.202637,748.99292,584.472656,1.00558
-143.554688,743.774414,587.036133,1.006342
-146.118164,747.619629,577.056885,1.007077
-150.146484,739.654541,570.007324,1.00781
-143.005371,749.908447,572.753906,1.008543
-141.174316,746.429443,576.507568,1.009288
-141.082764,740.936279,575.683594,1.010021
-139.526367,740.936279,569.549561,1.010755
-136.505127,743.95752,575.775146,1.011488
-138.244629,734.436035,576.23291,1.012232
-144.927979,734.436035,566.253662,1.012965
-137.786865,736.450195,566.436768,1.013698
-135.498047,732.330322,568.634033,1.014432
-130.096436,735.809326,568.817139,1.015174
-133.483887,739.105225,569.458008,1.015919
-131.103516,737.365723,565.338135,1.016663
-137.878418,738.739014,576.324463,1.017407
-134.124756,742.126465,573.760986,1.018152
-125.793457,750.274658,578.796387,1.018896
-124.420166,739.562988,578.063965,1.01964
-137.329102,745.513916,578.887939,1.020384
-133.850098,742.401123,583.374023,1.021138
-135.955811,765.197754,587.677002,1.021882
-123.779297,755.767822,590.423584,1.022632
-130.92041,757.232666,589.599609,1.023385
-133.209229,762.634277,598.846436,1.024148
-130.554199,754.943848,600.585938,1.024901
-128.723145,753.112793,603.057861,1.025646
-133.94165,759.887695,600.67749,1.02639
-136.413574,758.422852,600.494385,1.027146
-123.046875,761.71875,609.283447,1.02789
-129.272461,754.394531,598.022461,1.028635
-132.476807,751.190186,595.184326,1.029378
-132.202148,756.866455,591.97998,1.030123
-126.159668,749.633789,593.719482,1.030885
-125.976562,753.112793,593.444824,1.031644
-133.300781,749.176025,592.437744,1.032388
-129.272461,752.105713,592.529297,1.033144
-135.772705,750.457764,587.219238,1.033888
-132.293701,751.281738,590.148926,1.034632
-133.117676,749.267578,589.691162,1.035376
-127.716064,746.97876,585.113525,1.03613
-127.807617,749.816895,588.775635,1.036875
-130.92041,753.479004,594.360352,1.037619
-130.828857,749.176025,591.97998,1.038363
-138.427734,739.013672,586.212158,1.039109
-136.138916,746.520996,592.712402,1.039937
-134.857178,741.30249,600.67749,1.040714
-136.688232,743.499756,589.324951,1.041468
-143.280029,741.760254,590.332031,1.042237
-135.681152,738.098145,589.508057,1.042982
-139.343262,740.753174,584.014893,1.043727
-133.94165,738.006592,586.029053,1.044471
-134.765625,734.25293,586.395264,1.045225
-141.63208,730.682373,585.571289,1.045969
-132.202148,735.626221,576.416016,1.046713
-131.835938,736.175537,572.479248,1.047456
-130.554199,733.337402,571.929932,1.048211
-130.004883,736.816406,565.52124,1.049014
-134.674072,739.013672,570.739746,1.049748
-135.681152,734.802246,561.218262,1.050482
-128.356934,740.753174,565.979004,1.051242
-138.519287,739.471436,562.042236,1.051986
-139.068604,735.809326,569.549561,1.052731
-142.089844,737.823486,573.028564,1.053475
-139.801025,741.210938,571.929932,1.054228
-141.63208,747.253418,575.408936,1.054973
-143.371582,749.176025,580.352783,1.055717
-131.92749,749.450684,588.684082,1.056461
-138.702393,755.126953,587.127686,1.057215
-139.526367,753.479004,594.451904,1.05796
-133.575439,764.190674,606.903076,1.058704
-128.997803,770.233154,608.459473,1.05945
-137.60376,765.197754,611.297607,1.060206
-134.94873,771.606445,617.523193,1.060951
-132.293701,772.521973,624.572754,1.061696
-134.94873,778.747559,620.910645,1.06244
-136.230469,778.839111,623.657227,1.063203
-140.899658,776.092529,622.283936,1.06395
-148.406982,773.986816,618.347168,1.064694
-143.463135,775.543213,621.734619,1.065438
-138.61084,771.514893,625.305176,1.066196
-143.829346,767.211914,615.875244,1.06694
-145.202637,767.211914,615.875244,1.067685
-140.167236,764.648438,614.776611,1.068429
-142.456055,765.472412,609.832764,1.069173
-136.871338,773.162842,613.586426,1.069908
-140.167236,764.73999,597.473145,1.070642
-137.878418,765.655518,602.050781,1.071376
-136.322021,766.296387,602.874756,1.072131
-138.885498,766.662598,600.860596,1.072963
-139.801025,767.578125,602.142334,1.073707
-147.583008,759.979248,595.733643,1.074514
-148.223877,765.106201,592.437744,1.075275
-141.357422,767.852783,598.66333,1.07602
-148.864746,771.331787,596.832275,1.07679
-150.054932,768.218994,601.867676,1.077535
-152.34375,768.035889,599.487305,1.07828
-155.090332,767.120361,592.254639,1.079025
-149.871826,759.246826,594.268799,1.07977
-153.259277,748.077393,601.043701,1.080514
-150.32959,759.338379,592.803955,1.081275
-154.266357,751.190186,583.282471,1.08202
-156.37207,751.098633,581.268311,1.082814
-157.653809,747.619629,585.662842,1.083561
-151.153564,749.359131,584.197998,1.084306
-160.675049,750.457764,580.993652,1.08505
-153.35083,749.725342,584.472656,1.085794
-156.829834,747.894287,576.507568,1.086545
-158.569336,753.845215,578.338623,1.08729
-151.611328,745.513916,568.450928,1.088034
-151.794434,745.788574,570.556641,1.088778
-154.266357,740.29541,568.084717,1.089522
-158.569336,742.858887,569.091797,1.090266
-152.252197,740.112305,577.056885,1.091011
-140.258789,747.344971,559.204102,1.091815
-133.392334,749.267578,561.401367,1.09256
-138.244629,743.31665,572.20459,1.093304
-126.89209,744.689941,570.098877,1.094108
-141.540527,742.675781,573.120117,1.09486
-163.604736,742.675781,569.915771,1.095608
-154.35791,733.24585,577.056885,1.096362
-156.280518,736.175537,572.296143,1.097104
-154.35791,740.203857,570.831299,1.097838
-152.618408,743.133545,585.571289,1.098618
-161.682129,742.858887,578.613281,1.099361
-165.06958,752.838135,574.035645,1.100104
-163.879395,743.682861,574.310303,1.100847
-156.738281,750.183105,573.577881,1.1016
-148.040771,741.485596,577.697754,1.102369
-139.343262,754.486084,589.233398,1.103153
-130.096436,769.134521,595.184326,1.103908
-120.574951,766.662598,597.290039,1.104715
-115.997314,768.768311,598.388672,1.105469
-120.117188,767.852783,594.726562,1.106214
-124.145508,775.177002,605.895996,1.106959
-131.103516,768.676758,602.050781,1.107703
-137.695312,775.817871,604.431152,1.108446
-144.104004,780.853271,610.931396,1.109189
-144.65332,773.254395,612.213135,1.109953
-150.512695,778.289795,609.466553,1.110698
-157.012939,779.571533,615.325928,1.111442
-151.33667,771.240234,623.474121,1.112186
-144.104004,773.254395,623.657227,1.112931
-150.421143,772.521973,616.882324,1.113675
-139.251709,778.106689,623.10791,1.114419
-126.251221,774.261475,622.467041,1.115163
-134.857178,777.648926,616.790771,1.115907
-123.046875,772.613525,611.846924,1.116651
-120.117188,776.733398,605.255127,1.117394
-120.483398,773.162842,606.811523,1.118138
-125.427246,771.972656,591.156006,1.118882
-125.88501,770.965576,595.916748,1.119637
-128.173828,770.233154,590.423584,1.12038
-130.279541,768.493652,585.113525,1.121124
-122.2229,766.479492,590.423584,1.121868
-126.251221,769.958496,584.197998,1.122621
-96.679688,768.676758,592.712402,1.123365
-117.279053,769.317627,588.775635,1.124109
-115.447998,779.663086,599.945068,1.124853
-119.293213,774.353027,598.846436,1.125606
-110.046387,770.690918,609.649658,1.126351
-136.59668,778.4729,612.304688,1.127095
-120.941162,790.740967,617.156982,1.127836
-126.800537,784.332275,617.614746,1.128601
-129.364014,784.515381,610.107422,1.129803
-140.441895,784.606934,622.009277,1.131479
-136.413574,783.050537,626.403809,1.133132
-125.152588,788.909912,617.797852,1.134829
-114.349365,786.712646,616.882324,1.136502
-112.1521,777.099609,607.36084,1.138196
-120.20874,781.12793,596.923828,1.139868
-118.927002,777.923584,588.409424,1.141561
-127.166748,777.46582,584.838867,1.143338
-118.835449,783.233643,599.945068,1.145055
-113.342285,782.043457,614.959717,1.146748
-114.532471,782.958984,605.163574,1.14842
-130.828857,777.46582,613.128662,1.150129
-129.547119,784.973145,618.804932,1.151861
-136.59668,792.388916,615.600586,1.153554
-126.89209,787.811279,625.488281,1.155255
-121.21582,790.100098,615.325928,1.15691
-108.947754,785.430908,611.755371,1.158568
-108.673096,787.628174,611.938477,1.16022
-116.729736,787.536621,602.783203,1.161899
-111.419678,793.487549,607.818604,1.163682
-110.229492,790.466309,617.523193,1.165389
-105.651855,817.932129,631.164551,1.167069
-111.694336,801.269531,646.728516,1.168874
-117.095947,805.389404,646.54541,1.170634
-139.251709,813.537598,649.017334,1.172308
-141.082764,809.692383,648.742676,1.174114
-128.540039,808.502197,641.967773,1.175866
-128.631592,799.621582,627.319336,1.177658
-130.828857,788.360596,597.473145,1.179428
-134.124756,771.606445,578.430176,1.181283
-125.244141,764.190674,559.844971,1.183074
-128.631592,741.210938,552.703857,1.184779
-121.398926,740.570068,546.844482,1.18648
-127.166748,744.506836,541.351318,1.188297
-128.356934,741.760254,536.315918,1.189994
-132.659912,743.133545,539.337158,1.191799
-123.138428,759.063721,549.77417,1.193584
-112.1521,776.000977,561.49292,1.195284
-113.342285,796.508789,598.937988,1.197197
-120.300293,808.135986,621.734619,1.198956
-135.314941,806.854248,633.178711,1.200735
-135.040283,827.728271,646.911621,1.202453
-137.420654,831.848145,658.26416,1.204075
-127.258301,828.826904,662.841797,1.204832
-113.891602,835.784912,656.341553,1.205577
-107.574463,831.573486,659.27124,1.206321
-105.377197,837.341309,662.384033,1.207066
-98.052979,831.390381,655.975342,1.207821
-105.194092,830.383301,658.081055,1.208565
-103.45459,823.883057,658.905029,1.209309
-111.968994,822.143555,648.651123,1.210053
-118.652344,821.502686,642.700195,1.210811
-118.011475,810.882568,634.277344,1.211555
-118.652344,801.269531,620.08667,1.212299
-113.342285,801.361084,612.39624,1.213043
-116.088867,787.628174,599.761963,1.213798
-104.187012,782.867432,596.099854,1.214542
-98.144531,785.980225,587.860107,1.215286
-101.165771,777.282715,585.113525,1.216059
-83.587646,772.064209,563.781738,1.216815
-81.848145,768.493652,574.493408,1.21756
-85.327148,751.647949,567.810059,1.218305
-86.700439,739.28833,574.584961,1.219049
-92.74292,745.239258,562.042236,1.219804
-101.531982,745.239258,560.668945,1.220548
-113.708496,737.640381,561.950684,1.221292
-113.891602,739.654541,554.626465,1.222037
-103.729248,736.724854,542.541504,1.222781
-98.419189,743.133545,537.506104,1.223515
-93.017578,735.809326,545.654297,1.224249
-93.292236,732.879639,544.647217,1.224984
-87.615967,725.280762,538.604736,1.22574
-66.101074,727.56958,530.456543,1.226482
-65.643311,719.604492,528.533936,1.227225
-63.079834,718.505859,530.181885,1.227968
-70.3125,710.998535,522.033691,1.228724
-73.974609,714.019775,506.011963,1.229468
-72.692871,715.576172,504.730225,1.230211
-77.819824,719.696045,504.730225,1.230954
-82.305908,714.111328,501.708984,1.231697
-85.235596,713.287354,495.025635,1.232439
-77.545166,720.703125,491.546631,1.233182
-73.425293,727.935791,488.342285,1.233925
-72.418213,729.309082,484.771729,1.234668
-64.819336,730.224609,477.081299,1.235415
-73.425293,732.055664,475.982666,1.236198
-69.396973,735.900879,488.15918,1.236941
-66.467285,740.844727,491.271973,1.237695
-57.220459,748.077393,497.589111,1.238438
-54.382324,751.464844,509.94873,1.239181
-35.888672,757.598877,512.786865,1.239924
-34.606934,769.40918,531.555176,1.240667
-32.13501,768.768311,542.08374,1.24141
-51.086426,768.676758,550.506592,1.242153
-52.825928,780.853271,565.887451,1.242896
-59.783936,783.874512,570.922852,1.24365
-91.918945,788.635254,583.190918,1.244394
-100.43335,794.677734,581.359863,1.245137
-118.011475,801.452637,583.282471,1.24588
-129.821777,794.586182,595.733643,1.246623
-155.914307,790.374756,590.423584,1.247366
-162.689209,797.973633,596.832275,1.248109
-160.583496,803.741455,584.747314,1.248852
-145.385742,801.452637,582.641602,1.249596
-133.575439,801.086426,572.20459,1.250339
-114.074707,798.614502,557.922363,1.251082
-102.905273,790.374756,540.527344,1.251825
-90.545654,773.620605,514.343262,1.252568
-69.488525,767.39502,509.857178,1.253311
-54.656982,768.859863,507.202148,1.254054
-30.12085,763.366699,497.2229,1.25481
-53.466797,759.979248,484.680176,1.255561
-69.946289,744.9646,482.48291,1.256358
-71.594238,734.710693,473.693848,1.257109
-84.320068,722.717285,471.221924,1.257852
-94.116211,725.280762,459.411621,1.258713
-91.278076,720.977783,447.875977,1.259457
-117.553711,697.174072,441.925049,1.260199
-121.032715,694.42749,433.776855,1.260942
-123.962402,683.898926,429.656982,1.261784
-118.835449,673.461914,424.163818,1.262542
-120.117188,672.180176,422.424316,1.263345
-117.645264,667.144775,422.607422,1.264121
-140.167236,665.496826,420.135498,1.264865
-132.019043,665.222168,412.994385,1.265609
-125.88501,672.088623,412.17041,1.266352
-131.195068,691.223145,408.966064,1.267096
-124.328613,682.891846,398.071289,1.267858
-134.399414,694.335938,393.676758,1.26865
-134.307861,697.906494,379.486084,1.269394
-147.033691,706.14624,384.887695,1.270139
-150.695801,695.892334,371.887207,1.270883
-148.406982,702.941895,398.345947,1.271627
-163.513184,688.201904,376.00708,1.272371
-169.281006,669.250488,350.097656,1.273122
-169.647217,655.426025,343.688965,1.273866
-168.914795,610.015869,365.112305,1.274611
-165.252686,605.529785,367.401123,1.275355
-162.506104,664.581299,341.674805,1.2761
-190.429688,692.871094,322.08252,1.276844
-190.338135,670.715332,352.111816,1.277588
-156.555176,634.918213,391.479492,1.278332
-191.070557,629.058838,392.303467,1.279077
-227.600098,659.179688,382.69043,1.27982
-218.811035,681.060791,406.494141,1.280564
-201.141357,681.976318,420.135498,1.281308
-158.935547,707.061768,453.552246,1.282063
-129.547119,711.364746,480.743408,1.282809
-105.46875,738.555908,499.145508,1.283552
-114.440918,754.943848,516.174316,1.284286
-91.003418,766.113281,528.900146,1.28502
-55.297852,751.647949,560.394287,1.285778
-41.381836,771.42334,582.824707,1.286522
-19.500732,780.395508,588.775635,1.287266
-21.42334,811.981201,615.41748,1.28801
-36.712646,824.523926,612.487793,1.288754
-45.776367,849.334717,631.072998,1.289488
-55.389404,859.588623,634.460449,1.290222
-55.389404,855.926514,667.96875,1.290956
-58.319092,865.17334,688.934326,1.291719
-63.537598,869.20166,692.779541,1.292462
-68.572998,870.20874,714.84375,1.293205
-63.079834,886.688232,727.478027,1.293948
-61.431885,900.146484,739.379883,1.294699
-67.108154,907.012939,742.584229,1.295443
-53.375244,916.259766,751.00708,1.29619
-48.431396,910.583496,766.387939,1.296933
-47.332764,909.393311,792.114258,1.297689
-47.515869,926.422119,793.762207,1.298432
-48.248291,918.914795,797.515869,1.299175
-39.459229,930.633545,800.994873,1.299918
-41.748047,934.936523,797.241211,1.300669
-38.452148,931.82373,801.177979,1.301411
-29.754639,963.684082,787.353516,1.302165
-16.937256,984.558105,770.690918,1.302902
-30.761719,973.66333,774.993896,1.303738
-13.824463,966.61377,786.804199,1.304554
-9.063721,968.078613,785.980225,1.305289
-38.085938,960.662842,796.325684,1.306033
-49.163818,944.274902,806.030273,1.306768
-36.987305,944.824219,807.58667,1.307552
-39.550781,949.21875,801.452637,1.308289
-33.508301,946.746826,793.121338,1.309024
-56.488037,949.584961,788.818359,1.309837
-79.559326,948.120117,798.522949,1.310571
-55.664062,957.91626,791.015625,1.311304
-55.938721,953.521729,785.614014,1.312072
-90.637207,956.817627,789.18457,1.312816
-85.876465,966.61377,784.606934,1.313561
-69.30542,968.444824,768.951416,1.314305
-77.728271,952.514648,738.006592,1.315061
-99.334717,948.669434,729.766846,1.315805
-106.567383,921.112061,710.723877,1.316549
-139.892578,905.090332,671.081543,1.317293
-210.021973,886.138916,667.327881,1.318047
-210.754395,879.089355,636.016846,1.318792
-208.190918,873.962402,621.734619,1.319536
-257.263184,857.849121,611.572266,1.320302
-253.967285,849.609375,609.283447,1.321058
-223.754883,852.996826,596.923828,1.321802
-248.016357,848.693848,581.542969,1.322546
-249.11499,847.869873,573.028564,1.32329
-214.233398,851.257324,561.859131,1.324044
-226.043701,842.468262,554.992676,1.324789
-224.395752,849.151611,560.852051,1.325533
-199.676514,846.221924,545.562744,1.326277
-204.89502,833.03833,536.865234,1.327032
-201.507568,814.178467,531.829834,1.327776
-203.063965,821.31958,523.864746,1.32852
-188.690186,812.347412,518.64624,1.329264
-195.648193,829.101562,521.026611,1.330018
-186.676025,824.615479,503.814697,1.330764
-185.211182,824.890137,497.406006,1.331596
-182.4646,795.501709,482.025146,1.332423
-215.515137,780.944824,499.603271,1.333187
-197.937012,784.698486,509.399414,1.333931
-184.204102,770.324707,503.723145,1.334676
-184.753418,756.317139,518.096924,1.33542
-161.499023,758.056641,526.245117,1.336175
-151.611328,756.500244,526.977539,1.336919
-140.899658,755.493164,554.718018,1.337663
-144.378662,774.169922,553.619385,1.338407
-126.89209,783.050537,560.852051,1.339162
-121.490479,767.852783,561.767578,1.339906
-122.039795,777.557373,572.753906,1.34065
-124.87793,775.909424,577.606201,1.341394
-124.237061,765.380859,591.339111,1.342147
-140.716553,758.880615,608.093262,1.342891
-132.93457,752.01416,615.05127,1.343636
-122.497559,747.98584,634.735107,1.34438
-118.927002,748.809814,653.137207,1.345134
-106.933594,740.020752,654.968262,1.345878
-86.975098,752.380371,655.792236,1.346623
-55.938721,751.831055,668.518066,1.347367
-23.4375,766.387939,690.673828,1.348121
-23.071289,763.183594,698.0896,1.348865
-25.45166,767.211914,705.047607,1.349609
-22.338867,785.980225,715.393066,1.350353
2.563477,794.952393,726.745605,1.351109
8.331299,812.072754,729.675293,1.351865
6.68335,824.523926,735.900879,1.352654
-14.099121,812.255859,742.218018,1.353408
-24.078369,811.340332,741.027832,1.354179
-23.071289,817.749023,732.23877,1.354923
-29.937744,810.516357,734.344482,1.355667
-39.367676,807.678223,733.978271,1.356411
-37.445068,798.614502,709.259033,1.357167
-26.367188,795.684814,683.258057,1.357946
-21.057129,783.325195,670.166016,1.358696
-16.571045,779.754639,647.460938,1.35944
-22.796631,771.42334,630.889893,1.360203
-28.289795,776.367188,603.149414,1.360947
-42.572021,764.190674,584.838867,1.361692
-50.994873,771.148682,547.668457,1.362487
-62.530518,755.859375,528.625488,1.363343
-69.854736,760.437012,492.553711,1.364114
-59.326172,772.521973,493.743896,1.364895
-52.276611,774.536133,467.468262,1.365662
-51.727295,773.345947,449.707031,1.366414
-53.466797,756.500244,447.418213,1.367157
-41.290283,736.175537,438.537598,1.3679
-31.219482,732.055664,407.318115,1.368661
-34.240723,718.688965,413.360596,1.369407
-31.951904,715.301514,388.549805,1.370151
-21.057129,720.88623,380.126953,1.370895
-16.845703,714.569092,366.394043,1.37165
-11.260986,706.878662,350.55542,1.372394
-6.04248,701.385498,349.54834,1.373138
-16.845703,695.709229,330.780029,1.373882
3.387451,682.891846,329.13208,1.374635
12.451172,674.835205,296.722412,1.375379
9.796143,664.489746,289.123535,1.376124
16.296387,677.67334,278.411865,1.376867
22.705078,679.412842,273.651123,1.377622
19.592285,675.476074,269.073486,1.378366
18.768311,690.765381,251.220703,1.379111
30.395508,707.885742,242.431641,1.379855
51.544189,727.111816,243.988037,1.380609
55.847168,736.999512,240.234375,1.381353
63.903809,725.646973,238.586426,1.382093
61.523438,713.104248,234.741211,1.382827
51.727295,706.14624,241.699219,1.383584
11.810303,693.237305,248.474121,1.384328
-0.640869,695.800781,263.214111,1.385072
-10.437012,695.343018,265.411377,1.385817
-28.564453,704.406738,249.11499,1.386579
-33.966064,723.449707,223.297119,1.387322
-52.825928,724.731445,223.66333,1.388066
-57.403564,743.865967,230.438232,1.388809
-49.987793,743.225098,230.163574,1.389553
-35.705566,771.240234,242.340088,1.390287
-26.733398,777.282715,229.3396,1.391022
-23.071289,797.332764,227.325439,1.391756
-4.119873,816.741943,234.649658,1.392566
-10.345459,821.411133,242.797852,1.393311
-41.564941,852.905273,235.656738,1.394125
-127.89917,839.080811,263.48877,1.394869
-154.541016,842.285156,293.243408,1.395626
-93.566895,852.813721,305.511475,1.396369
-45.86792,877.990723,316.40625,1.397111
-51.177979,882.019043,355.499268,1.397853
-104.187012,1000.762939,385.528564,1.39861
-134.58252,1062.744141,428.192139,1.399353
-83.496094,1020.263672,440.551758,1.400096
-130.004883,941.436768,474.884033,1.400871
-163.879395,909.210205,498.596191,1.401624
-195.19043,937.133789,504.364014,1.402367
-147.766113,1026.306152,529.266357,1.403119
-106.384277,1032.806396,543.548584,1.403863
-85.144043,1021.728516,564.788818,1.404713
-163.238525,971.374512,577.606201,1.405457
-168.182373,961.395264,588.684082,1.4062
-161.865234,949.951172,586.486816,1.406943
-128.265381,958.190918,604.431152,1.407695
-127.532959,953.613281,599.395752,1.408453
-165.527344,920.471191,609.649658,1.409208
-164.337158,885.5896,607.36084,1.409951
21.42334,829.193115,633.361816,1.410704
19.683838,871.398926,804.656982,1.411446
52.825928,839.813232,848.144531,1.412189
248.291016,950.134277,823.33374,1.412932
139.160156,1018.157959,798.065186,1.413685
105.834961,1053.955078,787.994385,1.414428
62.62207,1072.540283,769.317627,1.415241
94.482422,1050.109863,737.640381,1.415985
142.547607,1028.594971,718.231201,1.416741
24.536133,951.690674,679.138184,1.417483
104.553223,927.246094,620.452881,1.418226
-40.374756,865.814209,577.697754,1.418968
-129.547119,861.877441,497.589111,1.419721
-77.453613,849.884033,462.341309,1.420464
-208.831787,833.03833,402.191162,1.421207
-211.120605,835.601807,342.041016,1.421949
-149.230957,839.904785,311.462402,1.4227
-124.328613,811.798096,248.748779,1.423441
-117.553711,766.113281,192.077637,1.424225
-22.064209,722.351074,147.583008,1.42506
-24.719238,696.350098,92.010498,1.42581
-10.894775,685.546875,64.178467,1.426552
1.00708,667.327881,38.269043,1.427377
-17.211914,677.215576,1.739502,1.428139
-2.563477,676.757812,-13.458252,1.428881
8.331299,669.891357,-63.903809,1.429624
3.936768,672.088623,-88.897705,1.430367
2.746582,638.305664,-97.686768,1.43113
33.416748,628.692627,-112.060547,1.431873
36.895752,610.107422,-130.92041,1.432615
35.430908,613.220215,-144.561768,1.433357
70.953369,604.522705,-142.730713,1.434111
68.481445,597.564697,-138.977051,1.434853
98.236084,596.374512,-118.377686,1.435595
125.88501,590.789795,-108.032227,1.436337
159.393311,625.579834,-47.515869,1.437124
219.360352,682.983398,-48.431396,1.437886
238.769531,691.40625,-46.783447,1.438644
246.917725,649.56665,-6.866455,1.439477
234.375,649.017334,38.085938,1.440223
192.260742,628.326416,50.354004,1.440966
205.078125,632.354736,60.058594,1.44171
179.168701,604.431152,38.818359,1.442499
123.046875,552.886963,21.057129,1.443241
94.482422,-201.965332,687.652588,1.443983
-1142.39502,306.793213,1107.788086,1.444725
254.241943,756.225586,743.133545,1.445477
925.598145,859.863281,580.352783,1.44622
516.723633,798.065186,607.086182,1.446963
-227.233887,730.682373,723.724365,1.447706
-254.425049,789.18457,419.128418,1.448528
157.104492,884.033203,332.519531,1.449272
67.932129,822.143555,325.836182,1.450012
903.717041,748.809814,338.83667,1.450765
604.614258,738.922119,391.479492,1.451528
349.182129,777.557373,430.938721,1.452262
418.304443,805.755615,300.476074,1.452996
470.306396,776.092529,202.23999,1.453729
445.770264,741.760254,-36.804199,1.454473
427.093506,683.71582,-136.59668,1.455207
524.963379,592.254639,-259.643555,1.455941
559.844971,597.290039,-304.6875,1.456674
532.104492,600.494385,-396.240234,1.457408
466.552734,614.227295,-512.786865,1.458142
418.85376,608.642578,-579.803467,1.458875
490.631104,553.161621,-692.962646,1.459609
408.325195,556.915283,-750.549316,1.460356
50.720215,538.330078,-874.603271,1.4611
-101.348877,558.380127,-890.533447,1.461843
-516.815186,602.600098,-729.675293,1.462587
9.246826,689.483643,-574.035645,1.463331
1108.062744,727.661133,-597.198486,1.464074
793.487549,789.001465,-663.757324,1.464817
441.925049,801.635742,-732.513428,1.465561
107.666016,782.226562,-793.121338,1.466302
272.55249,1072.44873,-824.615479,1.467036
940.429688,760.162354,-424.163818,1.467771
-613.311768,857.666016,-261.84082,1.468505
-873.504639,683.532715,-358.795166,1.469244
-48.339844,857.299805,-353.302002,1.469987
582.824707,1076.477051,-448.242188,1.47073
1224.79248,1068.42041,-521.209717,1.471473
1242.095947,1345.64209,-687.194824,1.472216
1817.687988,1204.284668,9.246826,1.472959
-1007.263184,944.641113,132.293701,1.473701
-267.791748,1032.440186,-39.916992,1.474521
922.210693,1148.620605,-316.955566,1.475265
2029.632568,1346.099854,-406.311035,1.476008
958.374023,1286.224365,-623.016357,1.47675
-379.486084,1377.319336,-61.248779,1.477588
-1342.712402,1078.491211,-15.655518,1.478327
933.837891,1177.55127,-120.941162,1.479128
2246.063232,1442.138672,-289.215088,1.479929
1538.085938,1347.015381,-396.789551,1.480675
106.384277,1277.252197,-396.331787,1.481432
287.109375,1332.824707,-171.020508,1.482176
366.30249,1247.680664,34.14917,1.482919
-121.21582,1206.848145,172.851562,1.483663
-399.44458,1188.812256,-113.342285,1.484418
471.588135,1254.730225,-275.024414,1.485163
1910.888672,1299.224854,-23.620605,1.485907
1824.09668,1361.663818,54.016113,1.486651
-1910.247803,1078.582764,301.208496,1.487405
-2754.91333,1117.858887,184.570312,1.48815
-2371.948242,1138.73291,104.736328,1.488894
-345.062256,1426.116943,-132.843018,1.489638
2999.908447,1800.65918,-35.980225,1.490391
2999.908447,1304.077148,95.214844,1.491136
1861.816406,1198.33374,-193.084717,1.491879
-957.550049,1274.963379,-13.275146,1.492624
-1953.186035,1187.347412,105.285645,1.493378
-2492.797852,1223.968506,-68.29834,1.494176
-2436.584473,1141.937256,-163.238525,1.494921
-1577.453613,1181.030273,-491.821289,1.495665
-852.722168,1324.676514,-699.645996,1.49642
1588.439941,962.860107,-296.539307,1.497167
2999.908447,1694.091797,-280.792236,1.497926
2999.908447,1826.751709,-332.061768,1.498687
1422.912598,1298.583984,-262.939453,1.499506
-1599.609375,1387.664795,15.380859,1.500255
-1756.530762,1422.363281,-179.626465,1.500999
-1640.991211,1426.757812,-310.272217,1.501744
-1230.194092,1370.727539,-387.176514,1.502499
-1080.871582,1418.151855,-389.190674,1.503243
-288.208008,1359.100342,-172.576904,1.503987
-521.484375,1070.251465,344.238281,1.504731
732.421875,1263.427734,220.733643,1.505486
1939.910889,1550.628662,-157.470703,1.506298
1673.858643,1442.779541,-181.182861,1.507045
-206.726074,1328.979492,-168.823242,1.507789
-1007.263184,1406.616211,-250.488281,1.508549
-1184.60083,1317.718506,31.402588,1.509294
-1303.710938,1126.00708,118.469238,1.510038
-580.078125,1164.367676,24.353027,1.510782
915.893555,1227.905273,-117.370605,1.511536
1162.902832,1346.374512,-336.090088,1.512311
296.081543,1422.637939,-335.540771,1.51309
-297.912598,1581.115723,-332.794189,1.513847
-344.512939,1543.121338,-128.814697,1.514648
-416.290283,1496.97876,-75.256348,1.515399
-860.321045,1365.05127,-38.17749,1.516143
-1218.383789,1302.520752,46.783447,1.516909
-1368.896484,1130.126953,123.687744,1.517652
42.388916,1211.700439,16.75415,1.518396
163.970947,1374.572754,-116.18042,1.519139
2050.506592,1492.767334,-89.630127,1.519893
1280.273438,1395.996094,-658.355713,1.520638
-585.571289,1350.860596,-764.190674,1.521382
-241.149902,1247.039795,-398.895264,1.522126
-57.037354,1220.947266,-117.645264,1.522879
-646.728516,1337.860107,-141.998291,1.523623
-808.59375,1358.642578,-246.917725,1.524367
-713.83667,1335.845947,-317.871094,1.525111
-236.480713,1299.499512,-418.762207,1.525855
-65.917969,1276.519775,-510.5896,1.526598
113.708496,1211.242676,-580.535889,1.527342
42.84668,1065.216064,-756.68335,1.528085
-234.741211,1011.016846,-813.720703,1.528829
-318.145752,1180.938721,-669.616699,1.52959
-266.601562,1396.728516,-531.005859,1.530336
-191.711426,1417.602539,-478.45459,1.531081
-204.071045,1302.978516,-463.348389,1.531839
-149.505615,1240.081787,-510.314941,1.532583
24.078369,1129.119873,-649.658203,1.533327
49.621582,1054.504395,-748.168945,1.534071
102.355957,1045.898438,-776.45874,1.534826
256.80542,1132.781982,-776.275635,1.53557
285.095215,1179.016113,-759.429932,1.536314
408.14209,1319.549561,-729.125977,1.537058
-363.372803,1179.199219,-284.088135,1.537802
-1779.510498,1116.027832,-239.044189,1.538547
-1785.003662,1172.973633,-386.71875,1.539291
-1504.02832,1202.178955,-621.368408,1.540034
-546.203613,1282.196045,-714.84375,1.540773
-89.630127,1120.97168,-384.155273,1.541508
1823.181152,1174.530029,-130.645752,1.542241
2063.232422,1539.276123,-59.875488,1.542975
2188.659668,1748.565674,-274.932861,1.543797
1218.75,1458.526611,-253.875732,1.544573
744.689941,1496.246338,-230.163574,1.545341
21.881104,1381.530762,176.239014,1.546105
-1388.122559,1312.133789,196.746826,1.546979
1586.425781,2003.814697,1578.552246,1.547735
2539.215088,2999.908447,2298.797607,1.548485
2999.908447,2999.908447,2999.908447,1.549236
2999.908447,2999.908447,2999.908447,1.550062
2999.908447,2999.908447,2999.908447,1.550831
2999.908447,2999.908447,1774.200439,1.551586
1379.79126,2968.87207,-1402.770996,1.552331
-69.396973,292.419434,-3000.0,1.553099
-3000.0,-337.188721,-3000.0,1.553898
-3000.0,247.833252,-2616.210938,1.554641
-3000.0,91.918945,-204.620361,1.555384
-3000.0,277.862549,986.663818,1.556138
192.260742,687.561035,1326.049805,1.55688
1224.884033,1081.787109,189.331055,1.557623
1957.122803,1571.502686,93.200684,1.558366
1892.39502,1346.191406,225.952148,1.559118
833.953857,1186.248779,-134.216309,1.559861
-390.563965,810.791016,-863.250732,1.560603
-543.731689,641.235352,-1223.876953,1.561345
-302.947998,454.376221,-1206.665039,1.562097
-281.982422,256.896973,-961.120605,1.56284
-203.430176,301.208496,-892.547607,1.563582
-1216.369629,707.519531,-1059.631348,1.564324
-869.750977,794.494629,-696.350098,1.565075
392.39502,715.484619,-757.873535,1.565817
841.003418,804.656982,-1065.307617,1.56656
743.133545,842.285156,-985.38208,1.567302
139.984131,803.741455,-864.074707,1.568054
34.240723,789.001465,-947.296143,1.568796
-124.420166,793.487549,-1052.032471,1.569538
-221.923828,869.842529,-847.77832,1.570281
-296.264648,938.415527,-743.95752,1.571046
-183.288574,1043.884277,-633.544922,1.571796
-152.893066,1071.075439,-586.029053,1.572588
-237.945557,1135.986328,-369.506836,1.573338
-139.434814,1149.993896,-482.116699,1.574099
304.779053,1087.463379,-547.668457,1.574841
182.373047,1152.648926,-472.045898,1.575585
-667.236328,1296.112061,-74.066162,1.57632
-407.318115,1335.845947,-144.104004,1.577085
-46.417236,1287.322998,-297.088623,1.577827
425.445557,1222.320557,-571.105957,1.578569
365.570068,1172.790527,-626.495361,1.579311
103.820801,1114.013672,-377.01416,1.580064
-271.820068,1152.46582,-353.851318,1.580883
-130.554199,1067.687988,-426.544189,1.581639
-45.227051,977.325439,-551.147461,1.5824
-41.381836,989.318848,-481.750488,1.583151
-74.249268,1005.889893,-389.73999,1.583894
31.036377,1003.234863,-399.44458,1.584643
-132.202148,960.845947,-503.723145,1.585402
-160.308838,934.387207,-541.534424,1.586144
-200.042725,950.958252,-507.568359,1.586885
-73.33374,909.210205,-554.443359,1.587627
-20.599365,849.42627,-569.549561,1.588369
-153.35083,886.322021,-498.779297,1.589111
-229.797363,901.702881,-485.687256,1.589854
-213.043213,889.343262,-463.07373,1.590596
-216.97998,928.070068,-522.857666,1.591338
-162.414551,889.801025,-560.943604,1.59208
-72.784424,915.985107,-460.418701,1.592822
-104.003906,862.1521,-550.323486,1.59366
-63.446045,923.217773,-474.700928,1.594437
-72.967529,866.088867,-463.348389,1.59518
-74.066162,888.519287,-491.729736,1.595923
-99.884033,908.111572,-474.975586,1.596665
-65.734863,898.956299,-498.413086,1.597417
-53.192139,896.026611,-553.894043,1.598158
41.8396,869.384766,-499.420166,1.598898
-79.650879,849.700928,-553.161621,1.599652
-88.439941,835.05249,-535.217285,1.600411
-109.588623,872.131348,-442.016602,1.601144
-91.918945,895.6604,-453.918457,1.601878
41.107178,839.355469,-534.301758,1.602612
11.627197,815.185547,-542.907715,1.603356
-48.88916,826.904297,-493.286133,1.60409
-70.495605,878.082275,-378.204346,1.604823
-41.564941,905.36499,-399.902344,1.605557
-9.70459,882.659912,-480.560303,1.606303
-37.628174,833.862305,-598.297119,1.607036
-127.990723,814.63623,-600.128174,1.607769
-57.769775,831.207275,-490.539551,1.608503
-22.064209,865.905762,-462.615967,1.609251
15.106201,890.808105,-468.383789,1.609985
34.973145,866.546631,-446.502686,1.610718
-38.360596,860.870361,-481.109619,1.611452
-127.990723,868.560791,-462.799072,1.612206
-137.969971,871.490479,-435.60791,1.612948
-84.411621,911.956787,-435.241699,1.613759
85.418701,896.118164,-501.525879,1.614503
35.15625,884.399414,-527.34375,1.615261
-95.947266,827.728271,-516.906738,1.616018
38.360596,830.108643,-544.189453,1.616914
37.353516,839.172363,-553.070068,1.617676
-50.170898,839.72168,-538.330078,1.618418
-98.144531,850.250244,-530.548096,1.619161
-25.177002,886.59668,-588.134766,1.619903
22.521973,864.532471,-561.767578,1.620653
36.346436,865.17334,-566.070557,1.621396
19.317627,870.20874,-551.971436,1.622138
-20.599365,862.701416,-485.229492,1.622881
-14.190674,921.936035,-366.119385,1.623641
107.116699,942.352295,-339.294434,1.624385
82.489014,935.302734,-384.155273,1.625127
65.460205,828.277588,-563.323975,1.62587
-74.523926,746.429443,-739.196777,1.626613
-93.75,660.369873,-860.137939,1.627356
-50.262451,718.505859,-595.916748,1.628098
30.029297,886.413574,-494.750977,1.62884
94.390869,937.225342,-454.193115,1.629583
232.177734,932.281494,-546.478271,1.630339
221.64917,859.588623,-629.150391,1.631081
194.000244,826.538086,-689.666748,1.631824
155.548096,800.354004,-689.39209,1.632566
136.047363,782.409668,-666.778564,1.633318
148.681641,775.726318,-641.51001,1.63406
211.669922,793.212891,-596.099854,1.634803
256.347656,798.797607,-535.491943,1.635545
229.614258,823.059082,-535.675049,1.636297
210.754395,838.256836,-518.64624,1.63704
202.972412,835.418701,-499.420166,1.637783
132.385254,816.467285,-618.530273,1.638525
76.721191,785.797119,-647.369385,1.639286
60.241699,784.790039,-603.515625,1.640037
116.271973,803.192139,-535.583496,1.640844
94.940186,830.474854,-505.187988,1.641618
66.192627,832.946777,-522.033691,1.642361
68.389893,844.024658,-530.731201,1.643105
111.328125,843.383789,-562.866211,1.643848
188.323975,833.404541,-574.676514,1.6446
134.94873,809.143066,-687.927246,1.645341
127.441406,822.143555,-608.093262,1.646081
149.780273,843.933105,-493.743896,1.646872
67.565918,841.918945,-629.333496,1.647683
14.556885,812.438965,-638.671875,1.648449
-54.016113,736.450195,-827.728271,1.649238
33.782959,607.086182,-811.248779,1.649989
296.173096,546.295166,-1029.144287,1.650732
643.890381,486.053467,-1287.322998,1.651475
414.825439,351.5625,-1769.348145,1.652218
215.148926,222.473145,-1956.115723,1.652962
-30.212402,-179.168701,-2027.34375,1.65371
81.939697,-246.917725,-2082.824707,1.654491
165.618896,-28.930664,-2089.324951,1.655286
639.129639,32.775879,-2267.028809,1.656034
750.549316,-4.577637,-2601.287842,1.656779
801.818848,14.373779,-2744.934082,1.657522
1310.119629,-315.307617,-2541.96167,1.658266
-438.537598,1273.773193,-1915.374756,1.659012
-1652.893066,1140.930176,-2004.180908,1.659757
241.149902,-311.37085,-2151.580811,1.660502
-297.729492,-566.436768,-1402.038574,1.661246
-20.41626,-203.979492,-1340.240479,1.662001
825.531006,-564.880371,-1309.204102,1.662746
788.452148,-46.142578,-1632.476807,1.663489
1233.398438,-787.994385,-1331.634521,1.664233
2999.908447,-234.375,-1130.950928,1.664978
1311.309814,-1500.915527,-655.24292,1.665722
-961.486816,2999.908447,-3000.0,1.666466
1018.707275,1835.174561,-3000.0,1.66721
2433.654785,872.589111,-2080.078125,1.667954
2999.908447,1328.979492,-1895.874023,1.668698
1835.357666,855.834961,-1550.537109,1.669442
-232.818604,437.530518,-333.984375,1.670186
1913.085938,414.916992,720.062256,1.670941
785.430908,19.592285,1882.049561,1.671684
1754.516602,-48.065186,1480.865479,1.672425
1116.210938,57.769775,1165.740967,1.673159
968.353271,412.536621,323.638916,1.673908
1330.810547,482.025146,-130.645752,1.674643
986.206055,288.482666,-981.35376,1.675377
820.404053,296.630859,-1752.13623,1.676111
789.367676,498.596191,-1994.476318,1.676846
770.690918,409.14917,-2250.366211,1.677609
732.147217,412.994385,-2266.75415,1.678351
518.188477,389.007568,-2137.939453,1.679093
580.169678,193.725586,-1917.663574,1.679875
249.755859,-127.258301,-1886.077881,1.680632
70.129395,-256.896973,-1920.043945,1.681375
139.343262,-361.999512,-2039.886475,1.682117
80.749512,-463.348389,-2072.20459,1.682859
798.88916,-1154.571533,-1788.757324,1.683602
172.943115,-2709.136963,-1324.584961,1.684344
-3000.0,2223.083496,-3000.0,1.685087
-2755.187988,1821.807861,-2465.148926,1.685829
-2955.230713,-383.789062,-1111.358643,1.686579
-1397.735596,155.273438,-1628.723145,1.687407
-466.73584,1074.279785,-1670.10498,1.688201
2999.908447,434.051514,-659.545898,1.688945
-999.847412,910.858154,-1510.528564,1.689688
-1385.925293,744.598389,-1577.087402,1.69043
1665.985107,776.916504,-1193.756104,1.691227
218.62793,996.917725,-1539.459229,1.691988
-790.924072,1256.92749,-1308.563232,1.692732
-1339.324951,1513.549805,-1177.825928,1.693474
235.290527,1458.1604,-554.718018,1.694217
1346.740723,1359.100342,-357.513428,1.69496
-1732.36084,2161.468506,-420.135498,1.695702
-1853.942871,1812.37793,42.388916,1.696445
-3000.0,1605.010986,147.491455,1.697188
-2791.717529,1777.313232,111.785889,1.697931
41.931152,2093.811035,-3.387451,1.698673
1829.864502,2158.813477,-187.591553,1.699415
1152.191162,2097.473145,-39.459229,1.700157
-1271.118164,2047.576904,78.094482,1.7009
-1433.807373,2042.999268,13.000488,1.701642
491.821289,2082.91626,5.950928,1.702385
1129.943848,2095.367432,28.381348,1.703127
174.957275,2138.214111,-21.789551,1.70388
-1252.441406,2152.587891,55.480957,1.704622
-686.279297,2359.49707,211.578369,1.705365
1235.412598,2408.294678,251.77002,1.706107
934.936523,2385.406494,195.739746,1.70686
149.688721,2370.941162,19.775391,1.707603
-609.100342,2182.983398,36.895752,1.708345
-274.200439,2185.089111,500.427246,1.709087
665.95459,2442.993164,554.168701,1.709833
241.973877,2493.713379,613.220215,1.710585
-256.896973,2191.314697,305.786133,1.711346
-479.827881,2081.085205,-255.706787,1.712096
49.255371,2156.890869,-501.342773,1.71284
-41.931152,2150.390625,-483.856201,1.713583
-664.031982,2121.276855,-229.980469,1.714325
-250.12207,2167.694092,324.005127,1.715067
133.758545,2299.438477,626.220703,1.715819
208.831787,2341.644287,734.161377,1.716562
-126.434326,2238.189697,568.17627,1.717304
-437.62207,2022.033691,236.38916,1.71811
197.662354,1899.169922,-113.891602,1.718894
259.094238,1436.37085,-609.832764,1.719675
-538.879395,844.207764,-860.870361,1.720426
-735.900879,335.998535,-1386.383057,1.721168
-342.590332,168.548584,-1608.398438,1.721932
180.633545,-67.932129,-1866.30249,1.722674
106.567383,-145.843506,-1828.216553,1.723416
-287.475586,-172.393799,-1735.748291,1.724159
-146.66748,73.974609,-1343.536377,1.724915
-8.789062,267.608643,-1097.625732,1.725657
15.838623,584.014893,-681.427002,1.726399
-32.318115,693.695068,-408.966064,1.727141
71.31958,821.868896,-363.647461,1.727894
151.794434,800.537109,-441.192627,1.728637
29.937744,732.055664,-545.471191,1.729379
-394.958496,492.095947,-817.749023,1.730125
-463.348389,256.713867,-1073.272705,1.730881
-221.740723,150.238037,-1242.919922,1.731688
19.042969,112.243652,-1303.070068,1.732432
-67.382812,46.051025,-1220.123291,1.733174
-471.496582,-2.380371,-1112.915039,1.733932
-514.251709,102.44751,-922.943115,1.734673
-328.308105,161.499023,-781.860352,1.735416
87.615967,291.870117,-753.204346,1.736158
171.478271,264.404297,-811.065674,1.736911
-25.726318,197.113037,-834.320068,1.737653
-177.520752,53.283691,-910.03418,1.738396
-134.94873,14.923096,-969.268799,1.739137
12.268066,82.03125,-988.677979,1.73989
89.447021,127.166748,-937.316895,1.740632
235.931396,124.237061,-863.616943,1.741375
56.304932,171.295166,-790.008545,1.742117
-160.766602,242.156982,-735.809326,1.742868
-421.508789,265.869141,-727.111816,1.74361
-410.705566,167.633057,-699.09668,1.744352
-306.793213,111.419678,-715.484619,1.745094
-251.037598,46.966553,-820.678711,1.745838
-123.138428,55.847168,-930.81665,1.746573
204.345703,48.88916,-935.028076,1.747307
266.326904,48.339844,-937.683105,1.74806
80.566406,154.998779,-872.2229,1.748822
7.69043,198.669434,-806.396484,1.749556
150.695801,268.890381,-680.969238,1.75029
184.661865,329.864502,-719.604492,1.751023
145.019531,316.772461,-636.108398,1.751768
79.650879,197.479248,-658.996582,1.752501
-215.9729,136.505127,-708.251953,1.753235
-323.638916,163.238525,-825.531006,1.753968
-150.695801,163.513184,-871.582031,1.754724
53.009033,184.204102,-893.371582,1.755458
-38.726807,175.140381,-807.861328,1.756191
19.042969,259.002686,-796.417236,1.756924
541.07666,343.322754,-740.112305,1.757771
562.042236,345.336914,-644.897461,1.758514
111.328125,398.895264,-653.320312,1.759323
141.815186,385.345459,-753.936768,1.760066
271.362305,339.294434,-811.248779,1.76082
-8.239746,263.671875,-845.76416,1.761563
-189.51416,293.426514,-884.033203,1.762305
-3.753662,297.271729,-869.842529,1.763047
144.378662,268.249512,-792.297363,1.763843
-283.447266,349.090576,-768.585205,1.764586
-279.693604,390.106201,-766.387939,1.765329
387.634277,422.424316,-758.880615,1.766071
572.113037,425.628662,-731.5979,1.766825
219.451904,433.59375,-746.97876,1.767567
135.955811,419.586182,-800.90332,1.76831
237.121582,382.141113,-799.255371,1.769053
293.97583,406.12793,-857.757568,1.769806
213.134766,392.303467,-838.531494,1.770548
33.14209,409.698486,-799.987793,1.77129
231.628418,447.601318,-745.056152,1.772033
305.419922,476.165771,-756.225586,1.772785
54.016113,445.495605,-752.838135,1.77352
-139.892578,429.473877,-774.44458,1.774254
-103.271484,438.720703,-790.374756,1.774988
289.672852,474.517822,-805.389404,1.775744
363.922119,484.313965,-883.026123,1.776486
60.058594,242.614746,-820.861816,1.777228
-67.199707,280.151367,-659.912109,1.777971
161.04126,283.813477,-847.229004,1.778723
203.430176,446.685791,-797.241211,1.779466
87.890625,465.911865,-740.661621,1.780251
66.833496,630.432129,-791.015625,1.781012
349.914551,591.522217,-772.796631,1.781791
206.176758,438.62915,-724.731445,1.782594
-8.331299,337.646484,-754.394531,1.783354
-5.67627,382.781982,-844.299316,1.784166
376.922607,406.311035,-841.918945,1.784909
337.82959,444.122314,-844.024658,1.785651
10.345459,407.409668,-809.326172,1.786394
-43.304443,348.632812,-730.407715,1.787137
73.33374,366.668701,-731.964111,1.787959
99.151611,336.82251,-732.788086,1.788715
102.355957,329.772949,-727.478027,1.789519
172.027588,324.554443,-725.55542,1.790295
198.028564,290.588379,-754.119873,1.791039
133.209229,289.123535,-790.283203,1.791785
7.507324,280.24292,-772.521973,1.792529
68.572998,252.044678,-736.26709,1.793282
217.712402,250.488281,-721.710205,1.794026
19.500732,253.417969,-711.730957,1.794772
-109.954834,273.925781,-760.345459,1.795517
6.408691,322.814941,-771.331787,1.796273
161.956787,377.105713,-777.282715,1.797017
222.290039,391.204834,-758.148193,1.797761
65.917969,350.097656,-694.885254,1.798509
49.804688,338.012695,-707.427979,1.799263
151.702881,296.447754,-736.816406,1.800007
94.390869,283.447266,-808.044434,1.80075
23.254395,266.326904,-809.875488,1.801494
-18.951416,270.172119,-795.593262,1.802248
59.967041,288.757324,-753.570557,1.802992
254.882812,346.343994,-738.464355,1.803736
295.166016,393.035889,-717.315674,1.804479
243.255615,367.858887,-685.821533,1.805236
81.756592,326.019287,-688.38501,1.80598
11.260986,320.251465,-708.526611,1.806724
44.128418,298.00415,-703.216553,1.807467
267.333984,323.272705,-650.024414,1.808218
345.88623,405.029297,-710.083008,1.808962
290.496826,367.034912,-713.470459,1.809705
133.850098,297.729492,-782.318115,1.810449
-113.983154,272.55249,-835.968018,1.811213
-62.072754,256.530762,-882.385254,1.812024
26.824951,287.93335,-840.179443,1.812769
61.431885,293.701172,-813.720703,1.813512
21.881104,322.540283,-805.847168,1.814267
39.459229,328.125,-826.721191,1.815011
124.237061,345.88623,-834.228516,1.815755
146.66748,383.69751,-796.142578,1.816498
156.188965,391.479492,-762.542725,1.817243
164.245605,399.078369,-717.224121,1.817978
161.315918,412.078857,-736.083984,1.818712
73.242188,399.993896,-745.239258,1.819446
-31.219482,358.062744,-802.001953,1.820218
-104.919434,372.344971,-842.651367,1.820975
82.580566,389.465332,-837.524414,1.821718
188.140869,409.515381,-809.234619,1.82246
191.162109,424.346924,-787.078857,1.823214
49.713135,412.994385,-798.980713,1.823956
-1.739502,405.303955,-850.341797,1.824699
-40.740967,416.015625,-879.91333,1.825441
-57.220459,424.163818,-875.335693,1.826194
-33.874512,445.587158,-873.321533,1.826937
74.066162,468.475342,-836.425781,1.82768
101.898193,469.482422,-824.798584,1.828423
49.804688,453.369141,-816.741943,1.829175
-4.943848,438.812256,-829.376221,1.830004
1.647949,441.192627,-840.637207,1.830746
77.362061,455.566406,-861.785889,1.831489
74.157715,472.503662,-866.638184,1.832243
15.014648,477.905273,-861.877441,1.832986
-5.584717,471.221924,-850.982666,1.833728
-0.274658,462.341309,-839.538574,1.834523
41.748047,441.375732,-822.784424,1.835276
81.481934,412.17041,-801.177979,1.836018
94.299316,411.529541,-803.55835,1.836761
38.17749,425.90332,-841.918945,1.837503
-33.233643,462.982178,-891.174316,1.838256
-111.694336,455.474854,-894.470215,1.839043
22.155762,478.271484,-877.532959,1.839808
109.49707,466.094971,-828.918457,1.840555
86.05957,458.679199,-806.121826,1.841325
-18.4021,427.185059,-797.88208,1.842068
-3.479004,414.001465,-841.552734,1.842826
50.720215,426.086426,-867.828369,1.843569
-14.282227,429.107666,-877.349854,1.844325
-40.283203,418.762207,-846.77124,1.845068
6.500244,411.437988,-854.187012,1.84581
30.303955,394.683838,-842.468262,1.846553
-30.487061,388.73291,-842.651367,1.847307
-49.438477,385.437012,-855.194092,1.84805
15.74707,395.050049,-864.532471,1.848793
120.391846,415.374756,-851.165771,1.849535
117.004395,411.346436,-861.694336,1.850289
40.466309,407.592773,-859.49707,1.851038
-18.127441,402.740479,-877.532959,1.85179
43.487549,419.86084,-875.518799,1.852567
46.142578,436.065674,-845.397949,1.853324
76.171875,445.953369,-848.419189,1.854066
100.799561,420.593262,-839.355469,1.854809
133.209229,416.656494,-857.666016,1.855571
23.986816,391.662598,-888.702393,1.85632
-61.798096,387.908936,-929.443359,1.857132
-14.923096,383.331299,-895.111084,1.857879
55.206299,430.480957,-854.095459,1.858694
66.558838,458.953857,-785.522461,1.859444
89.080811,454.284668,-777.191162,1.860187
94.75708,452.178955,-798.797607,1.86093
76.904297,448.516846,-849.79248,1.86169
34.606934,437.62207,-872.955322,1.862433
22.064209,405.303955,-908.569336,1.863175
22.979736,418.579102,-908.294678,1.863918
-14.007568,430.389404,-886.871338,1.86467
-21.331787,433.868408,-878.448486,1.865412
16.021729,462.70752,-865.447998,1.866155
36.437988,473.052979,-839.355469,1.866899
23.895264,480.743408,-847.045898,1.867655
24.993896,491.821289,-835.601807,1.868396
35.705566,486.51123,-864.257812,1.869136
39.276123,471.405029,-847.229004,1.86999
23.895264,470.855713,-854.644775,1.870734
13.458252,466.827393,-844.390869,1.871469
33.14209,477.905273,-850.250244,1.872203
97.77832,497.314453,-840.72876,1.872959
118.19458,505.92041,-845.672607,1.873703
99.700928,502.89917,-864.898682,1.874446
73.059082,509.58252,-860.870361,1.87519
66.833496,505.187988,-859.039307,1.875934
4.852295,508.575439,-862.426758,1.876678
-22.521973,516.906738,-852.996826,1.877422
4.119873,531.646729,-821.685791,1.878165
103.637695,536.956787,-837.799072,1.878909
114.807129,536.407471,-841.186523,1.879654
39.733887,526.794434,-839.355469,1.880456
13.183594,500.244141,-843.292236,1.881201
40.466309,506.011963,-854.095459,1.88195
91.552734,512.969971,-854.46167,1.882693
114.532471,514.61792,-840.362549,1.883437
107.666016,520.843506,-848.693848,1.88418
86.883545,516.174316,-843.475342,1.884934
80.01709,532.745361,-836.425781,1.885669
84.960938,536.224365,-829.01001,1.886402
143.280029,545.837402,-810.241699,1.887137
175.048828,551.879883,-803.192139,1.887872
153.076172,544.464111,-810.241699,1.888615
130.279541,519.195557,-811.248779,1.889358
82.946777,520.385742,-815.460205,1.8901
112.1521,533.935547,-810.882568,1.890842
140.716553,540.161133,-803.466797,1.891592
174.041748,544.006348,-796.691895,1.892334
180.633545,541.992188,-781.311035,1.893077
180.175781,539.154053,-779.846191,1.893819
157.470703,523.590088,-779.205322,1.894571
149.963379,515.625,-775.177002,1.895312
140.350342,504.821777,-787.353516,1.896053
143.096924,494.842529,-789.367676,1.896802
153.625488,520.294189,-787.536621,1.897548
149.597168,511.138916,-772.43042,1.898282
138.61084,503.540039,-749.359131,1.899015
139.709473,497.314453,-740.020752,1.899768
142.730713,496.032715,-741.119385,1.900502
136.962891,454.559326,-742.30957,1.901235
91.094971,435.333252,-755.493164,1.902052
78.369141,419.769287,-773.986816,1.902846
153.625488,436.981201,-781.494141,1.903581
158.02002,454.650879,-791.19873,1.904314
161.407471,462.249756,-783.416748,1.905048
145.294189,467.285156,-765.930176,1.905791
153.808594,464.355469,-764.099121,1.906525
140.991211,464.813232,-784.332275,1.907258
102.355957,457.305908,-796.051025,1.907992
59.692383,462.890625,-814.361572,1.908737
60.699463,466.73584,-823.608398,1.90948
66.833496,464.172363,-833.770752,1.910224
72.32666,455.01709,-805.755615,1.910968
121.398926,463.165283,-794.494629,1.911712
148.773193,502.807617,-806.762695,1.912455
134.94873,524.780273,-811.431885,1.913199
48.614502,450.714111,-765.74707,1.913943
11.260986,415.008545,-735.992432,1.914697
85.601807,426.635742,-735.809326,1.915441
188.873291,443.29834,-760.162354,1.916185
165.893555,440.917969,-775.909424,1.916928
32.958984,401.092529,-807.037354,1.917681
-0.549316,403.4729,-833.129883,1.918425
57.952881,404.11377,-838.439941,1.91917
62.438965,406.12793,-822.967529,1.919914
32.226562,414.642334,-811.523438,1.920657
51.635742,425.90332,-827.453613,1.921412
102.996826,435.058594,-826.812744,1.922155
99.060059,438.62915,-833.953857,1.922996
5.493164,436.248779,-835.784912,1.923776
81.756592,446.136475,-843.292236,1.924578
154.998779,447.692871,-834.686279,1.92533
111.236572,450.805664,-813.903809,1.926074
26.733398,445.953369,-806.671143,1.926839
81.481934,439.361572,-820.953369,1.927583
117.279053,447.784424,-831.207275,1.928327
90.72876,468.841553,-826.812744,1.92907
66.28418,465.087891,-818.664551,1.929824
82.305908,460.235596,-799.713135,1.930568
76.446533,447.418213,-784.14917,1.931394
17.578125,440.643311,-776.092529,1.932152
4.211426,453.460693,-792.938232,1.932951
22.979736,467.74292,-814.453125,1.933702
13.73291,472.686768,-829.01001,1.934445
14.373779,474.060059,-832.580566,1.935189
30.487061,468.841553,-839.538574,1.935934
51.9104,469.024658,-844.573975,1.936677
34.973145,467.651367,-859.130859,1.937421
14.648438,470.123291,-863.525391,1.938184
-1.373291,487.609863,-867.095947,1.93893
3.112793,525.054932,-871.124268,1.939674
22.705078,538.604736,-869.384766,1.940418
16.021729,536.315918,-829.742432,1.941165
-6.317139,536.865234,-827.178955,1.941923
-1.373291,529.724121,-819.488525,1.942682
6.591797,529.449463,-817.29126,1.943468
-8.148193,514.984131,-830.566406,1.944234
-53.833008,485.50415,-823.974609,1.944992
-22.979736,461.975098,-826.99585,1.945759
11.352539,462.432861,-841.003418,1.946523
43.121338,456.573486,-839.355469,1.947285
43.945312,457.03125,-845.306396,1.948076
29.11377,456.115723,-842.834473,1.948861
34.881592,463.806152,-834.411621,1.949671
13.824463,480.285645,-813.62915,1.950478
2.197266,486.694336,-807.403564,1.951295
0.0,493.377686,-799.621582,1.952114
-7.049561,497.680664,-805.57251,1.952876
-17.303467,495.391846,-815.917969,1.95369
-18.951416,488.250732,-824.523926,1.954449
-2.838135,486.236572,-830.566406,1.955198
13.916016,492.095947,-831.848145,1.955942
33.416748,504.730225,-833.03833,1.956713
34.790039,516.540527,-839.172363,1.957486
26.092529,530.639648,-835.968018,1.958234
33.325195,546.569824,-841.644287,1.959064
35.339355,566.619873,-842.102051,1.9598
35.797119,570.922852,-847.961426,1.960534
27.374268,575.042725,-852.813721,1.961269
-6.500244,556.82373,-847.869873,1.962005
-20.050049,558.563232,-845.672607,1.962748
-20.690918,561.035156,-849.060059,1.963491
-1.831055,575.683594,-843.292236,1.964233
3.295898,572.937012,-842.102051,1.964975
27.46582,578.704834,-837.982178,1.965741
58.044434,577.056885,-839.080811,1.966483
59.783936,577.789307,-846.038818,1.967224
66.101074,576.690674,-836.883545,1.967958
57.952881,572.937012,-835.327148,1.968712
40.649414,569.915771,-839.904785,1.969455
2.929688,536.590576,-806.762695,1.970197
-6.500244,533.477783,-799.804688,1.970939
-0.457764,527.709961,-794.952393,1.971741
40.740967,530.090332,-811.61499,1.972485
22.613525,523.681641,-811.523438,1.973227
-3.753662,510.955811,-803.375244,1.97397
-3.662109,509.033203,-796.234131,1.974712
47.241211,513.244629,-792.388916,1.975537
66.833496,507.751465,-789.733887,1.97628
50.445557,506.561279,-790.557861,1.977036
10.162354,494.567871,-788.452148,1.977778
1.739502,469.75708,-778.4729,1.978521
7.049561,467.74292,-784.515381,1.979263
8.605957,478.363037,-777.923584,1.980066
4.211426,475.43335,-774.719238,1.98081
-9.338379,494.476318,-777.282715,1.981552
5.310059,511.138916,-755.310059,1.982294
21.514893,510.5896,-722.442627,1.983036
54.931641,487.609863,-714.385986,1.983778
56.945801,503.997803,-715.942383,1.984521
46.966553,520.294189,-732.696533,1.985263
29.754639,514.068604,-733.520508,1.986005
11.71875,521.850586,-703.308105,1.986747
-17.852783,539.611816,-684.7229,1.98749
-15.106201,554.443359,-646.636963,1.988232
-6.408691,554.260254,-665.679932,1.988974
-40.283203,552.154541,-660.552979,1.989716
-45.318604,532.196045,-687.286377,1.990484
-33.14209,515.991211,-694.793701,1.991227
-24.993896,499.694824,-715.759277,1.991969
-39.642334,492.553711,-738.372803,1.992711
-75.164795,460.968018,-749.725342,1.993453
-126.159668,441.28418,-775.085449,1.994195
-131.835938,445.861816,-793.945312,1.994956
-133.117676,444.213867,-790.649414,1.99576
-135.040283,448.608398,-797.058105,1.996562
-151.885986,447.418213,-789.916992,1.997336
-141.174316,456.02417,-784.606934,1.998139
-113.708496,467.193604,-782.409668,1.9989
-95.672607,489.807129,-764.373779,1.999663
-98.968506,491.729736,-768.676758,2.000428
-97.869873,501.708984,-772.613525,2.001212
-55.847168,504.455566,-797.698975,2.001956
-49.163818,500.701904,-814.086914,2.002698
-54.382324,485.137939,-815.826416,2.003441
-57.128906,477.813721,-816.833496,2.004193
-40.19165,471.588135,-825.531006,2.004936
-21.42334,469.390869,-834.228516,2.005761
-27.099609,466.094971,-836.151123,2.006545
-32.318115,456.481934,-841.552734,2.007329
-22.521973,443.206787,-862.976074,2.008081
-8.148193,437.805176,-875.518799,2.008824
-4.577637,434.051514,-885.681152,2.009567
-2.197266,465.179443,-884.94873,2.010311
-1.647949,446.868896,-882.659912,2.011054
4.577637,472.77832,-861.419678,2.011797
13.641357,479.919434,-860.046387,2.012596
46.417236,488.616943,-852.264404,2.013344
63.720703,491.18042,-848.327637,2.014089
78.094482,481.109619,-856.567383,2.014833
109.039307,479.278564,-881.561279,2.015578
129.455566,477.813721,-900.32959,2.016322
122.039795,481.384277,-915.618896,2.017066
121.307373,479.187012,-925.415039,2.01781
130.279541,485.046387,-928.710938,2.01856
166.809082,499.786377,-925.78125,2.019305
167.266846,498.321533,-929.168701,2.020049
150.787354,504.364014,-930.084229,2.020792
141.63208,526.611328,-927.978516,2.021537
143.371582,540.06958,-894.65332,2.02228
151.428223,544.73877,-910.400391,2.02308
130.92041,553.80249,-892.089844,2.023825
127.075195,561.767578,-882.568359,2.02458
123.046875,562.408447,-883.94165,2.025324
123.046875,566.162109,-872.772217,2.026069
103.820801,571.014404,-878.448486,2.026813
66.28418,574.859619,-862.976074,2.027557
59.60083,570.19043,-846.496582,2.028301
60.60791,573.120117,-849.42627,2.029045
50.445557,569.274902,-852.172852,2.029788
28.198242,567.352295,-843.383789,2.030543
9.338379,562.225342,-842.102051,2.031287
6.591797,564.788818,-836.700439,2.03203
-5.950928,560.119629,-822.875977,2.032773
-18.218994,562.042236,-819.671631,2.033518
-22.064209,562.408447,-818.023682,2.034252
-2.380371,560.668945,-810.60791,2.034987
-1.556396,570.922852,-813.446045,2.03572
-14.648438,572.570801,-816.101074,2.03646
-29.754639,562.866211,-813.812256,2.037202
-54.748535,561.401367,-808.227539,2.037944
-51.544189,554.718018,-796.783447,2.038686
-44.403076,555.541992,-777.740479,2.039429
-34.606934,573.120117,-790.100098,2.040171
-41.564941,573.577881,-785.614014,2.040913
-58.410645,566.894531,-783.233643,2.041654
-61.157227,569.458008,-778.747559,2.042397
-57.952881,578.796387,-771.240234,2.043137
-47.973633,576.965332,-770.050049,2.043878
-56.304932,581.359863,-758.69751,2.044618
-55.297852,590.698242,-740.020752,2.045378
-45.318604,579.25415,-742.492676,2.046116
-51.727295,575.042725,-740.844727,2.04685
-71.411133,577.331543,-740.478516,2.047584
-76.171875,562.133789,-747.619629,2.048402
-68.847656,553.070068,-761.260986,2.049136
-61.523438,547.393799,-757.415771,2.04987
-55.297852,549.224854,-747.436523,2.050661
-51.086426,562.042236,-741.027832,2.051412
-38.085938,557.189941,-736.083984,2.052145
-32.684326,549.957275,-746.704102,2.052879
-28.015137,539.154053,-768.951416,2.053697
-28.015137,534.210205,-781.494141,2.054466
-16.479492,522.30835,-818.389893,2.055207
-16.113281,521.759033,-817.108154,2.055979
-16.937256,529.449463,-819.396973,2.05672
-8.880615,524.047852,-819.396973,2.05749
3.204346,536.224365,-831.939697,2.058234
13.458252,544.372559,-830.566406,2.058975
-22.521973,533.111572,-838.806152,2.059717
-5.859375,534.301758,-838.897705,2.06047
18.127441,541.259766,-840.362549,2.061212
37.078857,560.119629,-847.137451,2.061954
52.91748,559.295654,-858.947754,2.062692
65.002441,539.0625,-878.814697,2.063449
104.827881,512.695312,-919.464111,2.064192
242.980957,494.842529,-935.48584,2.064935
320.159912,487.609863,-945.922852,2.065677
375.091553,492.095947,-940.612793,2.066429
393.676758,490.905762,-920.928955,2.067172
411.529541,497.131348,-899.139404,2.067967
417.022705,507.202148,-888.702393,2.068723
345.88623,514.61792,-878.997803,2.069499
218.62793,518.371582,-862.060547,2.070307
109.588623,520.385742,-836.242676,2.071058
44.677734,527.435303,-815.917969,2.071802
-85.784912,540.893555,-808.319092,2.072544
-120.391846,555.175781,-789.459229,2.073287
-127.532959,573.303223,-779.937744,2.07403
-122.314453,591.61377,-757.141113,2.074783
-102.539062,595.916748,-752.838135,2.075526
-44.219971,605.987549,-754.577637,2.076348
66.925049,602.69165,-753.479004,2.077105
144.104004,606.445312,-747.436523,2.077909
148.681641,602.233887,-770.965576,2.078659
139.251709,594.085693,-781.768799,2.079401
125.793457,597.015381,-796.051025,2.080143
110.229492,591.888428,-811.61499,2.080901
53.649902,577.056885,-822.601318,2.081644
-20.690918,582.183838,-823.791504,2.082387
-39.001465,581.542969,-826.080322,2.08313
-80.932617,592.254639,-821.136475,2.083882
-87.615967,593.62793,-811.431885,2.084624
-87.982178,605.255127,-816.558838,2.08537
-44.311523,620.544434,-808.319092,2.086113
-16.387939,624.389648,-810.150146,2.086868
16.937256,614.776611,-813.354492,2.087611
29.296875,602.508545,-826.35498,2.088354
61.248779,605.987549,-823.608398,2.089096
81.573486,590.881348,-830.841064,2.089847
77.911377,587.768555,-860.595703,2.090587
37.902832,553.436279,-875.061035,2.091328
22.338867,541.07666,-889.068604,2.092092
-9.521484,539.428711,-891.357422,2.092853
-28.564453,534.210205,-888.061523,2.093597
-70.129395,534.576416,-875.335693,2.09434
-79.925537,524.688721,-882.293701,2.095084
-65.734863,515.991211,-892.364502,2.095838
-63.903809,513.519287,-899.871826,2.096582
-50.994873,523.864746,-898.132324,2.097326
-23.071289,541.534424,-885.406494,2.098069
6.500244,572.570801,-871.21582,2.098829
24.261475,592.346191,-861.053467,2.099625
7.781982,624.389648,-842.559814,2.100379
-11.260986,649.56665,-834.503174,2.101123
-43.762207,653.594971,-833.129883,2.101896
-11.535645,656.707764,-854.736328,2.102639
-0.457764,668.518066,-895.477295,2.103383
-150.695801,677.307129,-866.088867,2.104127
-158.935547,680.786133,-837.06665,2.104872
-17.944336,697.906494,-835.05249,2.105606
-80.291748,731.5979,-817.932129,2.106341
-134.307861,734.25293,-810.974121,2.107075
-128.082275,745.880127,-810.333252,2.10783
-105.377197,761.627197,-796.234131,2.108572
-93.292236,766.021729,-788.818359,2.109314
-107.116699,772.705078,-777.46582,2.110056
-109.954834,779.47998,-767.39502,2.110811
-97.869873,796.417236,-747.070312,2.111553
-98.144531,809.875488,-733.24585,2.112295
-105.651855,810.974121,-714.477539,2.113037
-111.694336,819.763184,-698.822021,2.113791
-109.680176,834.136963,-664.855957,2.114533
-116.912842,838.439941,-679.962158,2.115276
-114.990234,836.883545,-676.849365,2.116018
-117.1875,814.544678,-680.145264,2.11677
-110.778809,814.544678,-661.102295,2.117513
-97.320557,827.362061,-646.636963,2.118255
-85.693359,813.079834,-654.23584,2.118997
-81.207275,808.959961,-653.594971,2.119834
-50.628662,802.368164,-646.728516,2.120634
-30.12085,796.508789,-635.375977,2.121379
-19.775391,800.994873,-619.262695,2.122121
-4.486084,805.114746,-600.402832,2.12288
39.733887,792.572021,-593.078613,2.123622
176.330566,768.218994,-605.712891,2.124364
206.726074,754.02832,-606.079102,2.125107
271.636963,726.928711,-633.81958,2.125876
275.20752,682.434082,-635.83374,2.126619
285.461426,681.610107,-627.502441,2.127361
275.57373,663.391113,-644.989014,2.128103
222.015381,653.778076,-638.85498,2.128857
89.447021,644.256592,-678.222656,2.129599
17.486572,635.650635,-715.209961,2.130341
-138.061523,633.636475,-709.075928,2.131083
-164.245605,646.728516,-734.25293,2.131837
-193.817139,661.010742,-747.161865,2.13258
-205.993652,655.24292,-739.105225,2.133322
-207.550049,645.263672,-745.239258,2.134064
-216.796875,638.580322,-729.034424,2.134817
-145.751953,644.256592,-723.632812,2.13556
-130.096436,653.594971,-718.139648,2.136302
-120.574951,653.594971,-684.7229,2.137152
-105.743408,666.687012,-706.878662,2.137908
-84.228516,674.377441,-683.258057,2.13865
-118.286133,668.060303,-663.757324,2.139393
-157.745361,680.969238,-659.454346,2.140135
-143.188477,700.012207,-664.94751,2.140887
-161.407471,765.289307,-649.56665,2.141643
-166.442871,832.763672,-653.778076,2.142393
-227.874756,715.301514,-566.894531,2.143189
-248.474121,577.789307,-489.624023,2.143939
-148.681641,354.675293,-517.272949,2.144682
-51.9104,337.280273,-867.1875,2.145424
144.561768,373.99292,-1059.448242,2.146167
94.482422,277.679443,-1249.694824,2.146909
-35.064697,206.085205,-1308.380127,2.147698
-60.333252,205.26123,-1309.020996,2.148461
35.980225,202.789307,-1271.575928,2.149226
174.591064,224.029541,-1233.856201,2.150015
227.966309,224.212646,-1191.467285,2.150762
205.444336,230.34668,-1161.895752,2.151506
149.871826,251.77002,-1099.365234,2.15227
133.94165,263.305664,-1050.018311,2.153014
130.645752,279.327393,-1011.199951,2.153758
151.062012,328.399658,-1014.862061,2.154502
192.260742,353.118896,-1012.573242,2.155256
140.625,389.73999,-996.734619,2.156
119.110107,412.719727,-948.577881,2.156746
81.665039,452.545166,-921.569824,2.157491
68.939209,513.793945,-864.898682,2.158248
55.57251,544.006348,-851.806641,2.158992
7.69043,569.824219,-791.656494,2.159736
-19.40918,588.500977,-743.408203,2.160479
-62.347412,618.530273,-727.844238,2.161233
-63.995361,680.419922,-696.350098,2.161977
-73.608398,706.329346,-657.348633,2.162721
-111.785889,714.294434,-621.276855,2.163464
-141.998291,715.026855,-613.128662,2.164223
-172.668457,714.569092,-628.875732,2.164967
-211.669922,746.97876,-628.509521,2.165711
-256.439209,775.817871,-596.374512,2.166455
-333.068848,857.391357,-583.92334,2.167213
-375.0,966.97998,-485.046387,2.167957
-433.59375,933.380127,-406.311035,2.168701
-238.952637,626.403809,-400.817871,2.169445
38.452148,509.307861,-596.557617,2.1702
235.290527,461.700439,-666.046143,2.170945
277.587891,447.967529,-850.158691,2.171689
378.570557,452.362061,-901.519775,2.172433
532.196045,408.599854,-903.259277,2.173196
596.64917,380.401611,-903.35083,2.17394
675.109863,346.160889,-932.830811,2.174684
671.722412,345.794678,-1005.889893,2.175428
548.400879,344.421387,-1022.369385,2.176173
377.655029,345.428467,-1019.073486,2.176908
300.65918,346.252441,-973.571777,2.177643
201.690674,354.400635,-959.655762,2.178377
174.865723,387.817383,-911.773682,2.17913
111.14502,408.966064,-885.955811,2.179872
5.584717,441.28418,-834.04541,2.180615
-44.586182,464.904785,-796.142578,2.181357
-139.526367,514.801025,-765.106201,2.182099
-187.957764,560.48584,-721.801758,2.182842
-234.283447,578.796387,-705.13916,2.183584
-220.092773,591.796875,-688.751221,2.184327
-177.520752,618.347168,-669.616699,2.185144
-150.421143,625.671387,-670.440674,2.185888
-80.291748,630.340576,-691.223145,2.18663
-49.713135,623.748779,-700.469971,2.187373
15.563965,624.572754,-704.956055,2.188116
21.972656,611.663818,-739.28833,2.188859
29.388428,602.325439,-745.239258,2.189625
46.600342,590.698242,-753.753662,2.190368
61.981201,593.078613,-751.831055,2.191211
74.798584,595.733643,-756.225586,2.191957
92.193604,591.247559,-749.450684,2.192729
97.229004,595.275879,-756.68335,2.19347
97.137451,598.754883,-752.288818,2.194221
80.01709,600.860596,-748.626709,2.194957
54.56543,608.001709,-744.140625,2.195691
34.973145,604.705811,-727.203369,2.196424
26.824951,605.529785,-723.907471,2.197172
23.986816,617.340088,-725.646973,2.197906
26.641846,619.354248,-724.456787,2.19864
29.937744,617.340088,-727.844238,2.199373
30.029297,618.347168,-740.386963,2.200118
12.451172,617.523193,-752.288818,2.200852
-2.929688,617.797852,-743.774414,2.201586
-9.246826,619.537354,-747.98584,2.202319
-17.578125,623.657227,-759.521484,2.203077
-16.113281,620.269775,-753.204346,2.203819
-10.803223,625.946045,-758.880615,2.204561
-12.084961,628.78418,-757.873535,2.205304
-10.528564,627.319336,-765.563965,2.206056
-6.317139,630.615234,-762.817383,2.206799
-16.021729,635.559082,-769.042969,2.207541
-16.937256,629.699707,-773.529053,2.208283
-21.514893,632.537842,-769.134521,2.209036
-12.817383,641.967773,-759.063721,2.209779
-21.606445,653.869629,-755.767822,2.210522
-19.775391,655.059814,-750.640869,2.211265
-0.823975,664.672852,-748.352051,2.212017
2.563477,686.920166,-735.534668,2.212769
13.824463,692.504883,-743.95752,2.213582
-4.302979,705.780029,-745.788574,2.214366
-15.655518,710.723877,-731.140137,2.215141
-20.599365,718.963623,-741.943359,2.215884
-21.514893,720.245361,-744.32373,2.216627
-19.226074,721.160889,-748.535156,2.21737
-15.930176,737.640381,-740.936279,2.218124
-0.640869,738.830566,-743.591309,2.21891
-2.655029,751.098633,-747.98584,2.219655
2.655029,755.950928,-735.443115,2.220407
4.486084,764.282227,-735.443115,2.221149
0.915527,765.930176,-709.350586,2.221975
-0.366211,769.958496,-716.949463,2.222769
-6.774902,773.529053,-725.55542,2.223556
-7.781982,779.846191,-719.146729,2.224359
-2.929688,750.732422,-704.040527,2.225111
-18.585205,761.169434,-706.695557,2.225854
-28.289795,769.958496,-694.610596,2.226618
-26.733398,765.74707,-692.779541,2.227362
-15.655518,764.282227,-694.702148,2.228109
-9.429932,766.021729,-693.695068,2.228854
-1.373291,762.451172,-700.286865,2.22961
9.429932,756.408691,-702.575684,2.230354
15.380859,763.275146,-698.455811,2.231097
6.317139,758.422852,-665.95459,2.231842
10.345459,761.260986,-649.932861,2.232595
29.47998,765.930176,-650.848389,2.233339
41.107178,759.063721,-649.383545,2.234084
27.832031,754.119873,-614.044189,2.234827
-4.577637,740.203857,-615.234375,2.235581
-4.211426,741.394043,-623.199463,2.236325
7.507324,736.175537,-633.361816,2.237068
8.789062,746.154785,-646.728516,2.237812
8.514404,739.471436,-648.468018,2.238566
13.092041,731.506348,-644.897461,2.239309
1.556396,721.801758,-658.447266,2.240054
15.655518,727.752686,-655.151367,2.240797
23.345947,738.464355,-646.362305,2.241551
24.44458,735.076904,-618.988037,2.242301
1.647949,738.464355,-602.233887,2.243045
-6.68335,736.816406,-584.014893,2.243789
-19.866943,741.027832,-573.669434,2.244542
-43.945312,733.795166,-545.562744,2.245286
-55.938721,721.5271,-541.900635,2.246029
-53.100586,720.336914,-541.625977,2.246774
-24.169922,721.252441,-565.063477,2.247537
-52.093506,726.928711,-577.331543,2.248281
-81.481934,668.701172,-540.252686,2.249025
-105.285645,699.279785,-567.077637,2.249772
-101.715088,720.703125,-672.637939,2.25057
46.417236,770.050049,-743.682861,2.251305
116.088867,818.572998,-902.984619,2.25204
181.549072,799.621582,-956.817627,2.252774
81.573486,751.556396,-973.297119,2.253531
15.74707,720.52002,-929.168701,2.254275
-104.003906,668.243408,-805.57251,2.255019
-133.117676,651.855469,-750.915527,2.255763
-107.849121,630.615234,-739.28833,2.256519
-51.269531,641.693115,-731.5979,2.257263
-29.022217,642.883301,-717.315674,2.258008
30.303955,653.778076,-720.52002,2.258752
42.022705,661.102295,-728.668213,2.259503
46.234131,663.848877,-728.759766,2.260248
48.156738,677.947998,-738.739014,2.260992
44.494629,674.560547,-748.901367,2.261736
8.789062,678.222656,-742.401123,2.262488
-36.529541,691.589355,-724.731445,2.26331
-60.882568,692.504883,-715.026855,2.264045
-100.43335,675.65918,-709.80835,2.264779
-121.124268,683.807373,-716.308594,2.265545
-156.280518,682.617188,-723.358154,2.266342
-167.633057,675.476074,-722.717285,2.267086
-168.182373,684.631348,-715.667725,2.26783
-161.682129,677.67334,-721.710205,2.268585
-146.850586,674.285889,-740.478516,2.26933
-138.702393,673.461914,-773.345947,2.270074
-151.519775,677.307129,-757.873535,2.270818
-158.660889,676.849365,-775.634766,2.271572
-164.520264,684.631348,-761.535645,2.272317
-170.471191,690.216064,-767.211914,2.273062
-165.527344,690.490723,-762.084961,2.273811
-130.828857,717.956543,-739.837646,2.274571
-108.215332,674.835205,-699.371338,2.275316
2.01416,643.157959,-703.948975,2.27606
123.504639,580.718994,-780.303955,2.276804
169.921875,562.591553,-868.835449,2.277559
243.804932,525.421143,-920.74585,2.278303
280.609131,511.59668,-985.015869,2.279047
316.772461,508.209229,-1002.7771,2.279791
348.175049,515.441895,-999.481201,2.280545
346.160889,525.421143,-963.867188,2.28129
303.497314,561.49292,-942.993164,2.282034
212.585449,598.114014,-881.195068,2.282778
154.35791,622.924805,-849.517822,2.283533
31.677246,674.102783,-789.550781,2.284289
-23.345947,722.900391,-710.998535,2.285056
-109.680176,748.352051,-649.749756,2.285814
-165.802002,769.226074,-632.904053,2.286581
-180.81665,791.656494,-614.044189,2.287326
-189.056396,790.83252,-618.07251,2.288071
-176.696777,786.16333,-625.305176,2.288815
-151.519775,777.648926,-645.904541,2.289661
-120.300293,761.901855,-681.70166,2.290418
-105.377197,750.366211,-697.08252,2.291177
-86.791992,749.633789,-704.956055,2.291953
-66.101074,746.704102,-698.822021,2.292697
-53.649902,729.034424,-682.067871,2.293441
-35.15625,738.830566,-676.391602,2.294184
-2.471924,766.387939,-673.00415,2.294939
0.274658,758.789062,-671.356201,2.29574
4.02832,764.648438,-663.299561,2.29652
7.873535,760.253906,-662.475586,2.297284
9.521484,756.408691,-667.96875,2.298082
7.69043,758.331299,-669.616699,2.298834
-0.732422,754.119873,-663.94043,2.299578
-4.394531,754.943848,-632.904053,2.300324
-10.345459,742.767334,-645.446777,2.301087
-16.021729,747.894287,-636.932373,2.301831
-14.190674,736.633301,-631.072998,2.302576
-17.852783,738.28125,-635.192871,2.30332
-21.148682,737.091064,-611.938477,2.304074
-20.782471,738.647461,-632.171631,2.304818
-29.296875,736.541748,-619.903564,2.305563
-29.846191,735.351562,-626.220703,2.306307
-45.410156,729.766846,-630.981445,2.307052
-47.88208,734.893799,-638.763428,2.307786
-50.994873,731.506348,-649.56665,2.30852
-59.051514,727.478027,-638.671875,2.309255
-49.89624,726.745605,-628.692627,2.310013
-40.557861,722.991943,-635.467529,2.310756
-40.466309,732.60498,-623.474121,2.311499
-62.164307,723.999023,-621.459961,2.312242
-70.3125,731.506348,-631.256104,2.312983
-63.262939,733.978271,-624.847412,2.313723
-35.064697,734.802246,-625.030518,2.314477
-26.641846,746.429443,-607.818604,2.315218
21.240234,768.951416,-637.939453,2.315998
20.324707,772.338867,-677.032471,2.316746
26.45874,782.13501,-653.411865,2.317491
18.310547,751.556396,-684.539795,2.318235
35.705566,775.634766,-694.335938,2.318979
11.077881,761.535645,-693.42041,2.319714
3.387451,758.056641,-683.898926,2.320448
18.218994,741.30249,-656.890869,2.321182
20.141602,787.811279,-688.38501,2.321937
120.117188,795.86792,-688.751221,2.322679
90.911865,798.706055,-678.314209,2.323422
69.671631,788.085938,-664.215088,2.324165
121.948242,763.183594,-573.21167,2.324916
121.124268,762.542725,-526.702881,2.325659
76.99585,774.902344,-528.167725,2.326402
59.234619,791.656494,-556.091309,2.327144
39.18457,792.755127,-566.894531,2.327897
35.522461,802.55127,-582.458496,2.328639
61.981201,819.671631,-574.401855,2.329382
58.868408,794.677734,-562.133789,2.330124
62.713623,801.086426,-584.197998,2.330876
73.974609,797.698975,-576.965332,2.331618
120.666504,795.227051,-569.458008,2.332361
138.244629,797.241211,-601.135254,2.333103
198.577881,805.847168,-610.931396,2.333896
226.501465,790.466309,-627.593994,2.334639
169.189453,774.169922,-657.897949,2.335474
98.236084,731.5979,-682.800293,2.336268
-46.417236,732.055664,-686.645508,2.337036
-1.831055,736.358643,-665.95459,2.337779
-13.73291,725.372314,-710.632324,2.338521
-64.910889,717.224121,-696.258545,2.339263
-37.353516,745.605469,-633.453369,2.340016
91.461182,738.006592,-622.924805,2.340758
12.72583,748.443604,-584.838867,2.341501
-19.683838,746.520996,-622.192383,2.342244
-44.769287,730.407715,-636.84082,2.343004
-28.106689,719.238281,-656.982422,2.343741
-7.232666,721.893311,-706.237793,2.344475
69.213867,727.56958,-748.535156,2.345208
126.434326,730.316162,-828.277588,2.345963
133.758545,727.203369,-838.07373,2.346696
23.162842,708.1604,-820.220947,2.34743
-113.342285,700.10376,-780.303955,2.348164
-286.468506,676.391602,-752.471924,2.348909
-247.375488,700.927734,-708.251953,2.349642
-182.098389,710.449219,-683.990479,2.350376
-55.389404,712.005615,-668.060303,2.351109
-36.712646,713.83667,-666.595459,2.351853
-58.135986,711.730957,-652.038574,2.352587
-80.932617,705.230713,-623.016357,2.35332
-111.877441,699.09668,-610.931396,2.354053
-95.397949,702.941895,-614.318848,2.354812
-79.925537,704.956055,-647.003174,2.355557
-66.925049,700.744629,-644.53125,2.356305
-55.297852,702.392578,-660.095215,2.357058
-40.740967,711.456299,-667.694092,2.357898
-28.015137,712.463379,-674.835205,2.358651
-26.550293,700.653076,-666.503906,2.359395
-34.332275,706.878662,-677.764893,2.360139
-45.86792,715.942383,-668.97583,2.360906
-49.163818,701.477051,-651.947021,2.36165
-42.663574,700.653076,-641.51001,2.362395
-46.142578,678.222656,-642.242432,2.363139
-40.374756,656.707764,-651.489258,2.363894
-10.803223,641.693115,-664.031982,2.364638
11.352539,633.087158,-700.469971,2.36538
34.973145,636.657715,-713.195801,2.366127
79.101562,670.623779,-686.279297,2.366946
66.375732,680.328369,-677.215576,2.3677
76.446533,699.09668,-656.066895,2.3685
63.812256,718.505859,-635.101318,2.369273
35.705566,712.097168,-604.888916,2.370017
-24.261475,706.054688,-610.38208,2.370761
-62.164307,684.7229,-632.629395,2.371505
-75.3479,673.278809,-648.651123,2.372262
-74.066162,619.903564,-647.644043,2.373008
-31.860352,533.660889,-695.43457,2.373753
165.710449,520.202637,-740.203857,2.374497
225.585938,503.814697,-841.827393,2.375258
412.994385,512.329102,-901.428223,2.376059
490.17334,515.716553,-895.202637,2.376823
548.858643,526.245117,-875.152588,2.377592
565.338135,554.351807,-847.503662,2.378389
568.450928,576.690674,-817.657471,2.379153
470.581055,631.164551,-744.232178,2.379929
403.656006,707.702637,-649.56665,2.380694
207.824707,744.781494,-598.205566,2.381475
20.599365,813.262939,-502.349854,2.38222
-32.13501,831.390381,-444.488525,2.382964
-96.77124,870.117188,-435.150146,2.383709
-121.124268,867.462158,-455.474854,2.384463
-134.674072,854.003906,-471.038818,2.385208
-84.04541,812.164307,-536.04126,2.385952
-47.058105,791.931152,-606.994629,2.386696
36.529541,749.725342,-636.932373,2.387449
129.91333,737.365723,-655.334473,2.388193
167.449951,741.485596,-650.20752,2.388938
204.437256,760.620117,-620.452881,2.389683
203.430176,804.290771,-592.437744,2.390434
169.006348,810.516357,-579.528809,2.391179
100.341797,830.932617,-552.703857,2.391922
69.854736,829.101562,-556.091309,2.392673
-14.007568,827.178955,-566.894531,2.393446
-50.170898,807.58667,-572.113037,2.394191
-51.269531,809.875488,-588.684082,2.394935
-29.47998,798.065186,-605.163574,2.395679
-4.577637,819.763184,-613.677979,2.396424
45.135498,795.593262,-613.037109,2.397158
94.116211,795.501709,-610.748291,2.397892
106.109619,789.550781,-607.727051,2.398626
109.863281,792.480469,-596.374512,2.399382
96.130371,792.663574,-590.698242,2.400127
62.438965,787.994385,-589.416504,2.400872
45.593262,783.691406,-596.64917,2.401616
11.260986,788.360596,-595.550537,2.402363
-29.11377,773.162842,-599.578857,2.403158
-34.790039,779.754639,-606.35376,2.403894
-31.860352,778.381348,-604.980469,2.404628
-0.457764,766.479492,-601.501465,2.40539
27.832031,769.042969,-597.747803,2.406249
36.16333,766.387939,-600.585938,2.406992
52.55127,772.155762,-596.099854,2.407845
45.501709,765.106201,-598.388672,2.408589
36.346436,755.126953,-607.36084,2.409332
8.605957,753.845215,-608.642578,2.410074
-13.092041,756.866455,-601.409912,2.410818
-23.620605,761.901855,-601.226807,2.41156
-43.762207,761.901855,-602.416992,2.412302
-44.677734,764.73999,-608.825684,2.413044
-40.008545,767.852783,-608.093262,2.413788
-35.339355,770.141602,-591.705322,2.414531
-8.514404,785.888672,-605.712891,2.415273
-7.049561,799.713135,-597.381592,2.416014
-3.479004,791.19873,-590.698242,2.416757
-42.663574,771.240234,-566.253662,2.417498
-23.345947,762.359619,-566.52832,2.418324
-50.354004,776.824951,-592.346191,2.41918
-45.501709,767.39502,-589.416504,2.41994
-26.550293,763.366699,-601.959229,2.420683
-26.916504,748.443604,-625.762939,2.421425
-29.296875,728.57666,-620.269775,2.422167
-37.811279,717.590332,-630.523682,2.42292
-24.44458,718.231201,-642.791748,2.423662
-20.141602,714.385986,-645.263672,2.424404
-20.965576,706.970215,-641.51001,2.425146
-17.028809,706.512451,-642.425537,2.425898
-13.183594,713.012695,-644.256592,2.426641
-22.338867,713.653564,-636.383057,2.427383
-24.169922,713.287354,-629.882812,2.428125
-23.986816,710.540771,-631.622314,2.428901
-29.11377,716.033936,-634.277344,2.429651
-7.598877,711.730957,-633.728027,2.430443
-18.127441,714.294434,-632.629395,2.43119
-18.4021,718.139648,-633.087158,2.431953
-16.479492,715.484619,-628.326416,2.432696
-14.099121,721.801758,-627.868652,2.433439
-5.767822,734.527588,-625.854492,2.434181
-7.69043,743.408203,-620.178223,2.435084
-10.253906,748.718262,-610.473633,2.435884
-10.437012,758.422852,-605.621338,2.436632
-11.993408,759.979248,-602.600098,2.437401
-3.295898,765.197754,-606.628418,2.438144
19.592285,775.360107,-611.938477,2.438887
7.049561,774.810791,-586.212158,2.43963
12.176514,780.395508,-607.269287,2.440384
19.317627,787.078857,-611.38916,2.441128
13.366699,786.16333,-612.304688,2.441872
8.69751,782.501221,-618.164062,2.442616
13.275146,787.078857,-588.226318,2.44337
6.866455,786.621094,-608.734131,2.444114
2.655029,783.691406,-614.685059,2.44486
8.880615,781.494141,-607.818604,2.445605
4.943848,781.585693,-620.361328,2.446359
13.824463,782.501221,-614.227295,2.447103
12.634277,785.614014,-611.297607,2.447951
17.76123,776.184082,-614.501953,2.448726
43.85376,778.015137,-607.727051,2.449488
33.325195,780.029297,-605.895996,2.450234
26.824951,770.599365,-601.043701,2.450978
32.592773,772.888184,-605.804443,2.451722
33.599854,777.374268,-608.093262,2.452476
33.966064,777.923584,-604.156494,2.453221
30.944824,779.388428,-598.205566,2.453965
34.240723,771.148682,-600.952148,2.45471
41.8396,794.036865,-593.719482,2.455464
47.88208,778.564453,-594.360352,2.456207
51.269531,766.296387,-601.135254,2.457006
57.037354,768.768311,-600.860596,2.457741
57.952881,769.134521,-597.930908,2.458501
64.178467,773.803711,-592.529297,2.459255
70.3125,782.13501,-592.529297,2.46
66.467285,778.4729,-587.310791,2.460743
65.093994,781.494141,-587.768555,2.461498
66.192627,779.47998,-591.064453,2.462294
70.129395,789.001465,-590.515137,2.463085
57.495117,791.931152,-593.444824,2.46385
63.262939,795.86792,-595.458984,2.464588
62.896729,791.473389,-595.458984,2.465322
74.432373,803.55835,-588.134766,2.466057
75.897217,804.56543,-594.451904,2.466791
76.35498,810.516357,-601.959229,2.467555
74.157715,814.27002,-595.092773,2.468298
71.960449,818.023682,-597.015381,2.46904
70.861816,811.981201,-589.416504,2.469783
63.903809,815.826416,-594.451904,2.470536
63.812256,815.460205,-593.261719,2.471279
57.495117,814.361572,-592.987061,2.472022
59.875488,818.023682,-593.261719,2.472765
62.530518,816.558838,-603.607178,2.473518
56.213379,825.256348,-596.099854,2.47426
53.466797,814.819336,-598.297119,2.475065
58.502197,798.88916,-586.120605,2.47581
64.178467,800.90332,-586.029053,2.476553
62.988281,801.086426,-594.268799,2.477295
63.537598,792.114258,-600.402832,2.478038
66.741943,784.698486,-597.564697,2.47878
61.61499,783.874512,-611.572266,2.479385
63.62915,783.874512,-602.325439,2.480127
61.248779,774.169922,-597.564697,2.480961
51.544189,776.824951,-594.268799,2.481768
48.339844,774.810791,-597.65625,2.482512
50.811768,768.310547,-599.121094,2.483254
47.973633,775.909424,-607.818604,2.483997
40.100098,771.881104,-609.191895,2.484769
36.346436,766.571045,-609.100342,2.485514
36.254883,765.197754,-604.156494,2.486256
35.614014,774.353027,-600.585938,2.486999
30.029297,767.303467,-606.903076,2.487741
21.606445,762.268066,-604.888916,2.488484
24.627686,763.824463,-612.304688,2.489227
25.177002,773.162842,-600.585938,2.48997
25.726318,768.676758,-600.219727,2.490712
25.543213,772.247314,-601.318359,2.491474
21.240234,762.72583,-607.727051,2.492211
19.958496,759.796143,-614.318848,2.492945
14.007568,757.598877,-608.276367,2.493699
5.859375,758.331299,-612.762451,2.494433
0.732422,765.655518,-612.579346,2.495166
-2.563477,763.000488,-611.755371,2.4959
0.732422,767.76123,-615.692139,2.496638
0.0,767.852783,-613.128662,2.497372
-8.239746,761.901855,-613.677979,2.498106
2.471924,771.148682,-609.924316,2.498839
1.098633,766.571045,-613.037109,2.499573
4.394531,759.155273,-617.523193,2.500328
7.873535,773.986816,-617.156982,2.501071
-1.831055,760.894775,-613.128662,2.501841
-6.68335,770.874023,-610.839844,2.502603
-7.965088,770.233154,-611.38916,2.503412
-17.211914,766.296387,-608.734131,2.504157
-17.578125,770.782471,-617.523193,2.504901
-18.585205,769.775391,-605.895996,2.505645
-18.859863,765.655518,-611.755371,2.506388
-11.901855,757.324219,-622.375488,2.507131
-16.204834,758.422852,-616.973877,2.507952
-11.901855,758.148193,-615.142822,2.508737
-7.873535,757.781982,-609.741211,2.509539
-8.605957,753.753662,-607.635498,2.510289
-12.72583,751.281738,-612.213135,2.511031
-15.74707,761.077881,-615.966797,2.511794
-19.958496,758.880615,-609.649658,2.512537
-19.317627,750.0,-609.741211,2.513279
-14.373779,757.232666,-612.487793,2.514022
-13.000488,757.232666,-612.213135,2.514775
-18.585205,744.140625,-612.213135,2.515517
-10.437012,748.718262,-616.333008,2.51626
-11.993408,752.563477,-611.572266,2.517002
-20.141602,746.887207,-612.762451,2.517763
-9.979248,744.506836,-617.523193,2.518507
-6.04248,747.344971,-607.543945,2.51925
-15.563965,744.049072,-611.38916,2.520055
-10.620117,737.915039,-611.663818,2.520814
-10.070801,729.492188,-614.501953,2.521557
-3.02124,739.654541,-617.889404,2.5223
-1.281738,739.562988,-613.494873,2.523042
1.556396,738.464355,-616.516113,2.523794
5.950928,737.548828,-623.382568,2.524537
5.67627,748.352051,-623.931885,2.525279
10.894775,757.781982,-615.966797,2.526021
12.634277,758.972168,-617.431641,2.526773
8.056641,764.648438,-621.643066,2.527581
1.556396,777.648926,-613.311768,2.528325
6.68335,781.768799,-617.706299,2.529068
4.760742,794.952393,-607.727051,2.529811
11.535645,819.488525,-613.769531,2.530553
7.507324,805.114746,-609.008789,2.531296
1.464844,805.114746,-617.156982,2.532038
6.134033,814.086914,-611.297607,2.532808
6.866455,817.199707,-588.134766,2.533582
5.126953,806.854248,-616.882324,2.534324
5.584717,806.488037,-618.438721,2.535063
15.014648,805.206299,-616.516113,2.535797
10.162354,802.368164,-610.565186,2.536531
10.528564,798.156738,-615.234375,2.537311
19.958496,796.142578,-615.509033,2.53808
20.965576,796.966553,-610.290527,2.538827
23.162842,786.071777,-616.699219,2.539572
26.641846,788.635254,-617.248535,2.540367
22.888184,784.790039,-612.762451,2.541126
30.029297,784.515381,-619.171143,2.54187
24.169922,786.346436,-616.882324,2.542614
26.275635,783.782959,-613.861084,2.543358
24.261475,780.487061,-605.34668,2.544112
38.17749,778.015137,-611.206055,2.544856
37.17041,789.367676,-605.621338,2.545601
40.008545,777.374268,-607.086182,2.546345
34.606934,778.656006,-605.712891,2.547099
29.388428,777.46582,-611.480713,2.547842
36.712646,775.817871,-604.980469,2.548587
27.557373,777.46582,-606.079102,2.54938
25.45166,763.549805,-605.621338,2.550141
40.19165,764.648438,-610.107422,2.550885
35.064697,763.092041,-598.66333,2.551629
39.642334,759.521484,-605.621338,2.552373
39.367676,761.352539,-598.205566,2.553127
33.966064,751.00708,-595.092773,2.553994
40.83252,751.739502,-593.536377,2.554738
38.269043,744.232178,-603.240967,2.555482
42.297363,747.161865,-611.297607,2.556239
40.924072,746.429443,-589.233398,2.556983
42.297363,743.31665,-603.607178,2.557727
34.240723,739.471436,-595.64209,2.558471
39.916992,744.506836,-593.811035,2.559224
45.86792,732.23877,-592.437744,2.559968
39.276123,734.436035,-596.374512,2.560773
42.205811,737.27417,-595.184326,2.561519
39.276123,736.083984,-593.811035,2.562279
39.916992,731.414795,-591.796875,2.563023
48.339844,737.365723,-586.303711,2.563768
42.755127,737.182617,-594.818115,2.564512
37.445068,725.006104,-596.374512,2.565266
34.790039,730.224609,-584.106445,2.56601
41.8396,735.992432,-584.106445,2.566754
43.212891,730.59082,-583.190918,2.567499
38.085938,723.907471,-584.106445,2.568253
37.902832,721.984863,-588.775635,2.568997
31.402588,726.470947,-584.014893,2.569742
34.790039,732.055664,-589.416504,2.570486
30.12085,738.28125,-595.733643,2.571239
28.015137,731.872559,-592.712402,2.571983
33.14209,733.428955,-591.888428,2.572727
23.254395,743.133545,-587.036133,2.573472
22.888184,745.330811,-597.106934,2.574248
26.641846,747.98584,-596.099854,2.574999
16.662598,747.253418,-595.275879,2.575793
15.014648,746.520996,-594.909668,2.576541
12.634277,749.816895,-598.297119,2.577308
12.451172,758.239746,-590.881348,2.578053
14.831543,754.760742,-597.290039,2.578797
6.866455,757.873535,-604.431152,2.57954
9.063721,759.338379,-597.015381,2.580294
13.641357,756.225586,-603.33252,2.581038
7.873535,762.451172,-601.226807,2.581844
1.190186,755.493164,-599.304199,2.582634
4.211426,755.584717,-605.621338,2.583452
-2.655029,757.049561,-600.128174,2.584229
-0.366211,764.282227,-602.600098,2.58498
-6.958008,758.331299,-604.980469,2.58575
-6.408691,768.310547,-598.754883,2.586491
-6.958008,759.979248,-631.164551,2.587231
-2.105713,760.345459,-606.35376,2.587972
1.831055,759.521484,-608.459473,2.588724
-3.295898,757.69043,-605.895996,2.589464
4.486084,758.69751,-613.769531,2.590204
5.493164,757.598877,-616.149902,2.590947
-5.310059,760.620117,-617.797852,2.591692
-3.204346,763.73291,-611.297607,2.592423
-1.739502,763.275146,-610.198975,2.593153
-14.648438,760.803223,-607.543945,2.593884
-9.521484,760.437012,-607.086182,2.594644
0.640869,758.789062,-611.663818,2.595385
-1.281738,764.648438,-613.220215,2.596126
-4.669189,774.261475,-610.290527,2.596866
-5.859375,767.669678,-614.501953,2.597617
-2.471924,773.895264,-617.523193,2.598357
-10.803223,771.789551,-614.868164,2.599098
-8.422852,763.000488,-618.621826,2.599839
-9.521484,769.958496,-619.995117,2.600594
-6.225586,765.74707,-618.07251,2.601336
-5.493164,779.205322,-618.347168,2.602077
-2.01416,775.085449,-613.128662,2.602817
0.457764,776.916504,-622.924805,2.603559
2.105713,778.839111,-620.544434,2.604291
1.647949,790.374756,-611.663818,2.605024
-1.922607,785.980225,-616.973877,2.605758
-5.0354,795.86792,-619.903564,2.606518
-4.943848,808.685303,-611.938477,2.607259
-9.521484,806.213379,-618.347168,2.608001
-5.126953,808.410645,-624.206543,2.608743
-6.134033,812.713623,-622.009277,2.609497
1.831055,817.016602,-616.241455,2.610237
-1.739502,810.333252,-624.389648,2.610977
-3.845215,815.643311,-620.08667,2.611717
-0.457764,808.59375,-619.995117,2.612457
-5.126953,810.241699,-617.797852,2.613188
0.0,807.678223,-625.396729,2.613918
3.387451,799.987793,-622.650146,2.614648
6.317139,804.382324,-618.255615,2.615398
-3.479004,797.973633,-624.755859,2.616137
-2.655029,796.142578,-617.523193,2.616876
5.950928,804.56543,-618.438721,2.617615
6.04248,802.825928,-618.621826,2.618363
7.232666,792.388916,-619.537354,2.619103
2.838135,790.466309,-618.804932,2.619842
3.112793,789.001465,-623.840332,2.620583
-2.563477,790.924072,-617.06543,2.621335
6.225586,787.902832,-622.192383,2.622074
10.528564,785.430908,-627.044678,2.622813
3.112793,786.621094,-617.523193,2.623552
0.732422,796.051025,-618.438721,2.624302
0.549316,792.388916,-620.178223,2.625041
5.859375,797.241211,-613.952637,2.62578
-9.887695,788.269043,-608.734131,2.626519
22.521973,779.846191,-615.509033,2.627363
0.640869,776.275635,-613.128662,2.628103
-4.02832,785.614014,-621.459961,2.628842
-4.577637,785.614014,-615.325928,2.629581
1.739502,767.944336,-614.685059,2.630327
20.41626,769.775391,-614.501953,2.631066
2.838135,765.472412,-617.523193,2.631806
6.68335,754.943848,-616.149902,2.632545
16.296387,758.239746,-613.40332,2.633293
5.859375,758.514404,-615.41748,2.634032
4.669189,755.584717,-619.537354,2.634771
-0.640869,754.943848,-617.340088,2.63551
8.422852,755.218506,-622.009277,2.636259
13.73291,748.535156,-621.276855,2.636998
11.352539,754.486084,-623.657227,2.637738
6.958008,756.134033,-613.128662,2.638477
11.71875,759.338379,-612.670898,2.639225
14.282227,752.380371,-613.40332,2.639966
12.908936,750.732422,-614.593506,2.640705
20.050049,754.669189,-614.959717,2.641445
14.556885,757.232666,-604.156494,2.642196
21.972656,753.204346,-612.670898,2.642935
25.085449,757.049561,-604.888916,2.643674
20.050049,754.852295,-604.888916,2.644414
15.106201,750.732422,-605.438232,2.645164
13.092041,743.865967,-616.882324,2.645903
10.528564,746.154785,-602.69165,2.646642
19.042969,738.922119,-604.431152,2.647418
16.479492,742.218018,-613.40332,2.648229
20.965576,733.154297,-611.938477,2.648979
29.47998,734.069824,-614.776611,2.64972
31.311035,739.562988,-609.832764,2.65048
24.902344,733.520508,-607.36084,2.651221
26.641846,736.175537,-608.184814,2.651961
27.832031,744.873047,-611.114502,2.652702
21.514893,746.887207,-610.015869,2.653454
27.46582,743.95752,-606.170654,2.654273
23.4375,753.936768,-605.255127,2.655031
18.4021,753.02124,-611.297607,2.6558
24.810791,751.831055,-605.987549,2.656544
25.085449,755.767822,-603.057861,2.657287
25.45166,761.901855,-601.867676,2.658031
31.036377,762.359619,-596.191406,2.658785
23.254395,762.542725,-597.564697,2.659529
20.41626,765.838623,-597.290039,2.660274
28.198242,769.226074,-602.416992,2.661018
23.712158,762.451172,-598.480225,2.661772
23.620605,766.571045,-598.022461,2.662517
27.282715,759.70459,-613.586426,2.663263
22.613525,760.345459,-614.501953,2.664008
32.409668,767.39502,-610.290527,2.664763
30.029297,777.832031,-608.734131,2.665507
30.303955,788.452148,-605.987549,2.66625
31.12793,787.902832,-601.867676,2.667058
27.191162,785.15625,-599.945068,2.667818
30.944824,793.670654,-590.423584,2.668563
34.698486,788.17749,-602.600098,2.669306
26.000977,789.642334,-606.35376,2.670051
31.768799,787.811279,-603.424072,2.670804
31.219482,793.304443,-619.262695,2.671548
33.050537,786.712646,-589.508057,2.672292
31.677246,785.064697,-604.614258,2.673036
34.973145,795.501709,-609.741211,2.67379
39.825439,792.938232,-608.36792,2.674534
33.416748,782.318115,-615.05127,2.675278
37.628174,785.064697,-616.699219,2.676021
43.212891,784.14917,-620.635986,2.676816
30.303955,787.17041,-614.227295,2.677562
33.416748,798.706055,-614.4104,2.678306
31.311035,784.698486,-612.487793,2.679049
31.036377,782.867432,-615.325928,2.679806
24.902344,792.205811,-604.797363,2.68055
30.578613,788.635254,-607.36084,2.681294
28.106689,790.924072,-631.256104,2.682038
34.240723,791.015625,-610.931396,2.682782
32.592773,794.128418,-613.311768,2.683516
32.501221,789.093018,-603.881836,2.68425
35.522461,793.395996,-612.030029,2.684984
30.761719,794.586182,-593.170166,2.685737
37.261963,794.677734,-603.973389,2.686544
30.761719,789.642334,-608.825684,2.687289
29.388428,788.17749,-610.38208,2.688031
19.500732,779.205322,-608.276367,2.688785
22.338867,780.395508,-606.35376,2.689527
24.536133,781.036377,-613.494873,2.69027
18.951416,777.191162,-613.494873,2.691012
23.254395,781.219482,-617.523193,2.691764
23.803711,773.254395,-609.924316,2.692506
18.676758,770.874023,-624.572754,2.693249
20.599365,762.084961,-609.466553,2.694043
25.268555,766.387939,-607.177734,2.694798
22.613525,767.211914,-610.656738,2.695541
18.127441,763.000488,-618.255615,2.69629
18.859863,768.4021,-614.593506,2.697051
14.648438,771.881104,-605.712891,2.697843
12.817383,776.916504,-608.001709,2.698638
18.035889,765.472412,-610.015869,2.699401
14.73999,767.76123,-603.790283,2.700184
11.077881,774.810791,-611.38916,2.701066
13.366699,777.46582,-618.804932,2.701824
13.275146,762.268066,-610.931396,2.702594
16.296387,767.578125,-617.797852,2.703369
10.253906,760.894775,-616.699219,2.704133
10.253906,765.930176,-617.248535,2.704902
14.099121,766.479492,-623.657227,2.705724
20.507812,764.923096,-615.142822,2.70654
8.239746,763.366699,-611.938477,2.707301
9.246826,768.951416,-609.832764,2.708085
6.500244,765.380859,-617.156982,2.708872
5.493164,767.39502,-616.607666,2.709657
3.845215,751.464844,-614.044189,2.710404
4.02832,776.092529,-610.198975,2.711201
-7.232666,770.233154,-617.614746,2.712008
2.655029,766.296387,-613.220215,2.712764
6.134033,774.993896,-617.889404,2.713506
0.549316,777.923584,-620.269775,2.714248
21.514893,769.40918,-615.05127,2.714991
-0.732422,776.45874,-614.868164,2.715745
-3.936768,783.233643,-619.812012,2.716487
-4.943848,780.670166,-615.509033,2.717229
-3.204346,781.768799,-613.311768,2.717971
-6.68335,773.803711,-618.347168,2.718723
-3.479004,773.895264,-625.854492,2.719474
-1.922607,772.521973,-624.847412,2.720223
-1.281738,771.972656,-621.276855,2.721034
-5.401611,767.944336,-626.12915,2.721785
-0.457764,770.507812,-622.467041,2.722527
-8.514404,765.289307,-623.748779,2.723271
1.00708,773.712158,-616.241455,2.724013
-7.598877,771.148682,-619.445801,2.724755
-6.591797,764.923096,-619.720459,2.725496
-13.183594,765.197754,-618.713379,2.726238
-15.74707,768.768311,-613.952637,2.72698
-11.901855,771.881104,-621.368408,2.727722
-16.296387,780.670166,-619.995117,2.728542
-8.605957,786.16333,-618.255615,2.7293
-9.521484,780.212402,-614.044189,2.730094
-4.211426,775.360107,-611.114502,2.730844
-9.338379,783.416748,-619.628906,2.731588
-14.648438,780.029297,-617.248535,2.732331
-13.092041,779.205322,-621.643066,2.733089
-9.063721,790.924072,-617.614746,2.733833
-15.838623,788.17749,-621.551514,2.734586
-9.887695,789.916992,-613.037109,2.735408
-12.72583,790.557861,-621.002197,2.736174
-13.73291,790.557861,-618.347168,2.736921
-8.148193,788.818359,-623.199463,2.737665
-6.958008,792.480469,-617.248535,2.738411
-7.232666,789.916992,-619.07959,2.73917
-1.739502,778.106689,-619.903564,2.739905
-0.640869,772.796631,-631.347656,2.740638
-5.401611,778.4729,-626.220703,2.741374
-3.570557,777.374268,-625.854492,2.742132
1.281738,775.726318,-617.614746,2.742875
2.105713,771.42334,-620.635986,2.743619
2.01416,775.268555,-612.670898,2.744362
7.415771,796.417236,-607.818604,2.745116
9.796143,780.212402,-608.276367,2.745859
2.838135,775.177002,-613.311768,2.746603
7.598877,784.606934,-611.938477,2.747347
8.148193,777.648926,-619.537354,2.748103
2.288818,754.852295,-610.107422,2.748846
11.71875,770.507812,-608.917236,2.749591
12.084961,758.148193,-610.656738,2.750335
8.69751,769.592285,-632.720947,2.751088
5.767822,758.789062,-616.05835,2.751831
9.796143,757.141113,-613.494873,2.752575
13.183594,743.774414,-616.973877,2.753319
7.781982,746.429443,-616.699219,2.754072
9.429932,743.225098,-616.699219,2.754815
10.528564,765.472412,-609.741211,2.755558
12.634277,755.67627,-606.719971,2.756302
12.817383,751.739502,-605.987549,2.757047
14.831543,758.514404,-609.100342,2.757781
17.120361,753.845215,-609.558105,2.758515
12.268066,757.965088,-614.776611,2.759249
18.676758,759.429932,-609.466553,2.760034
14.099121,760.894775,-608.825684,2.760782
13.73291,761.535645,-607.910156,2.761525
19.775391,760.253906,-611.38916,2.762332
19.592285,765.197754,-610.656738,2.763097
22.888184,761.352539,-616.790771,2.763843
26.550293,774.810791,-614.501953,2.764586
24.169922,765.380859,-610.931396,2.765328
15.380859,763.916016,-608.917236,2.766088
21.514893,771.148682,-611.38916,2.76683
17.76123,769.500732,-613.311768,2.767573
17.120361,765.74707,-613.311768,2.768316
23.254395,764.831543,-612.945557,2.769131
24.810791,768.585205,-612.762451,2.769924
19.500732,770.41626,-615.234375,2.770667
23.071289,766.204834,-608.825684,2.77141
27.099609,768.768311,-605.163574,2.772152
26.824951,768.4021,-607.910156,2.772895
2.838135,766.113281,-609.649658,2.773637
28.930664,761.71875,-609.558105,2.774379
24.353027,774.169922,-591.247559,2.775208
23.803711,764.648438,-610.198975,2.775951
18.859863,761.444092,-607.086182,2.776693
21.057129,764.465332,-600.402832,2.777436
18.585205,757.232666,-611.297607,2.778179
19.40918,769.592285,-612.854004,2.778922
14.099121,756.866455,-615.41748,2.779665
14.923096,758.880615,-622.192383,2.780408
13.366699,770.324707,-610.748291,2.781203
18.768311,769.40918,-615.875244,2.781947
12.72583,763.824463,-626.495361,2.78269
15.74707,767.578125,-614.227295,2.783433
19.683838,771.697998,-614.044189,2.784176
12.176514,779.296875,-609.832764,2.784918
14.73999,774.719238,-616.973877,2.78566
14.007568,768.768311,-617.248535,2.786402
15.289307,780.212402,-618.255615,2.787155
16.845703,779.754639,-618.621826,2.787892
8.880615,790.649414,-615.875244,2.788625
9.613037,775.909424,-617.340088,2.789362
20.965576,787.17041,-619.262695,2.790095
15.838623,783.325195,-616.333008,2.790828
4.02832,784.606934,-616.790771,2.791629
3.204346,785.430908,-624.298096,2.792419
0.640869,783.874512,-622.10083,2.793171
3.936768,791.107178,-624.298096,2.793921
6.317139,790.83252,-620.452881,2.794687
-2.929688,784.881592,-621.276855,2.795475
4.302979,784.881592,-622.833252,2.796308
7.507324,784.881592,-624.389648,2.797054
3.662109,782.867432,-625.305176,2.797787
-5.67627,784.423828,-631.622314,2.798573
-3.936768,789.642334,-634.094238,2.799317
-1.190186,790.740967,-630.432129,2.800061
0.183105,786.16333,-624.298096,2.800804
-2.105713,788.269043,-630.249023,2.80156
-6.408691,777.557373,-635.559082,2.802304
-4.302979,779.663086,-631.439209,2.803048
0.640869,784.790039,-630.889893,2.803791
-1.190186,789.367676,-630.340576,2.804545
20.507812,797.790527,-630.615234,2.805365
-6.68335,802.368164,-631.988525,2.806149
-5.310059,800.354004,-636.474609,2.80694
-6.317139,793.670654,-635.650635,2.807732
-7.965088,820.037842,-638.580322,2.808478
-4.211426,803.283691,-640.50293,2.809222
-3.112793,801.9104,-640.411377,2.809987
-11.901855,794.677734,-635.650635,2.810731
-4.852295,797.698975,-634.094238,2.811475
-14.465332,777.648926,-631.256104,2.81222
-9.429932,788.452148,-635.559082,2.812977
-11.260986,789.001465,-639.312744,2.813721
-6.866455,792.572021,-638.671875,2.814465
-8.880615,793.579102,-632.995605,2.815209
-8.331299,790.283203,-635.742188,2.815963
-10.71167,782.409668,-638.305664,2.816707
-7.141113,791.473389,-638.580322,2.817451
-6.500244,785.614014,-638.48877,2.818195
-10.253906,794.403076,-641.052246,2.818948
-6.68335,796.142578,-637.207031,2.819692
-4.394531,791.290283,-636.84082,2.820436
4.02832,794.86084,-634.643555,2.821179
1.281738,796.691895,-639.678955,2.821934
0.549316,794.586182,-638.763428,2.822678
2.380371,795.227051,-635.284424,2.823423
-3.845215,794.586182,-633.911133,2.824167
-7.965088,794.403076,-638.397217,2.824921
-5.767822,797.973633,-637.023926,2.825665
2.01416,804.748535,-626.953125,2.826408
-5.218506,794.86084,-622.650146,2.827151
-4.119873,791.564941,-627.319336,2.827904
-4.760742,789.459229,-626.77002,2.828648
2.197266,789.367676,-629.333496,2.829391
5.401611,787.445068,-621.734619,2.830135
0.732422,783.14209,-629.333496,2.830898
-1.281738,780.212402,-624.206543,2.831641
6.225586,780.578613,-628.875732,2.832385
6.68335,777.557373,-630.79834,2.833129
2.838135,777.282715,-628.143311,2.833873
6.134033,780.761719,-622.833252,2.834607
6.04248,782.592773,-620.361328,2.835341
10.253906,773.345947,-625.213623,2.836074
9.338379,770.233154,-631.256104,2.836819
12.451172,764.648438,-627.410889,2.837561
8.331299,768.310547,-624.023438,2.838303
12.451172,770.233154,-624.572754,2.839045
16.571045,770.41626,-626.037598,2.839787
15.655518,762.908936,-623.199463,2.840556
19.683838,772.705078,-613.952637,2.841297
11.810303,763.824463,-621.368408,2.842031
14.190674,760.070801,-622.833252,2.842798
12.176514,753.295898,-618.621826,2.843532
13.641357,761.169434,-616.149902,2.844266
14.373779,760.345459,-614.501953,2.844999
12.176514,765.472412,-617.706299,2.845734
17.852783,759.429932,-614.593506,2.846534
21.331787,770.782471,-611.572266,2.847269
13.275146,767.486572,-611.480713,2.848061
12.72583,764.190674,-615.600586,2.848892
14.923096,758.239746,-618.988037,2.849627
20.874023,774.353027,-613.037109,2.850361
18.310547,771.240234,-615.05127,2.851094
15.563965,772.979736,-609.375,2.851856
21.42334,772.521973,-618.07251,2.852599
19.500732,776.641846,-630.065918,2.853342
15.563965,776.824951,-617.06543,2.854084
20.233154,773.254395,-620.178223,2.854837
22.705078,781.036377,-609.649658,2.855579
27.557373,777.46582,-611.206055,2.856321
24.261475,777.374268,-608.825684,2.857063
27.648926,784.423828,-603.881836,2.857816
23.712158,774.169922,-598.937988,2.858558
18.127441,771.148682,-607.818604,2.8593
24.078369,780.029297,-602.416992,2.860043
18.218994,777.374268,-614.227295,2.860795
14.007568,773.4375,-614.868164,2.861537
17.486572,770.782471,-611.938477,2.86228
15.655518,768.859863,-611.663818,2.863022
7.598877,768.768311,-613.40332,2.863775
13.916016,769.683838,-615.142822,2.864517
18.127441,765.289307,-607.177734,2.86526
14.923096,762.268066,-609.191895,2.866003
5.67627,763.366699,-614.868164,2.866755
10.528564,754.760742,-606.628418,2.867496
10.803223,755.493164,-616.333008,2.868243
18.676758,752.655029,-613.586426,2.869055
12.908936,747.161865,-611.938477,2.869902
16.571045,743.682861,-612.121582,2.870653
17.486572,747.344971,-606.994629,2.871395
15.106201,754.760742,-606.811523,2.872138
7.232666,743.041992,-602.783203,2.872936
5.67627,743.041992,-606.445312,2.873678
11.993408,749.816895,-606.445312,2.874421
17.120361,755.493164,-599.487305,2.875163
15.380859,742.858887,-604.888916,2.875971
8.605957,744.506836,-605.895996,2.87675
0.366211,743.133545,-607.727051,2.877507
10.070801,751.647949,-606.445312,2.878323
5.859375,751.464844,-609.741211,2.87907
7.781982,748.077393,-610.839844,2.879813
9.887695,753.02124,-613.037109,2.880556
7.232666,760.162354,-614.044189,2.881311
3.112793,756.04248,-612.121582,2.882055
-1.464844,760.437012,-608.001709,2.882799
-0.915527,761.352539,-623.016357,2.883542
4.211426,765.380859,-617.889404,2.884296
6.134033,762.084961,-620.819092,2.88504
4.760742,763.641357,-614.959717,2.885785
-2.838135,772.888184,-615.783691,2.88653
5.767822,774.169922,-615.325928,2.887286
3.479004,775.268555,-616.790771,2.888029
-0.549316,778.930664,-623.016357,2.888773
0.732422,780.578613,-615.325928,2.889517
0.640869,785.247803,-612.579346,2.890262
3.295898,789.001465,-615.41748,2.891006
2.197266,781.860352,-616.607666,2.891749
1.556396,781.768799,-615.142822,2.892493
4.302979,784.606934,-617.431641,2.893238
0.183105,785.430908,-615.692139,2.893982
-3.845215,779.388428,-615.875244,2.894726
3.204346,785.064697,-605.255127,2.895469
3.479004,770.233154,-619.628906,2.896224
9.063721,775.177002,-624.938965,2.896967
10.803223,777.374268,-613.952637,2.897711
11.810303,778.656006,-626.312256,2.898455
12.908936,775.085449,-620.635986,2.8992
13.000488,774.810791,-616.333008,2.899944
14.73999,774.810791,-618.438721,2.900687
6.225586,770.599365,-621.09375,2.901431
12.451172,775.634766,-616.149902,2.902174
13.824463,775.817871,-618.255615,2.902918
12.084961,775.726318,-620.635986,2.903663
13.641357,776.367188,-616.149902,2.904406
13.275146,775.360107,-614.868164,2.905145
24.993896,777.648926,-612.304688,2.905879
13.73291,772.613525,-615.142822,2.906613
17.211914,780.761719,-621.276855,2.907348
17.486572,779.388428,-608.459473,2.908088
12.817383,777.832031,-611.114502,2.908831
8.239746,750.823975,-611.572266,2.909574
19.958496,772.338867,-615.966797,2.910316
19.958496,773.803711,-616.333008,2.911058
22.155762,774.169922,-622.009277,2.9118
21.972656,785.614014,-616.149902,2.912543
20.41626,782.958984,-610.015869,2.913285
22.338867,776.000977,-611.114502,2.914027
46.051025,777.099609,-611.206055,2.914769
20.874023,780.029297,-612.670898,2.915511
21.148682,778.4729,-611.663818,2.916254
24.902344,781.585693,-615.234375,2.916996
21.697998,779.47998,-619.262695,2.917749
0.091553,779.571533,-611.755371,2.918491
15.563965,774.261475,-617.706299,2.919234
13.549805,778.930664,-619.812012,2.919976
18.768311,793.121338,-614.501953,2.920729
22.796631,774.902344,-615.600586,2.921508
17.39502,772.43042,-614.593506,2.922335
24.810791,776.916504,-622.009277,2.923079
12.268066,774.169922,-617.06543,2.923821
16.113281,769.40918,-617.523193,2.924564
18.493652,777.46582,-611.114502,2.925306
14.648438,767.39502,-609.924316,2.926049
8.331299,775.360107,-621.826172,2.92682
16.296387,772.155762,-622.924805,2.927561
17.669678,773.529053,-620.452881,2.928304
17.211914,765.106201,-624.481201,2.929047
16.662598,767.120361,-616.607666,2.929788
14.282227,761.901855,-612.39624,2.930531
10.71167,762.268066,-616.333008,2.931273
9.429932,763.641357,-611.480713,2.932015
18.218994,756.500244,-623.199463,2.932757
14.373779,760.253906,-618.438721,2.933499
10.070801,757.873535,-625.213623,2.934241
20.965576,761.993408,-623.474121,2.934983
10.345459,758.880615,-624.023438,2.935739
10.162354,766.479492,-624.847412,2.936477
2.563477,768.768311,-619.171143,2.937211
9.979248,766.75415,-622.009277,2.937946
5.0354,766.937256,-619.262695,2.93868
2.655029,780.853271,-626.495361,2.939413
1.739502,780.853271,-621.917725,2.940146
5.767822,778.015137,-622.283936,2.940904
1.098633,774.993896,-613.40332,2.941741
-0.640869,777.46582,-627.410889,2.942575
-0.274658,794.769287,-621.368408,2.943356
-0.823975,775.909424,-623.840332,2.944127
-1.739502,778.656006,-621.185303,2.944872
3.112793,776.550293,-614.593506,2.945607
