ACC_X,ACC_Y,ACC_Z,Time
-436.889648,608.184814,613.40332,1.280173
-553.985596,678.039551,585.113525,1.280916
-478.271484,626.861572,723.266602,1.28166
-471.954346,575.592041,804.656982,1.282404
-457.855225,544.0979,750.091553,1.283148
-386.71875,562.957764,728.759766,1.284003
-507.293701,565.246582,712.738037,1.284627
-495.758057,545.471191,707.519531,1.285371
-261.383057,616.790771,748.352051,1.286115
-482.116699,669.250488,763.275146,1.28687
-503.173828,642.333984,769.500732,1.287614
-489.257812,650.756836,758.422852,1.288358
-500.976562,682.525635,772.613525,1.289102
-520.294189,698.455811,771.514893,1.289856
-427.093506,761.71875,780.944824,1.2906
-389.190674,785.064697,808.685303,1.291344
-282.623291,834.411621,867.370605,1.292088
-94.665527,746.246338,904.724121,1.292832
337.188721,568.725586,853.088379,1.293567
420.227051,1150.360107,818.206787,1.294301
86.425781,347.808838,913.05542,1.295035
-1688.415527,853.179932,731.506348,1.295793
-1638.244629,693.695068,805.755615,1.296537
-1352.142334,756.225586,818.206787,1.297281
-592.803955,698.272705,769.775391,1.298025
1104.858398,858.947754,772.521973,1.298779
-818.847656,736.450195,854.827881,1.299523
-393.768311,771.148682,881.652832,1.300247
-272.644043,752.655029,921.295166,1.300992
-500.518799,777.557373,968.261719,1.301747
-497.406006,769.317627,1015.777588,1.302491
-397.43042,829.559326,1025.024414,1.303236
-314.758301,986.38916,1051.208496,1.303979
-315.307617,1027.862549,1110.717773,1.30475
133.666992,586.212158,1133.422852,1.305513
226.226807,559.936523,1150.45166,1.306276
-95.76416,1219.116211,1109.802246,1.30702
134.490967,1263.336182,1122.894287,1.307786
1243.377686,349.54834,1078.765869,1.308546
39.550781,943.17627,1017.700195,1.309306
-166.168213,649.841309,929.718018,1.310066
-87.06665,828.094482,930.633545,1.310836
-403.198242,766.113281,934.387207,1.311581
-277.587891,775.085449,905.456543,1.312325
-249.755859,763.000488,893.005371,1.313079
-274.475098,802.185059,935.119629,1.313812
-4.211426,742.950439,920.10498,1.314546
-247.375488,83.03833,990.966797,1.315279
-1057.891846,585.479736,929.077148,1.316044
-721.343994,694.976807,963.775635,1.31676
-905.181885,373.352051,944.641113,1.317505
-444.30542,96.588135,919.830322,1.318247
-313.751221,426.361084,904.35791,1.319005
-1228.820801,781.860352,833.862305,1.319786
-986.022949,1118.774414,799.438477,1.320538
-814.086914,776.092529,804.840088,1.321284
13.183594,496.856689,815.368652,1.322034
-235.565186,107.391357,801.727295,1.322779
-263.031006,198.394775,738.189697,1.323523
54.473877,156.555176,721.160889,1.324268
592.895508,494.750977,645.812988,1.325012
-16.387939,495.666504,637.390137,1.325755
320.43457,595.733643,416.290283,1.326499
419.769287,644.622803,407.867432,1.327257
109.588623,720.88623,473.510742,1.328
152.435303,625.030518,466.73584,1.328744
171.75293,638.122559,471.038818,1.329488
-9.521484,1033.447266,429.473877,1.330228
-6.04248,329.589844,434.234619,1.330962
-633.911133,253.326416,449.981689,1.331695
-404.754639,223.937988,378.387451,1.332428
-397.796631,311.553955,349.090576,1.333166
-526.794434,372.802734,358.703613,1.33391
-563.964844,360.717773,357.421875,1.334655
-578.704834,250.305176,345.977783,1.335399
-500.701904,241.699219,310.821533,1.336149
-270.446777,304.779053,290.863037,1.336883
-182.830811,445.220947,283.813477,1.337616
-122.680664,453.918457,286.651611,1.33835
5.950928,382.415771,281.524658,1.339084
5.310059,373.077393,254.79126,1.339839
-46.508789,400.360107,235.656738,1.340583
-94.482422,441.741943,238.677979,1.341326
-273.193359,388.458252,256.988525,1.34207
-396.606445,337.097168,229.156494,1.342814
-304.504395,306.243896,206.085205,1.343548
-263.305664,337.188721,195.648193,1.344282
-290.039062,324.829102,184.936523,1.345015
-281.982422,326.568604,171.203613,1.345781
-265.136719,312.194824,178.710938,1.346525
-262.939453,333.618164,184.020996,1.347269
-288.94043,347.259521,180.633545,1.348012
-311.096191,378.295898,194.18335,1.348766
-314.575195,385.162354,201.324463,1.349511
-313.568115,373.809814,196.929932,1.350254
-311.462402,385.253906,197.753906,1.350998
-300.567627,344.696045,203.979492,1.351752
-116.729736,203.613281,259.552002,1.352496
-132.019043,145.843506,339.294434,1.353239
-907.37915,234.375,351.745605,1.353983
-1228.637695,383.972168,325.653076,1.354868
-1441.680908,444.488525,335.449219,1.355614
-1360.931396,421.966553,355.224609,1.356393
-1239.715576,462.432861,382.415771,1.357164
-1348.205566,511.779785,410.522461,1.357912
-1451.751709,585.388184,424.621582,1.358686
-1414.031982,622.375488,454.833984,1.359435
-1438.842773,606.994629,476.715088,1.360213
-1356.079102,603.790283,476.989746,1.360958
-1357.36084,602.325439,509.58252,1.361702
-1332.366943,611.755371,515.350342,1.362446
-1118.041992,633.361816,538.05542,1.3632
-1115.112305,651.947021,580.718994,1.363945
-1077.758789,628.692627,648.193359,1.364716
-870.758057,526.885986,667.327881,1.365512
-695.617676,617.980957,683.074951,1.366258
-701.660156,632.263184,719.055176,1.367002
-636.749268,610.748291,764.373779,1.367744
-495.666504,597.839355,778.839111,1.368491
-382.507324,614.4104,780.761719,1.369235
-315.490723,639.953613,707.15332,1.369979
-221.282959,648.925781,684.7229,1.370723
-210.662842,638.580322,678.222656,1.371482
-210.296631,626.586914,682.159424,1.372227
-233.459473,607.086182,692.962646,1.372972
-233.734131,598.480225,695.251465,1.373716
-226.318359,606.445312,682.159424,1.374455
-217.529297,608.184814,669.433594,1.375196
-220.458984,609.466553,671.081543,1.375934
-218.811035,630.523682,682.983398,1.376719
-216.522217,636.291504,689.300537,1.377497
-220.550537,618.438721,698.364258,1.37824
-248.931885,617.248535,710.174561,1.378908
-319.885254,597.930908,729.766846,1.379784
-323.364258,582.183838,734.710693,1.380535
-350.006104,594.360352,735.900879,1.381277
-399.44458,593.078613,750.549316,1.382013
-446.777344,587.677002,759.979248,1.382773
-488.067627,569.824219,770.141602,1.383507
-513.061523,558.197021,777.923584,1.384238
-544.921875,554.351807,789.001465,1.384969
-543.823242,551.971436,780.761719,1.385723
-554.80957,542.358398,768.585205,1.386455
-562.957764,523.406982,759.979248,1.387185
-562.866211,499.786377,748.352051,1.387916
-549.499512,482.116699,730.59082,1.388673
-533.203125,477.722168,706.14624,1.389413
-513.885498,471.588135,673.553467,1.390168
-473.693848,465.270996,653.22876,1.390913
-429.016113,466.461182,626.220703,1.391666
-422.058105,473.510742,591.522217,1.392407
-401.824951,458.129883,593.719482,1.393146
-397.064209,460.05249,574.951172,1.393886
-372.711182,458.496094,574.768066,1.394635
-333.251953,452.728271,559.661865,1.395374
-325.10376,461.517334,557.922363,1.396114
-303.039551,477.813721,553.253174,1.396853
-289.855957,472.320557,539.337158,1.397602
-284.454346,465.637207,538.05542,1.398342
-269.256592,472.869873,533.203125,1.399081
-265.50293,476.623535,527.435303,1.399821
-257.537842,490.447998,525.878906,1.40057
-255.981445,485.687256,527.893066,1.40131
-251.861572,487.701416,525.238037,1.40205
-247.467041,492.370605,516.448975,1.40279
-249.023438,490.997314,514.068604,1.403538
-267.059326,509.674072,527.069092,1.404278
-276.031494,499.053955,532.928467,1.405017
-291.778564,522.216797,531.463623,1.405757
-297.546387,516.174316,539.520264,1.406503
-298.461914,510.772705,550.689697,1.40724
-310.821533,520.568848,561.584473,1.407978
-307.159424,526.794434,572.479248,1.40874
-296.722412,530.639648,591.796875,1.409497
-287.017822,547.302246,606.811523,1.410237
-279.602051,558.837891,620.269775,1.410979
-272.277832,585.479736,624.664307,1.41172
-269.989014,573.852539,620.819092,1.412472
-281.524658,561.035156,641.601562,1.413212
-276.580811,607.452393,645.629883,1.413952
-181.274414,567.810059,620.727539,1.414691
-305.145264,597.290039,629.150391,1.41544
-369.9646,591.61377,635.925293,1.416181
-275.390625,621.276855,658.996582,1.416921
-288.391113,657.623291,711.456299,1.417661
-357.60498,641.876221,743.682861,1.418424
-347.808838,621.826172,770.233154,1.41918
-328.033447,652.770996,781.951904,1.419962
-310.546875,665.771484,799.072266,1.420762
-315.948486,644.805908,807.128906,1.421516
-334.716797,670.532227,819.854736,1.422303
-304.6875,665.313721,810.516357,1.423067
-262.115479,639.038086,832.855225,1.423882
-294.616699,635.83374,847.77832,1.424632
-283.905029,637.664795,864.898682,1.425372
-254.882812,650.20752,861.419678,1.426282
-257.995605,639.587402,876.525879,1.427046
-266.784668,641.51001,877.075195,1.427879
-270.263672,636.84082,883.026123,1.428663
-289.398193,606.994629,871.032715,1.429466
-314.483643,598.571777,854.553223,1.430217
-347.167969,572.021484,805.847168,1.430979
-359.25293,552.062988,766.937256,1.43172
-386.901855,541.07666,739.837646,1.432455
-396.240234,532.287598,731.689453,1.433188
-398.620605,516.906738,704.589844,1.433982
-397.521973,518.096924,698.547363,1.434716
-393.127441,518.554688,690.124512,1.43545
-394.775391,515.441895,679.870605,1.436184
-376.647949,515.625,677.67334,1.436928
-355.041504,515.625,680.603027,1.437661
-362.548828,510.131836,675.201416,1.438395
-366.30249,507.843018,670.349121,1.439128
-371.97876,494.293213,671.905518,1.43989
-374.359131,494.476318,667.053223,1.440624
-373.260498,488.891602,665.863037,1.441357
-389.73999,486.14502,668.060303,1.442091
-398.345947,476.348877,662.567139,1.442846
-403.381348,464.904785,665.222168,1.443581
-411.712646,460.968018,658.905029,1.444371
-425.994873,439.086914,655.609131,1.445173
-431.488037,437.255859,648.010254,1.44592
-425.262451,442.932129,645.355225,1.446653
-422.241211,434.783936,641.052246,1.447387
-419.494629,424.713135,630.432129,1.448138
-409.14917,417.480469,613.677979,1.44892
-377.929688,420.043945,603.973389,1.44969
-395.690918,411.987305,594.268799,1.450432
-389.007568,404.296875,588.95874,1.451166
-387.359619,410.980225,575.500488,1.4519
-382.324219,408.14209,569.549561,1.452634
-379.211426,408.691406,562.774658,1.45338
-371.063232,408.508301,549.407959,1.454123
-362.915039,402.46582,544.921875,1.454866
-362.915039,403.564453,548.217773,1.45561
-356.781006,400.726318,548.034668,1.456349
-336.547852,390.74707,539.886475,1.457083
-322.998047,385.986328,550.872803,1.457817
-312.194824,397.521973,557.739258,1.458551
-299.194336,423.156738,561.584473,1.459307
-292.144775,422.241211,567.626953,1.460052
-270.721436,443.481445,574.493408,1.460796
-258.728027,458.496094,583.374023,1.461541
-242.614746,464.813232,599.761963,1.462285
-239.776611,489.257812,616.516113,1.463029
-222.564697,492.095947,637.756348,1.463774
-202.606201,496.490479,645.080566,1.464517
-179.534912,515.441895,660.827637,1.465262
-156.646729,534.0271,676.391602,1.466078
-138.885498,535.766602,674.926758,1.466825
-127.441406,550.048828,688.568115,1.467569
-140.075684,549.316406,687.652588,1.468368
-134.033203,557.647705,677.856445,1.469113
-146.66748,562.316895,682.159424,1.469907
-150.787354,563.140869,693.42041,1.470656
-160.125732,576.141357,694.519043,1.471417
-145.385742,575.866699,709.16748,1.472162
-124.87793,543.640137,739.746094,1.472906
-169.830322,590.240479,821.594238,1.47365
-188.690186,592.437744,837.341309,1.474312
-180.358887,626.586914,844.482422,1.475056
-146.484375,640.319824,847.045898,1.4758
-112.1521,653.778076,844.573975,1.476544
-69.213867,658.447266,860.046387,1.477287
-16.845703,666.778564,857.666016,1.478021
-62.713623,668.884277,869.293213,1.478755
-158.477783,651.123047,886.413574,1.479489
-98.510742,647.277832,889.61792,1.480255
-74.707031,666.412354,890.441895,1.480998
-94.116211,655.151367,902.252197,1.481741
-101.074219,652.038574,898.040771,1.482483
-88.531494,645.263672,893.64624,1.483235
-72.32666,638.397217,902.709961,1.483977
-68.206787,645.904541,897.399902,1.48472
-55.023193,640.960693,899.32251,1.485462
-62.255859,644.714355,874.969482,1.486214
-49.163818,637.207031,873.596191,1.486957
-42.84668,635.284424,866.18042,1.487698
-46.600342,616.699219,868.19458,1.48844
-44.403076,595.458984,872.589111,1.489184
-31.860352,582.092285,864.349365,1.489918
-17.120361,589.96582,859.588623,1.490651
-9.70459,583.190918,849.975586,1.491425
-4.394531,575.958252,848.052979,1.492183
-6.68335,570.648193,852.905273,1.492927
-6.04248,570.465088,852.905273,1.49367
-8.148193,549.957275,854.003906,1.494414
0.366211,550.048828,852.996826,1.495168
2.929688,552.062988,831.939697,1.495913
43.579102,546.936035,775.268555,1.496656
58.685303,535.766602,773.4375,1.4974
-4.394531,509.216309,793.85376,1.498232
-17.39502,503.448486,784.14917,1.498967
-18.493652,494.110107,766.479492,1.499701
-8.605957,481.201172,745.056152,1.500435
-3.753662,478.729248,727.294922,1.501198
-24.719238,448.974609,713.195801,1.501943
-39.733887,441.741943,687.194824,1.502687
-65.368652,416.564941,677.856445,1.503431
-67.840576,423.980713,669.525146,1.504185
-66.925049,424.621582,660.27832,1.504929
-67.108154,421.325684,656.158447,1.505671
-60.974121,427.91748,635.559082,1.506405
-60.241699,425.537109,634.552002,1.507162
-53.466797,433.868408,638.85498,1.507906
-52.276611,420.410156,629.241943,1.50865
-54.290771,429.107666,630.889893,1.509394
-57.769775,420.593262,618.896484,1.510138
-59.967041,410.614014,615.05127,1.510872
-66.009521,407.043457,610.015869,1.511606
-73.33374,407.043457,603.515625,1.51234
-74.432373,394.317627,608.36792,1.51311
-84.136963,393.859863,605.34668,1.513854
-77.636719,396.240234,599.578857,1.514599
-81.207275,410.614014,595.001221,1.515343
-92.102051,419.494629,590.789795,1.516097
-90.637207,434.143066,594.268799,1.516843
-97.77832,448.974609,586.303711,1.51759
-147.216797,461.791992,581.90918,1.518372
-163.513184,468.658447,579.986572,1.519151
-203.24707,476.806641,578.704834,1.519896
-216.97998,487.426758,566.253662,1.520641
-224.853516,491.821289,567.993164,1.521386
-231.35376,506.103516,569.641113,1.52214
-231.079102,477.44751,565.612793,1.522885
-225.219727,504.089355,570.098877,1.523687
-232.36084,513.885498,575.317383,1.524444
-257.171631,559.112549,586.669922,1.525212
-247.283936,588.317871,596.374512,1.525961
-214.416504,604.980469,597.65625,1.526705
-213.134766,605.895996,605.255127,1.52747
-225.311279,616.699219,620.910645,1.528214
-239.501953,615.234375,635.284424,1.528959
-262.390137,641.876221,636.932373,1.529704
-274.841309,655.609131,638.85498,1.53046
-290.771484,652.770996,639.587402,1.531205
-307.800293,673.919678,648.376465,1.531949
-313.293457,700.378418,654.327393,1.532693
-339.84375,683.532715,656.524658,1.533438
-355.59082,685.455322,657.531738,1.534172
-362.27417,675.933838,649.291992,1.534908
-28.289795,687.652588,711.364746,1.535642
16.479492,680.236816,676.940918,1.536403
-465.179443,710.998535,680.511475,1.537148
-487.335205,675.933838,673.64502,1.537892
-351.379395,699.09668,649.475098,1.538636
-423.339844,743.774414,651.031494,1.539391
-480.834961,733.24585,647.369385,1.540135
-391.113281,767.028809,650.299072,1.540932
-467.651367,761.71875,659.088135,1.541679
-460.693359,764.190674,672.637939,1.542439
-435.882568,767.39502,683.532715,1.543183
-503.448486,779.205322,683.532715,1.543927
-495.758057,774.169922,695.251465,1.544671
-540.435791,772.43042,697.357178,1.545426
-607.543945,748.718262,703.582764,1.54617
-641.784668,754.394531,719.055176,1.546913
-755.767822,759.246826,717.681885,1.547657
-774.44458,765.106201,732.421875,1.548401
-818.847656,782.592773,742.584229,1.549135
-862.976074,817.382812,747.528076,1.549869
-876.89209,820.037842,762.359619,1.550603
-876.068115,846.588135,760.345459,1.551351
-870.117188,849.975586,764.099121,1.552085
-867.919922,846.405029,763.916016,1.552819
-842.010498,834.503174,759.155273,1.553552
-812.438965,822.143555,743.774414,1.55431
-745.697021,828.826904,730.865479,1.555054
-720.062256,831.756592,721.801758,1.555798
-650.665283,821.136475,705.963135,1.556542
-578.430176,827.911377,695.617676,1.557299
-526.885986,837.06665,693.054199,1.557974
-499.328613,850.799561,690.765381,1.558719
-446.594238,848.968506,670.898438,1.559463
-423.88916,855.010986,666.96167,1.560215
-401.000977,848.236084,662.93335,1.56096
-393.127441,845.214844,652.130127,1.561704
-382.965088,842.926025,645.355225,1.562448
-394.317627,845.123291,641.418457,1.563203
-392.028809,821.31958,642.425537,1.563947
-405.944824,838.256836,642.150879,1.564692
-425.90332,843.109131,634.735107,1.565435
-446.136475,850.982666,637.939453,1.566179
-481.109619,847.045898,644.714355,1.566914
-485.687256,845.397949,650.939941,1.567647
-505.096436,845.76416,653.686523,1.568381
-517.089844,852.722168,663.94043,1.569139
-522.033691,860.687256,680.145264,1.569969
-530.36499,862.884521,689.025879,1.570714
-522.033691,868.652344,712.738037,1.571459
-512.969971,874.969482,731.5979,1.572232
-507.568359,877.258301,760.162354,1.572984
-474.243164,909.118652,777.923584,1.573729
-455.474854,890.258789,787.994385,1.574473
-415.557861,900.878906,798.339844,1.575218
-412.536621,904.907227,799.072266,1.575962
-392.028809,898.864746,786.254883,1.576706
-382.873535,902.984619,780.12085,1.577451
-371.337891,893.188477,770.507812,1.578198
-365.478516,895.202637,765.197754,1.578942
-370.239258,882.202148,755.310059,1.579686
-365.570068,879.180908,756.134033,1.58043
-359.161377,880.371094,763.916016,1.581164
-353.393555,869.750977,763.275146,1.581897
-345.153809,868.835449,770.782471,1.582632
-331.329346,863.616943,764.831543,1.583365
-314.025879,864.349365,776.733398,1.584125
-301.391602,857.757568,783.782959,1.58487
-296.539307,846.496582,782.226562,1.585614
-293.243408,840.545654,785.247803,1.586358
-283.905029,829.467773,787.994385,1.587112
-275.20752,833.03833,789.367676,1.587856
-273.376465,822.967529,778.839111,1.5886
-257.537842,817.382812,779.663086,1.589344
-247.833252,810.424805,771.789551,1.590097
-229.888916,802.91748,759.887695,1.590845
-228.973389,779.754639,747.619629,1.591593
-216.61377,765.289307,739.654541,1.592386
-213.775635,759.887695,734.436035,1.593139
-203.704834,757.507324,726.104736,1.593884
-199.310303,737.27417,711.547852,1.594628
-203.796387,733.154297,704.772949,1.595383
-192.352295,720.703125,709.442139,1.596127
-183.013916,715.484619,694.061279,1.596872
-177.429199,694.244385,682.434082,1.597648
-171.203613,686.737061,674.743652,1.598429
-171.203613,668.060303,675.292969,1.599189
-160.03418,663.757324,668.701172,1.599941
-141.998291,649.017334,659.820557,1.600685
-133.575439,644.073486,648.376465,1.601449
-137.145996,625.488281,644.714355,1.602194
-134.674072,626.77002,644.348145,1.602938
-135.223389,628.692627,640.960693,1.603682
-127.624512,612.670898,629.699707,1.604436
-123.687744,587.402344,632.354736,1.605181
-125.152588,603.607178,626.403809,1.605925
-94.665527,595.275879,617.06543,1.606664
-111.785889,591.97998,615.509033,1.607413
-127.990723,650.482178,603.515625,1.608147
-131.652832,719.146729,601.959229,1.608882
-108.215332,742.584229,589.141846,1.609615
-58.044434,742.30957,576.507568,1.610374
-58.044434,719.604492,565.795898,1.611119
-48.248291,654.876709,548.583984,1.611863
-56.57959,564.788818,544.464111,1.612607
-112.1521,563.50708,546.75293,1.613362
-203.338623,587.310791,555.725098,1.614106
-190.338135,579.803467,551.605225,1.61485
-176.513672,630.523682,553.344727,1.615594
-164.154053,678.588867,558.197021,1.616348
-108.398438,645.629883,555.908203,1.617092
-59.783936,624.11499,582.183838,1.617836
-60.150146,600.402832,619.812012,1.61858
-97.686768,585.754395,655.883789,1.61934
-100.524902,612.39624,658.538818,1.620087
-56.304932,632.8125,643.157959,1.62083
7.873535,647.735596,642.059326,1.621574
27.46582,694.42749,633.728027,1.622331
34.606934,714.752197,601.867676,1.623081
16.113281,680.511475,596.64917,1.623873
-14.556885,651.397705,593.078613,1.624635
-77.453613,649.841309,590.698242,1.625369
-114.532471,630.157471,587.219238,1.626103
-116.455078,628.692627,576.23291,1.626837
-109.771729,629.974365,564.788818,1.627597
-105.285645,654.327393,554.80957,1.628341
-90.820312,662.93335,550.872803,1.629085
-86.700439,660.461426,533.477783,1.62983
-77.728271,668.518066,534.851074,1.630576
-93.383789,682.342529,521.026611,1.63131
-94.665527,686.645508,517.63916,1.632043
-94.299316,695.617676,516.265869,1.632777
-98.602295,701.751709,518.829346,1.63352
-96.954346,708.80127,526.245117,1.634265
-100.982666,712.82959,531.738281,1.635009
-93.566895,724.914551,541.717529,1.635773
-91.094971,731.140137,542.907715,1.636527
-91.552734,744.873047,544.73877,1.637272
-87.890625,738.098145,547.485352,1.638016
-80.841064,730.499268,558.197021,1.638761
-81.939697,723.54126,568.908691,1.639515
-80.474854,726.745605,578.704834,1.64026
-75.439453,730.682373,587.402344,1.641006
-53.009033,733.520508,594.543457,1.641846
-44.403076,735.168457,595.367432,1.642599
-26.367188,744.232178,597.106934,1.643333
-21.42334,754.486084,576.416016,1.644067
-21.789551,754.760742,583.099365,1.644801
-33.966064,759.063721,575.958252,1.645562
-43.579102,750.0,577.056885,1.646306
-62.438965,761.71875,580.352783,1.64705
-73.974609,760.986328,572.479248,1.647794
-79.193115,767.303467,568.54248,1.648551
-74.798584,772.979736,574.401855,1.649295
-75.714111,778.381348,578.155518,1.650039
-77.453613,784.057617,576.507568,1.650783
-75.531006,780.029297,586.669922,1.651538
-78.918457,792.755127,585.113525,1.652282
-94.482422,801.361084,593.811035,1.653026
-100.067139,806.213379,593.994141,1.65377
-120.117188,805.206299,599.304199,1.654514
-136.413574,802.368164,601.867676,1.655248
-140.258789,803.283691,590.148926,1.655982
-144.287109,801.544189,596.008301,1.656716
-143.188477,803.192139,584.93042,1.657485
-142.913818,811.798096,582.275391,1.65823
-128.723145,831.756592,583.282471,1.658974
-123.504639,832.397461,585.754395,1.659719
-133.483887,817.016602,586.761475,1.660474
-159.393311,814.544678,586.212158,1.661219
-149.139404,806.945801,583.831787,1.66197
-152.069092,822.32666,595.825195,1.662763
-151.519775,831.939697,602.416992,1.66343
-145.111084,834.411621,592.437744,1.664175
-142.730713,832.580566,585.479736,1.664919
-147.30835,837.341309,592.163086,1.665663
-148.223877,829.467773,601.318359,1.666418
-147.399902,832.214355,599.395752,1.667163
-143.096924,839.263916,595.916748,1.667938
-143.188477,849.334717,591.61377,1.6687
-140.808105,845.214844,596.282959,1.669473
-144.012451,843.292236,591.522217,1.670224
-154.35791,837.158203,590.881348,1.670969
-167.633057,830.932617,588.775635,1.671734
-166.809082,832.946777,588.95874,1.672479
-173.217773,817.29126,584.747314,1.673223
-162.780762,822.235107,580.718994,1.673967
-162.872314,818.664551,583.465576,1.674722
-151.885986,823.242188,569.366455,1.675466
-152.984619,820.678711,562.866211,1.67621
-163.787842,816.650391,548.492432,1.676954
-168.548584,815.643311,551.147461,1.67769
-161.224365,803.009033,520.019531,1.67843
-181.091309,794.311523,523.956299,1.679164
-180.81665,799.987793,512.878418,1.679898
-188.873291,812.438965,510.040283,1.680633
-181.365967,817.199707,486.968994,1.681367
-169.921875,815.826416,490.997314,1.682101
-165.527344,824.249268,475.43335,1.682835
-153.167725,826.171875,471.588135,1.683577
-141.63208,840.087891,474.334717,1.684322
-144.65332,859.771729,478.912354,1.685066
-138.427734,864.440918,481.384277,1.68581
-127.166748,889.801025,488.983154,1.686556
-129.455566,907.196045,500.701904,1.6873
-135.131836,912.414551,510.955811,1.688045
-141.815186,929.168701,524.688721,1.688789
-149.414062,941.986084,539.337158,1.689533
-151.611328,947.753906,559.295654,1.690277
-160.491943,983.551025,585.388184,1.69102
-160.583496,978.973389,599.304199,1.691764
-162.231445,995.819092,608.184814,1.692506
-152.252197,1001.220703,615.325928,1.69324
-170.928955,1009.918213,621.551514,1.693974
-163.421631,1003.78418,635.559082,1.694709
-166.992188,1011.016846,654.785156,1.695457
-194.549561,1006.164551,691.131592,1.696203
-209.289551,1029.327393,703.582764,1.696938
-161.865234,1049.926758,720.977783,1.697673
-127.532959,1056.060791,719.421387,1.698407
-104.370117,1062.469482,722.717285,1.699163
-99.243164,1058.624268,716.491699,1.699908
-145.6604,1066.223145,707.977295,1.700652
-183.380127,1057.159424,701.751709,1.701397
-199.401855,1051.940918,693.145752,1.702151
-228.057861,1072.998047,687.011719,1.702896
-231.079102,1079.681396,665.588379,1.703641
-243.255615,1090.301514,665.130615,1.704385
-224.761963,1055.877686,651.2146,1.705139
-238.586426,1035.461426,636.84082,1.705884
-251.403809,1020.996094,630.340576,1.706629
-247.741699,1010.925293,624.664307,1.707373
-277.770996,1009.002686,634.82666,1.708127
-270.080566,1016.418457,612.39624,1.708871
-242.156982,1025.115967,593.811035,1.709606
-263.671875,1022.55249,584.472656,1.71034
-274.932861,1009.552002,576.416016,1.711104
-282.165527,989.776611,559.844971,1.711849
-284.362793,983.642578,549.682617,1.712698
-246.643066,991.882324,551.055908,1.713444
-213.317871,992.06543,548.309326,1.714189
-201.690674,993.621826,550.323486,1.714934
-159.210205,995.910645,545.928955,1.715678
-146.850586,998.657227,551.78833,1.716424
-136.962891,987.579346,548.858643,1.717168
-142.547607,960.571289,546.569824,1.717913
-147.125244,958.557129,540.893555,1.718657
-121.673584,945.922852,541.168213,1.719406
-132.202148,935.394287,537.414551,1.72014
-132.843018,939.056396,525.146484,1.720874
-125.518799,940.704346,504.730225,1.721607
-130.554199,931.732178,503.631592,1.722343
-146.30127,911.773682,498.22998,1.723087
-143.737793,898.773193,487.518311,1.723831
-139.984131,879.089355,491.546631,1.724575
-159.484863,869.567871,489.349365,1.725319
-147.674561,864.807129,474.79248,1.726071
-130.92041,851.623535,477.355957,1.726815
-130.737305,864.990234,487.243652,1.72756
-107.849121,837.524414,474.975586,1.728303
-91.003418,849.700928,472.961426,1.729057
-86.883545,860.229492,461.242676,1.729801
-71.228027,836.05957,435.058594,1.730545
-70.953369,798.706055,417.938232,1.731289
-78.277588,817.016602,410.064697,1.732033
-84.228516,807.312012,379.119873,1.732767
-89.538574,799.346924,367.034912,1.7335
-96.130371,779.754639,346.618652,1.734234
-108.398438,769.683838,321.533203,1.735005
-101.257324,759.613037,307.434082,1.735757
-96.405029,761.444092,294.891357,1.736528
-106.47583,751.281738,278.778076,1.737283
-94.207764,753.02124,241.333008,1.738028
-94.390869,776.45874,228.057861,1.738773
-111.236572,768.310547,182.098389,1.739517
-111.14502,759.521484,173.675537,1.740272
-119.476318,755.767822,126.068115,1.741017
-117.004395,747.344971,59.417725,1.741761
-152.709961,737.091064,41.19873,1.742505
-132.202148,748.168945,-2.288818,1.743248
-126.983643,766.937256,-53.283691,1.744042
-109.49707,754.211426,-103.729248,1.744796
-101.898193,737.823486,-142.822266,1.745566
-137.237549,708.068848,-154.35791,1.746341
-137.786865,731.5979,-171.020508,1.747085
-111.053467,749.908447,-204.345703,1.747829
-138.519287,729.675293,-221.832275,1.748573
-152.252197,748.901367,-291.320801,1.749328
-144.65332,722.351074,-351.745605,1.750075
-207.641602,723.266602,-388.641357,1.750819
-218.902588,704.040527,-397.979736,1.751563
-207.183838,735.076904,-405.029297,1.752309
-206.451416,674.926758,-419.128418,1.753043
-199.768066,839.355469,-421.691895,1.753777
-124.969482,778.106689,-421.142578,1.754512
-169.189453,815.368652,-434.143066,1.755272
-138.427734,799.255371,-445.129395,1.756017
-126.525879,873.87085,-466.644287,1.756761
-127.807617,878.631592,-432.861328,1.757506
-182.4646,920.562744,-421.234131,1.75826
-226.68457,960.205078,-393.310547,1.759004
-256.896973,947.387695,-378.845215,1.759748
-280.609131,986.297607,-325.927734,1.760493
-315.673828,1011.932373,-230.804443,1.761247
-306.884766,1021.911621,-155.731201,1.761991
-288.848877,1088.928223,-37.811279,1.762736
-287.29248,1064.849854,-41.290283,1.76348
-100.616455,552.520752,71.777344,1.764224
-169.464111,1046.722412,246.734619,1.764958
-525.512695,747.894287,299.6521,1.765693
-287.200928,1135.345459,299.285889,1.766427
-62.62207,1186.340332,314.208984,1.767194
-522.674561,927.337646,378.02124,1.767938
-170.837402,1022.003174,354.400635,1.768681
-300.65918,1176.635742,367.492676,1.769425
-176.971436,1269.104004,394.866943,1.77018
489.074707,1413.391113,392.669678,1.770924
-23.803711,1167.114258,508.209229,1.771669
-677.124023,1590.454102,609.832764,1.772413
-354.949951,1767.791748,641.601562,1.773158
-503.723145,1550.537109,745.880127,1.773892
21.881104,1526.916504,747.436523,1.774627
-12.72583,1490.936279,820.587158,1.775361
-158.660889,768.493652,2045.10498,1.776117
-1207.580566,1343.62793,1932.128906,1.776862
-1418.243408,1443.328857,1870.605469,1.777606
-931.549072,1560.150146,1637.969971,1.778351
499.603271,1749.206543,1003.143311,1.779107
406.402588,1796.081543,977.142334,1.779851
24.536133,1728.149414,966.705322,1.780595
345.336914,1744.903564,1010.101318,1.78134
685.821533,1698.669434,1041.229248,1.782094
588.592529,1703.887939,1172.790527,1.782839
767.669678,1648.956299,1091.491699,1.78367
60.333252,1671.295166,1006.347656,1.784415
-187.5,1745.727539,923.583984,1.785172
-67.932129,1693.17627,899.230957,1.785917
-74.249268,1664.337158,875.518799,1.786662
-72.692871,1690.887451,829.376221,1.787406
-192.718506,1698.21167,805.206299,1.78816
-323.0896,1658.935547,783.966064,1.788905
-354.400635,1643.737793,756.134033,1.789649
-497.406006,1601.715088,743.95752,1.790394
-536.315918,1534.790039,732.788086,1.791148
-574.676514,1506.317139,725.097656,1.791893
-836.517334,1492.126465,787.261963,1.792637
-1226.257324,1371.002197,872.039795,1.793401
-1255.737305,1279.907227,794.952393,1.794157
-491.912842,1347.106934,717.498779,1.794902
386.260986,1416.503906,553.253174,1.795647
280.609131,1389.678955,406.036377,1.796391
-315.948486,1323.303223,356.964111,1.797145
-514.526367,1300.506592,297.454834,1.797949
-396.697998,1298.858643,243.896484,1.798715
-80.01709,1296.386719,212.585449,1.79946
-24.169922,1262.237549,165.527344,1.80022
-95.855713,1247.772217,134.674072,1.800965
-221.832275,1224.151611,120.20874,1.801709
-239.501953,1228.820801,73.608398,1.802453
-299.468994,1193.115234,72.875977,1.803207
-473.419189,1154.47998,37.078857,1.803952
-565.246582,1146.148682,17.39502,1.804696
-597.106934,1107.60498,16.204834,1.80544
-541.07666,1092.956543,18.127441,1.806194
-537.963867,1067.779541,16.845703,1.806997
-242.614746,1020.355225,-3.753662,1.807761
-161.499023,941.253662,-51.818848,1.808529
-43.945312,917.266846,-134.58252,1.809287
-33.966064,854.095459,-142.822266,1.810034
-390.838623,743.31665,21.789551,1.810789
-743.408203,740.936279,220.825195,1.811585
-748.901367,814.544678,219.726562,1.812335
-559.47876,751.556396,85.601807,1.813103
-455.383301,719.787598,6.591797,1.813877
-369.506836,682.891846,-128.173828,1.81462
-392.39502,671.630859,-217.254639,1.815365
-367.401123,696.075439,-265.228271,1.816109
-54.473877,723.175049,-388.641357,1.816855
81.481934,714.294434,-437.347412,1.817599
4.943848,711.090088,-524.32251,1.818344
-129.730225,755.310059,-612.030029,1.819089
-299.377441,771.057129,-658.081055,1.819833
-322.540283,793.85376,-695.251465,1.820569
-331.329346,789.367676,-692.230225,1.821303
-560.119629,659.912109,-629.974365,1.822036
-686.553955,614.044189,-625.854492,1.822786
-718.322754,563.964844,-647.460938,1.823532
-153.167725,581.634521,-685.546875,1.824276
137.237549,657.623291,-704.13208,1.82502
697.723389,748.99292,-684.997559,1.825765
1817.321777,693.054199,-185.48584,1.82651
-392.944336,368.865967,67.016602,1.827254
-1809.7229,640.411377,182.830811,1.827999
-1664.337158,776.733398,134.216309,1.828749
-1442.871094,700.012207,30.212402,1.829484
-408.874512,796.142578,-200.317383,1.830218
1157.958984,1052.490234,-244.995117,1.830951
969.63501,907.562256,-264.678955,1.831703
-160.675049,894.195557,-369.140625,1.832438
-238.220215,937.591553,-401.000977,1.833172
-320.068359,773.986816,-135.864258,1.833906
-374.176025,710.632324,63.537598,1.834654
227.508545,885.772705,161.956787,1.835398
291.778564,1079.498291,124.420166,1.836142
-40.374756,1173.797607,103.179932,1.836885
-205.078125,1164.001465,-8.789062,1.837637
-483.673096,1170.318604,-123.962402,1.838371
281.982422,1214.355469,-331.695557,1.839106
1547.973633,1001.678467,-188.415527,1.83984
1411.651611,784.515381,-155.731201,1.840574
-90.637207,816.833496,168.548584,1.84133
-1694.915771,991.882324,254.150391,1.842073
-1661.499023,1212.982178,69.396973,1.842816
-1503.662109,1224.42627,-60.150146,1.843558
-1168.395996,1183.410645,-245.452881,1.844311
-913.604736,1071.44165,-219.268799,1.845054
280.059814,1087.646484,-50.994873,1.845817
-208.648682,1153.381348,71.502686,1.8466
-1710.021973,1099.914551,277.770996,1.847359
-482.48291,1168.670654,286.651611,1.848108
592.071533,1321.472168,115.264893,1.848853
2079.162598,1466.583252,186.401367,1.849619
1310.394287,1426.483154,803.375244,1.85039
2983.337402,2999.908447,2999.908447,1.85114
2955.230713,2999.908447,2999.908447,1.851884
2568.511963,2999.908447,2999.908447,1.852666
643.066406,1512.451172,-658.630371,1.85341
-1126.098633,984.283447,-2736.236572,1.854238
-2966.583252,388.275146,-2501.586914,1.854982
-1876.00708,458.129883,-299.102783,1.855738
-335.998535,675.384521,682.159424,1.856481
444.488525,1171.600342,710.449219,1.857224
452.911377,1168.395996,-109.771729,1.857966
971.099854,744.415283,-433.959961,1.85871
375.549316,676.757812,-727.752686,1.859444
-570.831299,744.415283,-549.682617,1.860178
-364.28833,1044.799805,98.968506,1.860925
-438.62915,1205.841064,378.204346,1.861686
-48.248291,1245.483398,412.811279,1.86243
-128.540039,1009.82666,-217.987061,1.863174
255.523682,872.772217,-322.174072,1.863919
231.628418,846.954346,-407.318115,1.864673
269.256592,863.250732,-111.419678,1.865417
233.642578,1046.630859,83.587646,1.866162
37.994385,1297.576904,236.38916,1.866906
-271.636963,1303.710938,209.289551,1.86766
-572.113037,1108.978271,-122.2229,1.868404
-683.532715,1022.369385,-225.67749,1.869149
-917.633057,983.459473,-175.415039,1.869893
-807.220459,1101.470947,114.898682,1.870636
-710.174561,1175.262451,203.063965,1.87137
-401.916504,1216.369629,208.099365,1.872104
-233.36792,1192.932129,48.797607,1.872838
-103.363037,1157.592773,5.767822,1.873605
-113.616943,1125.640869,56.57959,1.874349
-234.832764,1134.887695,78.094482,1.875095
-392.486572,1147.155762,150.32959,1.875843
-514.251709,1144.775391,146.484375,1.876641
-463.897705,1149.261475,131.652832,1.877396
-414.093018,1157.775879,98.052979,1.878141
-256.530762,1146.697998,105.560303,1.878885
-187.591553,1149.810791,60.424805,1.879645
-201.507568,1137.908936,64.178467,1.88039
-133.850098,1140.106201,-22.888184,1.881134
-205.993652,1127.563477,-102.722168,1.881878
-268.615723,1057.067871,-91.918945,1.882632
-223.937988,1005.432129,-132.568359,1.883377
-31.402588,976.959229,-144.287109,1.884122
100.250244,983.642578,-134.124756,1.884868
141.63208,990.142822,-118.743896,1.885615
87.249756,1011.108398,-125.061035,1.88635
19.775391,1035.095215,-124.694824,1.887084
-93.75,1040.313721,-129.364014,1.887818
-56.762695,1042.236328,-134.033203,1.888578
-31.494141,1040.313721,-150.421143,1.889323
7.049561,1058.624268,-151.153564,1.890067
4.669189,1059.265137,-138.153076,1.890811
-25.817871,1049.102783,-118.011475,1.891566
-84.04541,1037.567139,-105.194092,1.892311
-104.370117,1050.65918,-103.271484,1.893055
-121.21582,1082.244873,-105.377197,1.893799
-123.596191,1074.188232,-128.540039,1.894554
-134.307861,1052.398682,-140.075684,1.895299
-168.914795,1017.242432,-151.885986,1.896043
-160.125732,1013.031006,-127.258301,1.896787
-168.457031,1047.088623,-132.202148,1.897531
-153.808594,1067.41333,-94.024658,1.898265
-145.935059,1060.913086,-104.46167,1.898999
-145.935059,1025.665283,-155.731201,1.899733
-138.61084,1000.396729,-180.633545,1.900501
-106.018066,1009.82666,-189.331055,1.901246
-110.50415,1032.073975,-168.731689,1.90199
-108.123779,1051.300049,-145.751953,1.902734
-126.708984,1055.236816,-144.65332,1.903488
-138.885498,1044.342041,-182.556152,1.904233
-127.89917,1036.102295,-182.281494,1.904978
-147.674561,1043.426514,-188.140869,1.905742
-129.638672,1074.737549,-147.399902,1.906499
-133.666992,1090.301514,-154.907227,1.907244
-130.645752,1081.420898,-157.653809,1.907988
-143.005371,1057.983398,-189.239502,1.908732
-175.872803,1057.067871,-185.394287,1.909486
-173.400879,1052.764893,-188.50708,1.910231
-165.527344,1058.441162,-167.724609,1.910975
-149.139404,1080.688477,-173.309326,1.911719
-153.533936,1077.667236,-183.654785,1.912463
-172.485352,1067.596436,-193.908691,1.913197
-187.683105,1059.265137,-215.881348,1.913931
-181.640625,1056.610107,-225.128174,1.914666
-169.372559,1063.568115,-217.346191,1.915425
-158.203125,1066.680908,-218.62793,1.91617
-102.905273,1061.553955,-223.205566,1.916914
-78.186035,1040.588379,-269.165039,1.917727
-75.531006,1044.891357,-264.038086,1.918481
-98.236084,1068.511963,-230.34668,1.919254
-123.962402,1069.885254,-221.466064,1.920006
-139.434814,1069.885254,-246.643066,1.920775
-126.800537,1062.744141,-257.446289,1.92152
-148.223877,1064.300537,-239.776611,1.922264
-136.871338,1061.462402,-243.713379,1.923008
-145.294189,1057.525635,-238.586426,1.923854
-153.717041,1067.047119,-245.178223,1.924601
-149.963379,1072.631836,-226.68457,1.925345
-129.455566,1066.589355,-224.395752,1.926089
-121.948242,1093.322754,-223.754883,1.926831
-118.469238,1096.618652,-224.487305,1.927565
-158.935547,1074.005127,-227.050781,1.928299
-164.886475,1073.272705,-242.431641,1.929033
-190.612793,1077.301025,-232.177734,1.929794
-199.584961,1073.0896,-230.712891,1.930538
-190.429688,1072.814941,-240.509033,1.931283
-182.373047,1101.379395,-234.008789,1.932028
-175.872803,1108.612061,-233.459473,1.932782
-153.259277,1101.104736,-235.931396,1.933526
-145.294189,1089.935303,-257.354736,1.934271
-134.490967,1093.231201,-245.361328,1.935015
-134.674072,1097.076416,-230.072021,1.935769
-153.076172,1092.224121,-224.853516,1.936513
-158.660889,1100.463867,-229.705811,1.937257
-166.07666,1118.31665,-240.325928,1.938001
-170.013428,1103.027344,-245.269775,1.938745
-178.344727,1118.133545,-244.628906,1.939479
-188.415527,1117.218018,-212.127686,1.940213
-192.810059,1115.478516,-224.395752,1.940946
-192.993164,1121.795654,-235.107422,1.941714
-196.289062,1120.056152,-235.839844,1.942459
-196.014404,1119.049072,-215.698242,1.943203
-197.20459,1136.169434,-213.409424,1.943948
-195.007324,1120.147705,-224.395752,1.944692
-201.690674,1107.971191,-228.69873,1.945426
-218.170166,1115.020752,-240.05127,1.94616
-226.68457,1127.380371,-248.382568,1.946894
-209.014893,1137.817383,-237.670898,1.947673
-205.352783,1139.282227,-240.600586,1.948448
-223.846436,1148.803711,-245.544434,1.949197
-226.226807,1141.296387,-249.023438,1.949942
-211.853027,1126.373291,-253.143311,1.950706
-164.886475,1132.049561,-280.609131,1.95148
-55.297852,1136.169434,-292.694092,1.952236
29.296875,1112.27417,-296.447754,1.95301
29.663086,1095.88623,-311.004639,1.953762
57.861328,1079.956055,-335.449219,1.954506
79.376221,1075.286865,-345.062256,1.955249
67.199707,1090.759277,-310.72998,1.956009
58.044434,1113.464355,-216.97998,1.956753
10.803223,1142.39502,-194.18335,1.957498
-39.276123,1134.063721,-206.268311,1.958242
-109.588623,1133.514404,-238.037109,1.958996
-171.203613,1136.169434,-235.931396,1.959741
-155.914307,1153.656006,-203.704834,1.960486
-143.188477,1168.029785,-202.880859,1.961231
-136.138916,1165.557861,-159.393311,1.961976
-136.871338,1169.586182,-151.611328,1.962711
-200.775146,1164.642334,-143.005371,1.963445
-213.134766,1162.261963,-133.758545,1.964178
-232.269287,1169.311523,-123.87085,1.964922
-219.726562,1178.100586,-125.610352,1.965667
-181.915283,1182.128906,-128.631592,1.966411
-180.999756,1189.819336,-119.476318,1.967157
-198.120117,1172.698975,-129.455566,1.967908
-202.697754,1163.635254,-121.307373,1.968653
-180.908203,1146.057129,-119.567871,1.969397
-292.602539,1127.655029,-117.645264,1.970141
-321.624756,1142.39502,-103.820801,1.970886
-249.847412,1161.529541,-130.828857,1.971631
-180.450439,1147.796631,-142.272949,1.972375
-167.541504,1138.458252,-154.174805,1.97312
-119.384766,1124.267578,-145.935059,1.97386
-142.456055,1101.013184,-158.02002,1.974594
-147.125244,1096.801758,-159.484863,1.975327
-156.921387,1076.568604,-166.442871,1.976061
-170.10498,1069.335938,-175.689697,1.976801
-205.810547,1067.962646,-175.964355,1.977546
-230.987549,1069.152832,-178.619385,1.97829
-216.339111,1073.455811,-177.429199,1.979035
-175.964355,1042.327881,-195.556641,1.979778
-172.210693,1023.376465,-229.248047,1.980512
-189.51416,1015.228271,-240.142822,1.981246
-208.099365,1017.700195,-235.839844,1.981979
-210.113525,1022.460938,-252.044678,1.982727
-208.465576,1032.623291,-238.311768,1.983471
-228.607178,1009.185791,-232.36084,1.984215
21.240234,1030.334473,-232.635498,1.984959
537.780762,885.5896,-557.739258,1.985702
289.123535,777.099609,-387.72583,1.986456
170.928955,966.064453,-166.717529,1.9872
66.101074,1113.006592,-87.341309,1.987944
-193.450928,1095.794678,-121.398926,1.988688
-249.847412,999.847412,-272.277832,1.989442
-205.718994,927.429199,-363.922119,1.990208
-194.18335,929.260254,-296.264648,1.990954
-199.493408,981.628418,-263.305664,1.99178
-137.60376,1046.630859,-195.922852,1.992525
-140.808105,1056.152344,-222.106934,1.99327
-382.965088,1033.721924,-237.213135,1.994015
-500.88501,996.459961,-221.374512,1.994774
-448.608398,995.910645,-224.853516,1.995518
-238.220215,1026.031494,-228.881836,1.996262
-165.527344,1067.596436,-150.878906,1.997007
-163.238525,1093.505859,-113.525391,1.99778
-239.776611,1070.159912,-134.124756,1.998527
-238.220215,1053.405762,-222.747803,1.999272
-265.319824,1046.539307,-229.3396,2.000016
-238.220215,1062.286377,-187.5,2.000772
-207.183838,1065.856934,-156.646729,2.001517
-110.595703,1058.441162,-190.155029,2.002261
-84.594727,1027.862549,-237.945557,2.003005
-94.940186,1031.616211,-244.354248,2.003749
-102.813721,1043.701172,-222.747803,2.004483
-91.003418,1038.116455,-214.96582,2.005218
-58.868408,1039.94751,-214.050293,2.005952
-40.740967,1036.651611,-235.748291,2.006698
-85.144043,1036.010742,-246.002197,2.007443
-109.313965,1051.391602,-190.612793,2.008187
-99.975586,1069.885254,-187.316895,2.008932
-66.101074,1049.102783,-188.50708,2.009683
-68.023682,1028.869629,-210.479736,2.010428
-96.313477,1034.179688,-208.92334,2.011172
-118.652344,1057.983398,-192.993164,2.011916
-120.117188,1061.096191,-158.38623,2.012661
-74.523926,1053.039551,-164.520264,2.013406
-89.447021,1014.587402,-186.584473,2.01415
-82.489014,1012.481689,-203.430176,2.014894
-93.933105,1001.403809,-188.50708,2.015633
-88.623047,1010.101318,-174.133301,2.016367
-46.508789,1019.622803,-187.774658,2.017111
-37.719727,997.375488,-198.120117,2.017864
-67.657471,981.262207,-224.761963,2.018611
-63.446045,980.712891,-215.698242,2.01936
-47.058105,981.811523,-207.550049,2.020104
-36.804199,988.311768,-220.733643,2.020848
-65.093994,991.333008,-228.057861,2.021638
-74.157715,990.41748,-211.120605,2.022394
-57.58667,1016.052246,-184.387207,2.023161
-11.077881,996.551514,-196.472168,2.023915
-14.007568,974.761963,-206.726074,2.024659
-25.085449,972.564697,-207.366943,2.025402
-60.424805,967.346191,-186.676025,2.026146
-54.199219,987.762451,-186.035156,2.02689
-40.283203,974.853516,-187.591553,2.027634
-23.254395,974.853516,-181.732178,2.02838
-27.099609,964.050293,-170.013428,2.029124
-22.43042,953.887939,-176.147461,2.029867
-9.70459,956.817627,-175.598145,2.030601
8.148193,937.042236,-190.612793,2.031335
-6.68335,930.084229,-191.436768,2.032068
-35.705566,927.612305,-187.133789,2.03281
-20.41626,937.5,-191.711426,2.033565
-10.162354,936.676025,-198.394775,2.034309
-4.302979,919.830322,-195.556641,2.035053
-4.394531,891.082764,-205.9021,2.035797
-12.451172,897.857666,-200.317383,2.036555
-14.465332,908.02002,-198.120117,2.0373
-19.775391,907.836914,-180.908203,2.038044
-23.254395,891.174316,-192.443848,2.038788
-29.663086,875.976562,-207.275391,2.039393
-34.423828,886.230469,-188.049316,2.040137
-34.790039,893.64624,-185.852051,2.040883
-22.247314,890.991211,-183.929443,2.041627
-17.486572,879.638672,-175.415039,2.042371
-33.050537,869.934082,-201.782227,2.043105
-40.924072,885.131836,-202.056885,2.04384
-69.671631,885.5896,-168.273926,2.044574
-38.909912,885.131836,-175.689697,2.045342
-35.247803,865.356445,-201.507568,2.046086
-63.62915,866.18042,-187.133789,2.046831
-64.27002,864.440918,-194.274902,2.047576
-45.318604,880.096436,-195.739746,2.048329
-47.973633,882.843018,-166.168213,2.049072
-58.135986,863.800049,-167.816162,2.049816
-54.199219,857.208252,-198.21167,2.050559
-64.910889,837.799072,-214.508057,2.051303
-76.263428,843.75,-215.698242,2.052037
-83.496094,852.722168,-203.063965,2.052771
-96.679688,858.947754,-192.901611,2.053505
-92.102051,859.588623,-216.61377,2.054261
-85.876465,832.122803,-222.839355,2.055005
-90.545654,828.277588,-235.198975,2.05575
-85.693359,829.101562,-212.219238,2.056494
-82.489014,840.911865,-191.345215,2.057248
-62.530518,850.158691,-220.367432,2.057993
-57.58667,843.75,-225.860596,2.058738
-87.799072,825.805664,-209.655762,2.059482
-81.115723,842.010498,-233.184814,2.060237
-47.973633,832.580566,-220.184326,2.060982
-54.473877,829.284668,-208.557129,2.061727
-40.100098,843.017578,-209.564209,2.062576
-45.135498,852.996826,-204.986572,2.063337
-43.304443,847.961426,-202.423096,2.064082
-34.14917,844.390869,-206.634521,2.064827
-28.4729,840.637207,-211.578369,2.065571
-38.818359,848.510742,-167.449951,2.066322
-40.649414,863.800049,-149.597168,2.067057
-2.655029,863.433838,-158.38623,2.067791
-10.345459,847.229004,-167.358398,2.068525
-17.486572,845.855713,-161.407471,2.069282
-14.73999,856.842041,-153.625488,2.070016
0.549316,869.384766,-127.807617,2.070768
19.683838,856.47583,-135.223389,2.071517
3.662109,842.376709,-158.477783,2.072261
-26.641846,836.608887,-168.731689,2.073005
-1.739502,860.50415,-146.209717,2.073749
-16.204834,866.638184,-143.096924,2.074507
20.690918,874.328613,-130.737305,2.075252
29.754639,846.954346,-141.174316,2.076022
38.452148,833.129883,-163.787842,2.076767
27.923584,825.073242,-178.894043,2.077523
3.295898,852.355957,-162.139893,2.078268
-13.000488,867.1875,-129.180908,2.079011
6.68335,864.624023,-127.166748,2.079755
42.022705,839.172363,-175.872803,2.080509
45.776367,824.707031,-166.442871,2.081254
38.909912,821.868896,-176.605225,2.081998
26.275635,842.468262,-137.878418,2.082742
22.888184,853.45459,-125.335693,2.083486
25.45166,853.546143,-157.653809,2.084226
35.247803,856.384277,-148.773193,2.084964
50.628662,860.137939,-134.124756,2.085735
67.932129,849.151611,-119.20166,2.08651
69.671631,852.722168,-122.772217,2.087255
80.566406,854.644775,-126.983643,2.087999
57.769775,863.067627,-125.244141,2.088744
48.248291,871.307373,-109.863281,2.089498
65.734863,886.688232,-115.631104,2.090268
58.59375,886.59668,-109.039307,2.091029
74.890137,882.110596,-106.384277,2.091793
89.172363,877.349854,-115.17334,2.092544
72.235107,883.758545,-128.540039,2.093288
83.129883,894.195557,-131.103516,2.094032
79.742432,899.139404,-131.835938,2.094813
73.974609,895.751953,-130.096436,2.09556
109.49707,891.265869,-132.385254,2.096349
93.383789,882.659912,-152.435303,2.097096
92.376709,885.498047,-151.245117,2.097842
92.834473,883.850098,-131.744385,2.098587
92.559814,885.498047,-141.448975,2.099331
77.270508,886.962891,-145.202637,2.100094
81.939697,890.899658,-134.857178,2.100839
96.221924,897.399902,-133.575439,2.101584
100.616455,900.970459,-120.391846,2.102328
90.454102,896.026611,-119.018555,2.103072
95.947266,892.089844,-127.075195,2.103817
90.454102,894.927979,-123.596191,2.10455
83.496094,904.724121,-110.229492,2.105285
66.925049,887.237549,-103.546143,2.10602
58.319092,883.117676,-104.370117,2.106785
65.2771,890.808105,-98.693848,2.10753
60.791016,880.462646,-108.123779,2.108274
75.897217,871.856689,-112.335205,2.109018
40.466309,870.20874,-138.702393,2.109772
33.782959,876.89209,-119.476318,2.110516
17.486572,886.413574,-122.406006,2.11126
31.951904,867.370605,-123.22998,2.112005
42.84668,870.483398,-142.822266,2.112758
68.939209,850.250244,-163.330078,2.113503
51.086426,855.285645,-163.970947,2.114248
38.726807,863.891602,-157.196045,2.114993
-10.894775,859.313965,-144.104004,2.115739
-9.979248,852.44751,-153.533936,2.116473
3.570557,838.07373,-155.273438,2.117206
15.472412,843.109131,-158.203125,2.11794
11.169434,850.067139,-154.998779,2.118709
-11.352539,842.285156,-162.780762,2.119443
-28.747559,842.376709,-180.175781,2.120176
-52.55127,829.833984,-184.844971,2.120909
-66.467285,829.101562,-164.794922,2.12167
-56.396484,836.791992,-154.541016,2.122413
-31.951904,836.700439,-169.189453,2.123157
-24.993896,824.890137,-177.703857,2.1239
-38.269043,809.143066,-199.584961,2.124661
-55.57251,804.840088,-186.859131,2.125406
-89.996338,814.178467,-186.035156,2.126149
-106.018066,798.522949,-192.352295,2.126891
-105.102539,798.797607,-230.34668,2.127645
-97.595215,785.888672,-221.740723,2.128388
-89.813232,785.430908,-221.466064,2.129131
-123.22998,785.888672,-222.290039,2.129873
-140.167236,785.064697,-222.198486,2.130625
-148.31543,787.811279,-227.600098,2.131368
-145.202637,803.649902,-236.938477,2.132111
-139.343262,786.987305,-240.966797,2.132853
-116.821289,788.085938,-243.896484,2.133605
-115.631104,795.593262,-231.994629,2.13445
-140.441895,796.051025,-230.438232,2.135196
-160.858154,799.621582,-239.593506,2.135941
-176.696777,803.466797,-229.156494,2.136685
-193.084717,811.157227,-238.311768,2.137429
-193.359375,818.389893,-225.860596,2.138173
-170.288086,836.883545,-210.9375,2.138917
-170.471191,843.200684,-195.556641,2.139673
-167.999268,840.362549,-190.338135,2.140417
-154.815674,840.087891,-195.465088,2.141161
-165.161133,823.883057,-194.641113,2.141906
-191.436768,865.264893,-190.52124,2.142649
-210.754395,875.88501,-191.52832,2.143384
-211.578369,880.279541,-184.47876,2.144117
-201.690674,879.364014,-168.365479,2.144851
-188.781738,883.117676,-173.309326,2.145609
-161.773682,870.391846,-180.633545,2.146353
-174.957275,867.004395,-211.029053,2.147097
-191.162109,872.039795,-209.289551,2.147841
-202.23999,883.026123,-165.802002,2.148595
-210.479736,871.490479,-177.520752,2.149339
-186.218262,885.772705,-197.021484,2.150083
-147.125244,865.631104,-215.881348,2.150827
-180.541992,864.074707,-213.134766,2.15158
-191.894531,875.335693,-207.91626,2.152324
-187.133789,877.441406,-200.683594,2.153068
-193.54248,891.906738,-203.338623,2.153812
-199.859619,899.139404,-199.951172,2.15456
-184.661865,903.442383,-184.753418,2.1553
-162.963867,891.723633,-204.528809,2.156081
-150.146484,886.505127,-209.381104,2.156839
-161.04126,884.216309,-208.465576,2.157584
-172.485352,886.413574,-179.168701,2.158328
-169.372559,915.802002,-174.407959,2.159072
-162.414551,925.689697,-165.618896,2.159817
-150.146484,930.267334,-170.10498,2.160562
-130.554199,921.020508,-177.703857,2.161306
-105.560303,920.288086,-174.77417,2.162098
-111.51123,928.161621,-168.548584,2.16288
-126.342773,928.710938,-166.809082,2.163657
-132.019043,938.873291,-155.639648,2.164407
-141.448975,941.619873,-151.245117,2.16515
-141.723633,939.605713,-153.076172,2.165914
-130.737305,932.922363,-180.175781,2.166659
-93.109131,929.077148,-170.013428,2.167424
-80.657959,931.182861,-159.759521,2.168184
-53.55835,915.06958,-161.224365,2.16898
-58.59375,924.041748,-171.75293,2.16975
-89.996338,929.443359,-186.035156,2.170514
-82.214355,934.47876,-154.449463,2.171294
-66.28418,950.22583,-150.695801,2.172058
-29.022217,928.80249,-173.675537,2.172817
-26.550293,925.140381,-185.394287,2.173614
-9.979248,920.562744,-180.725098,2.17441
-11.169434,935.668945,-147.033691,2.175198
-14.923096,939.331055,-146.850586,2.175972
-18.768311,918.731689,-166.534424,2.176764
-7.781982,915.344238,-191.070557,2.177582
25.909424,928.253174,-187.774658,2.178382
43.85376,936.584473,-169.921875,2.179157
71.685791,915.06958,-201.507568,2.179938
71.594238,896.484375,-222.747803,2.180682
31.951904,876.159668,-225.219727,2.181445
48.797607,880.828857,-222.839355,2.18219
63.720703,911.865234,-202.789307,2.182945
71.777344,896.209717,-200.592041,2.18369
76.171875,894.012451,-198.852539,2.184433
82.122803,895.385742,-191.894531,2.185192
68.572998,894.378662,-170.654297,2.185939
60.699463,890.533447,-175.872803,2.186683
47.607422,889.526367,-175.78125,2.187426
41.381836,897.857666,-147.125244,2.188165
45.135498,911.04126,-143.920898,2.188898
50.537109,933.837891,-145.202637,2.189631
52.093506,915.252686,-153.900146,2.190383
40.374756,899.963379,-174.499512,2.191152
42.572021,901.062012,-171.75293,2.191896
66.833496,901.062012,-178.985596,2.192641
54.199219,897.033691,-175.506592,2.193384
50.720215,887.60376,-200.22583,2.194141
54.290771,880.828857,-214.233398,2.194885
50.445557,872.497559,-214.691162,2.195628
69.488525,875.335693,-213.409424,2.196372
53.924561,879.364014,-204.071045,2.197116
52.185059,883.575439,-218.078613,2.19785
54.199219,877.258301,-220.458984,2.198584
41.19873,879.91333,-218.078613,2.199318
40.466309,884.033203,-198.760986,2.200077
40.374756,902.526855,-189.51416,2.200821
34.973145,898.040771,-190.795898,2.201582
17.76123,897.674561,-197.113037,2.202326
12.176514,901.977539,-190.887451,2.203082
5.584717,908.569336,-191.986084,2.203826
7.324219,919.281006,-172.576904,2.20457
13.275146,915.985107,-176.78833,2.205314
13.183594,915.802002,-192.626953,2.206158
2.288818,918.731689,-194.366455,2.206903
-1.739502,917.999268,-196.563721,2.207646
4.02832,919.555664,-199.951172,2.20839
5.310059,924.041748,-192.169189,2.209135
13.73291,924.682617,-196.380615,2.209869
24.261475,921.478271,-205.169678,2.210602
16.296387,913.696289,-206.90918,2.211336
2.655029,923.309326,-192.352295,2.212092
-8.331299,920.10498,-199.310303,2.212827
2.105713,936.035156,-199.401855,2.213561
-3.845215,944.274902,-194.18335,2.214294
-8.789062,942.993164,-180.358887,2.215052
-0.823975,946.838379,-179.077148,2.215797
-6.225586,944.549561,-184.570312,2.216542
-11.71875,945.098877,-183.197021,2.217286
-18.127441,944.458008,-174.865723,2.21804
-22.338867,959.564209,-170.837402,2.218785
-32.775879,948.852539,-182.281494,2.219529
-28.015137,953.521729,-178.253174,2.220273
-32.226562,956.634521,-184.936523,2.221018
-29.388428,958.92334,-193.084717,2.221752
-20.233154,963.867188,-203.704834,2.222486
-15.106201,950.042725,-204.711914,2.223219
-15.74707,947.570801,-203.887939,2.224005
-20.141602,955.9021,-196.838379,2.224748
-13.366699,955.718994,-200.866699,2.22549
-9.613037,948.394775,-197.570801,2.226234
-20.141602,955.993652,-200.592041,2.227004
-18.127441,958.740234,-190.612793,2.227764
-21.881104,954.986572,-186.309814,2.228514
-19.40918,953.338623,-191.070557,2.229266
-24.44458,960.479736,-193.725586,2.22993
-32.318115,963.684082,-184.936523,2.230674
-29.571533,941.802979,-189.51416,2.23146
-34.606934,960.9375,-190.795898,2.232217
-41.564941,960.754395,-191.162109,2.232996
-47.790527,947.570801,-191.436768,2.233746
-45.227051,959.289551,-194.641113,2.23449
-52.368164,950.500488,-196.563721,2.235262
-47.149658,943.54248,-208.099365,2.236007
-49.255371,940.246582,-232.635498,2.236751
-53.833008,941.711426,-211.395264,2.237495
-55.206299,940.979004,-213.043213,2.238249
-53.924561,934.204102,-215.789795,2.238993
-63.354492,932.281494,-223.022461,2.239737
-63.537598,927.337646,-222.015381,2.240481
-68.756104,933.47168,-221.740723,2.241217
-68.847656,932.373047,-211.303711,2.241951
-69.763184,931.274414,-220.64209,2.242685
-72.692871,935.302734,-217.62085,2.24342
-70.129395,940.429688,-217.712402,2.244166
-71.960449,943.17627,-215.423584,2.244911
-72.784424,938.323975,-209.014893,2.245655
-71.044922,941.162109,-205.810547,2.246399
-81.665039,940.704346,-208.648682,2.247143
-79.925537,952.606201,-206.268311,2.247887
-84.594727,949.035645,-204.620361,2.248631
-82.122803,940.063477,-205.627441,2.249375
-81.573486,943.17627,-213.043213,2.250129
-82.03125,924.041748,-204.89502,2.250874
-84.503174,935.211182,-203.430176,2.251618
-79.925537,936.676025,-215.789795,2.252362
-85.05249,930.908203,-220.458984,2.253102
-85.327148,933.929443,-224.487305,2.253836
-91.461182,935.394287,-223.937988,2.25457
-90.454102,930.633545,-222.106934,2.255303
-92.193604,938.415527,-232.452393,2.256064
-86.334229,936.309814,-239.044189,2.256808
-83.496094,927.337646,-237.670898,2.257552
-78.277588,933.197021,-229.064941,2.258296
-82.946777,930.999756,-225.402832,2.259038
-95.855713,937.408447,-231.079102,2.259772
-97.320557,958.92334,-227.874756,2.260505
-97.961426,936.950684,-219.451904,2.26124
-94.665527,940.704346,-226.501465,2.261975
-106.292725,937.5,-223.480225,2.262738
-105.651855,934.295654,-217.62085,2.263482
-102.996826,955.810547,-217.62085,2.264227
-110.778809,941.52832,-222.65625,2.264971
-107.025146,942.260742,-220.550537,2.265726
-112.426758,946.838379,-216.61377,2.26647
-119.750977,945.739746,-217.987061,2.267214
-115.905762,947.113037,-215.332031,2.267977
-115.722656,948.028564,-221.008301,2.268722
-105.010986,945.007324,-225.585938,2.269466
-99.243164,947.845459,-226.043701,2.27021
-108.398438,948.577881,-212.493896,2.270965
-115.539551,953.430176,-213.684082,2.271709
-133.483887,949.584961,-225.036621,2.272453
-110.046387,948.028564,-231.811523,2.273197
-102.264404,942.993164,-231.079102,2.273938
-96.313477,950.042725,-230.34668,2.274672
-97.961426,948.303223,-233.825684,2.275406
-100.616455,946.19751,-221.282959,2.27614
-95.031738,959.197998,-219.085693,2.276878
-112.1521,940.155029,-229.705811,2.277707
-104.370117,948.120117,-227.050781,2.278481
-99.975586,953.521729,-234.375,2.279226
-90.820312,951.141357,-230.255127,2.279971
-86.700439,952.697754,-229.888916,2.280715
-76.99585,954.89502,-222.930908,2.281459
-96.496582,956.451416,-216.247559,2.282203
-94.75708,952.056885,-226.593018,2.282958
-88.531494,943.359375,-230.987549,2.283701
-79.925537,949.035645,-230.987549,2.284445
-72.418213,948.303223,-225.860596,2.285189
-73.699951,960.296631,-232.727051,2.285926
-80.200195,943.267822,-223.937988,2.28666
-77.728271,953.613281,-232.086182,2.287394
-83.770752,960.479736,-218.536377,2.288128
-82.397461,958.92334,-223.388672,2.288882
-74.34082,965.789795,-223.66333,2.289627
-71.136475,967.895508,-224.304199,2.290371
-73.425293,961.120605,-227.325439,2.291115
-75.98877,956.542969,-233.001709,2.29186
-73.791504,967.437744,-225.128174,2.292604
-74.615479,958.374023,-224.853516,2.293348
-73.33374,960.845947,-216.064453,2.294092
-73.33374,962.677002,-220.825195,2.294836
-75.073242,959.472656,-223.754883,2.29558
-76.080322,957.366943,-228.149414,2.296324
-56.671143,959.93042,-224.487305,2.297068
-56.945801,959.472656,-217.529297,2.297811
-56.213379,965.881348,-217.254639,2.298545
-58.135986,960.205078,-218.444824,2.299284
-65.551758,959.747314,-217.071533,2.300021
-66.833496,959.197998,-217.803955,2.30083
-71.136475,960.662842,-232.36084,2.301584
-46.966553,965.698242,-221.466064,2.302328
-60.516357,953.430176,-225.219727,2.303072
-60.699463,956.817627,-227.233887,2.303827
-61.065674,957.550049,-220.64209,2.304571
-66.28418,945.556641,-222.290039,2.305315
-62.805176,951.965332,-225.311279,2.306059
-68.206787,948.486328,-226.318359,2.306802
-66.650391,946.380615,-231.35376,2.307537
-57.495117,957.641602,-222.473145,2.308271
-62.713623,959.289551,-217.895508,2.309005
-93.109131,950.775146,-211.761475,2.309761
-75.622559,955.718994,-217.071533,2.310505
-73.150635,949.951172,-218.994141,2.311249
-76.99585,946.289062,-216.339111,2.311994
-70.770264,946.19751,-223.754883,2.312738
-66.28418,945.19043,-216.064453,2.313533
-69.763184,946.655273,-214.416504,2.314301
-74.890137,939.51416,-211.486816,2.315072
-73.242188,935.943604,-223.205566,2.315848
-72.32666,940.063477,-218.170166,2.316593
-69.854736,948.577881,-217.803955,2.317336
-70.861816,960.388184,-221.832275,2.318069
-70.953369,941.162109,-222.381592,2.318829
-75.531006,944.732666,-214.782715,2.319573
-74.890137,949.859619,-230.255127,2.320317
-68.664551,941.986084,-223.571777,2.321061
-58.959961,938.415527,-223.480225,2.321805
-56.121826,942.901611,-212.95166,2.32248
-60.791016,943.634033,-211.395264,2.32328
-62.072754,946.19751,-217.529297,2.324039
-60.882568,943.634033,-213.867188,2.324783
-57.861328,941.345215,-213.043213,2.325527
-49.530029,941.253662,-217.62085,2.326273
-44.769287,935.760498,-210.021973,2.327043
-51.9104,945.007324,-209.381104,2.327789
-60.882568,944.641113,-209.564209,2.328532
-56.213379,940.063477,-206.817627,2.329276
-60.333252,942.718506,-208.557129,2.330015
-59.967041,937.683105,-199.035645,2.330749
-56.57959,937.042236,-205.169678,2.331482
-60.516357,945.007324,-204.620361,2.332216
-59.051514,942.901611,-202.23999,2.332961
-65.002441,950.134277,-205.078125,2.333705
-66.650391,938.323975,-201.782227,2.33445
-62.347412,944.732666,-201.141357,2.335194
-66.741943,937.591553,-211.120605,2.335938
-65.917969,943.725586,-213.409424,2.336682
-62.805176,938.140869,-203.24707,2.337425
-67.474365,937.866211,-206.634521,2.338169
-64.819336,941.345215,-210.296631,2.338913
-68.115234,939.147949,-218.719482,2.339657
-67.932129,930.450439,-219.63501,2.3404
-67.474365,938.598633,-212.585449,2.341144
-64.453125,943.084717,-213.043213,2.341893
-74.615479,942.260742,-209.381104,2.342627
-71.31958,940.246582,-210.754395,2.343361
-70.495605,942.077637,-215.148926,2.344094
-65.093994,936.126709,-216.705322,2.344828
-73.33374,934.020996,-210.479736,2.345599
-75.3479,939.147949,-212.768555,2.346343
-70.678711,937.408447,-208.099365,2.347087
-74.432373,938.50708,-209.93042,2.347828
-65.826416,937.133789,-212.493896,2.34866
-69.854736,933.837891,-218.261719,2.349404
-70.220947,932.556152,-207.366943,2.350148
-69.763184,938.781738,-208.465576,2.350893
-70.678711,936.49292,-203.521729,2.351636
-69.030762,933.105469,-199.859619,2.352381
-67.108154,943.817139,-202.056885,2.353125
-72.509766,942.443848,-193.908691,2.353863
-78.643799,940.246582,-197.20459,2.354598
-73.791504,943.084717,-196.929932,2.355332
-71.31958,945.007324,-205.444336,2.356077
-71.228027,941.070557,-190.795898,2.356836
-73.791504,944.824219,-195.648193,2.357581
-74.066162,931.82373,-204.345703,2.358324
-72.235107,932.281494,-208.557129,2.359068
-76.171875,942.169189,-208.007812,2.359823
-73.608398,936.401367,-206.085205,2.360566
-70.3125,935.760498,-207.366943,2.361311
-70.678711,936.584473,-212.677002,2.362077
-66.833496,937.591553,-213.500977,2.362833
-64.819336,938.690186,-209.747314,2.363567
-64.63623,931.732178,-211.94458,2.364301
-70.770264,934.47876,-208.92334,2.365035
-74.615479,927.154541,-215.240479,2.365782
-72.601318,923.309326,-209.93042,2.366527
-72.509766,928.344727,-211.212158,2.367271
-75.805664,930.267334,-205.627441,2.368015
-78.00293,934.753418,-207.458496,2.368792
-73.608398,929.901123,-217.163086,2.369551
-73.974609,935.760498,-211.395264,2.370323
-80.383301,933.013916,-209.655762,2.371091
-71.31958,934.844971,-214.324951,2.371912
-76.99585,932.647705,-207.183838,2.372685
-73.33374,930.81665,-204.803467,2.373451
-76.35498,938.50708,-211.669922,2.374218
-80.291748,940.979004,-218.719482,2.375028
-89.263916,943.17627,-215.698242,2.375805
-78.00293,937.133789,-193.359375,2.376587
-72.32666,945.373535,-216.522217,2.377372
-78.460693,953.430176,-211.853027,2.378151
-76.721191,950.22583,-214.782715,2.378902
-80.657959,946.380615,-219.177246,2.379666
-74.157715,947.296143,-214.416504,2.38041
-72.601318,947.021484,-215.515137,2.381155
-77.453613,951.782227,-229.888916,2.381899
-77.270508,955.627441,-210.754395,2.382644
-78.186035,937.866211,-202.056885,2.383388
-84.228516,961.120605,-204.345703,2.384132
-88.623047,954.803467,-215.423584,2.384877
-84.136963,957.275391,-234.100342,2.385623
-81.390381,953.063965,-212.310791,2.386371
-85.693359,956.451416,-211.669922,2.387105
-89.813232,953.796387,-210.662842,2.387838
-112.701416,957.275391,-210.9375,2.388572
-94.116211,957.91626,-219.085693,2.389331
-88.348389,956.542969,-215.881348,2.390075
-87.524414,954.528809,-216.796875,2.390819
-91.461182,958.465576,-216.522217,2.391563
-93.200684,955.718994,-226.409912,2.392317
-91.918945,957.641602,-218.170166,2.393061
-92.74292,963.409424,-217.254639,2.393805
-86.700439,982.818604,-220.275879,2.394549
-85.05249,967.346191,-221.374512,2.395303
-89.355469,965.881348,-222.198486,2.396047
-93.109131,965.606689,-221.191406,2.396791
-94.299316,967.803955,-219.543457,2.397536
-95.031738,969.085693,-211.853027,2.39828
-90.362549,972.473145,-213.775635,2.399014
-89.355469,974.853516,-216.61377,2.399747
-89.813232,979.431152,-216.796875,2.400481
-96.405029,982.452393,-207.275391,2.401259
-101.989746,983.276367,-207.092285,2.402002
-94.482422,981.262207,-207.183838,2.402746
-91.094971,974.029541,-205.169678,2.403489
-91.003418,977.69165,-189.056396,2.404232
-93.658447,980.34668,-211.486816,2.404966
-88.439941,1005.79834,-206.268311,2.4057
-99.060059,984.100342,-208.099365,2.406434
-96.221924,982.727051,-213.95874,2.407189
-90.454102,985.839844,-231.811523,2.407934
-98.236084,978.240967,-221.282959,2.408678
-84.411621,981.445312,-227.416992,2.409422
-77.087402,978.515625,-218.078613,2.410177
-88.7146,976.959229,-219.909668,2.410942
-93.017578,975.769043,-215.881348,2.411688
-92.926025,973.754883,-217.987061,2.412431
-87.341309,972.930908,-223.022461,2.413187
-94.390869,968.902588,-223.846436,2.413949
-88.897705,978.515625,-215.881348,2.414694
-91.827393,979.3396,-223.480225,2.415438
-100.067139,978.33252,-220.367432,2.416182
-96.405029,975.67749,-212.860107,2.416924
-98.968506,973.388672,-219.085693,2.417658
-101.989746,981.079102,-214.416504,2.418399
-104.003906,973.571777,-212.95166,2.419143
-96.313477,982.910156,-213.043213,2.419968
-102.813721,974.212646,-210.845947,2.420712
-96.77124,976.776123,-223.937988,2.421453
-88.348389,987.39624,-210.113525,2.422187
-86.05957,987.762451,-214.874268,2.422921
-90.911865,985.931396,-222.381592,2.423654
-95.489502,979.064941,-208.465576,2.424391
-95.672607,990.234375,-208.374023,2.425136
-76.171875,987.39624,-209.289551,2.42588
-88.348389,981.628418,-210.571289,2.426623
-75.164795,985.107422,-214.233398,2.427374
-72.509766,1005.889893,-204.25415,2.428119
-76.35498,982.452393,-207.733154,2.428863
-86.05957,983.184814,-205.718994,2.429608
-91.461182,978.881836,-213.043213,2.430352
-88.623047,974.395752,-213.592529,2.430956
-82.763672,972.839355,-210.296631,2.4317
-81.665039,971.374512,-211.486816,2.432444
-78.918457,969.177246,-214.691162,2.433188
-73.425293,976.318359,-214.416504,2.433932
-74.157715,972.290039,-215.148926,2.434666
-70.678711,978.240967,-222.473145,2.4354
-66.009521,958.831787,-226.959229,2.436134
-62.255859,964.599609,-225.494385,2.4369
-64.361572,961.395264,-223.754883,2.437644
-65.734863,959.93042,-229.614258,2.438388
-58.868408,957.458496,-229.431152,2.439133
-61.431885,960.205078,-227.69165,2.439887
-63.079834,969.177246,-218.078613,2.440631
-66.925049,964.416504,-216.156006,2.441386
-65.368652,966.247559,-216.796875,2.442137
-67.474365,962.585449,-213.684082,2.442919
-84.594727,971.282959,-203.430176,2.443671
-67.749023,971.191406,-192.901611,2.444415
-77.545166,972.106934,-198.21167,2.445161
-74.707031,962.95166,-202.148438,2.445906
-70.861816,965.057373,-204.89502,2.44665
-48.156738,964.141846,-205.993652,2.447394
-65.185547,960.479736,-205.352783,2.448154
-64.27002,948.394775,-207.641602,2.448922
-61.798096,943.908691,-198.21167,2.449725
-61.706543,952.606201,-204.345703,2.450495
-60.791016,945.648193,-208.831787,2.451264
-55.664062,942.260742,-214.599609,2.452008
-49.255371,943.267822,-199.951172,2.452752
-58.319092,946.838379,-206.085205,2.453495
-55.938721,943.17627,-212.585449,2.454249
-51.818848,941.436768,-213.500977,2.454993
-57.678223,941.802979,-201.23291,2.455737
-55.664062,944.824219,-210.205078,2.456482
-55.755615,943.634033,-209.197998,2.457227
-58.685303,941.802979,-206.268311,2.457962
-64.178467,946.472168,-204.711914,2.458696
-65.002441,945.648193,-203.796387,2.45943
-55.938721,952.514648,-208.374023,2.460191
-57.312012,947.662354,-208.557129,2.460935
-61.706543,944.732666,-207.275391,2.46168
-66.925049,942.352295,-206.542969,2.462424
-70.861816,948.120117,-208.282471,2.463177
-74.34082,938.415527,-206.542969,2.463921
-66.192627,947.113037,-200.958252,2.464665
-66.009521,946.655273,-212.95166,2.465409
-71.31958,946.014404,-219.726562,2.466162
-76.538086,948.303223,-226.409912,2.466906
-75.622559,937.5,-220.275879,2.46765
-74.157715,945.556641,-213.317871,2.468394
-72.32666,938.140869,-212.219238,2.469137
-71.228027,944.824219,-210.113525,2.469871
-73.883057,944.641113,-217.987061,2.470605
-80.383301,953.155518,-210.113525,2.471339
-94.299316,947.570801,-208.190918,2.472103
-95.855713,955.535889,-207.824707,2.472847
-91.461182,960.571289,-210.571289,2.47359
-88.623047,954.89502,-211.853027,2.474333
-98.693848,958.007812,-204.162598,2.475087
-88.623047,955.444336,-207.275391,2.475831
-113.891602,965.148926,-205.718994,2.476575
-104.003906,961.669922,-207.641602,2.477319
-95.947266,958.282471,-211.669922,2.478063
-97.77832,954.162598,-208.190918,2.478797
-100.982666,956.268311,-214.324951,2.479531
-101.898193,956.726074,-215.698242,2.480264
-99.151611,949.584961,-213.95874,2.481019
-100.341797,953.887939,-222.65625,2.481762
-97.137451,957.275391,-226.501465,2.482505
-102.44751,949.035645,-216.156006,2.483248
-101.898193,950.042725,-216.430664,2.484001
-103.820801,943.084717,-214.874268,2.484744
-108.48999,941.711426,-221.557617,2.485487
-109.039307,944.915771,-218.078613,2.48623
-101.165771,952.23999,-216.705322,2.486982
-99.884033,947.845459,-229.797363,2.487725
-103.637695,944.732666,-219.451904,2.488468
-98.602295,950.042725,-220.550537,2.48921
-105.194092,944.000244,-209.472656,2.489985
-99.42627,949.035645,-217.895508,2.490821
-98.602295,944.366455,-225.67749,2.491566
-103.912354,947.387695,-217.987061,2.492311
-109.771729,952.423096,-218.444824,2.493066
-101.806641,948.944092,-213.226318,2.493853
-106.018066,955.26123,-212.585449,2.494598
-102.172852,958.648682,-214.324951,2.495428
-98.419189,957.092285,-216.156006,2.496174
-103.729248,956.726074,-209.747314,2.496918
-101.165771,960.296631,-215.515137,2.497662
-93.017578,963.043213,-214.141846,2.498418
-100.158691,959.472656,-212.219238,2.499162
-102.630615,964.782715,-212.310791,2.499906
-95.76416,959.747314,-211.669922,2.500651
-95.581055,957.366943,-223.297119,2.501404
-87.70752,960.388184,-212.768555,2.502149
-92.74292,960.662842,-211.853027,2.502893
-98.510742,962.127686,-222.015381,2.503637
-76.263428,966.339111,-217.529297,2.504381
-88.897705,971.557617,-198.394775,2.505115
-96.679688,959.472656,-215.423584,2.505848
-95.581055,958.007812,-220.275879,2.506582
-95.76416,958.282471,-218.078613,2.507329
-109.49707,968.261719,-212.219238,2.508073
-100.067139,969.63501,-210.754395,2.508817
-98.602295,967.071533,-216.064453,2.509561
-96.496582,967.803955,-206.268311,2.510305
-96.038818,973.297119,-210.754395,2.511049
-92.102051,977.050781,-198.486328,2.511794
-93.933105,978.057861,-212.768555,2.512541
-87.158203,977.416992,-206.817627,2.513293
-84.686279,976.959229,-206.176758,2.514064
-84.777832,976.867676,-209.381104,2.514817
-90.087891,969.543457,-217.254639,2.515609
-82.946777,976.776123,-207.183838,2.516379
-81.665039,981.445312,-212.860107,2.517123
-82.763672,979.3396,-213.775635,2.517904
-80.01709,980.712891,-216.156006,2.518686
-77.636719,970.367432,-221.282959,2.519453
-79.193115,979.705811,-210.662842,2.520203
-83.770752,972.473145,-220.733643,2.520947
-75.164795,974.121094,-212.036133,2.521711
-77.545166,977.142334,-214.508057,2.522455
-81.207275,973.388672,-211.029053,2.523199
-83.312988,978.149414,-211.212158,2.523943
