ACC_X,ACC_Y,ACC_Z,Time
-169.0979,869.567871,428.192139,1.489875
-171.478271,878.356934,441.28418,1.490615
-161.865234,868.469238,441.467285,1.491353
-168.365479,868.011475,444.854736,1.492093
-165.710449,872.314453,443.023682,1.492832
-172.76001,864.257812,439.63623,1.493571
-175.048828,872.039795,440.093994,1.49431
-171.386719,865.264893,440.917969,1.495048
-177.520752,871.490479,448.516846,1.495788
-176.879883,879.272461,456.573486,1.496536
-171.936035,872.589111,453.186035,1.497276
-172.851562,865.997314,444.946289,1.498015
-180.908203,877.349854,452.545166,1.498755
-178.070068,869.384766,447.509766,1.49952
-176.513672,888.336182,441.467285,1.500268
-176.239014,873.138428,446.777344,1.501013
-169.647217,880.92041,443.481445,1.501752
-173.858643,869.110107,441.558838,1.502492
-177.703857,874.420166,447.692871,1.50323
-174.499512,870.20874,440.002441,1.50397
-176.422119,873.413086,444.488525,1.504719
-176.605225,865.997314,443.206787,1.505466
-181.091309,877.258301,448.150635,1.506213
-186.49292,865.722656,441.833496,1.506957
-178.80249,875.244141,448.699951,1.507696
-173.034668,877.716064,445.037842,1.508435
-178.80249,869.476318,451.080322,1.509174
-174.316406,875.793457,451.263428,1.509913
-186.584473,871.490479,449.890137,1.510653
-180.999756,869.20166,449.34082,1.511392
-177.520752,875.335693,450.073242,1.512131
-177.062988,864.440918,447.235107,1.512869
-168.823242,873.596191,442.657471,1.513609
-167.907715,866.18042,443.756104,1.514349
-177.062988,878.540039,440.734863,1.515088
-174.407959,880.004883,440.826416,1.515827
-171.661377,876.617432,441.28418,1.516565
-170.562744,874.328613,443.115234,1.517306
-173.309326,870.117188,443.206787,1.518047
-175.140381,876.434326,444.580078,1.51879
-172.668457,881.011963,447.875977,1.519528
-175.506592,870.666504,445.220947,1.520267
-170.288086,877.716064,447.509766,1.521006
-176.055908,880.004883,440.185547,1.521745
-179.534912,881.103516,450.98877,1.522484
-179.992676,873.22998,452.728271,1.523223
-178.161621,876.617432,448.699951,1.523962
-177.703857,878.540039,440.460205,1.5247
-177.703857,871.582031,446.685791,1.525439
-172.943115,881.011963,446.960449,1.52619
-173.400879,876.525879,442.199707,1.526932
-171.478271,870.391846,445.037842,1.527674
-175.506592,870.941162,448.242188,1.528415
-178.070068,883.026123,455.200195,1.529171
-178.619385,867.1875,447.143555,1.529913
-180.175781,869.20166,442.749023,1.530652
-175.048828,880.004883,452.270508,1.531398
-176.78833,868.469238,445.678711,1.532148
-174.224854,849.42627,446.868896,1.532899
-177.978516,862.060547,450.256348,1.533647
-183.380127,862.060547,442.840576,1.534394
-179.626465,867.004395,444.030762,1.535143
-173.675537,870.574951,439.63623,1.535887
-174.591064,863.250732,442.657471,1.536634
-179.718018,854.553223,438.537598,1.537379
-179.901123,858.398438,435.699463,1.538142
-178.436279,867.004395,436.523438,1.538892
-181.45752,856.47583,440.2771,1.539643
-174.133301,865.081787,436.523438,1.540397
-178.344727,862.518311,436.248779,1.541147
-173.950195,872.772217,437.255859,1.541889
-175.323486,863.800049,437.62207,1.542628
-178.070068,859.863281,439.819336,1.543366
-174.407959,874.053955,429.656982,1.544107
-177.612305,861.785889,437.896729,1.544847
-178.070068,860.870361,433.044434,1.545586
-176.696777,867.919922,437.438965,1.546325
-180.81665,858.398438,441.741943,1.547151
-176.330566,858.947754,441.833496,1.547892
-182.647705,865.905762,437.988281,1.548631
-176.055908,862.060547,440.368652,1.54937
-178.80249,853.820801,438.812256,1.550109
-176.239014,844.940186,443.206787,1.550848
-176.239014,869.476318,441.741943,1.551587
-177.978516,866.088867,436.340332,1.552326
-179.260254,864.074707,437.896729,1.553066
-177.246094,863.433838,436.61499,1.553805
-174.682617,875.427246,440.093994,1.554544
-177.612305,860.137939,434.051514,1.555283
-172.943115,866.455078,442.565918,1.556023
-178.161621,867.736816,438.812256,1.556762
-183.105469,861.14502,436.248779,1.557501
-179.992676,867.919922,434.509277,1.55824
-183.746338,863.15918,432.952881,1.558981
-181.45752,866.455078,433.227539,1.55972
-186.218262,871.673584,439.727783,1.560459
-183.288574,866.912842,435.424805,1.561199
-182.189941,868.560791,442.749023,1.561939
-173.034668,873.779297,444.854736,1.562679
-174.407959,874.603271,439.910889,1.563417
-175.689697,872.314453,446.136475,1.564156
-172.485352,870.941162,438.446045,1.564896
-182.4646,872.589111,442.108154,1.565635
-175.415039,876.159668,444.580078,1.566374
-170.74585,874.786377,451.538086,1.567113
-176.78833,872.406006,440.093994,1.567853
-176.422119,873.504639,442.932129,1.568592
-177.520752,876.434326,443.389893,1.569333
-171.295166,874.694824,439.178467,1.57008
-179.534912,872.131348,442.749023,1.570828
-176.147461,870.300293,447.692871,1.571574
-171.75293,867.553711,449.523926,1.572314
-169.281006,879.821777,447.875977,1.573053
-171.75293,868.835449,445.220947,1.573793
-169.189453,871.307373,443.939209,1.574533
-175.048828,873.87085,442.657471,1.575272
-175.048828,872.406006,444.763184,1.576011
-172.210693,865.17334,441.925049,1.576769
-173.858643,870.758057,442.932129,1.577517
-169.006348,873.504639,449.798584,1.578263
-167.358398,868.743896,431.488037,1.579007
-170.837402,883.209229,441.833496,1.579767
-171.569824,874.511719,442.474365,1.580515
-168.640137,871.490479,437.438965,1.581255
-170.471191,876.068115,451.171875,1.581994
-170.013428,872.314453,444.854736,1.582733
-176.696777,870.20874,441.650391,1.583472
-169.464111,873.046875,443.939209,1.584222
-177.886963,869.110107,446.411133,1.584963
-174.682617,872.680664,439.453125,1.585702
-172.76001,877.716064,442.565918,1.586441
-174.865723,869.842529,445.495605,1.58718
-175.689697,869.934082,440.368652,1.587919
-181.640625,867.645264,445.220947,1.588657
-182.830811,868.469238,442.565918,1.589394
-177.337646,868.103027,449.981689,1.590131
-176.879883,870.391846,455.383301,1.590904
-171.020508,869.018555,449.066162,1.591673
-174.407959,880.554199,452.911377,1.592414
-172.943115,879.180908,450.98877,1.593155
-175.415039,875.701904,444.671631,1.593896
-178.985596,881.469727,448.516846,1.594647
-178.344727,882.659912,450.439453,1.595388
-181.549072,885.498047,450.3479,1.596129
-183.929443,888.885498,449.34082,1.59687
-185.668945,870.483398,445.037842,1.59762
-182.098389,877.624512,446.594238,1.598361
-180.633545,870.666504,444.488525,1.599102
-179.168701,876.800537,452.087402,1.599842
-175.964355,883.392334,448.242188,1.600591
-170.837402,871.582031,447.418213,1.601331
-166.442871,875.701904,453.918457,1.602072
-171.478271,878.265381,446.228027,1.602814
-178.070068,873.22998,451.812744,1.603567
-178.894043,878.448486,446.777344,1.604307
-170.562744,873.504639,441.650391,1.605046
-171.661377,887.878418,444.396973,1.605788
-174.591064,867.1875,433.227539,1.606546
-176.971436,860.229492,434.051514,1.607286
-177.79541,863.525391,432.037354,1.608026
-175.506592,868.103027,440.460205,1.608765
-172.393799,871.948242,435.516357,1.60949
-175.78125,863.891602,430.938721,1.610231
-176.055908,869.750977,438.262939,1.610971
-176.055908,872.314453,444.396973,1.611711
-173.583984,870.483398,444.946289,1.612465
-173.858643,870.483398,441.833496,1.613205
-176.971436,875.793457,451.904297,1.613945
-182.189941,867.736816,446.960449,1.614685
-180.725098,875.061035,453.643799,1.615434
-177.886963,873.687744,449.890137,1.616174
-177.79541,875.244141,444.30542,1.616913
-177.978516,874.786377,466.918945,1.617652
-184.295654,877.624512,451.446533,1.618453
-183.929443,877.807617,446.777344,1.619193
-170.013428,877.89917,453.918457,1.619933
-176.605225,883.758545,443.023682,1.620672
-176.147461,888.793945,444.396973,1.621421
-175.78125,887.786865,450.531006,1.62216
-177.978516,872.314453,443.206787,1.6229
-184.661865,874.053955,439.727783,1.623639
-175.323486,876.342773,445.953369,1.624388
-175.048828,879.547119,437.347412,1.625128
-179.260254,885.223389,445.3125,1.625868
-189.147949,878.90625,434.60083,1.626607
-186.126709,881.011963,441.467285,1.627357
-187.225342,881.561279,440.826416,1.628096
-186.401367,874.786377,444.30542,1.628836
-188.415527,878.90625,443.389893,1.629575
-183.654785,882.202148,449.890137,1.630324
-183.746338,883.575439,450.164795,1.631064
-187.866211,885.955811,446.228027,1.631804
-169.830322,871.124268,443.481445,1.632544
-181.732178,863.983154,443.29834,1.633292
-188.598633,868.469238,446.960449,1.634032
-188.049316,872.314453,437.347412,1.634771
-188.873291,864.715576,436.157227,1.63551
-186.584473,864.624023,435.424805,1.63626
-185.302734,873.596191,432.861328,1.636999
-184.753418,873.87085,441.375732,1.637739
-179.626465,875.610352,434.783936,1.638478
-186.584473,879.272461,436.248779,1.639227
-181.45752,867.553711,428.283691,1.639971
-184.020996,866.912842,433.135986,1.640715
-177.886963,868.011475,437.530518,1.641462
-180.450439,866.638184,437.713623,1.642236
-177.703857,872.680664,430.023193,1.642977
-179.626465,868.011475,435.60791,1.643717
-177.337646,867.279053,437.896729,1.644465
-179.80957,869.110107,434.875488,1.645238
-179.901123,870.117188,437.072754,1.645984
-179.077148,881.378174,437.255859,1.646729
-182.556152,877.990723,448.699951,1.647469
-179.443359,875.061035,441.28418,1.648228
-168.182373,874.145508,435.333252,1.648969
-174.591064,866.18042,443.481445,1.649708
-166.900635,875.061035,442.382812,1.650448
-166.168213,872.680664,439.361572,1.651197
-166.625977,871.673584,439.63623,1.651937
-171.295166,868.560791,445.861816,1.652676
-164.886475,871.307373,436.61499,1.653416
-158.843994,876.617432,440.2771,1.654172
-167.724609,875.610352,448.33374,1.654912
-151.702881,877.807617,439.910889,1.655653
-153.442383,872.131348,434.143066,1.656393
-157.836914,872.131348,439.086914,1.657139
-150.32959,871.490479,437.896729,1.657878
-163.238525,862.701416,436.981201,1.658618
-158.477783,878.265381,441.833496,1.659358
-157.37915,877.075195,444.671631,1.660107
-156.097412,878.540039,449.432373,1.660846
-163.604736,870.20874,452.545166,1.661586
-163.421631,886.779785,455.108643,1.662325
-165.802002,877.624512,443.664551,1.663074
-162.506104,879.638672,451.721191,1.663814
-172.76001,871.21582,447.784424,1.664553
-174.865723,882.019043,451.629639,1.665292
-175.964355,882.476807,446.685791,1.666041
-172.393799,871.124268,447.509766,1.666781
-172.302246,865.539551,438.354492,1.66752
-169.555664,864.16626,448.791504,1.668261
-168.182373,871.856689,445.587158,1.668995
-170.471191,843.933105,436.248779,1.669735
-168.640137,855.285645,429.199219,1.670474
-170.837402,854.736328,435.699463,1.671214
-174.682617,849.975586,429.199219,1.671963
-173.217773,854.827881,432.037354,1.672703
-173.675537,851.715088,432.312012,1.673443
-179.626465,852.905273,426.818848,1.674182
-182.647705,846.496582,419.586182,1.674906
-178.710938,845.581055,420.86792,1.675646
-173.492432,856.658936,426.086426,1.676385
-176.239014,855.010986,431.854248,1.677125
-176.239014,865.17334,429.382324,1.677873
-173.675537,858.856201,430.664062,1.678639
-169.0979,861.877441,429.199219,1.679379
-165.344238,865.631104,433.685303,1.680118
-171.295166,861.968994,440.2771,1.680876
-169.281006,863.525391,443.481445,1.681618
-169.281006,864.257812,448.699951,1.682359
-167.449951,885.5896,443.023682,1.6831
-175.964355,863.250732,433.319092,1.683854
-185.48584,858.215332,440.643311,1.684594
-178.710938,856.109619,432.128906,1.685334
-180.999756,859.771729,439.27002,1.686074
-178.344727,854.46167,436.981201,1.686823
-177.337646,852.905273,435.058594,1.687563
-183.197021,844.024658,435.333252,1.688302
-182.830811,846.313477,438.62915,1.689151
-180.267334,841.827393,429.656982,1.689905
-172.302246,846.130371,432.037354,1.690645
-175.78125,838.165283,428.100586,1.691385
-173.400879,849.884033,423.522949,1.692124
-179.260254,846.954346,422.424316,1.692873
-173.76709,841.552734,441.558838,1.693613
-172.576904,835.418701,432.678223,1.694353
-170.654297,844.940186,435.150146,1.695093
-167.541504,846.77124,437.438965,1.695843
-167.907715,838.439941,431.671143,1.696583
-163.879395,842.010498,436.065674,1.697322
-168.273926,848.876953,437.805176,1.698062
-161.865234,849.79248,442.932129,1.698811
-156.738281,845.855713,441.375732,1.699551
-160.125732,846.588135,437.988281,1.70029
-166.717529,842.559814,433.410645,1.70103
-158.752441,849.517822,430.847168,1.701778
-166.442871,832.855225,424.89624,1.702517
-173.583984,829.01001,418.212891,1.703257
-172.576904,829.01001,417.755127,1.703996
-162.597656,833.496094,421.325684,1.704743
-168.365479,832.763672,417.663574,1.705482
-171.936035,834.503174,416.290283,1.706221
-170.654297,838.256836,427.91748,1.706961
-155.456543,829.742432,433.959961,1.707713
-156.097412,838.256836,435.791016,1.708452
-145.019531,844.482422,440.2771,1.709192
-148.681641,844.848633,437.530518,1.709931
-145.6604,847.595215,442.565918,1.710684
-154.724121,843.566895,440.826416,1.711429
-156.280518,840.545654,441.833496,1.712175
-157.012939,850.982666,441.28418,1.712921
-162.689209,848.876953,440.643311,1.713684
-166.717529,850.524902,442.932129,1.714424
-170.837402,851.257324,442.657471,1.715163
-168.731689,849.79248,434.509277,1.715903
-161.315918,852.813721,442.108154,1.71667
-165.527344,866.912842,442.932129,1.717419
-142.089844,854.278564,441.558838,1.718165
-152.893066,860.321045,450.897217,1.71891
-152.984619,858.581543,452.362061,1.719673
-155.181885,864.16626,444.030762,1.720413
-150.970459,859.313965,446.868896,1.721153
-153.076172,866.729736,453.826904,1.721892
-156.097412,860.50415,445.953369,1.722641
-158.569336,862.609863,446.31958,1.72338
-164.245605,865.447998,449.615479,1.724119
-162.139893,863.616943,439.544678,1.724858
-164.611816,867.095947,445.129395,1.725607
-162.04834,857.940674,450.622559,1.726347
-158.752441,858.673096,443.664551,1.727087
-140.991211,866.638184,449.249268,1.727827
-147.125244,861.877441,450.256348,1.728576
-154.083252,864.715576,454.742432,1.729316
-147.766113,844.482422,445.678711,1.730056
-147.125244,873.687744,457.305908,1.730795
-156.280518,864.16626,445.678711,1.731544
-154.541016,860.321045,450.714111,1.732283
-162.139893,868.927002,450.164795,1.733023
-164.245605,868.103027,450.897217,1.733762
-174.591064,863.15918,441.741943,1.734511
-171.569824,872.680664,456.939697,1.73525
-168.640137,875.335693,466.552734,1.73599
-168.365479,877.990723,467.010498,1.736729
-171.386719,880.371094,473.510742,1.737477
-161.865234,886.59668,476.257324,1.738216
-169.189453,882.019043,471.496582,1.738955
-162.231445,877.532959,473.968506,1.739694
-161.04126,881.286621,468.75,1.740443
-167.541504,873.22998,461.700439,1.741182
-169.372559,867.370605,457.03125,1.741922
-167.175293,870.117188,443.756104,1.742661
-163.513184,864.624023,439.544678,1.743409
-169.73877,870.025635,442.016602,1.744148
-174.77417,865.722656,432.58667,1.744887
-169.281006,861.968994,430.938721,1.745627
-165.893555,857.025146,430.57251,1.746378
-165.527344,862.1521,435.424805,1.747118
-161.865234,873.779297,441.28418,1.747858
-165.06958,861.419678,442.474365,1.748597
-163.146973,864.440918,445.861816,1.749342
-174.407959,857.574463,452.636719,1.75008
-174.133301,868.377686,448.242188,1.750817
-176.239014,865.356445,446.31958,1.751562
-174.865723,869.842529,447.784424,1.752321
-182.739258,861.328125,447.418213,1.753062
-192.993164,858.581543,444.488525,1.753803
-196.014404,858.48999,443.29834,1.754544
-198.21167,854.46167,442.382812,1.7553
-194.000244,857.116699,433.319092,1.756046
-192.901611,858.947754,433.319092,1.756789
-186.767578,863.525391,436.065674,1.757532
-179.168701,862.518311,439.453125,1.758293
-188.140869,862.792969,432.128906,1.759035
-185.028076,858.764648,433.59375,1.759866
-181.732178,850.616455,433.044434,1.760608
-189.147949,864.990234,419.403076,1.761363
-200.958252,843.475342,393.4021,1.762104
-293.97583,868.652344,381.500244,1.762846
-284.820557,830.01709,443.023682,1.763587
-241.973877,838.806152,442.565918,1.764342
-213.500977,866.088867,402.832031,1.765082
-201.599121,870.849609,440.826416,1.765823
-117.004395,841.094971,447.509766,1.766564
-156.738281,850.799561,430.206299,1.767313
-142.364502,844.299316,437.530518,1.768054
-121.673584,820.495605,453.369141,1.768794
-142.456055,833.129883,444.396973,1.769535
-131.835938,832.03125,426.452637,1.770276
-119.110107,837.432861,420.684814,1.771007
-166.625977,820.495605,402.099609,1.771738
-178.527832,817.474365,383.331299,1.77247
-186.401367,806.488037,380.67627,1.773163
-216.430664,801.452637,364.562988,1.773904
-209.564209,803.55835,363.830566,1.774645
-213.317871,796.234131,360.351562,1.775386
-197.387695,809.875488,369.140625,1.776136
-200.958252,800.994873,396.240234,1.776877
-167.541504,796.508789,382.324219,1.777619
-155.456543,795.593262,397.064209,1.778359
-153.991699,789.642334,404.937744,1.779055
-133.209229,782.13501,430.847168,1.779796
-139.160156,781.951904,428.924561,1.780537
-123.046875,796.691895,430.755615,1.781278
-132.568359,786.895752,399.44458,1.78203
-152.160645,783.691406,394.40918,1.782791
-165.06958,777.46582,384.246826,1.783547
-166.442871,775.360107,376.739502,1.784295
-187.225342,771.606445,368.133545,1.785066
-187.866211,777.191162,362.915039,1.785808
-181.640625,781.311035,329.772949,1.786549
-195.281982,794.311523,330.780029,1.78729
-190.795898,783.508301,342.315674,1.78804
-204.162598,776.367188,342.041016,1.788781
-207.366943,777.008057,324.645996,1.789531
-194.458008,784.515381,349.365234,1.790281
-182.373047,791.015625,352.661133,1.791051
-197.021484,767.852783,417.84668,1.791798
-238.952637,781.768799,403.564453,1.792539
-215.789795,805.57251,340.393066,1.79328
-282.806396,919.647217,386.077881,1.794036
-311.920166,822.875977,363.098145,1.794777
-265.686035,829.650879,403.381348,1.795519
-254.058838,813.171387,390.930176,1.79626
-328.948975,805.114746,364.837646,1.797011
-237.304688,811.340332,414.18457,1.797753
-267.425537,771.057129,422.607422,1.798494
-260.467529,826.99585,408.050537,1.799235
-192.352295,818.481445,390.563965,1.799986
-187.042236,807.495117,449.707031,1.800727
-88.07373,827.270508,479.187012,1.801468
-72.601318,839.996338,498.504639,1.802209
-57.220459,837.06665,534.851074,1.802958
-62.438965,801.361084,497.2229,1.8037
-73.883057,810.974121,457.397461,1.80444
-157.470703,802.55127,406.951904,1.805181
-166.168213,782.592773,372.253418,1.805931
-205.718994,786.071777,354.766846,1.806672
-243.896484,779.296875,330.963135,1.807413
-218.353271,783.050537,333.343506,1.808154
-234.649658,767.76123,333.892822,1.808904
-233.917236,771.789551,349.822998,1.809645
-219.085693,770.324707,348.724365,1.810385
-237.213135,781.860352,357.055664,1.811126
-241.882324,777.282715,347.991943,1.811876
-228.515625,782.775879,349.639893,1.812617
-231.445312,781.402588,376.831055,1.813359
-271.270752,786.712646,370.239258,1.814099
-231.903076,788.543701,304.870605,1.81485
-258.270264,767.486572,349.365234,1.815591
-230.804443,765.289307,365.478516,1.816332
-235.473633,774.44458,350.55542,1.817073
-248.474121,769.134521,356.506348,1.817823
-217.163086,747.711182,339.019775,1.818564
-198.577881,753.845215,339.385986,1.819305
-224.304199,782.409668,341.949463,1.820046
-184.936523,776.184082,330.047607,1.820796
-175.048828,795.043945,305.053711,1.821537
-190.979004,787.078857,297.546387,1.822278
-172.393799,774.719238,318.237305,1.823019
-172.210693,755.493164,323.822021,1.823768
-169.830322,744.598389,312.652588,1.824509
-146.209717,736.724854,337.921143,1.82525
-104.827881,725.738525,345.336914,1.825992
-75.439453,734.069824,346.801758,1.826741
-53.924561,731.323242,353.302002,1.827482
-24.261475,733.795166,374.084473,1.828223
-46.142578,724.822998,359.069824,1.828964
-51.269531,712.921143,344.787598,1.829715
-111.694336,725.006104,325.927734,1.830456
-132.110596,748.718262,309.539795,1.831296
-143.096924,758.789062,306.610107,1.83205
-149.597168,748.99292,255.249023,1.832837
-170.288086,712.097168,307.434082,1.833592
-134.490967,702.392578,318.878174,1.834345
-151.885986,686.645508,305.236816,1.835101
-146.759033,683.441162,300.201416,1.835893
-159.118652,725.189209,265.411377,1.836651
-133.575439,720.245361,238.677979,1.837402
-125.427246,748.809814,264.038086,1.838154
-116.912842,732.696533,264.038086,1.838939
-49.163818,740.29541,303.039551,1.839695
-45.135498,739.746094,304.504395,1.84045
3.112793,711.547852,297.546387,1.841205
-12.451172,718.414307,331.054688,1.841959
6.408691,725.463867,321.716309,1.84271
-10.620117,743.95752,309.631348,1.843462
-57.678223,748.077393,307.525635,1.844241
-71.685791,727.661133,277.22168,1.844993
-130.187988,735.26001,287.200928,1.845745
-146.575928,706.878662,294.708252,1.8465
-94.116211,741.30249,230.895996,1.847258
-187.866211,701.385498,260.467529,1.848008
-193.54248,689.300537,288.116455,1.84875
-75.531006,695.343018,207.550049,1.84949
-111.14502,729.858398,216.339111,1.850231
-208.374023,696.166992,238.952637,1.850972
-48.248291,672.821045,242.706299,1.851713
-71.044922,705.688477,226.135254,1.852454
-122.039795,713.562012,207.91626,1.853216
-21.697998,738.830566,228.973389,1.853962
-2.380371,738.647461,241.424561,1.854711
-34.698486,745.788574,188.049316,1.855457
-12.084961,727.56958,217.712402,1.856198
36.987305,718.963623,215.789795,1.856939
21.606445,728.668213,187.591553,1.857687
13.000488,722.53418,202.972412,1.858436
9.979248,719.146729,203.979492,1.859183
18.4021,735.626221,182.281494,1.859943
-27.191162,745.147705,168.548584,1.860687
-44.128418,734.710693,184.47876,1.861453
-50.90332,724.273682,189.880371,1.862199
-75.164795,738.372803,174.224854,1.86294
-115.264893,724.273682,192.352295,1.863681
-102.355957,730.316162,216.97998,1.864422
-130.004883,757.965088,214.508057,1.865163
-140.167236,771.881104,218.719482,1.865904
-126.708984,775.360107,261.383057,1.866644
-121.21582,829.467773,276.763916,1.867385
-99.151611,866.363525,287.93335,1.868127
-81.115723,897.125244,282.073975,1.868869
-44.86084,911.04126,300.65918,1.869611
-71.228027,902.709961,342.132568,1.870352
-96.679688,901.33667,349.090576,1.871093
-94.665527,897.766113,345.703125,1.871834
-120.025635,881.92749,327.850342,1.872575
-130.645752,892.730713,307.800293,1.873316
-113.525391,930.999756,282.165527,1.874073
-199.676514,921.478271,321.166992,1.874814
-173.034668,971.008301,479.919434,1.875559
-68.756104,958.190918,502.89917,1.8763
-89.263916,981.445312,504.730225,1.877042
-159.301758,992.706299,534.0271,1.877783
-139.251709,977.050781,544.0979,1.878524
-124.694824,1011.657715,505.462646,1.879265
-156.738281,1030.792236,451.812744,1.880017
-198.486328,1004.699707,441.467285,1.880759
-198.21167,1001.403809,402.46582,1.8815
-250.579834,997.650146,330.963135,1.882241
-248.565674,1002.593994,316.680908,1.882992
-238.037109,996.826172,283.538818,1.883732
-272.55249,1020.263672,267.425537,1.884473
-219.085693,1064.575195,249.938965,1.885215
-219.726562,1085.083008,246.368408,1.885975
-199.493408,1050.018311,231.903076,1.886717
-212.768555,1021.728516,252.593994,1.887457
-222.930908,1046.173096,258.81958,1.888199
-111.602783,1081.420898,246.002197,1.888948
-92.834473,1087.005615,281.982422,1.889688
-151.519775,1080.505371,284.637451,1.890429
-74.066162,1059.631348,261.016846,1.89117
-35.980225,1028.686523,246.459961,1.891921
-114.532471,1020.812988,255.157471,1.892662
-147.674561,1009.918213,230.621338,1.893403
-372.711182,1025.57373,217.437744,1.894144
-165.893555,1020.53833,160.308838,1.894894
-121.490479,1036.193848,135.955811,1.895634
-345.062256,1049.194336,128.173828,1.896375
-280.517578,1057.434082,112.426758,1.897116
-262.8479,1061.553955,103.637695,1.897866
-322.44873,1052.124023,75.714111,1.898607
-326.385498,1068.969727,49.346924,1.899348
-330.871582,1068.969727,50.994873,1.90009
-296.081543,1085.906982,29.022217,1.900831
-287.384033,1106.5979,16.021729,1.901572
-392.303467,1055.236816,29.47998,1.902396
-496.856689,1066.589355,43.395996,1.903138
-407.775879,1079.498291,66.650391,1.903891
-310.089111,1117.950439,48.522949,1.904632
-334.899902,1085.083008,94.116211,1.905373
-443.847656,1104.309082,109.039307,1.906114
-380.0354,1137.72583,162.872314,1.906864
-337.554932,1141.387939,213.95874,1.907608
-358.520508,1136.627197,239.868164,1.908351
-419.677734,1115.020752,270.263672,1.909093
-385.253906,1119.506836,289.031982,1.909848
-341.583252,1127.563477,361.083984,1.91059
-346.343994,1181.945801,414.642334,1.911331
-319.976807,1179.016113,435.882568,1.912071
-319.976807,1179.199219,490.356445,1.912822
-312.835693,1158.050537,516.357422,1.913563
-331.14624,1167.755127,557.739258,1.914305
-330.780029,1165.283203,558.746338,1.915046
-308.349609,1181.304932,554.168701,1.915799
-301.757812,1167.755127,534.576416,1.91654
-291.412354,1177.093506,530.548096,1.917283
-279.418945,1183.59375,539.154053,1.918037
-248.840332,1197.235107,558.380127,1.918857
-226.959229,1201.263428,564.056396,1.919599
-200.317383,1210.235596,569.366455,1.92034
28.289795,1056.976318,617.980957,1.921081
150.238037,1202.728271,710.540771,1.921831
-220.458984,991.973877,856.567383,1.922571
-244.903564,1116.760254,818.756104,1.923312
17.76123,1134.796143,780.303955,1.924054
-144.836426,1148.529053,682.983398,1.924826
-109.222412,1158.14209,584.472656,1.925574
-18.859863,1231.109619,562.591553,1.926323
-49.438477,1230.560303,526.428223,1.927064
-47.241211,1227.44751,537.04834,1.927825
-27.923584,1211.700439,533.477783,1.928567
-25.543213,1173.797607,528.808594,1.929307
-25.726318,1192.29126,536.590576,1.930057
0.915527,1181.945801,527.34375,1.930835
6.134033,1179.107666,514.984131,1.931586
8.148193,1174.255371,505.096436,1.932332
8.056641,1166.656494,487.060547,1.933072
28.4729,1155.761719,447.875977,1.933828
1.922607,1136.444092,460.968018,1.93457
15.380859,1126.647949,468.75,1.93531
30.212402,1146.789551,450.3479,1.93605
1.647949,1123.626709,425.170898,1.936803
7.324219,1120.697021,405.578613,1.937543
8.605957,1104.858398,396.148682,1.938284
3.204346,1085.083008,377.838135,1.939025
-3.753662,1075.378418,365.386963,1.939778
-12.634277,1068.511963,346.801758,1.940519
-27.282715,1068.328857,314.758301,1.94126
-41.564941,1054.321289,299.560547,1.942001
-53.466797,1023.834229,283.813477,1.94275
-82.855225,1019.622803,278.869629,1.943491
-90.911865,1024.932861,249.847412,1.944232
-92.926025,1024.749756,230.438232,1.944973
-89.904785,1024.658203,215.240479,1.945723
-81.115723,1018.432617,196.289062,1.946464
-72.509766,1011.932373,190.246582,1.947204
-74.523926,996.643066,175.048828,1.947945
-72.875977,989.593506,144.927979,1.948695
-78.918457,976.959229,129.455566,1.949436
-104.003906,955.9021,103.546143,1.950177
-101.165771,949.584961,97.229004,1.950917
-123.413086,935.943604,84.320068,1.951668
-101.074219,943.267822,60.699463,1.952409
-103.729248,937.316895,57.220459,1.953149
-99.151611,925.506592,50.628662,1.95389
-96.588135,910.858154,28.198242,1.95464
-108.032227,903.625488,11.352539,1.955381
-92.468262,896.30127,-3.02124,1.956121
-98.144531,895.111084,-9.796143,1.956861
-97.412109,877.441406,-23.071289,1.95761
-96.862793,872.589111,-37.445068,1.95835
-86.791992,853.912354,-57.58667,1.959091
-107.48291,844.116211,-78.643799,1.959832
-108.398438,851.989746,-77.270508,1.960528
-89.72168,829.833984,-96.038818,1.961268
-99.060059,840.179443,-108.123779,1.962009
-120.483398,842.834473,-127.990723,1.962749
-89.447021,852.905273,-143.005371,1.963499
-95.489502,843.841553,-175.140381,1.964239
-111.51123,854.278564,-182.556152,1.96498
-105.743408,853.179932,-183.929443,1.965721
-95.306396,861.51123,-183.288574,1.966471
-113.800049,846.130371,-205.810547,1.967212
-115.997314,828.00293,-212.677002,1.967953
-111.694336,828.826904,-209.014893,1.968706
-144.927979,843.658447,-204.345703,1.969462
-122.680664,882.293701,-173.858643,1.970203
-108.947754,862.701416,-189.056396,1.970944
-163.513184,870.117188,-175.415039,1.971684
-135.223389,863.891602,-170.288086,1.972435
-128.173828,855.010986,-170.288086,1.973176
-143.280029,867.828369,-142.913818,1.974
-162.04834,856.933594,-135.772705,1.974741
-130.92041,870.758057,-126.800537,1.975492
-135.864258,867.279053,-126.708984,1.976232
-204.437256,866.638184,-129.547119,1.976973
-159.301758,894.104004,-119.842529,1.977714
-169.555664,896.942139,-119.018555,1.978464
-217.895508,893.737793,-130.371094,1.979205
-179.168701,908.660889,-118.286133,1.979945
-187.591553,917.633057,-102.722168,1.980686
-228.424072,905.731201,-80.657959,1.981435
-255.706787,1069.061279,-6.317139,1.982176
211.303711,1076.751709,22.979736,1.982917
-1113.922119,504.180908,1269.104004,1.98366
-1251.525879,805.57251,1037.109375,1.984418
786.071777,1235.870361,729.309082,1.985163
1263.61084,1187.896729,616.05835,1.985905
137.237549,1122.344971,708.892822,1.986646
-215.332031,1091.033936,685.272217,1.987406
236.755371,1194.213867,367.126465,1.988147
79.650879,1207.763672,369.9646,1.988888
-293.426514,1132.415771,311.096191,1.989629
-325.469971,1148.712158,184.753418,1.99038
188.140869,1150.268555,97.869873,1.991122
720.977783,1119.415283,152.069092,1.991863
418.121338,1106.964111,225.128174,1.992603
119.934082,1095.794678,211.029053,1.993354
113.342285,1105.224609,98.693848,1.994094
-22.521973,1085.632324,60.882568,1.994835
-48.156738,1068.511963,-39.459229,1.995582
-52.093506,1069.976807,-95.947266,1.996348
-15.197754,1091.308594,-146.575928,1.997096
59.234619,1123.352051,-121.124268,1.997841
205.993652,1132.049561,-134.674072,1.998582
88.348389,1131.408691,-180.81665,1.999343
-0.732422,1104.217529,-252.7771,2.000084
-74.523926,1046.264648,-275.024414,2.000826
-87.432861,996.002197,-333.618164,2.001567
-128.173828,973.388672,-373.718262,2.002318
-221.740723,948.394775,-445.3125,2.00307
-249.481201,953.704834,-491.271973,2.00382
-215.789795,971.191406,-518.463135,2.004569
-102.630615,984.924316,-585.113525,2.005338
-102.996826,977.233887,-608.642578,2.00608
-52.55127,959.747314,-629.241943,2.006821
-281.066895,972.65625,-498.046875,2.007561
-751.922607,954.437256,-296.356201,2.008312
-1028.961182,920.013428,-128.082275,2.009053
-665.405273,985.565186,-180.175781,2.009793
550.140381,1067.962646,-200.775146,2.010534
520.111084,1122.070312,-227.325439,2.011286
49.163818,1089.752197,-279.144287,2.012028
-707.244873,1045.166016,-287.567139,2.012768
-797.790527,984.375,-356.048584,2.013509
-661.2854,958.190918,-434.783936,2.01426
-345.611572,904.083252,-561.767578,2.015
-257.446289,896.209717,-519.836426,2.015741
91.644287,830.749512,-96.038818,2.016482
-598.480225,952.148438,138.793945,2.017231
-895.202637,1011.566162,201.416016,2.017972
-1301.78833,1089.84375,178.253174,2.018713
-1427.856445,1052.124023,99.334717,2.019454
-1486.541748,1037.93335,27.832031,2.020204
-1403.22876,865.997314,-84.503174,2.020945
-204.803467,927.79541,-289.764404,2.021686
2021.66748,1199.798584,-401.275635,2.022427
1417.419434,962.127686,-434.417725,2.023178
-881.469727,846.130371,-409.790039,2.023919
-1305.358887,968.261719,-552.886963,2.02466
237.854004,958.190918,-5.218506,2.0254
215.057373,843.933105,225.402832,2.026147
-842.102051,870.117188,293.426514,2.026887
-771.148682,968.444824,197.937012,2.027628
-0.274658,1004.058838,32.318115,2.028368
250.854492,1048.828125,-145.477295,2.029118
-138.702393,1014.953613,-191.986084,2.029859
-556.365967,945.007324,-238.952637,2.030599
-439.63623,972.564697,-335.357666,2.03134
46.234131,990.325928,-399.078369,2.03209
183.654785,950.317383,-497.86377,2.03283
-98.968506,910.400391,-553.436279,2.033571
-170.471191,835.693359,-752.746582,2.034312
20.233154,833.496094,-866.821289,2.035061
75.805664,622.192383,-458.953857,2.035801
-12.451172,471.588135,-81.756592,2.036543
-216.796875,574.21875,-66.192627,2.037283
191.345215,791.107178,-143.463135,2.038034
256.988525,795.593262,-194.824219,2.038775
-153.625488,854.827881,-253.417969,2.039516
-316.040039,784.790039,-388.275146,2.040256
-137.054443,788.269043,-547.668457,2.041006
148.681641,838.256836,-697.357178,2.041747
283.905029,886.322021,-898.040771,2.042487
534.0271,920.837402,-901.702881,2.043228
857.116699,851.074219,-811.706543,2.044062
645.355225,845.76416,-860.137939,2.044804
-1095.153809,751.373291,-608.36792,2.045545
-1967.010498,727.294922,-343.688965,2.046285
-1692.626953,785.980225,-398.162842,2.047035
73.974609,775.909424,-541.351318,2.047775
1208.679199,1173.706055,-777.282715,2.048516
2999.908447,1008.453369,-515.808105,2.049257
2999.908447,2842.62085,2999.908447,2.050007
2999.908447,2999.908447,2999.908447,2.050748
-589.233398,2999.908447,2999.908447,2.051489
-2989.746094,1231.292725,-1800.842285,2.05223
-1404.510498,373.077393,-2510.375977,2.05298
-1177.734375,39.18457,-2228.393555,2.053721
-1492.584229,191.070557,-2075.592041,2.054462
-1391.51001,421.234131,-2030.181885,2.055202
-1454.681396,482.757568,-1768.52417,2.055953
-218.353271,569.732666,-1452.11792,2.056693
1893.768311,1150.085449,-255.615234,2.057434
2197.540283,2322.875977,2999.908447,2.058175
1734.008789,2839.782715,2999.908447,2.058925
-1035.644531,2842.437744,2231.231689,2.059668
-1295.379639,1992.279053,-378.204346,2.060431
-1373.565674,534.393311,-1329.345703,2.061185
-1067.41333,609.558105,-1417.602539,2.06198
-541.625977,974.304199,121.398926,2.062743
753.479004,1675.415039,824.249268,2.063501
1547.607422,1821.44165,1046.630859,2.064272
1460.632324,1592.376709,-177.429199,2.065028
265.411377,958.740234,-778.289795,2.065779
-627.593994,628.601074,-927.886963,2.066522
-2344.299316,662.200928,-566.253662,2.067297
-1381.256104,939.605713,-279.510498,2.068046
-674.743652,1213.256836,-200.042725,2.068793
245.544434,1261.230469,46.875,2.069538
646.636963,1331.451416,246.002197,2.070279
558.380127,1331.634521,-93.658447,2.071021
248.10791,1210.05249,-300.018311,2.071762
140.808105,1059.265137,-632.263184,2.072503
46.325684,1015.594482,-664.215088,2.073244
206.542969,1045.623779,-400.268555,2.073985
332.794189,1169.403076,-95.76416,2.074734
469.299316,1225.067139,-28.381348,2.075484
415.924072,1285.675049,-8.056641,2.076233
352.478027,1303.070068,-58.868408,2.076979
134.216309,1289.703369,-127.258301,2.07772
-22.613525,1225.067139,-274.841309,2.078461
-326.568604,1199.249268,-291.687012,2.079202
-380.493164,1168.304443,-230.438232,2.079943
-295.98999,1180.206299,-31.768799,2.080684
-59.234619,1249.328613,36.712646,2.081431
50.262451,1286.773682,61.798096,2.082175
60.424805,1298.309326,29.11377,2.082915
26.092529,1284.851074,-74.523926,2.083656
-0.366211,1249.145508,-180.084229,2.084396
2.746582,1229.553223,-209.838867,2.085153
44.952393,1250.427246,-84.04541,2.085894
43.029785,1278.717041,47.88208,2.086635
2.288818,1329.25415,80.200195,2.087375
-33.416748,1309.47876,-44.494629,2.088124
-122.497559,1281.463623,-126.342773,2.088865
-142.272949,1216.278076,-197.479248,2.089606
-134.857178,1210.693359,-142.364502,2.090347
-74.34082,1209.594727,-87.799072,2.091098
-90.362549,1242.370605,-48.522949,2.091838
-89.630127,1240.631104,-70.220947,2.092579
-87.06665,1229.278564,-117.553711,2.093319
-67.749023,1196.960449,-150.238037,2.094069
-48.065186,1218.383789,-190.246582,2.094809
-74.707031,1224.700928,-189.331055,2.09555
-77.087402,1233.673096,-85.784912,2.09629
-78.460693,1243.743896,-104.827881,2.097031
-105.377197,1208.404541,-221.099854,2.097772
-136.230469,1187.805176,-257.446289,2.098513
-132.110596,1184.509277,-244.07959,2.099261
-124.237061,1198.974609,-179.901123,2.100021
-137.054443,1234.863281,-177.703857,2.100762
-185.760498,1237.1521,-230.621338,2.101503
-199.584961,1238.342285,-246.643066,2.102243
-194.641113,1234.680176,-260.742188,2.102995
-183.288574,1262.512207,-231.811523,2.103736
-180.81665,1246.948242,-240.600586,2.104477
-253.875732,1245.758057,-288.94043,2.105218
-307.617188,1227.996826,-313.293457,2.105967
-353.942871,1287.963867,-320.159912,2.106709
-389.465332,1302.062988,-301.483154,2.10745
-393.493652,1295.654297,-264.770508,2.10819
-415.283203,1246.490479,-247.558594,2.10894
-425.537109,1208.862305,-313.568115,2.10968
-443.572998,1156.12793,-359.802246,2.110421
-429.656982,1172.88208,-366.760254,2.111161
-394.226074,1192.749023,-323.822021,2.111902
-394.683838,1220.855713,-336.914062,2.112643
-410.705566,1235.961914,-341.400146,2.113476
-427.91748,1243.560791,-337.005615,2.114217
-474.700928,1200.073242,-360.992432,2.114958
-493.377686,1156.219482,-393.310547,2.115699
-462.70752,1152.923584,-394.40918,2.11644
-404.754639,1168.762207,-402.557373,2.11718
-380.0354,1189.544678,-414.733887,2.117931
-221.740723,1232.116699,-394.40918,2.118672
-174.499512,1171.691895,-425.90332,2.119414
-144.195557,1114.837646,-475.891113,2.120155
-139.343262,1071.075439,-497.314453,2.120906
-123.87085,1078.399658,-413.909912,2.121647
-145.477295,1123.168945,-402.008057,2.122388
-190.246582,1125.915527,-383.331299,2.123129
-267.883301,1128.204346,-381.866455,2.123878
-313.018799,1125.915527,-380.218506,2.12462
-339.385986,1126.00708,-357.147217,2.12536
-333.984375,1140.380859,-347.442627,2.126101
-330.780029,1152.557373,-351.470947,2.126851
-347.351074,1160.705566,-320.343018,2.127592
-340.484619,1162.445068,-315.490723,2.128333
-339.935303,1161.16333,-304.779053,2.129074
-362.548828,1168.487549,-316.589355,2.129824
-357.421875,1178.375244,-303.863525,2.130565
-356.506348,1181.030273,-312.927246,2.131309
-313.201904,1170.684814,-337.738037,2.132059
-229.522705,1166.107178,-347.53418,2.132803
-166.717529,1163.269043,-347.808838,2.133544
-145.385742,1162.078857,-351.837158,2.134285
-169.372559,1194.213867,-345.062256,2.135026
-272.186279,1172.607422,-342.681885,2.135768
-402.374268,1167.205811,-318.237305,2.136509
-422.058105,1167.114258,-284.820557,2.137253
-376.464844,1193.939209,-287.29248,2.138
-342.132568,1200.256348,-309.265137,2.138786
-222.381592,1201.721191,-336.181641,2.139536
-182.281494,1191.467285,-356.140137,2.140272
-95.031738,1180.938721,-356.964111,2.141004
-64.361572,1200.073242,-333.068848,2.141771
-67.657471,1208.221436,-314.208984,2.142518
-108.673096,1201.080322,-309.448242,2.14327
-51.544189,1193.206787,-379.577637,2.144018
-68.023682,1166.381836,-466.186523,2.144793
-58.044434,1163.543701,-405.761719,2.145568
-108.947754,1118.95752,-343.780518,2.146306
-201.965332,1076.751709,-328.674316,2.147063
-216.97998,1042.053223,-358.795166,2.147794
-77.728271,1086.547852,-485.595703,2.148525
315.490723,1296.203613,-514.892578,2.149256
465.454102,1336.853027,-516.63208,2.149989
384.70459,1318.817139,-561.767578,2.150722
97.869873,1210.510254,-534.576416,2.151452
-36.437988,1177.001953,-475.250244,2.152184
-175.598145,1177.276611,-327.667236,2.152916
-192.443848,1171.051025,-286.010742,2.153647
-54.473877,1156.036377,-285.552979,2.154378
100.708008,1129.943848,-325.469971,2.155108
196.563721,1121.795654,-363.189697,2.155843
333.1604,1102.111816,-420.135498,2.156574
396.514893,1079.315186,-413.452148,2.157305
496.673584,1092.315674,-383.605957,2.158036
480.46875,1067.138672,-264.770508,2.158771
342.956543,1077.484131,-262.207031,2.159512
161.499023,1105.865479,-191.162109,2.160253
64.63623,1116.851807,-164.0625,2.160993
15.655518,1123.077393,-164.886475,2.161735
42.114258,1124.450684,-154.632568,2.162476
25.909424,1127.380371,-153.900146,2.163216
56.121826,1129.486084,-158.477783,2.163957
84.777832,1134.155273,-192.260742,2.164708
126.068115,1157.592773,-199.584961,2.165449
146.575928,1141.845703,-222.930908,2.16619
137.420654,1135.894775,-271.087646,2.166931
121.765137,1126.739502,-246.734619,2.167672
118.743896,1161.071777,-280.059814,2.168413
135.5896,1168.945312,-292.694092,2.169154
164.337158,1155.853271,-283.721924,2.169895
184.020996,1146.972656,-259.460449,2.170635
155.639648,1120.513916,-251.495361,2.171376
106.658936,1128.936768,-256.988525,2.172116
98.510742,1130.859375,-265.319824,2.172857
73.791504,1117.401123,-324.09668,2.173598
105.285645,1078.582764,-261.016846,2.174339
229.705811,1101.837158,-204.620361,2.175079
204.345703,1115.112305,-260.742188,2.17582
173.217773,1098.907471,-359.710693,2.17657
104.827881,1072.540283,-381.591797,2.177311
102.172852,1086.547852,-292.144775,2.178052
174.499512,1097.076416,-211.578369,2.178793
127.990723,1098.083496,-296.722412,2.179542
106.750488,1076.568604,-351.470947,2.180284
93.566895,1059.814453,-329.040527,2.181025
84.228516,1055.69458,-343.780518,2.181851
102.905273,1053.405762,-322.906494,2.182593
138.885498,1061.37085,-257.263184,2.183334
126.342773,1057.617188,-227.233887,2.184075
104.187012,1052.947998,-221.466064,2.184816
51.544189,1040.313721,-284.637451,2.185557
28.656006,1016.51001,-336.547852,2.186298
-2.563477,991.424561,-370.330811,2.187039
-20.233154,983.184814,-403.198242,2.187779
68.389893,995.178223,-288.94043,2.188521
106.933594,1028.686523,-207.458496,2.189261
110.50415,1014.953613,-277.404785,2.190002
45.410156,980.34668,-299.835205,2.190743
-34.881592,944.091797,-341.400146,2.191492
-37.445068,924.133301,-308.624268,2.192234
-20.324707,956.817627,-317.321777,2.192974
-13.549805,945.465088,-302.67334,2.193714
-54.656982,925.048828,-328.491211,2.194455
-59.051514,915.435791,-333.1604,2.195196
-81.573486,907.928467,-296.99707,2.195937
-60.058594,897.216797,-356.964111,2.196677
-44.219971,874.420166,-425.262451,2.197418
-93.200684,868.103027,-452.728271,2.198159
-76.080322,883.209229,-362.091064,2.1989
-74.798584,885.864258,-408.050537,2.199641
-114.074707,858.947754,-443.115234,2.200382
-104.644775,840.911865,-379.760742,2.201123
-133.209229,848.327637,-392.211914,2.201864
-238.128662,821.31958,-542.175293,2.202605
-302.490234,807.678223,-579.89502,2.203346
-263.214111,816.650391,-548.858643,2.204087
-131.744385,826.721191,-413.543701,2.204827
-164.0625,824.066162,-489.349365,2.205569
-185.577393,810.333252,-470.76416,2.206321
-191.894531,826.080322,-505.004883,2.207068
-283.905029,831.756592,-517.822266,2.207817
-361.450195,795.410156,-547.119141,2.208558
-413.818359,796.691895,-566.162109,2.209299
-487.335205,755.218506,-592.987061,2.210056
-612.945557,717.498779,-723.907471,2.210807
-453.094482,672.546387,-668.243408,2.211566
693.145752,733.062744,-607.818604,2.212341
665.039062,744.140625,-283.813477,2.213085
153.442383,769.134521,-239.135742,2.213828
-456.939697,786.16333,-404.571533,2.214571
-476.257324,714.660645,-667.144775,2.215313
-457.489014,687.561035,-753.479004,2.216054
-262.390137,609.283447,-640.411377,2.216794
-226.776123,617.523193,-340.209961,2.217536
-210.754395,638.214111,-236.022949,2.218278
-242.431641,601.226807,-419.952393,2.219021
-318.054199,567.810059,-502.624512,2.219763
-307.250977,505.462646,-681.060791,2.220506
-317.504883,497.131348,-805.389404,2.221262
-366.760254,535.217285,-704.864502,2.222005
-405.853271,510.040283,-737.091064,2.222745
-444.122314,476.074219,-903.35083,2.223486
-393.859863,467.193604,-819.671631,2.224226
-265.045166,438.720703,-717.681885,2.224967
-245.819092,402.282715,-865.997314,2.225708
-470.123291,359.985352,-811.798096,2.226448
-488.525391,377.746582,-841.369629,2.2272
-458.679199,366.760254,-930.999756,2.22794
-502.716064,419.769287,-779.937744,2.228681
-718.963623,461.975098,-776.733398,2.229422
-612.39624,381.591797,-808.227539,2.230175
-602.142334,372.161865,-747.894287,2.230916
-286.834717,328.948975,-761.993408,2.231657
178.436279,305.328369,-973.114014,2.232398
335.632324,318.328857,-1182.403564,2.233148
152.069092,262.115479,-1251.617432,2.23389
53.924561,313.751221,-1180.57251,2.234631
224.853516,356.964111,-1038.482666,2.235372
436.431885,395.141602,-685.455322,2.236122
422.241211,416.015625,-467.285156,2.236863
119.567871,373.443604,-423.248291,2.237603
-51.361084,384.063721,-452.270508,2.238344
58.685303,425.079346,-482.116699,2.239084
712.554932,592.803955,-509.399414,2.239824
704.772949,702.209473,-368.225098,2.240565
483.947754,984.924316,-143.554688,2.241306
305.236816,1159.790039,123.138428,2.242047
334.716797,1129.669189,211.669922,2.242788
285.736084,1149.902344,314.117432,2.24353
286.376953,1161.254883,267.242432,2.24427
542.816162,1171.600342,248.382568,2.245012
637.298584,1134.70459,204.620361,2.245754
573.394775,1104.58374,155.639648,2.246495
474.151611,1043.884277,90.179443,2.247236
483.215332,987.030029,-18.768311,2.247978
546.75293,962.402344,-78.277588,2.248719
563.415527,966.796875,-175.506592,2.24946
661.102295,1195.678711,286.92627,2.250202
645.263672,1458.618164,560.302734,2.250953
288.208008,1426.757812,865.539551,2.251778
263.122559,1436.279297,849.700928,2.25252
213.592529,1502.563477,794.036865,2.253261
235.015869,1519.40918,744.9646,2.254003
214.233398,1517.852783,729.675293,2.254744
156.829834,1489.105225,693.603516,2.255485
134.857178,1479.217529,647.55249,2.256226
97.686768,1437.469482,613.494873,2.256967
45.684814,1380.79834,565.612793,2.257708
16.571045,1344.360352,539.520264,2.258449
-48.88916,1244.476318,428.100586,2.25919
-113.433838,1108.978271,271.453857,2.259931
-267.974854,1005.432129,164.154053,2.260672
-412.17041,849.884033,-65.2771,2.261414
-468.933105,782.958984,-240.875244,2.262154
-546.75293,698.364258,-273.742676,2.262897
-560.119629,647.369385,-308.990479,2.263639
-533.02002,645.629883,-310.546875,2.26438
-475.891113,642.059326,-315.124512,2.265121
-426.269531,628.78418,-343.597412,2.265872
-292.144775,627.044678,-361.999512,2.266614
-120.666504,613.220215,-429.931641,2.267355
-53.466797,593.170166,-449.523926,2.268096
56.396484,573.944092,-473.510742,2.268846
71.31958,526.977539,-501.525879,2.269587
67.382812,524.688721,-498.687744,2.270328
-30.853271,521.209717,-517.272949,2.271069
-105.743408,521.942139,-513.427734,2.271819
-223.205566,551.696777,-485.321045,2.27256
-262.481689,590.332031,-457.855225,2.273301
-343.597412,614.135742,-431.671143,2.274042
-345.88623,657.25708,-369.506836,2.274799
-336.730957,677.856445,-338.83667,2.275547
-270.263672,724.731445,-339.294434,2.276293
-190.795898,731.781006,-342.041016,2.27704
-179.718018,735.900879,-353.485107,2.277782
-141.265869,717.590332,-394.042969,2.278523
-139.343262,714.202881,-416.107178,2.279265
-153.259277,705.413818,-420.318604,2.28002
-182.830811,702.392578,-414.916992,2.280804
-204.162598,707.702637,-398.4375,2.281552
-215.423584,722.991943,-390.380859,2.282293
-253.417969,746.612549,-370.880127,2.283035
-240.509033,755.67627,-367.950439,2.283776
-242.523193,757.69043,-361.999512,2.284517
-233.36792,760.528564,-381.04248,2.285258
-224.945068,746.154785,-397.521973,2.285998
-209.197998,741.394043,-423.431396,2.28674
-215.148926,736.999512,-431.671143,2.287483
-213.134766,730.133057,-429.931641,2.288226
-220.092773,731.231689,-428.55835,2.288975
-236.663818,736.999512,-401.550293,2.289746
-255.157471,747.894287,-408.14209,2.290489
-266.967773,763.275146,-388.458252,2.29123
-272.460938,773.162842,-381.866455,2.291971
-254.974365,777.46582,-364.929199,2.292712
-250.305176,775.177002,-371.887207,2.293453
-228.057861,781.311035,-372.161865,2.294193
-218.444824,786.071777,-381.225586,2.294935
-195.922852,781.311035,-388.458252,2.295676
-179.168701,784.606934,-399.353027,2.296417
-178.894043,788.085938,-395.874023,2.297158
-172.668457,791.931152,-389.648438,2.297899
-172.210693,803.009033,-372.894287,2.298649
-183.746338,803.924561,-364.837646,2.29939
-185.211182,819.854736,-364.562988,2.300131
-176.879883,831.02417,-358.978271,2.300872
-172.210693,822.601318,-374.084473,2.301622
-152.618408,818.664551,-374.908447,2.302363
-139.709473,818.023682,-383.239746,2.303104
-130.187988,818.664551,-385.986328,2.303845
-124.694824,821.868896,-385.803223,2.304595
-117.553711,832.305908,-378.387451,2.305336
-112.884521,834.411621,-377.380371,2.306076
-119.659424,839.813232,-362.27417,2.306817
-118.743896,848.327637,-365.661621,2.307567
-110.870361,867.004395,-351.745605,2.308307
-107.940674,865.17334,-369.689941,2.309048
-101.165771,847.961426,-367.675781,2.309789
-97.137451,843.475342,-383.148193,2.310539
-84.777832,838.256836,-389.190674,2.311281
-73.974609,841.644287,-384.521484,2.312022
-65.826416,844.940186,-354.034424,2.312763
-57.312012,846.77124,-368.499756,2.313515
-57.861328,854.46167,-355.59082,2.314255
-44.219971,855.377197,-354.766846,2.314996
-54.56543,849.42627,-348.724365,2.315737
-57.312012,853.271484,-362.731934,2.316478
-62.438965,836.608887,-370.056152,2.317219
-58.044434,826.080322,-381.04248,2.31796
-52.093506,821.868896,-386.993408,2.318701
-32.775879,817.657471,-390.655518,2.319442
-34.332275,812.347412,-382.507324,2.320183
-25.817871,828.369141,-370.788574,2.320924
-27.008057,822.509766,-360.076904,2.321751
-34.881592,843.566895,-359.527588,2.322503
-31.12793,818.481445,-358.795166,2.323244
-34.881592,818.939209,-357.513428,2.323985
-28.839111,822.509766,-359.436035,2.324726
-30.487061,817.749023,-355.59082,2.325477
-36.804199,815.002441,-351.104736,2.326218
-29.663086,815.093994,-347.53418,2.326959
-30.944824,824.523926,-345.52002,2.3277
-34.057617,827.819824,-334.442139,2.328451
-27.46582,829.01001,-339.935303,2.329192
-34.057617,826.721191,-343.505859,2.329933
-34.057617,826.171875,-341.491699,2.330675
-44.586182,830.566406,-349.090576,2.331424
-46.417236,824.890137,-363.098145,2.332165
-55.389404,819.213867,-360.534668,2.332907
-55.664062,808.868408,-357.23877,2.333648
-59.051514,804.748535,-366.119385,2.334398
-55.480957,817.749023,-351.287842,2.335139
-54.107666,818.939209,-342.681885,2.33588
-52.459717,814.819336,-341.400146,2.336621
-60.791016,825.439453,-339.019775,2.337362
-66.650391,816.650391,-337.005615,2.338103
-72.601318,810.150146,-350.372314,2.338844
-69.946289,802.093506,-355.865479,2.339585
-71.685791,800.720215,-363.006592,2.340326
-72.967529,802.55127,-362.731934,2.341066
-73.608398,802.276611,-353.57666,2.341807
-70.220947,815.368652,-354.309082,2.342548
-68.389893,831.207275,-340.118408,2.343289
-68.847656,840.270996,-324.371338,2.34403
-68.572998,848.236084,-322.265625,2.344773
-77.178955,846.496582,-344.604492,2.345521
-97.045898,841.369629,-341.308594,2.346272
-106.018066,842.926025,-341.674805,2.347019
-107.666016,841.918945,-336.547852,2.347759
-112.609863,849.975586,-332.885742,2.348498
-106.933594,864.532471,-324.09668,2.349239
-96.313477,865.356445,-319.244385,2.349979
-94.940186,877.075195,-316.589355,2.350725
-90.545654,858.856201,-326.385498,2.351476
-100.982666,859.588623,-337.921143,2.352243
-103.179932,859.954834,-343.597412,2.35299
-106.47583,860.778809,-352.56958,2.35373
-121.948242,846.77124,-351.654053,2.354484
-123.596191,847.320557,-346.984863,2.355224
-122.680664,850.524902,-353.485107,2.355964
-118.927002,861.236572,-347.900391,2.356703
-119.567871,889.984131,-334.899902,2.357443
-113.983154,873.504639,-331.14624,2.358184
-110.321045,878.448486,-324.920654,2.358926
-107.391357,875.701904,-328.857422,2.359668
-117.919922,880.371094,-336.090088,2.360408
-110.778809,872.497559,-349.639893,2.361148
-125.061035,869.384766,-357.696533,2.361888
-122.497559,876.525879,-357.421875,2.362628
-118.835449,882.843018,-348.358154,2.36337
-117.553711,885.498047,-340.942383,2.364117
-115.264893,890.716553,-338.012695,2.36486
-109.588623,898.864746,-332.336426,2.365617
-109.222412,892.63916,-341.583252,2.36636
-95.489502,894.65332,-340.942383,2.367103
-105.285645,897.30835,-339.202881,2.367848
-112.426758,883.392334,-345.88623,2.36859
-115.631104,881.469727,-373.443604,2.369333
-121.307373,883.666992,-356.689453,2.370076
-122.406006,895.019531,-355.865479,2.370819
-115.631104,894.836426,-351.196289,2.371569
-106.842041,909.118652,-333.709717,2.372325
-110.687256,907.37915,-332.702637,2.373089
-97.595215,910.583496,-333.526611,2.373848
-91.003418,917.724609,-332.519531,2.374609
-80.01709,917.907715,-342.407227,2.375375
-78.277588,908.02002,-344.146729,2.37616
-87.249756,901.245117,-345.703125,2.376904
-90.454102,899.32251,-328.491211,2.377644
-86.151123,906.37207,-346.160889,2.378383
-84.869385,905.639648,-341.85791,2.379136
-76.446533,909.0271,-344.329834,2.379876
-76.721191,916.992188,-330.871582,2.380616
-75.439453,917.724609,-329.498291,2.381357
-67.565918,919.189453,-328.125,2.382108
-88.531494,914.428711,-328.674316,2.382848
-68.572998,909.118652,-340.301514,2.383589
-70.678711,901.245117,-346.618652,2.384329
-72.875977,902.252197,-348.724365,2.385077
-70.861816,904.449463,-339.569092,2.385816
-72.967529,902.34375,-338.378906,2.386556
-74.981689,905.273438,-336.364746,2.387296
-74.249268,915.435791,-327.484131,2.388045
-68.847656,910.949707,-333.80127,2.388785
-70.861816,906.097412,-333.80127,2.389525
-72.143555,897.216797,-338.195801,2.390265
-72.143555,899.871826,-347.717285,2.391014
-65.917969,891.174316,-348.266602,2.391754
-76.35498,886.505127,-354.766846,2.392575
-70.220947,871.124268,-364.929199,2.393316
-70.404053,876.525879,-360.168457,2.394038
-79.101562,879.272461,-357.147217,2.394778
-66.375732,881.011963,-352.203369,2.395518
-68.206787,883.758545,-350.189209,2.396258
-67.565918,878.265381,-355.316162,2.397007
-69.580078,877.532959,-346.5271,2.397747
-68.389893,860.870361,-364.562988,2.398487
-68.115234,852.44751,-377.197266,2.399227
-66.009521,846.77124,-381.958008,2.399976
-65.185547,847.595215,-379.02832,2.400716
-86.151123,843.017578,-372.528076,2.401456
-85.05249,851.165771,-352.661133,2.402196
-93.200684,850.067139,-328.857422,2.402944
-90.72876,849.609375,-352.56958,2.403685
-88.256836,864.16626,-344.421387,2.404424
-92.102051,857.391357,-351.837158,2.405164
-90.087891,850.982666,-366.577148,2.405913
-94.116211,850.982666,-373.718262,2.406653
-81.665039,847.595215,-370.513916,2.407392
-73.516846,849.151611,-357.788086,2.408132
-75.714111,854.644775,-352.203369,2.408881
-72.967529,876.159668,-334.442139,2.409621
-71.685791,876.983643,-328.216553,2.410362
-81.298828,881.835938,-329.864502,2.411101
-86.791992,876.434326,-336.090088,2.41185
-96.038818,878.723145,-343.87207,2.41259
-104.553223,875.061035,-344.329834,2.41333
-110.687256,890.533447,-351.196289,2.41407
-108.764648,876.251221,-347.351074,2.414811
-100.799561,876.068115,-341.85791,2.415559
-100.250244,883.117676,-341.766357,2.416328
-98.602295,886.230469,-334.16748,2.417074
-98.693848,884.399414,-338.470459,2.417837
-107.48291,882.293701,-336.273193,2.418578
-115.539551,878.173828,-334.991455,2.419326
-119.293213,872.131348,-344.238281,2.420075
-118.103027,880.096436,-345.977783,2.420846
-121.673584,870.849609,-348.999023,2.421593
-122.039795,861.785889,-343.963623,2.422333
-114.440918,875.244141,-336.82251,2.423072
-103.729248,882.019043,-341.766357,2.423835
-102.44751,886.322021,-334.899902,2.424575
-101.806641,885.864258,-333.618164,2.425315
-98.327637,879.364014,-340.393066,2.426054
-107.574463,881.92749,-338.104248,2.426804
-120.758057,878.173828,-349.090576,2.427543
-119.934082,884.94873,-351.196289,2.428283
-121.490479,871.398926,-348.358154,2.429023
-122.680664,881.561279,-335.906982,2.429777
-121.307373,894.287109,-335.174561,2.430518
-116.546631,906.829834,-326.843262,2.431258
-118.560791,898.31543,-332.427979,2.431998
-112.1521,894.195557,-339.569092,2.432709
-113.433838,898.31543,-337.280273,2.433449
-105.743408,898.773193,-347.808838,2.434189
-107.116699,894.012451,-341.033936,2.434929
-110.412598,894.836426,-340.301514,2.435678
-104.919434,902.801514,-336.273193,2.436418
-112.243652,900.787354,-333.068848,2.437158
-104.736328,907.928467,-339.752197,2.437898
-97.961426,911.132812,-336.273193,2.438648
-95.031738,910.766602,-329.498291,2.439391
-81.665039,917.449951,-326.843262,2.440135
-84.411621,917.175293,-326.843262,2.440877
-80.657959,914.703369,-335.174561,2.441641
-87.341309,911.682129,-339.385986,2.442383
-83.03833,920.654297,-333.435059,2.443123
-85.510254,925.872803,-329.956055,2.443863
-85.876465,909.0271,-333.343506,2.444614
-83.587646,919.830322,-325.378418,2.445354
-81.756592,933.288574,-322.540283,2.446094
-77.270508,922.851562,-328.674316,2.446834
-84.686279,921.844482,-305.969238,2.447582
-84.411621,926.879883,-327.209473,2.448323
-76.080322,922.668457,-322.540283,2.449063
-71.777344,922.76001,-321.807861,2.449803
-62.255859,919.73877,-328.857422,2.450552
-61.340332,909.210205,-331.329346,2.451292
-55.480957,910.675049,-326.385498,2.452031
-58.319092,905.273438,-331.787109,2.452772
-53.466797,902.160645,-322.265625,2.453521
-55.297852,902.160645,-328.033447,2.454261
-54.473877,894.195557,-329.772949,2.455001
-44.769287,897.949219,-317.779541,2.455741
-68.389893,908.294678,-321.075439,2.456491
-51.086426,909.942627,-314.483643,2.45723
-53.833008,899.139404,-313.659668,2.45797
-53.192139,892.730713,-320.983887,2.45871
-53.283691,898.132324,-319.335938,2.45946
-47.88208,899.32251,-326.843262,2.460199
-45.776367,901.702881,-324.737549,2.46094
-44.128418,898.773193,-320.892334,2.46168
-45.043945,898.864746,-315.582275,2.462518
-50.720215,897.766113,-319.244385,2.46326
-49.255371,896.850586,-320.800781,2.464
-49.621582,892.822266,-326.019287,2.46474
-50.354004,900.878906,-323.0896,2.465489
-56.304932,888.793945,-324.462891,2.466229
-50.811768,900.695801,-316.589355,2.466969
-51.544189,899.047852,-322.998047,2.467709
-28.747559,901.519775,-322.44873,2.468458
-54.473877,894.744873,-318.511963,2.469198
-51.361084,902.526855,-313.018799,2.469938
-49.346924,907.836914,-316.040039,2.470677
-55.755615,904.266357,-315.765381,2.471426
-58.685303,906.005859,-320.983887,2.472166
-51.269531,908.660889,-318.054199,2.472905
-50.811768,918.914795,-309.539795,2.473644
-61.340332,907.745361,-319.885254,2.474394
-65.368652,909.118652,-317.596436,2.475134
-61.889648,903.259277,-323.272705,2.475874
-57.678223,907.37915,-322.357178,2.476613
-57.220459,914.611816,-321.990967,2.47736
-58.227539,914.611816,-314.208984,2.4781
-67.565918,913.330078,-320.526123,2.47884
-58.59375,921.936035,-320.526123,2.479579
-65.551758,890.808105,-326.477051,2.480329
-55.480957,918.365479,-321.350098,2.481068
-67.199707,912.963867,-330.047607,2.481808
-65.002441,909.942627,-351.470947,2.482549
-76.721191,919.372559,-322.44873,2.483297
-81.115723,912.780762,-320.709229,2.484037
-80.932617,910.583496,-325.469971,2.484777
-67.749023,921.844482,-316.772461,2.485518
-72.235107,919.006348,-323.364258,2.486286
-68.115234,914.337158,-319.702148,2.487034
-65.734863,919.830322,-327.850342,2.48778
-69.030762,914.520264,-308.441162,2.488519
-58.959961,910.125732,-334.350586,2.489279
-63.903809,918.914795,-336.639404,2.490019
-55.755615,920.654297,-331.054688,2.490768
-60.241699,926.330566,-324.737549,2.491517
-63.262939,916.351318,-322.174072,2.492283
-72.601318,916.534424,-325.927734,2.493028
-62.896729,921.661377,-333.892822,2.493768
-65.826416,905.639648,-311.096191,2.494507
-75.3479,902.435303,-336.730957,2.495276
-70.037842,905.456543,-330.413818,2.49602
-64.819336,911.499023,-326.751709,2.49676
-53.375244,910.491943,-336.090088,2.497501
-53.375244,930.267334,-326.11084,2.498253
-54.290771,916.442871,-328.857422,2.498995
-55.847168,911.865234,-329.223633,2.499738
-56.121826,915.06958,-328.765869,2.50048
-73.33374,913.421631,-332.794189,2.501234
-68.664551,913.970947,-336.181641,2.501975
-66.101074,915.252686,-333.618164,2.502716
-68.115234,907.653809,-333.709717,2.503456
-68.206787,907.562256,-331.878662,2.504206
-79.193115,921.386719,-328.399658,2.504947
-49.804688,909.576416,-331.237793,2.505688
-69.488525,913.970947,-341.949463,2.506429
-75.622559,916.442871,-344.055176,2.507179
-76.080322,919.006348,-337.921143,2.50792
-76.812744,917.449951,-337.005615,2.508661
-76.812744,920.74585,-336.364746,2.509402
-78.643799,925.964355,-332.15332,2.510152
-82.763672,909.576416,-340.484619,2.510894
-85.235596,910.766602,-349.090576,2.511635
-92.926025,908.477783,-341.949463,2.512376
-94.116211,910.949707,-347.625732,2.513126
-97.229004,910.03418,-341.217041,2.513868
-106.842041,913.970947,-346.343994,2.514609
-99.79248,913.330078,-348.632812,2.515355
-102.905273,924.041748,-338.287354,2.516126
-98.327637,919.830322,-348.724365,2.516881
-103.546143,917.907715,-340.576172,2.517643
-98.419189,908.477783,-344.055176,2.518401
-103.088379,907.562256,-345.062256,2.519185
-105.010986,913.238525,-351.287842,2.519949
-101.989746,920.837402,-338.745117,2.520704
-103.363037,916.809082,-337.463379,2.52145
-104.003906,925.415039,-328.491211,2.52222
-103.45459,929.534912,-324.371338,2.522974
-101.623535,921.661377,-332.427979,2.523735
-107.116699,936.950684,-342.315674,2.524496
-107.940674,917.266846,-346.435547,2.525288
-99.975586,917.724609,-346.252441,2.526044
-102.630615,922.393799,-345.52002,2.526808
-103.912354,919.555664,-345.88623,2.527565
-110.137939,921.020508,-347.259521,2.528311
-117.095947,923.492432,-351.379395,2.529053
-104.827881,921.75293,-339.294434,2.529794
-104.736328,926.879883,-332.15332,2.530536
-95.581055,924.133301,-329.406738,2.531267
-41.381836,941.070557,-332.611084,2.531999
-28.381348,958.831787,-328.948975,2.53273
-73.791504,897.30835,-291.870117,2.533599
-162.322998,885.5896,-385.528564,2.534341
-216.61377,882.751465,-413.726807,2.535082
-231.079102,878.265381,-403.015137,2.535824
-194.824219,936.49292,-355.499268,2.536565
-155.090332,969.360352,-329.772949,2.537306
-89.904785,972.930908,-290.95459,2.538047
-85.784912,970.275879,-329.040527,2.538788
-67.749023,952.148438,-359.436035,2.539529
-94.940186,909.393311,-389.831543,2.54027
-116.912842,892.63916,-389.73999,2.541011
-117.279053,901.702881,-373.443604,2.541752
-120.300293,927.978516,-336.547852,2.542493
-124.969482,946.19751,-324.462891,2.543234
-137.054443,950.500488,-314.025879,2.543975
-145.751953,955.810547,-327.209473,2.544716
-133.117676,934.753418,-329.864502,2.545466
-142.730713,920.654297,-354.400635,2.546207
-138.61084,907.745361,-359.069824,2.546948
-119.20166,914.520264,-379.486084,2.547688
-121.490479,914.794922,-375.915527,2.548438
-99.243164,923.126221,-373.077393,2.54918
-95.672607,938.049316,-337.921143,2.54992
-97.686768,946.380615,-312.286377,2.550661
-118.377686,951.324463,-326.751709,2.551411
-129.821777,929.718018,-333.80127,2.552153
-135.681152,932.830811,-338.470459,2.552894
-132.476807,919.006348,-351.104736,2.553634
-127.075195,917.175293,-363.922119,2.554385
-113.983154,918.273926,-358.337402,2.555137
-108.581543,907.653809,-360.626221,2.555883
-99.42627,908.02002,-354.492188,2.556631
-100.43335,908.660889,-345.52002,2.557375
-91.278076,914.703369,-334.716797,2.558116
-91.73584,920.562744,-332.885742,2.558857
-99.151611,906.280518,-342.041016,2.559599
-104.46167,910.675049,-348.907471,2.560353
-110.412598,901.977539,-349.914551,2.561104
-112.426758,902.069092,-345.88623,2.561863
-106.933594,902.435303,-328.399658,2.562608
-98.693848,913.787842,-340.484619,2.563349
-96.77124,926.605225,-343.780518,2.56409
-86.242676,921.661377,-339.752197,2.56483
-87.158203,920.928955,-340.026855,2.565571
-88.256836,918.640137,-343.231201,2.566312
-98.602295,917.999268,-338.562012,2.567053
-106.842041,919.006348,-355.773926,2.567794
-105.743408,906.646729,-354.766846,2.568534
-111.877441,913.604736,-347.717285,2.5693
-107.940674,921.020508,-339.294434,2.570042
-107.299805,924.133301,-334.16748,2.570785
-105.194092,916.900635,-331.512451,2.571526
-99.060059,922.302246,-334.350586,2.572267
-90.270996,916.442871,-345.611572,2.573007
-93.75,933.288574,-344.970703,2.573748
-95.397949,922.027588,-348.999023,2.574489
-97.320557,914.337158,-352.844238,2.57524
-90.362549,916.809082,-344.787598,2.575981
-94.940186,919.464111,-348.175049,2.576722
-102.996826,927.612305,-342.041016,2.577462
-104.919434,927.246094,-338.378906,2.578212
-104.278564,927.79541,-335.083008,2.578953
-96.313477,916.168213,-338.745117,2.579694
-109.222412,918.182373,-343.963623,2.580434
-106.842041,909.942627,-348.358154,2.581184
-95.031738,917.08374,-349.273682,2.581924
-96.77124,912.322998,-348.999023,2.582665
-100.067139,925.140381,-351.104736,2.583406
-97.686768,914.337158,-342.498779,2.584156
-96.221924,915.252686,-342.590332,2.584897
-95.855713,909.942627,-366.119385,2.585637
-99.517822,911.773682,-352.478027,2.586377
-101.531982,913.330078,-343.87207,2.587119
-109.222412,909.393311,-347.991943,2.587859
-109.954834,916.625977,-344.238281,2.5886
-111.236572,906.097412,-350.189209,2.58934
-109.680176,914.978027,-348.175049,2.590081
-113.983154,909.393311,-338.653564,2.590822
-105.285645,919.464111,-347.076416,2.591563
-107.116699,924.499512,-348.632812,2.592307
-105.651855,914.154053,-346.160889,2.59305
-94.573975,913.787842,-349.54834,2.59379
-94.940186,916.992188,-356.781006,2.594531
-97.412109,918.823242,-354.766846,2.595272
-93.566895,920.654297,-352.386475,2.596013
-91.094971,923.034668,-345.062256,2.596753
-94.390869,924.865723,-345.336914,2.597494
-91.552734,928.161621,-347.259521,2.598234
-91.278076,932.4646,-340.85083,2.598975
-84.320068,932.189941,-340.576172,2.599716
-87.799072,921.478271,-343.231201,2.600457
-80.108643,929.260254,-344.055176,2.601198
-83.587646,921.936035,-346.893311,2.601951
-75.439453,926.971436,-350.646973,2.602692
-80.108643,915.802002,-346.252441,2.603516
-81.207275,918.365479,-347.717285,2.604257
-83.862305,919.647217,-343.780518,2.604998
-75.256348,922.210693,-345.52002,2.605739
-74.798584,922.393799,-338.562012,2.60648
-78.918457,924.682617,-342.498779,2.607221
-75.98877,921.569824,-344.146729,2.607962
-74.890137,921.020508,-341.766357,2.608703
-71.594238,923.492432,-338.745117,2.609444
-79.650879,910.125732,-338.928223,2.610184
-75.98877,921.020508,-337.463379,2.610926
-81.481934,916.900635,-345.336914,2.611667
-75.256348,921.75293,-345.611572,2.612408
-77.545166,922.027588,-340.942383,2.613149
-75.531006,919.281006,-340.209961,2.613901
-78.460693,914.428711,-341.766357,2.614642
-76.629639,922.668457,-339.294434,2.615383
-77.911377,923.858643,-338.562012,2.616124
-82.122803,926.330566,-345.703125,2.616873
-77.545166,917.724609,-344.87915,2.617614
-83.770752,920.013428,-347.076416,2.618355
-75.622559,918.365479,-335.998535,2.619097
-75.622559,922.485352,-342.590332,2.619847
-75.622559,920.288086,-340.393066,2.620588
-85.327148,915.985107,-340.667725,2.621329
-82.672119,912.322998,-337.82959,2.62207
-81.481934,911.956787,-339.569092,2.622819
-81.207275,918.457031,-330.230713,2.623561
-82.305908,914.337158,-339.202881,2.624301
-81.848145,921.295166,-343.231201,2.625042
-86.151123,919.464111,-340.759277,2.625793
-87.158203,920.654297,-338.195801,2.626537
-85.327148,915.435791,-340.759277,2.627283
-83.221436,920.562744,-344.238281,2.628033
-86.975098,914.337158,-345.52002,2.628781
-86.975098,913.787842,-349.822998,2.629521
-93.109131,902.526855,-333.709717,2.630262
-90.545654,914.154053,-344.421387,2.631008
-93.475342,911.865234,-345.52002,2.631761
-97.869873,908.294678,-350.921631,2.632508
-102.172852,914.703369,-344.146729,2.633256
-101.074219,908.477783,-351.745605,2.633997
-88.989258,904.815674,-354.217529,2.634738
-104.736328,913.05542,-349.456787,2.635479
-107.849121,905.273438,-356.872559,2.63622
-100.982666,910.491943,-353.851318,2.636961
-94.573975,920.654297,-355.682373,2.637722
-108.856201,911.224365,-364.013672,2.638465
-94.024658,907.470703,-354.034424,2.639207
-96.496582,914.886475,-358.062744,2.639947
-102.44751,913.330078,-356.872559,2.640692
-101.44043,919.006348,-361.175537,2.641433
-100.341797,921.478271,-360.534668,2.642174
-95.76416,921.295166,-355.133057,2.642915
-98.236084,917.449951,-353.485107,2.643656
-104.553223,914.337158,-359.710693,2.644397
-104.919434,912.963867,-355.224609,2.645138
-96.679688,922.027588,-358.154297,2.645878
-95.581055,930.267334,-354.125977,2.64662
-104.278564,928.80249,-350.738525,2.647361
-99.700928,932.922363,-348.449707,2.648102
-95.031738,934.387207,-350.006104,2.648843
-93.75,930.999756,-352.203369,2.649584
-88.806152,932.647705,-345.245361,2.650325
-92.468262,932.189941,-345.062256,2.651067
-96.496582,929.80957,-372.711182,2.651808
-83.679199,935.668945,-354.034424,2.652558
-84.960938,915.161133,-352.111816,2.653299
-89.996338,929.992676,-352.020264,2.654039
-91.461182,931.915283,-357.879639,2.65478
-93.017578,933.013916,-358.062744,2.655529
-82.03125,933.563232,-355.773926,2.65627
-78.826904,936.584473,-349.54834,2.657011
-86.791992,932.647705,-356.5979,2.657751
-78.460693,933.380127,-352.111816,2.6585
-78.00293,934.661865,-352.56958,2.659241
-75.622559,928.985596,-355.041504,2.659982
-86.151123,935.394287,-349.914551,2.660723
-68.023682,934.112549,-371.97876,2.661473
-73.974609,931.640625,-348.907471,2.662214
-78.735352,934.295654,-340.667725,2.662955
-80.200195,939.147949,-343.780518,2.663695
-71.502686,942.443848,-354.58374,2.664445
-69.122314,937.042236,-356.414795,2.665186
-73.33374,936.676025,-348.632812,2.665927
-70.129395,933.47168,-350.006104,2.666668
-74.615479,938.232422,-352.020264,2.667437
-74.157715,933.105469,-347.808838,2.66818
-73.883057,936.950684,-340.026855,2.668922
-71.044922,935.119629,-341.949463,2.669663
-72.601318,928.710938,-348.175049,2.67042
-79.925537,929.260254,-350.921631,2.671162
-75.897217,919.921875,-356.5979,2.671902
-77.178955,923.858643,-353.57666,2.672643
-72.875977,927.246094,-350.372314,2.673385
-69.488525,917.266846,-351.470947,2.67421
-72.692871,915.618896,-353.57666,2.674951
-73.516846,916.168213,-348.724365,2.675692
-69.763184,910.766602,-350.097656,2.676433
-71.228027,920.288086,-374.633789,2.677173
-71.594238,910.675049,-354.492188,2.677914
-78.460693,911.773682,-356.231689,2.678655
-74.981689,910.858154,-354.858398,2.679395
-76.721191,908.111572,-355.957031,2.680136
-75.805664,906.829834,-352.294922,2.680877
-66.467285,918.457031,-353.57666,2.681618
-92.285156,913.330078,-346.710205,2.682359
-77.819824,911.590576,-344.787598,2.6831
-73.699951,913.604736,-338.745117,2.68384
-76.263428,915.893555,-342.407227,2.684581
-77.728271,915.802002,-347.900391,2.685331
-78.369141,907.104492,-341.491699,2.686073
-81.481934,914.611816,-339.477539,2.686813
-79.193115,917.08374,-349.365234,2.687555
-77.636719,917.266846,-347.259521,2.688304
-78.00293,919.647217,-341.491699,2.689045
-83.953857,917.08374,-338.83667,2.689786
-81.573486,916.534424,-339.84375,2.690527
-81.848145,919.830322,-340.667725,2.691277
-84.228516,916.168213,-337.554932,2.692018
-82.305908,920.654297,-330.688477,2.692758
-80.108643,906.005859,-348.815918,2.693499
-82.397461,907.928467,-338.562012,2.694249
-84.04541,912.506104,-337.371826,2.69499
-94.75708,907.104492,-352.111816,2.695731
-93.841553,907.470703,-373.626709,2.696483
-93.75,912.963867,-349.54834,2.697229
-94.75708,907.196045,-348.999023,2.697977
-90.72876,915.893555,-339.019775,2.698725
-96.954346,906.738281,-343.231201,2.699466
-95.214844,909.942627,-347.259521,2.700207
-96.954346,907.928467,-346.069336,2.700948
-98.236084,911.773682,-346.5271,2.701689
-106.201172,905.822754,-343.963623,2.702443
-101.715088,909.759521,-350.463867,2.703217
-98.144531,912.780762,-350.646973,2.704009
-96.496582,916.625977,-373.809814,2.704754
-95.031738,910.308838,-358.795166,2.705495
-95.306396,915.252686,-357.055664,2.706255
-96.679688,917.449951,-353.210449,2.706996
-98.7854,917.358398,-357.421875,2.707737
-98.876953,922.393799,-349.273682,2.708478
-104.278564,922.76001,-347.900391,2.709228
-98.7854,914.520264,-348.083496,2.70997
-103.912354,915.985107,-345.703125,2.710711
-100.708008,917.999268,-349.456787,2.711453
-105.102539,918.731689,-355.133057,2.712207
-102.081299,924.591064,-351.928711,2.712948
-101.44043,923.76709,-344.87915,2.713688
-109.313965,926.147461,-351.5625,2.714429
-102.264404,918.914795,-354.858398,2.715178
-102.996826,919.555664,-357.879639,2.715919
-110.961914,910.766602,-359.161377,2.71666
-105.46875,918.457031,-353.851318,2.717401
-107.299805,926.330566,-351.837158,2.718152
-97.229004,927.429199,-352.478027,2.718893
-101.989746,922.576904,-357.696533,2.719634
-97.229004,924.224854,-353.851318,2.720375
-106.018066,913.696289,-353.118896,2.721125
-95.031738,924.591064,-346.893311,2.721866
-96.496582,914.154053,-350.646973,2.722606
-93.658447,924.041748,-349.456787,2.723347
-91.552734,919.189453,-350.280762,2.724097
-93.658447,917.449951,-351.470947,2.724838
-89.72168,918.548584,-346.984863,2.725579
-88.806152,921.936035,-347.351074,2.72632
-80.474854,917.816162,-343.505859,2.727069
-86.151123,914.337158,-348.266602,2.727811
