ACC_X,ACC_Y,ACC_Z,Time
-301.300049,131.561279,522.949219,1.877334
-308.166504,132.110596,509.490967,1.878071
-312.927246,136.505127,500.88501,1.878828
-336.181641,143.554688,489.257812,1.87957
-352.935791,146.942139,467.193604,1.880332
-346.160889,148.956299,460.968018,1.881074
-356.781006,152.160645,454.559326,1.881815
-371.063232,155.456543,443.023682,1.882556
-371.704102,157.470703,440.2771,1.883308
-368.041992,166.717529,424.163818,1.884148
-382.781982,175.048828,423.156738,1.884891
-387.817383,177.978516,403.656006,1.885634
-390.838623,190.704346,412.994385,1.886366
-380.950928,233.184814,413.269043,1.887097
-365.112305,253.051758,425.445557,1.887828
-335.632324,271.362305,435.882568,1.888572
-325.927734,292.694092,472.229004,1.889314
-316.40625,297.363281,516.815186,1.890055
-295.98999,310.638428,547.485352,1.890798
-301.66626,331.512451,585.662842,1.891539
-263.946533,348.266602,578.063965,1.892281
-243.255615,377.471924,592.071533,1.893022
-247.741699,386.627197,627.410889,1.893764
-247.375488,388.73291,637.207031,1.894506
-226.043701,409.14917,652.22168,1.895247
-222.747803,418.395996,688.476562,1.895989
-242.156982,427.093506,700.195312,1.89673
-238.40332,433.776855,729.492188,1.897477
-246.09375,433.227539,742.675781,1.898209
-251.77002,428.833008,769.317627,1.89894
-248.474121,432.861328,783.691406,1.899672
-289.672852,391.662598,816.009521,1.900413
-309.906006,365.478516,846.862793,1.901153
-242.889404,384.887695,860.595703,1.901893
-236.663818,441.009521,868.927002,1.902633
-242.889404,452.636719,876.251221,1.903374
-236.663818,455.749512,881.744385,1.904114
-239.318848,438.079834,898.681641,1.904854
-237.579346,423.797607,902.34375,1.905594
-207.458496,401.641846,917.907715,1.906346
-187.5,407.958984,928.527832,1.907086
-178.619385,410.888672,928.710938,1.907826
-146.759033,415.83252,924.316406,1.908567
-128.173828,422.149658,913.330078,1.909307
-123.87085,423.980713,910.03418,1.910046
-118.835449,413.726807,902.069092,1.910786
-90.179443,407.226562,891.906738,1.911526
-72.509766,398.986816,888.153076,1.912266
-65.643311,392.303467,870.574951,1.913006
-55.57251,386.71875,869.659424,1.913746
-46.691895,380.126953,851.257324,1.914486
-58.135986,371.154785,843.566895,1.915263
-50.170898,368.774414,838.7146,1.916011
-66.192627,359.161377,821.136475,1.916753
-79.559326,358.886719,791.381836,1.917494
-116.638184,343.414307,783.599854,1.918255
-157.470703,327.575684,771.697998,1.918997
-173.034668,325.195312,755.126953,1.919738
-191.894531,330.413818,744.9646,1.920479
-198.852539,331.970215,744.781494,1.921224
-214.96582,331.787109,744.598389,1.921955
-212.768555,338.104248,734.893799,1.922687
-207.91626,342.498779,706.970215,1.923418
-203.24707,346.069336,720.52002,1.924175
-201.599121,353.393555,723.999023,1.924917
-199.127197,357.513428,729.58374,1.925658
-211.578369,397.155762,723.449707,1.9264
-190.795898,386.71875,710.540771,1.927151
-166.992188,372.528076,708.343506,1.927893
-237.579346,358.428955,733.154297,1.928634
-196.929932,373.718262,736.358643,1.929375
-210.388184,403.015137,711.82251,1.930126
-237.213135,406.219482,730.682373,1.930868
-177.703857,425.628662,733.24585,1.93161
-209.838867,442.108154,745.422363,1.932351
-202.056885,449.249268,764.73999,1.933092
-205.9021,452.178955,780.12085,1.933824
-212.127686,452.819824,782.867432,1.934556
-199.127197,463.531494,791.564941,1.935287
-182.556152,489.16626,803.649902,1.936042
-190.52124,488.983154,810.882568,1.936783
-193.17627,513.702393,806.396484,1.937525
-173.126221,524.780273,804.290771,1.938266
-189.971924,522.399902,817.108154,1.939017
-198.944092,527.252197,825.164795,1.939758
-193.267822,531.738281,821.502686,1.9405
-199.584961,544.73877,835.05249,1.941241
-192.810059,546.203613,828.186035,1.941992
-192.352295,558.013916,834.686279,1.942733
-196.105957,564.056396,832.763672,1.943475
-188.323975,573.760986,845.76416,1.944216
-199.21875,573.669434,852.264404,1.944967
-199.035645,586.212158,859.405518,1.945709
-198.944092,586.669922,860.229492,1.94645
-194.366455,584.289551,857.757568,1.947191
-193.450928,586.669922,865.081787,1.947942
-197.845459,593.994141,872.131348,1.948684
-190.704346,601.501465,865.447998,1.949425
-190.155029,628.601074,867.645264,1.950166
-194.366455,606.079102,872.2229,1.95093
-193.359375,611.572266,881.744385,1.951675
-187.774658,613.769531,884.399414,1.95241
-189.605713,604.248047,880.737305,1.953158
-178.710938,617.156982,881.195068,1.953927
-169.464111,619.812012,878.814697,1.954763
-169.372559,612.854004,875.793457,1.955506
-160.583496,614.4104,868.835449,1.956247
-143.829346,618.896484,867.645264,1.956988
-137.145996,619.262695,863.800049,1.957729
-124.328613,616.607666,862.243652,1.958471
-119.018555,619.720459,859.405518,1.959226
-124.694824,624.389648,862.1521,1.959958
-115.631104,617.614746,860.687256,1.96069
-113.891602,621.09375,854.278564,1.961421
-122.497559,612.030029,860.778809,1.962153
-103.363037,621.459961,860.687256,1.96291
-104.370117,620.544434,863.250732,1.963652
-107.48291,619.812012,858.306885,1.964394
-98.052979,612.030029,857.849121,1.965136
-108.306885,609.649658,872.039795,1.965887
-95.214844,615.509033,878.814697,1.966629
-90.087891,612.39624,876.251221,1.96737
-92.193604,614.501953,873.413086,1.968112
-87.432861,615.875244,876.525879,1.968864
-89.813232,610.38208,878.723145,1.969605
-95.672607,612.945557,878.356934,1.970347
-90.179443,604.3396,878.723145,1.971088
-85.327148,599.578857,906.829834,1.971831
-86.151123,607.086182,891.815186,1.972563
-82.397461,609.283447,891.815186,1.973295
-81.756592,606.079102,894.836426,1.974027
-78.735352,598.205566,889.801025,1.974786
-74.707031,595.458984,889.343262,1.975526
-79.833984,592.437744,895.202637,1.976267
-71.960449,587.860107,899.871826,1.977017
-74.249268,587.768555,900.512695,1.977785
-66.650391,586.669922,893.829346,1.978555
-57.220459,589.874268,891.906738,1.979299
-60.424805,592.254639,888.153076,1.980045
-54.748535,607.818604,886.505127,1.980786
-55.023193,601.135254,878.90625,1.981546
-53.924561,595.458984,881.92749,1.982288
-50.262451,596.099854,879.089355,1.98303
-23.895264,592.437744,878.448486,1.983771
-41.564941,586.120605,853.729248,1.984548
-44.219971,588.409424,851.898193,1.9853
-38.726807,582.550049,841.73584,1.986083
-45.135498,575.134277,827.728271,1.986831
-61.340332,565.429688,828.735352,1.987571
-70.129395,570.556641,825.256348,1.988311
-75.622559,574.584961,814.178467,1.989067
-83.953857,575.134277,804.931641,1.989807
-92.376709,570.373535,806.121826,1.990547
-108.856201,568.725586,803.009033,1.991288
-118.927002,572.753906,800.628662,1.992044
-123.321533,571.563721,790.83252,1.992784
-128.540039,578.979492,792.572021,1.993524
-129.455566,580.26123,784.332275,1.994264
-119.659424,576.965332,784.423828,1.995003
-110.321045,592.62085,782.958984,1.995754
-110.961914,598.297119,772.064209,1.996488
-111.877441,608.459473,764.73999,1.997219
-123.962402,609.741211,759.521484,1.997974
-137.145996,608.825684,757.873535,1.998717
-144.744873,620.544434,757.965088,1.999458
-152.893066,622.375488,762.084961,2.000199
-163.330078,627.13623,756.317139,2.000951
-170.379639,625.671387,751.00708,2.001693
-178.436279,642.700195,752.929688,2.002434
-182.4646,650.939941,751.556396,2.003175
-171.478271,646.820068,758.331299,2.003927
-172.485352,654.327393,765.838623,2.004668
-171.020508,671.173096,770.599365,2.005409
-173.400879,664.855957,764.831543,2.00615
-181.091309,675.476074,771.514893,2.006892
-186.767578,686.37085,774.44458,2.007624
-201.782227,684.539795,780.578613,2.008355
-205.26123,694.519043,788.452148,2.009087
-223.754883,701.568604,797.332764,2.009841
-242.340088,712.188721,813.720703,2.010582
-250.579834,712.463379,812.347412,2.011323
-265.777588,723.907471,821.136475,2.012065
-268.981934,726.196289,832.946777,2.012837
-284.729004,734.344482,835.968018,2.013592
-291.96167,738.189697,849.334717,2.014396
-317.871094,748.077393,854.187012,2.015163
-332.977295,759.246826,866.18042,2.015916
-336.456299,763.824463,877.807617,2.016715
-340.576172,773.4375,898.590088,2.017469
-379.669189,783.14209,929.626465,2.018254
-368.133545,782.226562,948.944092,2.019032
-372.528076,788.818359,955.9021,2.019792
-381.317139,793.121338,942.352295,2.020566
-382.324219,784.14917,941.345215,2.021369
-381.134033,781.311035,931.640625,2.022127
-381.225586,778.4729,903.625488,2.022909
-374.633789,768.310547,879.91333,2.023685
-370.422363,757.232666,866.638184,2.024433
-363.006592,749.084473,857.666016,2.025167
-352.844238,746.612549,847.045898,2.025898
-343.87207,730.133057,844.116211,2.026639
-335.632324,727.478027,840.911865,2.027479
-325.012207,718.597412,834.320068,2.028224
-349.914551,710.632324,847.869873,2.028981
-328.399658,708.892822,861.236572,2.029739
-346.252441,698.0896,862.884521,2.030481
-356.323242,697.998047,865.264893,2.031222
-370.880127,703.308105,864.715576,2.031963
-373.99292,687.835693,863.525391,2.032714
-378.845215,683.624268,850.43335,2.033456
-385.528564,675.933838,835.327148,2.034197
-394.317627,660.827637,817.657471,2.034938
-389.831543,644.348145,810.058594,2.035679
-379.760742,628.417969,807.403564,2.036411
-382.507324,623.931885,805.847168,2.037143
-366.851807,621.459961,801.635742,2.037874
-356.323242,605.255127,787.078857,2.038631
-354.858398,613.586426,776.184082,2.039373
-346.252441,595.733643,773.529053,2.040114
-349.273682,595.001221,766.571045,2.040856
-339.660645,581.451416,761.169434,2.041609
-344.055176,567.352295,769.866943,2.042351
-340.759277,557.189941,768.4021,2.043091
-346.984863,555.175781,766.479492,2.043833
-345.977783,557.647705,759.429932,2.044502
-343.414307,551.055908,757.69043,2.045244
-342.132568,550.78125,757.873535,2.045986
-338.470459,535.583496,751.647949,2.046735
-325.469971,540.618896,745.330811,2.047421
-325.836182,532.37915,736.999512,2.048182
-321.807861,531.37207,737.915039,2.048926
-314.758301,531.463623,732.055664,2.049667
-317.962646,532.104492,721.435547,2.050432
-317.779541,520.202637,715.85083,2.051173
-317.779541,527.069092,711.181641,2.051914
-317.779541,525.970459,702.941895,2.052676
-304.046631,535.491943,708.618164,2.053434
-312.561035,530.639648,686.187744,2.054175
-281.982422,537.139893,695.892334,2.054937
-299.743652,533.935547,680.786133,2.055685
-297.363281,540.893555,679.595947,2.056468
-296.630859,540.344238,675.384521,2.057217
-295.349121,541.168213,670.806885,2.057958
-295.898438,555.084229,668.884277,2.05872
-288.299561,549.77417,653.686523,2.059463
-282.806396,555.267334,653.320312,2.060204
-286.376953,554.80957,648.834229,2.060946
-283.538818,569.000244,647.460938,2.061687
-274.475098,579.345703,648.651123,2.062428
-272.369385,583.831787,655.975342,2.063169
-265.319824,585.479736,651.947021,2.063912
-257.995605,588.95874,658.905029,2.064656
-254.150391,601.776123,662.658691,2.065419
-244.537354,603.240967,664.306641,2.066162
-240.783691,609.924316,671.081543,2.066904
-212.127686,622.741699,686.279297,2.067656
-224.395752,635.925293,700.012207,2.068397
-214.874268,647.644043,706.970215,2.069138
-206.451416,640.411377,723.907471,2.069879
-208.92334,648.925781,729.492188,2.07063
-199.859619,671.264648,740.478516,2.071389
-203.24707,674.285889,749.450684,2.072131
-202.972412,678.863525,755.310059,2.072872
-201.599121,684.356689,767.303467,2.073624
-203.24707,681.335449,764.831543,2.074365
-202.789307,688.293457,773.620605,2.075107
-203.613281,691.772461,767.578125,2.075848
-197.845459,690.307617,772.338867,2.0766
-197.387695,695.892334,774.627686,2.077342
-186.218262,701.751709,783.966064,2.078083
-173.950195,697.44873,790.374756,2.078824
-175.415039,696.899414,791.015625,2.079565
-169.0979,696.716309,788.360596,2.080297
-163.604736,703.582764,794.219971,2.081029
-157.37915,683.258057,792.022705,2.081761
-155.456543,700.927734,797.149658,2.082505
-151.794434,696.166992,795.86792,2.083247
-157.745361,694.152832,790.740967,2.083989
-165.710449,692.321777,800.079346,2.08473
-171.844482,692.047119,795.043945,2.085471
-154.174805,691.772461,797.058105,2.086213
-165.985107,689.666748,792.297363,2.086954
-167.633057,685.455322,788.818359,2.087695
-162.139893,687.561035,785.980225,2.088428
-141.448975,687.103271,783.599854,2.089159
-155.822754,690.032959,782.226562,2.089891
-150.146484,677.856445,779.022217,2.090622
-154.174805,678.222656,768.035889,2.091355
-162.139893,672.363281,764.556885,2.092087
-166.534424,668.884277,755.126953,2.092818
-157.287598,665.771484,751.00708,2.093553
-170.471191,658.172607,738.006592,2.094308
-164.703369,648.284912,733.154297,2.095052
-169.555664,646.820068,731.323242,2.095794
-172.485352,645.996094,718.780518,2.096535
-171.661377,647.460938,716.674805,2.097277
-161.682129,647.003174,720.52002,2.098131
-151.702881,650.20752,721.893311,2.098873
-145.568848,646.087646,713.83667,2.099615
-144.195557,652.130127,704.772949,2.100366
-142.364502,640.411377,699.920654,2.101099
-139.160156,650.390625,696.533203,2.10183
-131.744385,647.460938,694.610596,2.102562
-122.2229,651.763916,686.462402,2.103317
-129.547119,661.193848,685.72998,2.104059
-131.469727,664.855957,686.004639,2.104801
-130.004883,658.447266,685.36377,2.105542
-137.054443,667.053223,687.286377,2.106294
-146.66748,657.073975,679.962158,2.107036
-165.710449,657.440186,679.595947,2.107805
-170.928955,667.694092,681.152344,2.108549
-183.288574,671.173096,680.786133,2.109305
-199.127197,675.384521,682.067871,2.110047
-211.120605,667.053223,678.955078,2.110788
-211.761475,668.243408,677.032471,2.11153
-211.212158,676.391602,682.800293,2.112283
-209.655762,676.66626,682.891846,2.113043
-202.148438,673.278809,680.969238,2.113786
-191.711426,679.046631,680.511475,2.114528
-184.844971,683.71582,680.969238,2.115269
-167.541504,682.525635,677.398682,2.116011
-162.872314,691.864014,682.891846,2.116752
-155.456543,696.166992,678.405762,2.117503
-148.773193,695.617676,671.722412,2.118246
-151.794434,707.15332,677.307129,2.118987
-136.047363,719.238281,690.582275,2.119736
-162.231445,714.111328,679.046631,2.120482
-143.280029,721.160889,691.497803,2.121243
-141.723633,729.125977,698.547363,2.121989
-138.244629,734.344482,710.998535,2.12273
-133.758545,746.887207,708.1604,2.123506
-126.434326,743.591309,719.421387,2.124263
-118.652344,752.288818,727.752686,2.12501
-111.602783,759.063721,748.535156,2.125768
-99.334717,764.648438,741.943359,2.126515
-97.503662,773.4375,739.105225,2.127259
-87.799072,776.824951,746.97876,2.128001
-91.827393,770.874023,748.809814,2.128742
-92.102051,765.838623,753.753662,2.129484
-85.968018,769.134521,757.69043,2.130226
-84.136963,766.113281,750.091553,2.130969
-80.383301,769.042969,750.823975,2.13171
-74.890137,779.846191,747.436523,2.132445
-77.636719,790.740967,758.056641,2.133176
-84.686279,784.515381,755.310059,2.133907
-83.221436,793.762207,757.141113,2.13464
-81.573486,792.205811,756.500244,2.135381
-81.115723,794.311523,762.084961,2.136154
-77.270508,803.283691,770.233154,2.136897
-85.784912,805.389404,767.944336,2.137638
-76.99585,808.685303,768.493652,2.13839
-80.749512,808.868408,764.556885,2.139132
-84.960938,816.925049,775.177002,2.139873
-86.608887,809.783936,780.761719,2.140614
-70.587158,818.756104,774.627686,2.141367
-76.263428,826.263428,777.648926,2.142108
-81.665039,820.770264,789.001465,2.142849
-77.728271,818.206787,788.635254,2.14359
-72.601318,824.34082,801.818848,2.144331
-74.615479,819.213867,797.241211,2.145063
-69.946289,825.622559,800.445557,2.145795
-65.551758,809.875488,785.797119,2.146526
-65.460205,809.417725,787.353516,2.147281
-59.051514,806.030273,791.19873,2.148023
-54.290771,792.938232,786.895752,2.148764
-54.016113,800.90332,783.416748,2.149505
-53.55835,795.593262,779.937744,2.150256
-59.326172,786.16333,767.76123,2.150998
-58.135986,785.888672,769.317627,2.151739
-58.776855,780.029297,765.930176,2.15248
-72.143555,751.464844,747.98584,2.153221
-73.883057,765.472412,741.394043,2.153953
-79.467773,747.436523,739.28833,2.154683
-87.615967,747.894287,706.512451,2.155415
-90.72876,751.098633,722.625732,2.156157
-92.193604,732.788086,715.393066,2.156889
-93.566895,731.781006,709.899902,2.15762
-107.025146,727.935791,700.927734,2.158352
-104.095459,727.478027,689.849854,2.159093
-87.982178,733.337402,688.293457,2.159833
-88.07373,742.126465,681.884766,2.160572
-99.060059,742.126465,684.173584,2.161312
-73.699951,732.513428,678.039551,2.162051
-69.30542,730.682373,671.173096,2.162791
-71.228027,730.133057,675.292969,2.16353
-69.580078,736.083984,673.187256,2.16427
-64.086914,739.562988,661.92627,2.165019
-53.375244,731.689453,660.003662,2.165786
-59.234619,734.344482,655.059814,2.166527
-48.797607,737.365723,659.454346,2.167268
-50.811768,735.534668,654.144287,2.16802
-52.185059,720.52002,648.376465,2.168762
-35.705566,730.041504,647.277832,2.169594
-34.973145,735.809326,652.954102,2.170338
-28.930664,722.53418,643.157959,2.171092
-29.571533,746.063232,640.411377,2.171834
-35.064697,726.013184,635.467529,2.172575
-33.14209,719.696045,636.84082,2.173316
-29.205322,716.308594,634.094238,2.174057
-17.028809,727.56958,635.83374,2.174789
-17.120361,717.224121,628.692627,2.17552
-21.240234,719.87915,634.368896,2.176251
-15.838623,718.963623,634.185791,2.177005
-10.253906,720.428467,630.249023,2.177747
-9.338379,723.999023,634.82666,2.178488
-2.197266,721.710205,629.058838,2.179228
3.295898,725.646973,623.565674,2.179979
6.225586,725.830078,612.854004,2.18072
11.71875,719.87915,617.156982,2.181461
13.916016,717.132568,611.572266,2.182201
20.874023,724.914551,603.881836,2.182892
14.373779,731.506348,600.860596,2.183633
24.627686,734.710693,598.114014,2.184374
36.16333,731.048584,576.324463,2.185115
31.585693,727.752686,578.521729,2.185856
33.782959,732.147217,581.817627,2.186587
38.726807,719.238281,587.493896,2.187318
48.980713,716.217041,598.205566,2.18805
48.797607,713.83667,584.747314,2.188804
63.903809,728.393555,582.275391,2.189575
72.875977,750.183105,580.535889,2.19032
73.059082,759.70459,563.140869,2.191061
81.481934,760.437012,542.266846,2.191833
81.298828,766.937256,546.020508,2.192604
83.496094,755.859375,532.287598,2.193369
79.925537,752.105713,527.801514,2.194118
84.136963,751.647949,525.146484,2.194859
79.376221,754.486084,527.34375,2.1956
78.643799,748.718262,516.906738,2.196342
91.094971,746.887207,511.047363,2.197083
89.904785,764.831543,500.518799,2.197824
92.376709,761.71875,494.842529,2.198565
100.799561,757.324219,496.948242,2.199326
109.313965,757.507324,498.596191,2.200107
106.384277,763.549805,502.258301,2.200868
117.553711,763.275146,501.983643,2.201616
121.21582,777.099609,489.16626,2.202375
123.87085,775.817871,489.898682,2.203145
125.518799,784.515381,490.905762,2.203888
133.300781,785.15625,490.356445,2.204648
135.223389,798.522949,491.729736,2.20539
136.047363,794.677734,500.152588,2.206149
147.583008,802.459717,514.801025,2.206891
152.984619,803.192139,524.963379,2.207632
156.921387,817.749023,524.32251,2.208373
154.632568,827.819824,534.484863,2.209125
158.38623,834.04541,559.204102,2.209866
159.576416,847.869873,543.457031,2.210607
165.06958,821.044922,542.999268,2.211348
163.696289,841.186523,554.443359,2.212089
161.956787,842.651367,578.979492,2.212821
166.168213,848.7854,584.655762,2.213552
170.928955,858.123779,576.23291,2.214283
162.322998,861.968994,567.810059,2.215036
150.970459,862.1521,581.90918,2.215781
148.590088,866.363525,598.022461,2.216529
130.096436,855.743408,603.240967,2.217269
117.1875,850.158691,611.846924,2.218027
84.320068,843.017578,602.783203,2.21876
31.677246,836.05957,605.804443,2.219492
9.796143,840.454102,586.853027,2.220223
-10.803223,836.975098,577.148438,2.22098
-27.46582,833.221436,553.253174,2.22174
-37.17041,831.207275,536.773682,2.222482
-52.368164,823.150635,534.759521,2.223233
-47.241211,818.572998,529.815674,2.223974
-50.445557,824.523926,496.124268,2.224714
-62.164307,832.214355,503.90625,2.225454
-65.460205,831.115723,504.730225,2.226194
-68.939209,832.489014,505.645752,2.226935
-62.255859,842.468262,499.694824,2.227675
-72.601318,844.024658,488.067627,2.228414
-73.883057,843.566895,477.355957,2.229154
-69.030762,842.559814,479.827881,2.229886
-73.791504,845.947266,488.250732,2.230617
-80.749512,843.292236,473.510742,2.231348
-83.221436,849.975586,459.228516,2.232094
-75.164795,846.679688,454.01001,2.232837
-74.523926,851.165771,433.868408,2.233579
-79.833984,870.025635,407.226562,2.23432
-10.620117,897.216797,419.586182,2.235062
-2.563477,900.421143,396.514893,2.235804
-61.706543,864.898682,387.72583,2.236545
-42.297363,831.115723,367.950439,2.237286
-23.620605,814.544678,328.582764,2.238028
-32.775879,830.474854,301.025391,2.238769
-6.958008,850.158691,270.53833,2.23951
0.823975,859.863281,250.305176,2.240251
-8.69751,851.165771,208.282471,2.241002
-20.965576,831.390381,154.815674,2.241734
-10.162354,830.474854,145.935059,2.242474
82.580566,794.403076,78.826904,2.243317
-126.708984,806.488037,49.255371,2.244102
-238.861084,792.663574,23.712158,2.244845
-38.360596,794.952393,-34.515381,2.245586
-156.097412,778.381348,-50.445557,2.246328
-221.923828,790.19165,-71.502686,2.24708
-108.856201,803.55835,-104.46167,2.247822
-169.464111,808.685303,-116.455078,2.248564
-205.627441,801.635742,-123.962402,2.249305
-180.81665,800.354004,-126.800537,2.250048
-170.471191,832.580566,-122.955322,2.25078
-161.499023,836.05957,-117.553711,2.251512
-169.0979,823.516846,-116.088867,2.252243
-159.759521,839.538574,-89.630127,2.253
-149.414062,833.496094,-87.70752,2.253742
-153.442383,842.193604,-89.813232,2.254483
-138.977051,797.790527,-92.651367,2.255225
-73.516846,684.7229,-77.728271,2.255976
67.199707,847.503662,89.72168,2.256718
15.106201,707.244873,152.618408,2.257459
49.346924,765.655518,152.34375,2.2582
-89.263916,852.355957,117.919922,2.258954
-284.729004,780.212402,111.51123,2.259696
208.740234,903.808594,81.115723,2.260438
60.699463,474.243164,109.49707,2.261193
-53.649902,1329.528809,178.070068,2.261982
-49.255371,1284.210205,203.338623,2.262735
270.721436,1235.137939,257.263184,2.263498
98.968506,1059.082031,336.090088,2.264245
187.591553,985.748291,377.01416,2.264987
252.960205,950.958252,432.128906,2.265728
62.164307,927.703857,466.278076,2.26647
297.637939,915.06958,461.334229,2.267211
242.340088,917.633057,489.257812,2.267953
260.375977,931.915283,508.117676,2.268724
146.850586,936.859131,514.160156,2.269501
-105.102539,517.089844,679.6875,2.270257
-1573.516846,712.188721,1528.381348,2.271005
-1186.798096,668.518066,974.121094,2.271747
776.45874,1257.110596,704.956055,2.272489
849.609375,1152.740479,541.351318,2.273249
182.373047,1161.16333,593.261719,2.273992
-791.656494,1029.602051,699.279785,2.274734
-621.09375,1200.073242,342.86499,2.275481
-567.718506,1204.376221,284.729004,2.276244
1514.190674,1212.158203,441.192627,2.276986
2365.997314,1368.438721,396.606445,2.277727
1365.509033,1304.901123,334.350586,2.278476
-901.245117,1269.287109,149.871826,2.279257
-1205.200195,1187.438965,16.937256,2.280004
-1108.795166,1077.850342,-106.109619,2.280749
16.571045,1159.881592,-170.379639,2.281498
1648.31543,1301.605225,-126.708984,2.282261
986.755371,1237.976074,52.459717,2.283003
-895.385742,1097.900391,34.973145,2.283745
-1075.378418,1046.99707,-5.67627,2.284486
-255.157471,1045.98999,-40.924072,2.285238
1072.174072,1131.68335,-91.278076,2.28598
1129.760742,1063.476562,-145.019531,2.286721
314.117432,1028.686523,-211.212158,2.287463
-32.409668,894.287109,82.763672,2.288205
-994.445801,860.961914,316.040039,2.288967
-1731.994629,872.131348,262.298584,2.289722
21.240234,957.824707,161.865234,2.290497
1388.214111,1079.864502,19.134521,2.291239
1012.756348,1003.143311,-53.833008,2.291981
-490.631104,857.940674,-126.617432,2.292723
-489.807129,1000.946045,-306.884766,2.293464
761.901855,879.547119,21.240234,2.294206
-217.254639,753.02124,355.224609,2.294947
-286.010742,884.765625,200.134277,2.295688
-139.801025,866.088867,109.039307,2.296424
325.012207,946.929932,-69.580078,2.29716
465.545654,954.25415,-280.151367,2.297905
602.050781,992.797852,-411.895752,2.298638
56.396484,1212.432861,-606.170654,2.29938
-384.796143,995.635986,-146.850586,2.300122
-784.790039,973.937988,-114.349365,2.300863
-527.34375,1082.061768,-165.06958,2.301604
690.856934,1178.100586,-408.874512,2.30237
854.278564,1335.754395,-580.718994,2.303113
1441.497803,1374.481201,-348.999023,2.303855
1765.136719,1388.48877,-326.660156,2.304597
-888.885498,1148.620605,40.557861,2.305349
-1351.68457,1305.908203,-70.495605,2.306091
-1098.54126,1483.886719,-253.417969,2.306833
671.264648,1424.377441,-162.963867,2.307574
1768.890381,1494.598389,18.859863,2.308316
825.256348,1282.012939,442.657471,2.309049
-1882.232666,1151.45874,725.463867,2.30982
-2309.234619,1292.724609,634.918213,2.31058
-260.009766,1316.345215,517.364502,2.311368
1527.740479,1649.871826,451.35498,2.312127
2881.164551,1585.510254,495.758057,2.312888
-175.598145,1307.281494,430.938721,2.313649
-838.07373,1444.42749,248.840332,2.314566
-429.107666,1382.263184,97.412109,2.315311
-245.910645,1356.079102,67.016602,2.316053
-637.207031,1265.899658,190.887451,2.316795
-1339.508057,1119.232178,342.681885,2.317556
-1346.923828,1085.723877,264.404297,2.318317
-593.170166,1120.97168,71.685791,2.319059
1430.969238,1270.111084,154.083252,2.319801
2021.759033,1436.553955,140.167236,2.320543
808.959961,1359.008789,161.04126,2.321284
-1383.087158,1169.403076,222.564697,2.322025
-1791.595459,1200.805664,219.451904,2.322767
-979.522705,1100.646973,222.198486,2.323508
1494.506836,1371.002197,151.977539,2.324249
1892.303467,1319.274902,164.886475,2.324991
267.333984,1256.286621,123.87085,2.32574
-479.644775,1214.447021,38.726807,2.326477
-655.059814,1183.59375,-5.493164,2.327223
-1078.948975,1095.977783,56.304932,2.327964
-1424.835205,1014.678955,203.430176,2.328706
582.275391,1102.844238,118.011475,2.329447
1715.332031,1301.055908,-82.305908,2.330188
1662.414551,1263.885498,-122.86377,2.33093
-682.250977,1131.500244,-103.637695,2.331672
-1258.575439,1059.814453,-141.906738,2.332414
-394.592285,1055.145264,-170.74585,2.333155
1463.104248,1136.444092,-244.537354,2.333897
1771.820068,1119.506836,-194.824219,2.334633
668.518066,1078.125,-155.273438,2.335369
-48.706055,1198.425293,-97.686768,2.336107
-526.428223,1288.146973,-52.825928,2.336865
-323.272705,1300.78125,25.085449,2.337629
102.44751,1403.594971,18.951416,2.338372
699.645996,1369.812012,37.902832,2.339113
238.769531,1289.611816,187.225342,2.339855
-68.023682,1213.7146,162.139893,2.340639
-91.918945,1192.29126,88.531494,2.341391
421.051025,1214.538574,-25.543213,2.342139
501.525879,1212.341309,-67.565918,2.342885
225.311279,1179.473877,-83.404541,2.343649
-117.828369,1190.643311,-213.043213,2.344391
-163.238525,1196.777344,-282.073975,2.345141
-18.4021,1218.75,-303.863525,2.345885
281.799316,1185.058594,-323.0896,2.346642
333.526611,1150.177002,-375.091553,2.347384
-45.410156,1144.042969,-370.880127,2.348125
-830.749512,1059.7229,-264.770508,2.348867
-1179.382324,1081.787109,-30.029297,2.349618
-1551.727295,1173.797607,23.4375,2.35036
-1595.947266,1265.899658,69.488525,2.351103
-1138.275146,1320.648193,21.148682,2.351845
-150.512695,1406.341553,-116.18042,2.352588
116.638184,1423.461914,-188.690186,2.35332
61.523438,1406.982422,-192.077637,2.354051
-84.228516,1392.974854,-147.857666,2.354783
-101.074219,1367.889404,-64.453125,2.355545
-132.293701,1327.056885,121.398926,2.356287
-221.099854,1299.77417,130.096436,2.357029
-270.446777,1347.015381,56.854248,2.357771
-252.685547,1356.079102,-60.333252,2.358443
-221.191406,1321.19751,-55.938721,2.359185
-175.598145,1253.997803,-8.69751,2.359927
-52.185059,1219.390869,-6.68335,2.360668
155.639648,1171.051025,-36.529541,2.361419
226.501465,1112.823486,-157.470703,2.36216
207.824707,1095.794678,-301.483154,2.362902
128.356934,1038.391113,-345.52002,2.363644
-23.345947,1007.080078,-430.57251,2.364385
-254.699707,976.135254,-470.031738,2.365117
-259.552002,949.21875,-469.940186,2.365848
-243.07251,938.598633,-464.996338,2.366579
-281.158447,941.986084,-478.729248,2.367324
-285.003662,918.914795,-542.999268,2.368056
-229.248047,933.197021,-584.106445,2.368788
-116.363525,921.020508,-643.066406,2.36952
-46.234131,899.871826,-756.134033,2.37027
988.128662,1456.970215,531.646729,2.37101
2999.908447,2999.908447,2999.908447,2.371751
2999.908447,2999.908447,2999.908447,2.372492
1469.146729,2999.908447,2921.173096,2.373241
590.789795,2618.041992,-454.650879,2.373982
-1366.424561,1233.123779,-1958.496094,2.374722
-2497.283936,570.465088,-2749.237061,2.375463
-2220.977783,540.344238,-2015.808105,2.376213
36.987305,829.833984,-435.241699,2.376954
369.232178,1020.721436,-388.73291,2.377693
442.29126,994.262695,-636.291504,2.378433
538.970947,759.979248,-970.550537,2.379183
174.224854,582.183838,-541.900635,2.379923
-507.843018,101.623535,-365.29541,2.380663
-1022.735596,480.926514,-1214.355469,2.381408
-1132.873535,522.033691,-1211.975098,2.382165
-710.723877,576.23291,-988.861084,2.382907
-222.381592,791.656494,-531.646729,2.383754
97.412109,1000.213623,-262.390137,2.384498
111.785889,1043.060303,-156.280518,2.385256
77.270508,1020.53833,-200.22583,2.385999
13.73291,981.536865,-400.360107,2.38674
-43.121338,942.626953,-507.476807,2.387481
-74.981689,917.08374,-498.413086,2.388222
124.053955,931.549072,-366.668701,2.388963
253.051758,1028.137207,-196.289062,2.389723
418.85376,1053.497314,-151.062012,2.390466
427.734375,1122.344971,-115.081787,2.391208
365.478516,1122.528076,-229.064941,2.391949
138.702393,1065.948486,-293.151855,2.39269
-81.848145,1053.131104,-318.969727,2.393433
-133.300781,1100.463867,-261.016846,2.394174
-163.879395,1207.672119,-105.377197,2.394916
-226.135254,1272.216797,-46.875,2.395657
-496.21582,1280.090332,-0.549316,2.396406
-511.59668,1230.102539,-0.274658,2.397139
-452.728271,1198.33374,-222.65625,2.397871
-210.845947,1125.457764,-314.849854,2.398603
-100.43335,1072.357178,-376.647949,2.399344
60.424805,1050.109863,-366.119385,2.400086
162.689209,1035.095215,-372.344971,2.400827
159.118652,1035.919189,-383.422852,2.401569
33.325195,1035.919189,-394.226074,2.40231
-0.457764,987.304688,-425.445557,2.403051
-74.34082,968.994141,-441.558838,2.403793
-46.691895,995.727539,-460.601807,2.404535
-22.613525,1018.890381,-393.4021,2.405286
19.40918,1038.482666,-365.661621,2.406028
-66.741943,987.121582,-400.634766,2.406779
-79.559326,949.310303,-453.186035,2.407526
-83.129883,912.689209,-483.764648,2.408288
-31.951904,941.345215,-495.666504,2.409039
-40.100098,991.790771,-486.51123,2.409793
-67.199707,1001.678467,-476.715088,2.410536
-93.109131,970.733643,-460.601807,2.411294
-125.610352,925.598145,-506.92749,2.412036
-76.538086,928.619385,-523.773193,2.412778
-79.467773,938.415527,-489.16626,2.413519
-79.284668,982.543945,-461.425781,2.414289
7.69043,970.64209,-462.615967,2.415059
-73.242188,962.585449,-482.025146,2.415808
-137.329102,984.558105,-423.614502,2.41655
-202.148438,1008.81958,-381.134033,2.417311
-233.825684,1028.320312,-410.247803,2.418052
-249.389648,1021.362305,-458.404541,2.418794
-236.297607,1024.108887,-439.544678,2.419536
-204.345703,1039.855957,-420.593262,2.420292
-172.668457,1048.095703,-428.375244,2.421037
-179.534912,1029.510498,-445.220947,2.421779
-168.273926,1013.671875,-447.509766,2.42252
-144.287109,1045.806885,-480.010986,2.423265
-187.591553,1042.327881,-488.616943,2.423997
-205.078125,1042.694092,-423.156738,2.424729
-198.760986,1061.462402,-421.783447,2.42546
-202.056885,1040.222168,-455.657959,2.426216
-256.347656,1027.587891,-451.446533,2.426957
-231.170654,1053.314209,-456.298828,2.427697
-218.261719,1057.434082,-467.193604,2.428437
-228.69873,1074.829102,-467.376709,2.429186
-187.774658,1086.82251,-460.235596,2.429927
-156.097412,1107.788086,-481.933594,2.430667
-126.434326,1089.84375,-514.984131,2.431407
-164.978027,1123.99292,-384.979248,2.432166
-184.47876,1140.289307,-371.887207,2.432906
-205.169678,1143.676758,-382.049561,2.433646
-212.036133,1153.656006,-394.958496,2.434386
-221.008301,1166.656494,-403.564453,2.435127
-199.584961,1141.75415,-362.091064,2.435859
-196.563721,1110.168457,-364.562988,2.43661
-187.225342,1129.486084,-391.113281,2.437344
-164.245605,1146.972656,-433.502197,2.438114
-125.152588,1149.993896,-333.068848,2.438857
-173.950195,1168.029785,-330.688477,2.439598
-226.226807,1187.072754,-399.536133,2.440339
-244.07959,1173.431396,-378.936768,2.441071
-243.896484,1168.121338,-337.188721,2.441803
-286.468506,1154.47998,-348.815918,2.442535
-337.097168,1145.965576,-366.943359,2.443267
-348.083496,1140.472412,-450.439453,2.444024
-330.413818,1134.521484,-436.889648,2.444765
-293.151855,1128.204346,-406.585693,2.445506
-297.454834,1136.077881,-388.366699,2.446248
-258.911133,1138.000488,-388.366699,2.446998
-264.221191,1133.056641,-437.896729,2.447739
-271.453857,1124.542236,-469.665527,2.44848
-272.186279,1099.731445,-462.432861,2.449221
-292.510986,1094.87915,-469.207764,2.449972
-299.01123,1087.463379,-480.926514,2.450713
-285.095215,1105.316162,-500.061035,2.451454
-228.881836,1074.920654,-542.266846,2.452314
-189.331055,1062.744141,-500.701904,2.453059
-199.127197,1065.856934,-440.2771,2.4538
-180.81665,1052.307129,-469.573975,2.454541
-185.943604,1028.137207,-545.74585,2.455296
-197.753906,1042.236328,-594.818115,2.456037
-167.266846,1033.630371,-620.544434,2.456778
-128.723145,1049.835205,-597.747803,2.457519
-123.596191,1048.187256,-502.532959,2.45827
-128.997803,1071.807861,-455.01709,2.459011
-148.681641,1064.117432,-472.595215,2.459752
-173.034668,1057.525635,-516.723633,2.460493
-196.563721,1021.728516,-555.541992,2.461234
-177.246094,1035.552979,-550.506592,2.461966
-149.414062,1048.187256,-548.309326,2.462697
-114.349365,1072.265625,-444.854736,2.463429
-92.559814,1081.695557,-472.869873,2.464186
-107.574463,1057.525635,-510.223389,2.464927
-115.17334,991.516113,-567.077637,2.465668
-118.743896,994.995117,-567.901611,2.466409
-152.435303,1022.003174,-540.710449,2.467159
-123.046875,1025.665283,-473.144531,2.467901
-109.49707,1049.560547,-495.849609,2.468641
-130.371094,1055.419922,-525.970459,2.469403
-114.807129,1000.396729,-570.831299,2.470157
-118.743896,1005.432129,-589.141846,2.470898
-109.130859,1041.870117,-532.745361,2.471639
-62.988281,1045.806885,-501.068115,2.47238
-79.833984,1031.524658,-515.899658,2.473131
-63.171387,1021.636963,-526.428223,2.473873
-71.228027,1029.418945,-556.732178,2.474613
-110.595703,1015.045166,-556.274414,2.475355
-97.869873,1025.939941,-501.800537,2.476153
-125.610352,1030.700684,-525.970459,2.476905
-103.088379,1019.622803,-540.527344,2.477647
-97.595215,1019.348145,-550.598145,2.478388
-99.700928,1030.975342,-545.10498,2.47915
-98.236084,1031.341553,-553.253174,2.479892
-153.442383,1022.186279,-580.9021,2.480634
-292.419434,1016.418457,-551.971436,2.481375
-305.969238,1025.57373,-578.338623,2.482127
-290.771484,1010.009766,-603.607178,2.482868
-183.563232,1007.904053,-571.289062,2.483609
-136.322021,1029.602051,-531.738281,2.484351
-144.744873,1053.863525,-607.635498,2.485093
-226.318359,981.170654,-738.739014,2.485825
-234.375,941.345215,-739.837646,2.486556
-276.672363,915.252686,-760.345459,2.487299
-317.779541,930.633545,-813.446045,2.488076
-300.109863,919.464111,-815.185547,2.488826
-272.003174,910.125732,-803.009033,2.489585
-234.741211,920.013428,-811.798096,2.49033
-273.651123,928.161621,-839.904785,2.491087
-404.571533,909.576416,-978.790283,2.491828
-482.48291,833.496094,-1218.658447,2.492569
-469.482422,770.782471,-1264.709473,2.49331
15.197754,562.408447,-1035.552979,2.494063
306.793213,551.605225,-700.653076,2.494805
699.462891,658.355713,-670.257568,2.495545
767.303467,785.797119,-817.199707,2.496286
667.510986,791.564941,-836.05957,2.497028
365.020752,743.682861,-1112.640381,2.497759
246.185303,699.645996,-1283.02002,2.49849
128.997803,664.123535,-1367.706299,2.499222
-21.606445,577.514648,-1532.409668,2.499976
-367.218018,681.884766,-1563.62915,2.500717
-1864.929199,428.283691,-1242.370605,2.501459
-2082.092285,176.879883,-1455.230713,2.5022
-1526.184082,154.174805,-1543.762207,2.502951
-1132.141113,226.135254,-1662.414551,2.503693
-918.273926,289.764404,-1452.209473,2.504434
-724.182129,469.573975,-1280.548096,2.505175
-743.133545,468.109131,-1366.333008,2.505926
183.929443,129.821777,-1617.828369,2.506668
1063.659668,-590.057373,-2454.528809,2.507409
1432.434082,219.543457,-3000.0,2.508151
1913.085938,14.831543,-3000.0,2.508895
2038.970947,-257.537842,-2806.274414,2.509627
2321.502686,268.890381,-870.117188,2.510358
2658.050537,1434.631348,2462.219238,2.51109
1494.049072,1450.378418,523.040771,2.511845
90.362549,1047.821045,-980.34668,2.51259
-3000.0,-938.873291,-3000.0,2.513331
-2764.526367,-425.90332,-3000.0,2.514072
-3000.0,-712.005615,-3000.0,2.514814
-3000.0,1102.020264,-3000.0,2.515545
-1299.957275,995.178223,-3000.0,2.516277
368.133545,-110.137939,-2866.607666,2.517008
2554.321289,-28.656006,355.957031,2.51776
2999.908447,-1937.805176,1173.248291,2.518502
2999.908447,681.793213,-831.115723,2.519244
-567.626953,796.234131,-1059.7229,2.519986
2999.908447,1475.646973,-94.573975,2.520825
-449.707031,-860.870361,1084.533691,2.521568
-1157.318115,-50.354004,32.226562,2.522335
1135.803223,379.302979,-110.321045,2.523091
586.395264,529.724121,-537.139893,2.523832
-2541.503906,630.340576,-844.665527,2.524574
-2975.738525,734.619141,-1018.707275,2.525316
-3000.0,688.659668,-1089.385986,2.526067
-3000.0,722.808838,-956.817627,2.52681
-2626.373291,786.987305,-1063.842773,2.527551
-1329.162598,796.508789,-1486.083984,2.528292
1721.832275,862.518311,-894.012451,2.529035
-1811.645508,781.402588,-964.141846,2.529796
-1226.257324,790.100098,-993.164062,2.530542
306.70166,813.262939,-1430.053711,2.531284
2091.064453,672.271729,-1727.233887,2.532049
1758.361816,662.109375,-1865.844727,2.532792
1721.557617,1951.904297,-1034.179688,2.533533
2999.908447,1138.549805,777.282715,2.534275
-711.547852,444.396973,551.422119,2.535027
-1237.060547,726.5625,-1648.406982,2.535777
1545.227051,1089.202881,-1815.490723,2.536527
2832.000732,1042.694092,-1304.168701,2.537269
1483.154297,876.89209,-1143.951416,2.538023
244.537354,1053.314209,-1290.06958,2.538765
851.715088,1190.734863,-798.797607,2.539506
1570.3125,975.67749,-735.168457,2.540247
1165.100098,969.085693,-1178.375244,2.540999
742.584229,1179.748535,-792.388916,2.54174
326.568604,1388.85498,-606.262207,2.542482
258.361816,1211.425781,-651.306152,2.543223
553.619385,1183.044434,-755.859375,2.543965
1398.55957,1626.800537,-575.500488,2.544709
708.892822,1582.305908,-12.084961,2.545445
-1509.338379,1351.501465,-44.86084,2.546207
-1010.83374,1328.887939,-380.0354,2.546977
-795.043945,1606.384277,-668.792725,2.547738
-1281.463623,1911.346436,202.880859,2.548483
-2541.96167,1877.746582,358.337402,2.549225
-2193.145752,1871.429443,9.429932,2.549975
-359.344482,1892.944336,126.068115,2.550738
563.415527,2155.426025,439.819336,2.551486
-454.742432,2303.649902,673.095703,2.552268
-884.216309,2548.095703,1288.05542,2.553016
-470.031738,2470.001221,1291.168213,2.553758
-731.323242,2515.50293,642.059326,2.5545
-439.727783,2528.869629,681.152344,2.555242
1097.53418,2576.019287,960.021973,2.555983
-101.806641,2191.040039,803.192139,2.556725
-561.767578,2139.678955,606.811523,2.557467
927.612305,2095.275879,454.101562,2.558207
824.890137,2027.435303,422.698975,2.558938
-196.929932,2071.19751,665.863037,2.55967
-287.384033,2092.163086,720.703125,2.560401
410.15625,2123.748779,645.812988,2.561136
398.254395,1969.75708,522.766113,2.56188
71.228027,1804.412842,292.694092,2.562621
-91.003418,1482.147217,159.210205,2.563366
261.749268,1104.675293,-182.189941,2.564112
779.11377,859.039307,-468.292236,2.564853
837.158203,474.884033,-933.197021,2.565594
871.673584,376.556396,-1015.319824,2.566335
620.544434,86.05957,-1165.283203,2.567077
335.998535,-9.521484,-1338.043213,2.567819
254.974365,-8.148193,-1344.726562,2.56856
403.747559,214.782715,-1017.883301,2.569301
352.478027,530.822754,-555.999756,2.570041
309.906006,641.601562,-416.473389,2.570772
406.768799,578.887939,-622.10083,2.571504
2.838135,474.151611,-766.204834,2.572235
-698.730469,306.793213,-780.212402,2.572979
-595.001221,317.779541,-804.840088,2.573728
-232.818604,340.942383,-782.318115,2.574469
-373.626709,351.5625,-746.337891,2.57521
-246.09375,365.570068,-803.741455,2.575951
108.48999,408.874512,-799.530029,2.576692
546.020508,387.084961,-746.97876,2.577433
443.572998,312.561035,-795.135498,2.578174
-517.822266,135.131836,-910.125732,2.578915
-435.333252,162.963867,-880.004883,2.579647
232.910156,297.088623,-796.051025,2.580378
158.02002,386.993408,-702.392578,2.581108
-280.24292,377.563477,-715.667725,2.58184
-383.148193,307.434082,-779.388428,2.582598
-419.403076,278.869629,-831.665039,2.58334
-426.452637,265.960693,-816.741943,2.584081
-299.6521,250.030518,-834.320068,2.584822
-202.880859,231.811523,-844.299316,2.585578
-222.290039,213.226318,-869.842529,2.58632
-298.919678,241.424561,-852.630615,2.587061
-311.187744,303.405762,-807.128906,2.587802
-200.22583,377.746582,-728.393555,2.588554
-93.109131,400.634766,-721.618652,2.589296
45.776367,395.690918,-745.880127,2.590135
-115.997314,371.246338,-841.003418,2.590891
-55.664062,295.074463,-877.258301,2.591633
-267.51709,237.030029,-926.147461,2.592375
-697.174072,245.269775,-918.09082,2.593116
-298.828125,350.372314,-807.678223,2.593858
-26.733398,457.763672,-709.16748,2.594607
-351.379395,464.172363,-720.88623,2.59534
-670.623779,407.867432,-787.719727,2.596071
-486.236572,384.70459,-809.417725,2.596825
-89.630127,394.775391,-814.544678,2.597563
5.310059,380.584717,-831.298828,2.598304
-305.053711,329.315186,-844.573975,2.599075
-449.890137,345.88623,-847.320557,2.599829
-157.836914,421.051025,-812.072754,2.60057
-36.16333,430.297852,-809.60083,2.601311
-189.422607,368.133545,-875.335693,2.602053
-428.283691,344.421387,-900.054932,2.602804
-478.271484,384.887695,-708.251953,2.603545
-215.423584,462.06665,-741.119385,2.604287
-166.717529,468.475342,-891.174316,2.605028
-486.968994,401.367188,-891.265869,2.605769
-684.814453,337.921143,-861.51123,2.606501
-618.804932,368.865967,-819.030762,2.607232
-372.436523,478.45459,-763.092041,2.607963
-29.937744,518.829346,-741.394043,2.608718
189.147949,482.025146,-825.439453,2.60946
-312.835693,365.386963,-928.527832,2.610201
-414.18457,324.371338,-934.295654,2.610942
-265.136719,370.147705,-887.969971,2.611693
-236.38916,494.750977,-746.887207,2.612435
-372.344971,512.145996,-725.921631,2.613184
-414.733887,528.808594,-774.261475,2.613931
-313.568115,509.124756,-813.720703,2.614607
-291.778564,446.594238,-851.623535,2.615351
-378.753662,374.176025,-875.335693,2.616092
-366.210938,388.916016,-849.609375,2.616833
-229.248047,439.63623,-827.270508,2.617585
-218.078613,463.165283,-817.474365,2.618326
-313.842773,444.213867,-840.911865,2.619067
-266.693115,463.07373,-837.158203,2.619808
-226.318359,477.630615,-817.382812,2.620554
-280.700684,460.784912,-790.924072,2.621317
-345.062256,449.249268,-765.563965,2.622077
-123.87085,426.086426,-807.861328,2.622832
-70.770264,409.973145,-852.355957,2.62358
-200.042725,409.606934,-867.370605,2.624325
-365.570068,396.148682,-841.73584,2.625069
-357.421875,401.824951,-798.431396,2.62581
-286.468506,453.918457,-762.084961,2.626552
-262.390137,490.356445,-744.232178,2.627294
-228.149414,481.567383,-816.192627,2.628038
-55.847168,445.587158,-872.680664,2.628781
-156.097412,404.571533,-905.822754,2.629522
-265.594482,402.008057,-860.50415,2.630263
-294.799805,390.380859,-815.917969,2.631009
-269.439697,432.769775,-837.799072,2.63175
-304.870605,453.186035,-848.510742,2.632491
-305.969238,505.187988,-780.853271,2.633232
-203.338623,527.435303,-759.521484,2.633974
-92.376709,512.695312,-786.437988,2.634712
-153.442383,445.861816,-843.841553,2.635443
-298.553467,419.036865,-855.560303,2.636174
-236.938477,430.023193,-848.144531,2.636905
-197.479248,445.770264,-827.819824,2.637645
-199.951172,500.427246,-811.706543,2.638387
-196.838379,507.93457,-773.895264,2.639128
-161.04126,476.165771,-783.599854,2.639869
-249.572754,448.608398,-817.749023,2.64061
-301.757812,450.714111,-842.010498,2.641351
-238.861084,457.489014,-834.320068,2.642098
-165.985107,445.220947,-813.62915,2.642839
-192.077637,454.376221,-804.473877,2.643581
-265.50293,460.327148,-812.255859,2.644322
-248.474121,428.833008,-843.841553,2.645062
-182.281494,429.382324,-840.911865,2.645803
-203.338623,418.395996,-822.967529,2.646541
-217.62085,435.974121,-776.45874,2.647273
-129.547119,478.088379,-791.107178,2.648005
-84.503174,456.756592,-804.656982,2.648736
-108.032227,444.671631,-822.052002,2.649504
-177.703857,417.022705,-856.750488,2.650236
-174.77417,421.417236,-851.531982,2.650967
-181.274414,421.325684,-825.073242,2.651698
-235.656738,451.904297,-768.035889,2.652436
-232.818604,445.861816,-785.614014,2.653177
-153.808594,438.537598,-804.107666,2.653917
-135.772705,423.797607,-846.679688,2.654656
-187.225342,423.88916,-860.137939,2.655399
-192.626953,416.748047,-822.052002,2.656131
-161.04126,424.072266,-768.127441,2.656879
-115.356445,454.376221,-754.119873,2.657614
-161.773682,449.890137,-782.867432,2.65836
-77.270508,440.185547,-849.334717,2.659196
-34.057617,424.804688,-834.228516,2.65994
-66.650391,428.375244,-776.641846,2.660682
-108.856201,450.714111,-760.528564,2.66144
-70.3125,467.74292,-772.155762,2.662182
-71.044922,477.081299,-743.95752,2.662942
-123.321533,481.842041,-742.492676,2.663684
-95.306396,485.961914,-763.366699,2.664437
-57.58667,492.1875,-791.381836,2.665191
-21.148682,499.145508,-764.831543,2.665954
-53.466797,483.123779,-731.5979,2.666758
-6.225586,495.300293,-744.32373,2.6675
3.662109,512.969971,-763.824463,2.668241
-36.16333,506.835938,-775.085449,2.668982
-71.777344,484.588623,-801.635742,2.669733
-104.370117,480.560303,-797.241211,2.670475
-89.630127,484.313965,-764.373779,2.671215
-112.518311,476.348877,-717.773438,2.671957
-166.534424,456.115723,-730.773926,2.672703
-151.885986,498.962402,-795.318604,2.673435
-11.901855,505.554199,-781.677246,2.674166
87.249756,513.153076,-760.070801,2.674897
86.608887,523.406982,-789.916992,2.675645
32.775879,488.983154,-776.733398,2.676387
-41.748047,429.748535,-752.197266,2.677128
-80.566406,434.051514,-764.831543,2.677869
-116.271973,445.678711,-776.824951,2.678611
-36.621094,453.460693,-737.915039,2.679352
55.480957,475.982666,-720.153809,2.680093
-133.300781,482.116699,-740.661621,2.680834
-138.519287,473.236084,-742.126465,2.681578
44.494629,452.636719,-741.851807,2.682324
-60.516357,465.270996,-775.268555,2.683093
-164.886475,457.122803,-758.789062,2.683846
-52.276611,469.75708,-745.056152,2.684588
85.235596,505.279541,-739.746094,2.685329
-3.204346,501.434326,-727.478027,2.68607
-146.30127,493.19458,-746.704102,2.686832
-3.02124,506.195068,-769.40918,2.687613
14.282227,506.92749,-768.035889,2.688373
-137.969971,470.306396,-755.950928,2.689127
-146.850586,461.151123,-761.260986,2.689868
-73.150635,465.545654,-776.000977,2.690628
-29.663086,481.842041,-782.684326,2.69137
-88.165283,507.110596,-776.45874,2.692111
-73.699951,504.455566,-762.176514,2.692852
-21.697998,512.420654,-745.513916,2.693603
-52.368164,510.406494,-751.464844,2.694344
-159.210205,503.723145,-759.70459,2.695086
-120.941162,497.2229,-777.282715,2.695836
-123.413086,495.941162,-787.353516,2.696581
-167.816162,518.371582,-772.705078,2.697313
-140.991211,534.667969,-760.803223,2.698044
-52.55127,530.914307,-755.493164,2.698775
-120.849609,535.583496,-758.056641,2.699532
-161.682129,531.280518,-771.42334,2.700275
-74.707031,517.913818,-780.487061,2.701016
-66.101074,512.145996,-796.234131,2.701757
-140.808105,519.744873,-790.374756,2.702508
-169.281006,537.689209,-754.943848,2.70325
-102.172852,552.79541,-734.069824,2.703992
-75.073242,551.513672,-721.801758,2.704733
-205.352783,506.011963,-757.873535,2.705486
-202.697754,501.617432,-774.261475,2.706227
-98.144531,492.553711,-811.798096,2.706968
-82.397461,515.350342,-784.790039,2.707709
-145.843506,521.759033,-771.972656,2.708452
-105.926514,541.442871,-736.358643,2.709183
-81.481934,541.625977,-742.675781,2.709915
-124.053955,523.406982,-753.295898,2.710646
-173.034668,518.737793,-777.008057,2.711402
-147.491455,517.63916,-781.951904,2.712143
-112.518311,528.991699,-763.458252,2.712894
-186.401367,523.681641,-761.444092,2.713648
-183.380127,518.920898,-765.472412,2.714425
-137.878418,519.561768,-765.655518,2.715186
-159.118652,512.145996,-760.986328,2.715937
-171.661377,509.765625,-757.781982,2.716688
-138.061523,510.223389,-755.67627,2.717535
-85.327148,500.793457,-770.324707,2.718302
-109.771729,471.221924,-774.169922,2.719067
-143.829346,477.44751,-781.036377,2.719829
-127.349854,477.996826,-774.261475,2.720616
-136.230469,508.575439,-765.930176,2.721377
-179.168701,501.251221,-741.851807,2.722134
-182.006836,501.983643,-750.823975,2.722893
-164.978027,499.694824,-762.634277,2.72364
-161.773682,498.321533,-764.373779,2.724385
-174.957275,488.342285,-767.578125,2.725119
-141.082764,490.631104,-763.275146,2.725863
-94.299316,497.039795,-766.571045,2.72661
-125.244141,491.18042,-768.859863,2.727372
-143.829346,492.004395,-759.887695,2.728115
-128.90625,505.645752,-740.936279,2.728857
-121.948242,513.885498,-739.837646,2.729599
-186.49292,505.187988,-760.070801,2.730436
-188.781738,499.969482,-763.366699,2.731178
-156.188965,494.934082,-762.817383,2.731935
-161.224365,495.849609,-751.831055,2.732677
-150.146484,496.765137,-750.823975,2.733418
-126.068115,519.927979,-745.330811,2.73416
-120.025635,521.30127,-745.880127,2.734901
-120.666504,525.787354,-751.464844,2.735637
-119.293213,511.779785,-756.04248,2.736408
-114.349365,504.180908,-764.282227,2.737151
-117.095947,499.420166,-758.605957,2.737912
-132.751465,496.948242,-750.549316,2.738653
-135.040283,500.244141,-765.197754,2.739395
-138.793945,496.856689,-770.050049,2.740136
-142.456055,495.20874,-773.895264,2.740887
-139.160156,506.835938,-766.387939,2.741629
-136.047363,520.385742,-750.274658,2.74237
-132.476807,517.456055,-753.02124,2.743111
-102.905273,519.287109,-750.915527,2.743879
-102.44751,498.046875,-760.894775,2.744621
-110.50415,490.722656,-771.148682,2.745362
-112.1521,495.025635,-770.141602,2.746103
-101.623535,492.095947,-766.479492,2.746855
-105.651855,497.406006,-758.422852,2.747597
-115.264893,497.2229,-751.098633,2.748338
-116.088867,491.546631,-742.218018,2.749079
-99.609375,492.828369,-748.260498,2.74971
-93.566895,494.20166,-754.760742,2.750456
-85.510254,489.990234,-759.338379,2.751202
-75.98877,493.743896,-755.126953,2.751952
-76.99585,500.88501,-741.30249,2.752724
-85.601807,499.420166,-740.020752,2.753466
-83.129883,498.046875,-740.203857,2.754207
-67.565918,503.448486,-748.352051,2.754948
-52.55127,504.730225,-747.894287,2.755698
-72.692871,503.356934,-736.541748,2.75644
-78.094482,503.540039,-737.823486,2.757181
-49.346924,497.2229,-739.28833,2.757922
-68.572998,502.441406,-742.401123,2.758663
-65.002441,496.765137,-728.57666,2.759402
-73.791504,499.786377,-736.083984,2.760193
-61.065674,500.427246,-738.098145,2.760978
-30.12085,506.561279,-741.394043,2.76176
-36.071777,515.258789,-737.640381,2.762539
-32.318115,514.160156,-734.710693,2.763302
-31.12793,509.490967,-740.753174,2.764107
-31.311035,507.751465,-746.337891,2.764866
-29.022217,509.216309,-738.098145,2.765617
-25.177002,507.202148,-742.858887,2.766389
-33.691406,509.674072,-747.711182,2.767177
-45.135498,517.181396,-737.457275,2.767957
-29.754639,522.125244,-739.471436,2.768739
-23.254395,528.808594,-733.886719,2.769497
-43.670654,514.343262,-749.359131,2.77028
-54.016113,510.955811,-753.936768,2.771083
-30.395508,515.533447,-738.647461,2.771878
-31.677246,531.005859,-747.98584,2.772652
-29.022217,527.526855,-743.499756,2.773409
-49.89624,526.977539,-755.950928,2.774152
-59.326172,520.751953,-759.521484,2.774893
-58.502197,521.392822,-754.760742,2.775645
-50.079346,526.33667,-758.056641,2.776388
-57.128906,529.724121,-753.570557,2.77713
-59.783936,539.794922,-747.894287,2.77787
-28.930664,543.09082,-755.950928,2.778621
-54.107666,533.660889,-753.204346,2.779363
-58.959961,538.146973,-761.535645,2.780104
-67.474365,556.732178,-758.239746,2.780845
-55.114746,545.379639,-756.68335,2.781596
-63.171387,549.224854,-754.943848,2.782338
-64.910889,548.583984,-759.155273,2.78308
-52.459717,558.380127,-750.640869,2.783821
-53.192139,560.48584,-760.803223,2.784563
-65.826416,549.041748,-761.352539,2.785295
-69.030762,548.583984,-761.077881,2.786027
-66.925049,545.288086,-765.838623,2.786758
-56.396484,551.422119,-764.373779,2.787505
-87.249756,554.168701,-764.099121,2.788237
-72.32666,548.858643,-769.226074,2.788969
-77.636719,557.373047,-774.078369,2.7897
-80.200195,566.162109,-760.986328,2.790452
-79.559326,562.774658,-754.577637,2.791193
-90.087891,562.866211,-753.936768,2.791935
-74.066162,561.49292,-756.225586,2.792675
-69.671631,556.640625,-750.823975,2.793427
-74.798584,523.590088,-764.923096,2.794169
-74.523926,540.06958,-766.662598,2.79491
-70.770264,542.816162,-774.353027,2.795651
-79.01001,536.590576,-760.345459,2.796394
-95.855713,553.253174,-753.479004,2.797126
-85.510254,549.041748,-755.859375,2.797857
-62.530518,550.415039,-749.450684,2.798588
-71.228027,551.78833,-762.72583,2.799343
-81.298828,542.999268,-761.260986,2.800084
-81.481934,540.802002,-759.887695,2.800949
-79.467773,546.295166,-758.69751,2.801696
-79.559326,531.921387,-753.02124,2.802437
-73.150635,538.970947,-750.823975,2.803206
-77.545166,537.780762,-761.352539,2.80395
-79.833984,528.625488,-756.866455,2.804716
-80.200195,529.174805,-762.817383,2.805449
-78.735352,537.506104,-754.119873,2.80618
-71.594238,539.245605,-749.633789,2.806911
-67.29126,538.787842,-750.732422,2.807659
-68.389893,538.604736,-761.444092,2.8084
-62.164307,531.921387,-766.662598,2.809141
-65.460205,521.209717,-771.606445,2.809882
-67.199707,521.759033,-770.050049,2.81062
-60.699463,534.393311,-765.563965,2.811368
-54.748535,544.73877,-752.288818,2.812113
-47.058105,540.435791,-763.73291,2.812873
-30.212402,546.936035,-749.176025,2.81366
-46.508789,543.457031,-763.275146,2.814404
-52.185059,519.378662,-777.374268,2.815145
-61.889648,535.766602,-772.888184,2.815887
-57.495117,542.266846,-775.634766,2.816639
-61.157227,547.943115,-752.197266,2.81738
-48.248291,543.914795,-780.303955,2.818121
-55.480957,549.865723,-777.099609,2.818863
-47.607422,557.006836,-780.578613,2.819605
-41.19873,554.351807,-769.775391,2.820337
-38.360596,555.450439,-794.677734,2.821072
-41.748047,551.513672,-778.381348,2.821805
-39.18457,549.77417,-780.578613,2.822579
-37.628174,547.119141,-782.226562,2.823341
-47.790527,548.309326,-788.818359,2.82409
-50.354004,548.583984,-788.17749,2.824831
-56.213379,544.555664,-793.121338,2.825591
-67.657471,535.949707,-783.966064,2.826332
-67.749023,546.569824,-783.874512,2.827073
-63.354492,561.309814,-784.698486,2.827814
-27.557373,564.422607,-764.099121,2.828565
-11.352539,570.373535,-771.514893,2.82931
4.486084,570.648193,-776.45874,2.830065
-4.760742,550.415039,-780.853271,2.830811
-15.930176,538.513184,-787.17041,2.83159
-39.550781,540.435791,-793.762207,2.832338
-80.566406,544.006348,-796.142578,2.833099
-95.306396,555.908203,-799.530029,2.833845
-105.010986,564.422607,-791.748047,2.834587
-111.877441,564.880371,-782.043457,2.835328
-105.46875,582.092285,-773.803711,2.836069
-105.651855,565.246582,-770.41626,2.836811
-82.305908,567.260742,-785.797119,2.837554
-66.375732,569.274902,-787.994385,2.838295
-43.304443,570.831299,-796.691895,2.839036
-36.254883,578.155518,-803.009033,2.839777
-49.346924,572.113037,-812.072754,2.840508
-60.60791,571.014404,-806.762695,2.841239
-73.974609,575.866699,-805.57251,2.84197
-118.286133,576.141357,-801.452637,2.842707
-120.849609,583.465576,-793.212891,2.843451
-143.920898,579.620361,-789.916992,2.844192
-141.265869,581.726074,-794.403076,2.844934
-124.145508,582.000732,-795.959473,2.845721
-111.14502,583.099365,-795.135498,2.846467
-90.911865,582.366943,-796.142578,2.847208
-86.700439,571.014404,-799.713135,2.84795
-73.425293,570.098877,-797.698975,2.848691
-70.495605,554.901123,-804.840088,2.849432
-77.545166,559.112549,-803.375244,2.850174
-82.03125,552.429199,-806.854248,2.850915
-103.45459,547.210693,-821.044922,2.85166
-102.081299,545.74585,-818.664551,2.852392
-129.180908,546.844482,-813.995361,2.853123
-131.561279,550.964355,-801.727295,2.853854
-131.011963,550.048828,-810.333252,2.854589
-117.095947,538.238525,-808.135986,2.85532
-124.145508,543.823242,-810.60791,2.856079
-127.624512,535.491943,-813.262939,2.856822
-104.644775,537.139893,-809.60083,2.857568
-97.686768,537.597656,-810.974121,2.8583
-102.539062,538.696289,-805.755615,2.859031
-99.517822,549.316406,-806.121826,2.859763
-82.672119,549.499512,-808.227539,2.860506
-89.355469,543.731689,-807.220459,2.861247
-104.46167,548.583984,-809.143066,2.861988
-111.419678,540.252686,-811.248779,2.862729
-107.574463,538.330078,-805.847168,2.863463
-101.989746,538.696289,-807.220459,2.864194
-114.898682,534.484863,-812.896729,2.864926
-110.961914,532.836914,-804.473877,2.865657
-105.377197,538.146973,-803.55835,2.866396
-105.377197,531.280518,-800.537109,2.867136
-99.243164,533.477783,-803.55835,2.867876
-99.609375,539.886475,-811.065674,2.868615
-91.644287,536.407471,-811.248779,2.869356
-94.207764,529.815674,-813.720703,2.870114
-102.355957,535.217285,-815.643311,2.870854
-96.038818,534.759521,-814.086914,2.871689
-97.137451,532.012939,-809.143066,2.872443
-97.961426,535.675049,-809.60083,2.873182
-106.47583,533.111572,-816.833496,2.873922
-98.602295,536.956787,-815.734863,2.874661
-105.102539,531.921387,-809.783936,2.875409
-104.644775,532.745361,-818.939209,2.876147
-110.870361,531.829834,-823.516846,2.876896
-96.588135,522.766113,-835.235596,2.877656
-82.580566,527.984619,-830.749512,2.878437
-85.510254,534.667969,-827.545166,2.87918
-91.186523,540.435791,-828.369141,2.879921
-92.559814,539.0625,-828.277588,2.880666
-92.74292,544.830322,-825.98877,2.88141
-97.77832,555.358887,-838.806152,2.882151
-94.207764,544.372559,-840.087891,2.882892
-111.785889,537.872314,-846.221924,2.883633
-120.025635,543.731689,-845.489502,2.884374
-118.560791,546.478271,-841.644287,2.885115
-111.419678,549.591064,-844.024658,2.885857
-98.144531,553.619385,-853.912354,2.886594
-100.158691,557.4646,-851.989746,2.887326
-108.856201,562.133789,-838.531494,2.888057
-103.271484,567.443848,-841.552734,2.888788
-101.989746,576.507568,-841.278076,2.889527
-97.137451,567.5354,-845.76416,2.890268
-98.052979,563.140869,-848.052979,2.89101
-91.003418,569.274902,-853.729248,2.891751
-90.911865,577.514648,-852.539062,2.892498
-109.313965,567.077637,-848.7854,2.893244
-100.891113,567.077637,-852.996826,2.894006
-106.201172,576.416016,-859.039307,2.894754
-107.299805,583.007812,-845.76416,2.895495
-99.79248,594.085693,-849.609375,2.896236
-88.256836,589.691162,-845.581055,2.896977
-88.989258,583.007812,-843.383789,2.897718
-90.179443,584.655762,-848.510742,2.898473
-96.313477,579.528809,-858.48999,2.899226
-93.841553,571.19751,-867.370605,2.899995
-85.510254,579.986572,-856.109619,2.900762
-85.327148,583.831787,-851.623535,2.901533
-76.171875,597.839355,-837.982178,2.902275
-80.841064,596.099854,-844.024658,2.903017
-88.256836,588.95874,-850.158691,2.903758
-102.172852,580.810547,-851.715088,2.904509
-101.44043,581.542969,-854.370117,2.905251
-95.581055,586.303711,-854.003906,2.905992
-98.419189,590.240479,-857.116699,2.906733
-89.904785,587.860107,-857.666016,2.907474
-81.02417,582.641602,-849.609375,2.908219
-83.587646,587.310791,-852.539062,2.908964
-73.516846,585.113525,-841.278076,2.909705
-83.221436,584.93042,-845.76416,2.910463
-82.214355,585.754395,-849.884033,2.911205
-84.686279,578.704834,-850.891113,2.911946
-85.968018,570.465088,-846.496582,2.912688
-86.05957,571.105957,-844.573975,2.913439
-75.98877,564.056396,-839.263916,2.914181
-83.221436,558.929443,-843.017578,2.914922
-94.207764,560.302734,-845.123291,2.915663
-94.848633,558.013916,-842.376709,2.916405
-82.855225,565.338135,-836.151123,2.917136
-90.545654,563.323975,-832.672119,2.917867
-80.749512,564.880371,-833.587646,2.918598
-85.784912,557.647705,-831.298828,2.919355
-83.221436,550.140381,-834.686279,2.920096
-79.376221,557.922363,-832.03125,2.920838
-85.327148,556.549072,-829.01001,2.921579
-82.580566,557.189941,-830.932617,2.92233
-69.030762,559.020996,-823.608398,2.923071
-81.390381,560.943604,-822.692871,2.923812
-91.461182,561.584473,-831.481934,2.924553
-104.187012,557.373047,-833.953857,2.925304
-106.109619,558.013916,-826.812744,2.926046
-100.799561,563.140869,-823.242188,2.926787
-88.439941,570.281982,-810.516357,2.927528
-77.728271,567.352295,-812.713623,2.928269
-71.960449,570.007324,-822.418213,2.929001
-77.545166,566.253662,-813.62915,2.929739
-80.01709,557.098389,-809.234619,2.930472
-88.897705,558.47168,-809.783936,2.931226
-81.02417,560.302734,-811.798096,2.931968
-83.587646,551.971436,-803.009033,2.932709
-91.461182,543.731689,-807.58667,2.93345
-85.784912,544.189453,-811.065674,2.934201
-81.298828,538.238525,-818.481445,2.934943
-83.404541,535.03418,-809.60083,2.935685
-84.228516,532.653809,-816.009521,2.936426
-76.721191,539.428711,-813.262939,2.937181
-80.841064,543.823242,-806.121826,2.937929
-81.939697,543.182373,-802.093506,2.938671
-82.672119,550.231934,-797.515869,2.939411
-64.086914,546.569824,-798.614502,2.940164
-64.727783,545.562744,-793.579102,2.940906
-70.770264,539.886475,-796.234131,2.941647
-68.664551,541.259766,-807.495117,2.942488
-65.093994,541.900635,-815.002441,2.94323
-69.946289,538.604736,-825.164795,2.943971
-74.157715,540.985107,-826.080322,2.944712
-87.615967,535.949707,-817.657471,2.94545
-88.348389,540.252686,-817.29126,2.946181
-85.05249,545.288086,-811.889648,2.946912
-84.686279,547.210693,-809.234619,2.947643
-82.03125,555.358887,-802.734375,2.948382
-80.383301,542.175293,-807.495117,2.949124
-86.242676,548.400879,-803.466797,2.949866
-96.405029,547.943115,-812.072754,2.950607
-98.7854,545.654297,-823.516846,2.951349
-92.010498,537.597656,-822.052002,2.95209
-86.700439,543.182373,-822.784424,2.952832
-89.355469,542.358398,-819.30542,2.953591
-89.72168,532.470703,-824.890137,2.954334
-92.010498,535.858154,-823.883057,2.955075
-100.799561,537.780762,-797.973633,2.955815
-105.285645,530.731201,-821.777344,2.956556
-110.961914,534.759521,-820.404053,2.957297
-110.046387,534.667969,-820.587158,2.958038
-103.271484,531.829834,-819.030762,2.958779
-98.236084,534.0271,-817.199707,2.959519
-95.672607,532.470703,-818.115234,2.96027
-70.587158,528.808594,-821.411133,2.961001
-103.271484,519.287109,-820.404053,2.961732
-105.560303,523.31543,-817.29126,2.962463
-104.46167,526.153564,-815.368652,2.963202
-106.109619,522.30835,-810.882568,2.963947
-102.081299,519.470215,-819.488525,2.964701
-106.109619,525.32959,-813.537598,2.965465
-94.299316,530.273438,-804.382324,2.966249
-92.285156,530.273438,-808.685303,2.966994
-87.341309,526.33667,-810.333252,2.967734
-93.566895,526.245117,-813.446045,2.968498
-90.454102,542.358398,-809.234619,2.969267
-100.799561,538.604736,-797.058105,2.970016
-102.722168,539.794922,-804.107666,2.970749
-101.348877,540.618896,-814.63623,2.97148
-75.714111,542.907715,-805.206299,2.972246
-94.665527,547.668457,-805.023193,2.973006
-87.982178,545.74585,-812.072754,2.973748
-88.439941,551.513672,-808.868408,2.974489
-80.383301,554.992676,-805.114746,2.975243
-81.665039,553.253174,-803.100586,2.975986
-78.460693,565.704346,-804.931641,2.976727
-81.390381,567.901611,-802.642822,2.977469
-85.144043,566.345215,-804.107666,2.97822
-90.911865,565.429688,-792.663574,2.978962
-82.489014,560.943604,-801.269531,2.979704
-77.545166,572.570801,-799.530029,2.980445
-90.362549,574.768066,-802.185059,2.981188
-92.74292,572.937012,-798.248291,2.981919
-87.799072,573.394775,-807.403564,2.98265
-83.221436,578.704834,-810.424805,2.983381
-83.770752,579.437256,-812.62207,2.984137
-89.447021,581.90918,-811.065674,2.98488
-87.249756,585.113525,-803.833008,2.985621
-81.939697,578.521729,-808.044434,2.986362
-87.70752,574.676514,-817.016602,2.987112
-90.820312,579.986572,-810.241699,2.987854
-88.623047,579.528809,-813.354492,2.988595
-85.876465,579.620361,-814.63623,2.989337
-108.673096,577.880859,-805.297852,2.990088
-96.954346,584.564209,-808.776855,2.990829
-87.341309,582.91626,-805.57251,2.99157
-92.559814,578.521729,-806.030273,2.992312
-96.496582,571.929932,-813.995361,2.993054
-97.045898,562.683105,-811.157227,2.993787
-94.848633,567.260742,-806.396484,2.994518
-91.73584,572.021484,-811.523438,2.995249
-100.158691,563.232422,-809.234619,2.995995
-105.377197,565.887451,-811.065674,2.996726
-107.025146,563.50708,-813.354492,2.997457
-107.574463,564.788818,-803.466797,2.998189
-122.497559,556.091309,-799.163818,2.998941
-128.173828,555.084229,-789.550781,2.999681
-107.940674,561.676025,-797.607422,3.000421
-93.292236,557.373047,-807.312012,3.001161
-102.722168,554.077148,-812.347412,3.001912
-116.088867,549.499512,-806.945801,3.002652
-96.862793,541.442871,-800.170898,3.003417
-88.623047,548.400879,-793.670654,3.004159
-85.601807,537.689209,-794.494629,3.004924
-105.560303,538.146973,-789.093018,3.005666
-107.299805,529.083252,-788.726807,3.006407
-110.687256,537.506104,-794.86084,3.007148
-110.412598,535.308838,-788.818359,3.0079
-106.47583,532.928467,-785.888672,3.008642
-103.363037,530.36499,-789.093018,3.009384
-109.313965,530.822754,-777.740479,3.010125
-129.547119,522.857666,-780.578613,3.010867
-95.855713,522.766113,-788.543701,3.011599
-98.7854,529.541016,-783.874512,3.012426
-104.370117,525.32959,-782.409668,3.013167
-114.532471,520.935059,-784.057617,3.013909
-94.75708,517.364502,-793.487549,3.01465
-112.609863,521.392822,-789.459229,3.015392
-116.546631,515.716553,-793.579102,3.016134
-113.891602,516.998291,-793.029785,3.016875
-109.405518,522.033691,-793.945312,3.017616
-121.398926,527.069092,-799.530029,3.018357
-120.025635,527.801514,-776.550293,3.0191
-110.961914,529.632568,-797.241211,3.019841
-105.285645,540.06958,-784.973145,3.020582
-115.722656,541.351318,-793.029785,3.021323
-120.20874,545.10498,-791.8396,3.022071
-120.300293,545.10498,-795.959473,3.022802
-114.990234,545.562744,-798.706055,3.023539
-114.898682,544.921875,-802.734375,3.024272
-113.15918,546.020508,-802.276611,3.02501
-118.011475,552.520752,-804.016113,3.02575
-120.758057,554.351807,-801.727295,3.02649
-126.525879,558.197021,-796.234131,3.027229
-131.92749,569.091797,-803.192139,3.027969
-129.638672,567.718506,-775.543213,3.028709
-125.518799,567.901611,-799.89624,3.029422
-137.60376,570.465088,-800.994873,3.030164
-132.751465,572.479248,-823.059082,3.030918
-125.335693,576.965332,-817.565918,3.031676
-117.370605,578.979492,-820.953369,3.032419
-119.659424,581.451416,-824.890137,3.03316
-121.582031,576.416016,-819.854736,3.033915
-139.984131,576.416016,-823.699951,3.034665
-127.89917,579.803467,-843.383789,3.035412
-128.631592,587.310791,-823.699951,3.036173
-120.758057,590.881348,-821.868896,3.036988
-125.976562,593.261719,-829.01001,3.037731
-133.758545,593.353271,-830.383301,3.038472
-130.737305,588.134766,-825.897217,3.039235
-132.293701,597.290039,-831.756592,3.040014
-133.209229,592.346191,-835.601807,3.040768
-132.659912,593.261719,-826.35498,3.041535
-131.286621,592.529297,-823.608398,3.04228
-135.223389,593.353271,-798.065186,3.043048
-132.568359,592.437744,-827.087402,3.043791
-129.638672,598.388672,-830.841064,3.044532
-136.688232,591.888428,-823.883057,3.045273
-148.498535,597.564697,-840.179443,3.046024
-148.590088,595.092773,-836.700439,3.046765
-139.434814,590.057373,-829.101562,3.047507
-141.540527,593.902588,-830.200195,3.048248
-147.583008,593.536377,-817.474365,3.048991
-155.273438,595.916748,-827.728271,3.049724
-147.216797,597.106934,-835.693359,3.050455
-151.977539,591.156006,-834.777832,3.051186
-151.33667,589.233398,-827.270508,3.051943
-149.047852,580.078125,-832.672119,3.052684
-148.223877,588.592529,-835.693359,3.053426
-143.371582,587.402344,-833.496094,3.054166
-153.900146,588.134766,-835.510254,3.054917
-147.125244,582.458496,-825.805664,3.055659
-157.470703,586.761475,-817.016602,3.056401
-160.491943,591.156006,-815.093994,3.057141
-158.935547,583.282471,-820.037842,3.057892
-147.216797,589.599609,-814.361572,3.058634
-158.752441,583.92334,-814.63623,3.059375
-161.407471,604.797363,-814.361572,3.060115
-158.935547,579.345703,-809.417725,3.060856
-154.174805,586.486816,-804.473877,3.061588
-155.456543,588.134766,-808.868408,3.062319
-153.717041,586.029053,-804.931641,3.06305
-151.519775,587.402344,-799.89624,3.063804
-149.688721,587.768555,-801.269531,3.064545
-159.118652,578.887939,-803.009033,3.065296
-153.259277,606.536865,-795.959473,3.066039
-149.780273,589.416504,-796.051025,3.066783
-148.040771,593.902588,-804.199219,3.067515
-143.463135,593.536377,-819.396973,3.068246
-137.786865,593.994141,-800.445557,3.068977
-138.336182,592.346191,-794.036865,3.06973
-127.258301,594.451904,-789.18457,3.070472
-127.990723,606.628418,-784.423828,3.071212
-123.321533,614.685059,-780.944824,3.071953
-118.927002,606.170654,-782.501221,3.072693
-120.941162,598.388672,-781.311035,3.073425
-114.532471,606.903076,-778.4729,3.074156
-106.842041,604.522705,-782.043457,3.074887
-114.990234,604.980469,-780.029297,3.075642
-104.278564,604.614258,-772.064209,3.076384
-97.229004,610.198975,-775.360107,3.077125
-99.42627,602.416992,-769.958496,3.077867
-98.693848,596.923828,-769.042969,3.078618
-95.672607,598.480225,-769.317627,3.07936
-89.172363,608.001709,-766.296387,3.080101
-87.524414,594.451904,-765.838623,3.080848
-88.07373,593.719482,-760.986328,3.081623
-81.298828,593.353271,-757.69043,3.082506
-83.679199,591.064453,-764.282227,3.083266
-81.939697,595.275879,-767.578125,3.084061
-82.03125,585.021973,-763.183594,3.084826
-82.672119,595.733643,-760.620117,3.085585
-80.200195,589.050293,-764.190674,3.086346
-78.369141,595.825195,-765.289307,3.087157
-78.094482,600.860596,-756.225586,3.087921
-76.904297,604.522705,-752.105713,3.088669
-67.657471,596.374512,-757.507324,3.089411
-73.059082,595.458984,-759.063721,3.090174
-77.453613,592.62085,-759.155273,3.090907
-75.3479,589.141846,-756.591797,3.091638
-77.270508,587.310791,-759.155273,3.092369
-77.545166,597.381592,-766.296387,3.093129
-77.087402,593.62793,-762.634277,3.093868
-80.383301,584.747314,-763.000488,3.094608
-82.03125,583.92334,-766.75415,3.095348
-83.496094,589.96582,-770.874023,3.096095
-79.284668,590.057373,-767.39502,3.096833
-80.657959,590.240479,-774.169922,3.097584
-85.876465,590.606689,-774.536133,3.098327
-81.756592,592.071533,-766.113281,3.099093
-96.313477,585.9375,-768.035889,3.099835
-93.658447,590.9729,-761.535645,3.100576
-92.468262,590.423584,-768.859863,3.101327
-100.341797,584.838867,-770.050049,3.102059
-102.264404,580.444336,-773.620605,3.10279
-101.257324,586.029053,-773.529053,3.103522
-71.685791,581.268311,-777.46582,3.104257
-90.545654,583.374023,-774.44458,3.105009
-99.151611,585.296631,-776.550293,3.105756
-103.546143,582.000732,-778.656006,3.106506
-99.700928,578.063965,-779.388428,3.107248
-105.010986,579.620361,-781.12793,3.107989
-106.842041,575.22583,-781.219482,3.10873
-113.433838,571.746826,-788.726807,3.109471
-112.792969,568.634033,-785.522461,3.110247
-121.490479,562.408447,-793.579102,3.110999
-118.19458,566.894531,-787.353516,3.11175
-120.758057,566.986084,-792.755127,3.112497
-119.293213,561.950684,-790.649414,3.113239
-125.701904,560.211182,-787.353516,3.11398
-122.955322,569.091797,-787.536621,3.114721
-117.828369,563.964844,-790.374756,3.115462
-126.617432,564.788818,-790.100098,3.116222
-133.575439,554.901123,-798.797607,3.116964
