ACC_X,ACC_Y,ACC_Z,Time
-612.487793,255.065918,733.520508,1.523959
-614.4104,245.727539,733.978271,1.524705
-615.142822,236.663818,717.956543,1.525446
-611.938477,229.888916,687.835693,1.526213
-605.163574,220.550537,673.553467,1.526992
-583.465576,219.451904,664.123535,1.527748
-579.162598,213.043213,652.313232,1.528525
-577.789307,208.92334,673.64502,1.529288
-575.500488,205.26123,647.277832,1.530076
-579.345703,205.078125,660.827637,1.530837
-570.19043,206.085205,676.757812,1.531591
-559.47876,217.346191,673.828125,1.532382
-571.19751,218.536377,669.891357,1.533154
-553.985596,204.162598,663.208008,1.53391
-562.591553,214.508057,663.574219,1.534661
-563.690186,209.564209,656.433105,1.53546
-565.704346,208.557129,659.637451,1.536249
-544.555664,213.134766,655.883789,1.537004
-554.260254,204.071045,665.679932,1.537792
-560.119629,211.94458,669.433594,1.538577
-546.478271,220.458984,681.518555,1.539323
-543.457031,221.64917,713.287354,1.540064
-546.936035,224.212646,721.069336,1.540805
-555.908203,228.057861,734.710693,1.541578
-562.683105,211.578369,757.232666,1.54232
-585.113525,227.142334,758.239746,1.543077
-585.388184,234.649658,771.057129,1.543819
-589.416504,253.875732,771.789551,1.54456
-597.473145,232.086182,770.324707,1.5453
-600.860596,209.655762,752.838135,1.546041
-603.33252,213.043213,731.231689,1.546781
-596.282959,211.669922,736.907959,1.547522
-593.536377,209.93042,729.400635,1.548263
-582.275391,195.831299,737.731934,1.549003
-581.634521,198.577881,745.147705,1.549752
-584.197998,198.394775,774.261475,1.550483
-571.289062,200.042725,781.768799,1.551214
-580.352783,206.085205,795.86792,1.551944
-581.359863,211.120605,797.698975,1.552682
-611.846924,216.247559,813.62915,1.553442
-609.466553,214.874268,824.157715,1.554184
-626.495361,211.669922,824.432373,1.554925
-635.83374,211.761475,828.186035,1.555692
-645.904541,204.89502,815.551758,1.556434
-643.066406,203.796387,797.332764,1.557175
-636.383057,190.246582,812.988281,1.557915
-638.397217,190.246582,816.192627,1.558658
-639.862061,184.112549,809.783936,1.559399
-616.882324,185.302734,787.902832,1.56014
-624.023438,181.274414,789.276123,1.560891
-625.396729,161.956787,787.445068,1.561645
-623.931885,154.632568,758.331299,1.562386
-620.544434,150.421143,758.056641,1.563127
-622.741699,137.237549,749.084473,1.563868
-614.868164,126.159668,746.429443,1.56462
-627.227783,110.137939,734.527588,1.565361
-644.348145,113.250732,725.921631,1.566106
-638.946533,104.736328,708.435059,1.566857
-641.876221,105.377197,713.470459,1.567687
-639.038086,97.686768,711.914062,1.568419
-622.558594,96.405029,713.287354,1.56915
-611.572266,94.299316,703.857422,1.569881
-601.776123,91.186523,708.068848,1.570637
-601.593018,71.502686,693.145752,1.571378
-597.015381,79.284668,688.934326,1.572118
-594.63501,81.481934,681.610107,1.572858
-588.95874,80.749512,683.807373,1.573599
-592.163086,78.00293,675.292969,1.57433
-590.240479,82.122803,668.518066,1.57506
-577.514648,84.320068,665.679932,1.57579
-583.557129,79.01001,665.679932,1.576547
-568.359375,72.967529,658.813477,1.577288
-564.422607,74.432373,658.721924,1.578029
-568.908691,68.389893,649.749756,1.57877
-563.781738,72.509766,637.481689,1.579521
-581.451416,63.079834,610.38208,1.580262
-572.479248,60.882568,589.416504,1.581003
-569.366455,62.896729,590.148926,1.581744
-566.894531,51.635742,574.493408,1.582495
-557.647705,48.339844,545.562744,1.583235
-537.414551,63.354492,552.520752,1.583976
-533.02002,56.671143,560.760498,1.584717
-521.66748,60.882568,561.035156,1.585458
-499.145508,60.333252,545.013428,1.586189
-487.335205,64.453125,545.654297,1.58692
-462.341309,88.348389,559.844971,1.587658
-422.424316,83.496094,568.725586,1.588431
-416.107178,88.439941,576.049805,1.5892
-407.775879,94.299316,609.100342,1.589944
-388.641357,105.651855,594.451904,1.590684
-385.71167,98.327637,601.226807,1.591446
-386.901855,97.595215,601.501465,1.592187
-388.549805,95.581055,594.543457,1.592943
-404.388428,102.44751,598.480225,1.593703
-410.888672,95.581055,604.797363,1.594449
-427.459717,117.828369,600.67749,1.595217
-380.0354,136.413574,618.621826,1.595964
-327.575684,129.91333,672.637939,1.596727
-373.535156,137.786865,660.095215,1.597468
-329.13208,168.273926,661.2854,1.598209
-432.128906,142.364502,677.856445,1.598968
-429.56543,118.011475,690.216064,1.599722
-494.293213,124.053955,697.998047,1.600463
-523.773193,131.286621,702.392578,1.601204
-525.512695,132.659912,713.470459,1.601945
-518.188477,134.490967,713.378906,1.602695
-537.963867,135.406494,716.217041,1.603436
-512.969971,138.977051,717.498779,1.604178
-527.435303,142.913818,720.977783,1.604919
-528.808594,140.258789,709.533691,1.605661
-506.011963,161.315918,711.639404,1.606392
-475.158691,190.063477,714.477539,1.607123
-454.559326,208.099365,703.674316,1.607853
-416.381836,207.91626,702.209473,1.608606
-419.403076,215.881348,689.575195,1.609344
-418.212891,222.930908,683.349609,1.610081
-459.04541,200.592041,673.370361,1.610835
-487.701416,191.986084,668.884277,1.61159
-505.004883,180.175781,671.447754,1.612321
-511.59668,192.626953,680.603027,1.613052
-518.371582,187.957764,708.618164,1.613782
-528.533936,176.696777,722.351074,1.614524
-518.280029,175.964355,719.512939,1.615255
-526.977539,187.683105,718.597412,1.615985
-524.780273,192.993164,710.357666,1.616715
-533.477783,196.655273,705.963135,1.617457
-536.590576,190.52124,709.533691,1.618187
-531.738281,172.027588,707.15332,1.618917
-528.900146,177.246094,696.716309,1.619664
-524.963379,173.400879,682.525635,1.620434
-527.709961,190.063477,657.623291,1.621184
-528.808594,189.239502,642.791748,1.621932
-515.441895,198.394775,630.340576,1.622666
-529.174805,197.387695,619.628906,1.623407
-514.984131,211.029053,617.523193,1.624148
-514.434814,205.169678,614.593506,1.624889
-506.652832,224.853516,626.403809,1.625629
-507.751465,229.888916,615.509033,1.62637
-514.801025,228.33252,612.121582,1.627111
-537.780762,234.283447,612.762451,1.627851
-526.794434,245.635986,596.740723,1.628592
-531.005859,246.734619,591.888428,1.629322
-521.30127,241.424561,592.803955,1.630053
-522.491455,246.185303,586.669922,1.630784
-502.807617,242.431641,586.303711,1.631515
-479.919434,218.536377,601.593018,1.632271
-529.35791,165.252686,604.522705,1.633012
-492.553711,216.522217,563.598633,1.633753
-463.623047,239.4104,562.408447,1.634494
-454.559326,247.10083,560.668945,1.635244
-451.904297,228.424072,533.294678,1.635985
-482.025146,221.740723,529.266357,1.636726
-476.44043,225.036621,497.772217,1.637483
-463.7146,228.149414,490.631104,1.638224
-521.850586,209.655762,481.842041,1.639051
-488.433838,220.733643,469.573975,1.639792
-494.20166,240.692139,462.982178,1.640547
-470.672607,248.748779,467.651367,1.641288
-445.587158,249.023438,491.088867,1.642029
-438.079834,254.608154,505.554199,1.642769
-410.064697,258.544922,534.576416,1.643515
-403.656006,264.770508,561.309814,1.644245
-362.457275,270.812988,580.078125,1.644975
-353.668213,276.489258,604.064941,1.645706
-345.153809,280.059814,609.649658,1.646441
-340.759277,290.405273,610.565186,1.647182
-348.449707,298.919678,604.705811,1.647922
-358.612061,293.426514,605.072021,1.648663
-395.324707,283.630371,607.910156,1.649404
-397.979736,285.552979,605.255127,1.650145
-425.445557,287.017822,604.3396,1.650886
-427.55127,292.877197,627.7771,1.651626
-441.741943,293.243408,634.552002,1.652398
-434.875488,298.736572,639.312744,1.653159
-437.805176,314.39209,657.714844,1.6539
-424.987793,310.913086,663.116455,1.654659
-409.606934,318.054199,665.679932,1.655415
-413.269043,327.209473,675.384521,1.656156
-416.015625,321.533203,666.687012,1.656897
-422.424316,316.223145,667.785645,1.657638
-420.776367,322.998047,668.518066,1.658389
-438.812256,320.709229,663.299561,1.659131
-450.98877,322.906494,653.869629,1.659917
-451.629639,326.11084,647.460938,1.660678
-453.094482,332.336426,649.658203,1.661453
-456.481934,337.463379,650.024414,1.662195
-447.509766,343.87207,656.799316,1.662936
-445.678711,346.435547,663.391113,1.663677
-448.059082,359.985352,666.229248,1.664456
-439.361572,359.527588,665.405273,1.665209
-450.531006,370.513916,675.292969,1.665976
-447.32666,379.852295,671.630859,1.666725
-455.566406,377.746582,685.455322,1.667465
-454.833984,373.626709,688.293457,1.668206
-448.059082,375.274658,699.462891,1.668974
-449.249268,390.930176,700.653076,1.669741
-444.946289,395.782471,708.251953,1.670483
-443.389893,406.219482,710.357666,1.671223
-436.523438,406.677246,717.773438,1.671964
-426.727295,405.944824,721.343994,1.672716
-438.171387,409.423828,711.914062,1.673457
-404.388428,403.4729,719.604492,1.674233
-423.431396,396.42334,713.287354,1.674975
-414.276123,396.789551,704.406738,1.675758
-410.980225,394.500732,685.546875,1.676519
-399.810791,396.331787,661.376953,1.677262
-405.853271,397.705078,651.031494,1.678003
-394.500732,391.479492,634.460449,1.678757
-396.972656,380.767822,626.953125,1.679498
-384.613037,376.281738,628.326416,1.680238
-355.316162,385.162354,629.150391,1.680979
-367.950439,388.916016,634.368896,1.68173
-362.915039,388.000488,643.066406,1.68247
-358.24585,400.909424,646.820068,1.683211
-348.083496,408.782959,643.249512,1.683951
-359.069824,419.219971,649.017334,1.684691
-352.661133,422.88208,645.721436,1.685422
-364.746094,431.488037,647.186279,1.686152
-363.098145,454.742432,644.897461,1.686882
-347.808838,454.193115,654.327393,1.687637
-348.358154,459.777832,658.721924,1.688377
-357.330322,465.087891,662.29248,1.689117
-345.245361,489.440918,667.327881,1.689857
-353.210449,496.21582,669.158936,1.690468
-343.322754,514.526367,673.00415,1.691226
-352.386475,523.132324,675.750732,1.691968
-353.942871,535.03418,677.124023,1.692709
-372.344971,545.654297,678.68042,1.693483
-379.943848,553.619385,673.553467,1.694215
-390.106201,563.690186,682.70874,1.694946
-391.479492,572.570801,689.575195,1.695682
-390.655518,581.90918,693.328857,1.696423
-393.585205,588.317871,717.590332,1.697164
-370.239258,607.36084,718.231201,1.697904
-371.97876,629.608154,729.675293,1.698683
-351.745605,646.270752,745.513916,1.699444
-353.57666,637.939453,765.289307,1.700186
-338.378906,672.180176,779.022217,1.700928
-333.709717,688.751221,801.361084,1.701681
-330.230713,700.10376,814.910889,1.702422
-335.449219,728.57666,846.038818,1.703163
-330.780029,763.824463,873.504639,1.703903
-332.15332,757.141113,884.58252,1.704654
-332.519531,775.817871,895.935059,1.705395
-327.758789,782.775879,917.999268,1.706136
-332.336426,800.811768,930.541992,1.706876
-340.942383,812.805176,939.331055,1.707617
-337.280273,816.558838,950.317383,1.708348
-360.900879,824.157715,962.677002,1.709078
-358.703613,831.115723,991.607666,1.709896
-372.894287,837.524414,1002.227783,1.710656
-373.443604,839.996338,1023.55957,1.711397
-389.648438,839.630127,1048.828125,1.712155
-371.154785,838.623047,1063.751221,1.712897
-378.662109,843.200684,1081.14624,1.713649
-379.394531,844.573975,1098.083496,1.71439
-385.070801,838.348389,1105.957031,1.715131
-383.972168,829.376221,1113.28125,1.715889
-392.39502,831.573486,1122.98584,1.716643
-384.613037,818.389893,1121.246338,1.717384
-373.260498,804.382324,1130.767822,1.718143
-363.922119,776.641846,1137.908936,1.718884
-357.788086,775.634766,1128.936768,1.719638
-332.336426,761.077881,1120.330811,1.720379
-322.08252,750.091553,1117.034912,1.72112
-310.913086,730.957031,1117.767334,1.721861
-301.116943,715.393066,1093.87207,1.722613
-296.813965,708.526611,1091.583252,1.723354
-308.258057,690.124512,1082.885742,1.724095
-303.955078,679.870605,1056.152344,1.724836
-324.188232,661.743164,1041.046143,1.725578
-325.927734,634.552002,1001.037598,1.726309
-326.11084,629.516602,978.424072,1.72704
-321.807861,610.839844,952.789307,1.727771
-318.054199,599.853516,920.013428,1.728527
-306.884766,583.648682,915.618896,1.729268
-294.250488,559.020996,904.174805,1.730009
-274.749756,545.013428,903.167725,1.730763
-263.214111,533.38623,904.541016,1.731408
-247.375488,508.209229,883.026123,1.732173
-248.565674,484.588623,871.948242,1.732919
-233.184814,470.76416,868.652344,1.73366
-226.593018,451.171875,838.989258,1.734401
-220.367432,438.903809,826.904297,1.735142
-214.96582,423.431396,818.023682,1.735901
-210.662842,399.993896,799.346924,1.736691
-187.133789,381.774902,791.107178,1.737446
-156.738281,369.415283,777.374268,1.738211
-141.906738,361.541748,758.605957,1.738957
-129.547119,352.203369,751.831055,1.73972
-120.574951,339.660645,744.9646,1.740459
-119.293213,324.188232,715.118408,1.741198
-104.278564,314.758301,711.639404,1.741937
-109.405518,313.659668,681.518555,1.742686
-87.799072,310.455322,664.489746,1.743426
-92.651367,318.511963,640.686035,1.744165
-80.01709,314.025879,614.4104,1.744904
-69.946289,315.582275,608.276367,1.745566
-62.255859,319.152832,584.655762,1.746314
-56.854248,329.772949,565.979004,1.747048
-54.473877,334.259033,563.232422,1.747778
-41.290283,347.900391,556.091309,1.748538
-34.698486,353.759766,558.746338,1.749277
-35.980225,368.408203,549.957275,1.750016
-25.634766,383.056641,531.829834,1.750758
-30.944824,366.394043,526.702881,1.751415
-28.4729,376.373291,516.63208,1.752154
-22.613525,401.092529,506.92749,1.752894
-16.479492,438.354492,508.94165,1.753633
-7.873535,460.693359,508.392334,1.754379
-9.796143,470.397949,506.011963,1.755116
-10.162354,488.708496,506.561279,1.755852
-10.437012,476.257324,531.463623,1.756588
4.211426,486.236572,520.477295,1.757337
10.070801,498.046875,521.484375,1.75807
1.373291,503.997803,548.309326,1.7588
17.944336,397.613525,572.570801,1.75953
46.325684,512.878418,739.562988,1.76028
54.199219,489.624023,695.068359,1.761029
-3.02124,604.888916,693.237305,1.761761
-3.845215,637.573242,709.442139,1.762491
20.782471,659.362793,750.915527,1.763257
14.923096,672.546387,764.831543,1.76399
3.02124,700.012207,803.466797,1.76472
-4.760742,722.625732,840.911865,1.765453
20.41626,722.991943,867.462158,1.766194
10.437012,730.773926,905.273438,1.766935
10.620117,742.767334,911.773682,1.767676
0.366211,772.979736,931.182861,1.768417
11.169434,781.494141,953.796387,1.769158
17.669678,800.994873,972.747803,1.769899
-0.549316,809.143066,1001.953125,1.77064
-12.451172,812.072754,1012.939453,1.77138
3.295898,818.29834,1041.595459,1.772112
-6.04248,819.213867,1074.829102,1.772842
-10.986328,820.495605,1087.371826,1.773572
2.380371,833.404541,1106.231689,1.774303
-9.613037,825.805664,1111.907959,1.775059
-7.141113,833.770752,1125.366211,1.7758
-18.768311,834.686279,1150.45166,1.776558
-3.112793,831.390381,1155.853271,1.77731
-23.071289,829.376221,1163.452148,1.778051
-36.071777,813.903809,1176.635742,1.778792
-14.099121,808.410645,1179.107666,1.779533
-24.44458,782.226562,1169.586182,1.780283
-45.959473,764.73999,1150.909424,1.781109
-98.144531,755.401611,1122.802734,1.781851
-136.322021,733.795166,1050.201416,1.782591
-162.139893,715.393066,990.234375,1.783328
-228.973389,690.124512,979.888916,1.784059
-215.515137,682.70874,950.958252,1.78479
-213.592529,690.948486,939.971924,1.78552
-243.804932,679.6875,905.822754,1.786256
-246.459961,677.764893,891.540527,1.786997
-239.135742,679.046631,818.572998,1.78778
-200.775146,650.115967,740.112305,1.788523
-484.588623,603.973389,687.652588,1.789275
-430.389404,613.220215,677.856445,1.790016
-322.631836,595.64209,638.580322,1.790756
-351.654053,589.324951,642.51709,1.791497
-401.275635,574.951172,634.368896,1.792249
-319.152832,582.275391,626.403809,1.79299
-344.87915,594.177246,620.544434,1.793731
-377.105713,596.832275,602.050781,1.794472
-367.034912,596.923828,597.198486,1.795217
-377.380371,590.057373,593.078613,1.795948
-374.633789,579.25415,582.275391,1.796678
-371.154785,578.430176,576.690674,1.797409
-388.916016,589.782715,580.352783,1.798153
-397.521973,602.233887,577.423096,1.798894
-392.76123,612.39624,567.443848,1.799639
-418.212891,611.206055,581.817627,1.80039
-410.888672,591.339111,596.557617,1.801142
-401.733398,573.486328,614.227295,1.80189
-416.015625,569.091797,651.489258,1.802652
-426.635742,583.557129,649.017334,1.803404
-424.89624,592.254639,664.123535,1.804169
-429.748535,603.149414,667.419434,1.80491
-426.635742,615.05127,687.194824,1.805675
-401.916504,622.192383,705.505371,1.806418
-427.642822,619.903564,713.470459,1.807172
-425.811768,622.833252,725.372314,1.807913
-433.502197,635.101318,731.048584,1.808686
-435.333252,636.016846,732.696533,1.809466
-437.072754,637.756348,735.626221,1.810237
-435.882568,646.362305,737.457275,1.810984
-440.2771,636.84082,734.25293,1.811726
-439.453125,634.552002,733.337402,1.812491
-437.530518,636.84082,733.795166,1.813233
-442.565918,635.101318,747.161865,1.813974
-436.706543,635.559082,751.098633,1.814715
-432.678223,631.347656,751.922607,1.815467
-430.480957,632.354736,752.380371,1.816207
-421.783447,639.953613,750.732422,1.816948
-408.14209,636.749268,746.246338,1.81769
-408.782959,610.931396,734.069824,1.818433
-391.204834,625.030518,729.125977,1.819164
-381.591797,629.241943,710.174561,1.819894
-373.352051,623.016357,708.343506,1.820625
-358.24585,620.361328,691.314697,1.821382
-348.54126,625.762939,679.962158,1.822122
-357.879639,622.467041,682.983398,1.822861
-349.365234,610.473633,673.736572,1.8236
-363.830566,602.874756,669.616699,1.824336
-380.401611,601.043701,655.517578,1.825075
-378.112793,612.030029,644.165039,1.825815
-400.543213,608.917236,644.805908,1.826554
-395.599365,600.952148,629.333496,1.827303
-395.782471,599.761963,626.953125,1.828042
-402.282715,598.205566,621.643066,1.828782
-391.204834,597.198486,622.833252,1.829522
-386.810303,592.803955,621.368408,1.830262
-390.106201,588.867188,610.473633,1.830993
-383.239746,589.96582,605.895996,1.831724
-381.317139,588.592529,598.754883,1.832468
-386.260986,585.388184,599.67041,1.833226
-381.317139,582.092285,595.64209,1.833967
-393.493652,584.381104,593.170166,1.834707
-393.218994,572.021484,589.599609,1.835448
-392.76123,568.359375,578.704834,1.836189
-392.944336,566.802979,575.408936,1.83692
-389.099121,570.739746,571.563721,1.83765
-380.310059,576.049805,566.619873,1.838381
-381.317139,574.951172,563.598633,1.839134
-388.000488,573.760986,560.302734,1.839875
-381.408691,575.22583,561.035156,1.840633
-357.421875,590.332031,546.020508,1.841375
-359.893799,588.867188,509.857178,1.842116
-329.13208,594.451904,500.518799,1.842847
-334.16748,570.465088,492.279053,1.843577
-323.913574,574.676514,473.693848,1.844308
-320.800781,583.465576,470.031738,1.845069
-334.350586,578.063965,459.136963,1.84581
-334.899902,565.155029,457.672119,1.846551
-327.11792,562.042236,445.220947,1.847292
-342.407227,567.352295,440.734863,1.848033
-330.230713,550.872803,421.142578,1.848764
-329.772949,555.725098,422.973633,1.849494
-339.752197,554.626465,434.326172,1.850225
-339.202881,564.697266,413.543701,1.85098
-330.963135,570.465088,417.388916,1.851721
-341.766357,568.359375,409.973145,1.852558
-330.780029,568.817139,424.621582,1.853318
-335.998535,569.18335,420.86792,1.854072
-336.456299,584.381104,420.684814,1.854813
-340.026855,590.9729,420.135498,1.855554
-340.209961,607.269287,421.783447,1.856295
-330.780029,617.706299,418.579102,1.857045
-333.068848,646.087646,435.882568,1.857786
-330.322266,661.2854,444.396973,1.858527
-308.71582,690.39917,465.72876,1.859267
-310.913086,705.13916,478.179932,1.860008
-281.616211,738.830566,494.110107,1.860739
-273.834229,758.422852,527.893066,1.861469
-249.938965,777.282715,551.147461,1.8622
-244.354248,799.438477,599.029541,1.862955
-238.586426,812.988281,617.614746,1.863696
-238.952637,822.967529,620.361328,1.864438
-246.09375,838.623047,650.299072,1.865179
-260.192871,855.926514,659.088135,1.86593
-268.981934,881.378174,670.166016,1.866671
-272.460938,889.068604,699.09668,1.867411
-307.067871,891.448975,712.463379,1.868152
-305.236816,901.428223,716.85791,1.868903
-312.011719,905.548096,729.949951,1.869644
-309.356689,912.506104,765.289307,1.870385
-303.863525,922.851562,786.804199,1.871126
-316.131592,932.830811,790.283203,1.871867
-299.926758,937.133789,840.637207,1.872598
-295.257568,947.845459,873.504639,1.873335
-297.180176,944.366455,879.730225,1.874069
-288.024902,948.028564,908.111572,1.87484
-286.92627,947.937012,920.379639,1.87559
-296.99707,951.782227,926.696777,1.876331
-295.98999,950.958252,916.992188,1.877072
-301.757812,949.401855,928.161621,1.877827
-315.948486,951.141357,923.76709,1.878567
-311.553955,945.648193,935.211182,1.879308
-314.941406,945.281982,937.225342,1.880049
-329.315186,936.218262,941.711426,1.880799
-321.899414,920.196533,935.577393,1.88154
-331.787109,919.921875,924.041748,1.88228
-327.484131,917.266846,918.731689,1.883021
-324.829102,903.533936,891.265869,1.883762
-338.83667,886.779785,888.427734,1.884493
-344.787598,859.680176,868.103027,1.885224
-345.336914,856.47583,831.848145,1.885955
-361.907959,828.094482,827.362061,1.886709
-362.915039,800.90332,793.487549,1.88745
-356.231689,787.445068,786.254883,1.88819
-365.478516,762.084961,755.584717,1.888931
-361.633301,749.816895,719.238281,1.889677
-361.26709,736.816406,704.498291,1.890408
-359.436035,712.005615,675.292969,1.891139
-354.400635,693.237305,657.623291,1.891869
-344.146729,688.110352,641.876221,1.892622
-329.315186,673.095703,639.404297,1.89339
-324.829102,647.094727,615.966797,1.894141
-329.772949,631.622314,590.423584,1.894901
-322.723389,631.439209,581.90918,1.895648
-333.526611,626.220703,548.858643,1.896388
-334.716797,620.178223,532.562256,1.897128
-332.244873,599.761963,523.040771,1.897884
-332.519531,594.63501,504.455566,1.898624
-342.773438,588.043213,493.103027,1.899364
-329.406738,589.324951,469.665527,1.900104
-320.251465,595.092773,455.291748,1.900851
-312.927246,575.866699,419.219971,1.901589
-342.956543,562.957764,379.02832,1.902326
-354.949951,550.506592,350.372314,1.903072
-351.379395,554.626465,315.124512,1.903828
-369.9646,548.126221,313.293457,1.904559
-380.584717,533.660889,316.131592,1.905289
-323.455811,540.161133,307.525635,1.906019
-342.224121,546.569824,309.814453,1.906768
-331.329346,555.999756,344.146729,1.907498
-280.609131,567.352295,351.379395,1.908229
-266.693115,564.422607,388.458252,1.908959
-250.579834,572.479248,417.205811,1.909701
-175.598145,586.395264,456.756592,1.910432
-169.006348,590.332031,496.582031,1.911163
-132.843018,604.431152,506.835938,1.911893
-106.567383,640.319824,540.435791,1.912649
-66.925049,658.081055,538.330078,1.91339
-84.777832,653.045654,532.470703,1.914131
-74.432373,660.644531,539.154053,1.914872
-74.066162,657.073975,537.963867,1.915613
-74.981689,674.926758,531.37207,1.916344
-72.143555,679.6875,526.611328,1.917074
-64.727783,685.546875,533.935547,1.917805
-61.431885,696.899414,537.139893,1.918559
-42.938232,713.195801,538.05542,1.9193
-40.283203,734.710693,551.605225,1.92004
-34.606934,764.73999,566.619873,1.920816
-20.599365,762.451172,574.951172,1.921566
-19.40918,761.535645,588.317871,1.922298
-19.317627,764.465332,603.424072,1.923114
-15.197754,764.190674,612.213135,1.923846
-14.282227,769.317627,621.826172,1.924602
-9.70459,770.965576,655.151367,1.925343
-8.422852,776.641846,641.693115,1.926083
-11.71875,782.318115,654.418945,1.926824
-0.549316,788.818359,659.820557,1.927565
2.471924,796.234131,677.490234,1.928296
-5.126953,802.276611,700.744629,1.929026
13.000488,795.501709,709.350586,1.929756
22.521973,699.371338,773.4375,1.93051
19.775391,800.537109,845.581055,1.93125
13.916016,790.924072,855.926514,1.931989
5.0354,842.651367,844.116211,1.932729
-15.74707,832.397461,846.313477,1.933476
30.12085,830.108643,846.496582,1.934213
21.972656,839.904785,823.791504,1.934961
-22.979736,839.172363,826.263428,1.935695
14.007568,833.770752,835.968018,1.936443
32.958984,814.453125,820.953369,1.937174
45.684814,799.621582,817.474365,1.937905
55.206299,815.643311,827.453613,1.938635
48.797607,814.453125,829.284668,1.939376
68.389893,855.377197,794.86084,1.940107
68.023682,833.679199,730.041504,1.940837
22.43042,806.945801,707.244873,1.941568
40.557861,763.824463,687.286377,1.942325
33.416748,719.238281,640.686035,1.943057
-40.008545,705.871582,607.452393,1.943796
-39.001465,688.751221,569.732666,1.944531
-72.143555,663.391113,521.026611,1.945305
-91.73584,641.784668,474.517822,1.946043
-92.193604,640.594482,463.165283,1.946774
-88.7146,643.341064,440.826416,1.947508
-68.572998,650.756836,431.304932,1.948249
-61.523438,647.55249,424.255371,1.948996
-49.438477,646.453857,403.564453,1.949761
-43.395996,645.53833,389.007568,1.950541
-54.199219,616.149902,371.704102,1.951282
-51.086426,635.375977,360.992432,1.952023
-60.699463,641.876221,348.907471,1.952764
-58.685303,647.003174,335.357666,1.953516
-57.312012,642.242432,337.097168,1.954257
-63.171387,645.812988,313.018799,1.954997
-67.382812,645.355225,307.250977,1.955738
-60.241699,642.059326,295.166016,1.956479
-64.544678,646.453857,293.243408,1.95721
-78.00293,650.756836,296.630859,1.95794
-75.714111,648.101807,293.334961,1.958671
-75.805664,655.426025,291.229248,1.959429
-64.27002,669.433594,288.116455,1.960171
-70.404053,670.440674,299.560547,1.960912
-68.664551,657.348633,299.560547,1.961653
-78.00293,662.384033,310.455322,1.962404
-75.073242,673.828125,315.582275,1.963145
-81.573486,669.98291,322.265625,1.963885
-72.967529,680.145264,328.948975,1.964626
-104.46167,680.603027,323.547363,1.965377
-101.348877,681.518555,329.315186,1.966118
-114.990234,676.300049,327.484131,1.966858
-136.230469,684.814453,332.519531,1.967599
-137.512207,692.41333,333.251953,1.968339
-138.61084,697.265625,332.702637,1.96907
-137.329102,706.878662,319.335938,1.9698
-129.455566,716.583252,317.871094,1.970531
-115.539551,724.273682,311.279297,1.971285
-117.095947,728.485107,318.145752,1.972025
-93.017578,717.041016,310.36377,1.972765
-63.903809,732.23877,305.419922,1.973506
-61.157227,748.168945,300.476074,1.974256
-74.707031,732.330322,303.771973,1.974998
-59.509277,748.077393,294.799805,1.975738
-73.974609,755.310059,260.375977,1.976479
-59.143066,766.571045,282.440186,1.977219
-60.150146,775.45166,257.720947,1.97795
-46.051025,788.360596,250.12207,1.97868
-64.086914,793.029785,239.685059,1.979411
-55.938721,810.058594,194.824219,1.980164
-47.241211,816.101074,153.900146,1.980904
-73.425293,792.755127,117.095947,1.981643
-65.368652,809.417725,105.285645,1.982383
-58.868408,832.946777,77.087402,1.98313
-52.001953,829.742432,48.431396,1.98387
-50.079346,848.876953,44.586182,1.984609
-43.85376,782.043457,45.227051,1.985349
24.536133,768.859863,37.445068,1.986104
-28.4729,801.086426,4.302979,1.986844
-60.60791,838.348389,-30.853271,1.987583
18.768311,841.644287,-43.487549,1.988323
1.373291,821.777344,-50.354004,1.989073
-28.656006,939.697266,-69.580078,1.989812
41.473389,938.50708,-83.03833,1.990551
44.86084,925.598145,-111.877441,1.99129
-35.980225,952.789307,-117.645264,1.992039
-28.198242,928.161621,-160.400391,1.992779
-27.740479,965.423584,-170.837402,1.993518
-25.360107,994.262695,-184.020996,1.994257
-75.531006,998.657227,-209.564209,1.995006
-72.509766,1010.101318,-234.375,1.99583
-29.11377,1045.806885,-246.917725,1.99657
-49.530029,1069.793701,-284.729004,1.99731
-47.88208,964.96582,-308.441162,1.998061
-101.806641,1133.69751,-338.83667,1.9988
-102.081299,1056.060791,-339.752197,1.99954
-149.871826,1102.386475,-331.329346,2.00028
-138.519287,1130.310059,-314.300537,2.001028
-162.689209,1190.093994,-294.342041,2.001768
-191.894531,1177.001953,-260.742188,2.002507
-207.458496,1229.46167,-208.557129,2.003247
-273.834229,1237.701416,-154.907227,2.003996
-275.024414,1241.546631,-101.074219,2.004736
-260.742188,1200.897217,-93.109131,2.005476
-217.712402,1091.766357,-85.876465,2.006215
-183.746338,1145.233154,98.968506,2.006965
-466.003418,1424.468994,173.583984,2.007704
-12.359619,995.635986,174.77417,2.008444
375.0,1316.070557,183.380127,2.009183
-378.662109,1089.477539,220.733643,2.009932
482.116699,1269.195557,187.133789,2.010672
353.118896,1392.883301,201.873779,2.011412
-112.792969,1209.136963,195.19043,2.012151
255.889893,1467.590332,178.894043,2.0129
-60.60791,1399.108887,202.880859,2.013639
387.084961,1396.911621,296.813965,2.014379
61.981201,1797.271729,356.964111,2.015119
-73.516846,1803.131104,376.831055,2.015885
346.710205,1651.977539,451.721191,2.016648
-142.913818,-280.883789,1207.946777,2.017397
-1358.459473,422.241211,1820.709229,2.018137
-1959.320068,1299.407959,1756.80542,2.0189
-1535.797119,1557.220459,1293.640137,2.019641
491.821289,2047.027588,903.259277,2.020382
2611.541748,1505.67627,1229.644775,2.021122
2604.58374,2026.611328,1144.40918,2.021872
1943.847656,1789.581299,1025.665283,2.022613
-535.491943,1717.071533,798.065186,2.023354
-1123.718262,1725.67749,742.675781,2.024094
-738.006592,1726.318359,644.165039,2.024835
-294.799805,1748.657227,464.080811,2.025565
784.790039,1745.269775,394.500732,2.026296
954.162598,1666.717529,319.976807,2.027028
483.398438,1649.963379,258.087158,2.027784
-696.350098,1647.033691,331.878662,2.028525
-1054.412842,1570.129395,359.069824,2.029265
-369.9646,1542.663574,345.703125,2.030014
727.478027,1646.850586,243.164062,2.030771
-66.833496,1593.017578,221.557617,2.031518
-550.872803,1714.874268,209.014893,2.032332
-429.290771,1811.920166,110.595703,2.033084
-494.934082,1847.259521,81.207275,2.033825
-508.300781,1775.756836,82.855225,2.034566
-1370.819092,1818.603516,220.275879,2.035307
-3000.0,1762.115479,264.953613,2.036049
-3000.0,1796.539307,470.489502,2.036788
-2128.417969,1696.563721,676.391602,2.037529
-1065.765381,1764.312744,627.044678,2.038269
-854.003906,1827.209473,472.869873,2.039001
-584.014893,1837.554932,417.388916,2.039732
-554.901123,1697.479248,409.881592,2.040463
1078.491211,1901.550293,330.688477,2.041193
1499.542236,1896.789551,316.772461,2.041938
494.384766,1829.223633,442.657471,2.042678
-1327.880859,1620.117188,527.984619,2.043417
-886.779785,1548.248291,558.929443,2.044156
62.347412,1581.481934,530.181885,2.044896
1269.744873,1664.245605,436.61499,2.045634
1133.514404,1535.064697,375.915527,2.046374
174.041748,1482.147217,344.970703,2.047113
125.335693,1376.037598,537.506104,2.047861
-320.43457,1309.844971,802.185059,2.048598
-1411.651611,1286.682129,853.271484,2.049334
-999.11499,1407.531738,722.53418,2.050071
484.863281,1455.413818,557.281494,2.050842
-130.187988,1414.672852,494.293213,2.051577
-1198.516846,1315.063477,427.459717,2.052308
-1285.583496,1263.793945,389.190674,2.053039
-1273.956299,1196.228027,380.584717,2.053788
-1222.503662,1080.688477,322.08252,2.054519
-773.529053,1042.96875,267.700195,2.055251
-270.446777,1010.650635,167.08374,2.056013
-39.550781,985.656738,67.016602,2.056763
43.304443,986.846924,8.789062,2.057494
64.178467,935.48584,-106.933594,2.058225
5.401611,908.294678,-252.7771,2.058955
-119.293213,950.958252,-329.681396,2.059725
-93.383789,1038.848877,-465.820312,2.060474
-119.018555,1081.14624,-506.103516,2.061214
-342.132568,1085.449219,-530.639648,2.061955
-516.998291,1107.330322,-582.092285,2.062706
-510.498047,1126.281738,-560.48584,2.063447
-514.343262,1088.378906,-544.73877,2.064187
-506.744385,1043.243408,-563.232422,2.06501
-418.029785,1043.609619,-614.959717,2.065763
-5.126953,1072.08252,-636.108398,2.066504
311.096191,1081.14624,-697.814941,2.067244
331.787109,1030.700684,-751.831055,2.067984
-52.093506,969.268799,-893.463135,2.068724
-603.515625,875.976562,-612.121582,2.069455
-1407.531738,818.572998,-335.083008,2.070186
-548.492432,1072.08252,-48.339844,2.070917
-117.370605,1246.948242,-92.926025,2.071674
-160.766602,1233.306885,-149.230957,2.072415
-442.474365,1037.750244,-345.336914,2.073155
-513.519287,1036.834717,-418.121338,2.073897
-3.845215,1141.937256,-549.224854,2.074662
50.537109,1161.987305,-740.570068,2.075403
-178.070068,1130.767822,-848.510742,2.076144
1421.264648,924.957275,-633.544922,2.076884
1511.993408,795.684814,-467.193604,2.077635
-3.753662,882.659912,-464.263916,2.078376
-1663.05542,1120.880127,-91.369629,2.079116
-1952.636719,1199.615479,-57.495117,2.079857
-1873.352051,1260.864258,-250.946045,2.080607
-1643.188477,1160.705566,-449.981689,2.081348
-1151.641846,1092.681885,-512.420654,2.082088
-626.586914,1223.7854,-611.297607,2.082829
-62.347412,1135.528564,-309.265137,2.08357
66.925049,1220.855713,-172.485352,2.084301
-304.6875,1194.763184,125.335693,2.085031
-1010.101318,1100.097656,171.020508,2.085762
271.362305,1191.28418,77.545166,2.086515
996.734619,1345.733643,-129.547119,2.087256
1087.554932,1452.11792,-195.922852,2.088001
777.282715,1381.072998,-132.843018,2.088745
-239.501953,1282.287598,-96.679688,2.089535
-299.377441,1298.492432,-220.550537,2.090287
41.015625,1298.400879,-278.869629,2.091028
249.389648,1252.166748,-362.182617,2.091769
316.772461,1233.215332,-345.703125,2.09251
-807.678223,1156.036377,-58.685303,2.093319
1780.426025,2516.052246,2999.908447,2.09407
2999.908447,2999.908447,2999.908447,2.094838
2999.908447,2736.51123,2797.393799,2.095585
1640.350342,2413.05542,-19.40918,2.096326
153.625488,1305.908203,-3000.0,2.097066
-2091.156006,906.37207,-3000.0,2.09782
-2627.471924,519.012451,-1646.66748,2.098561
805.57251,285.644531,1401.031494,2.099302
-327.667236,765.014648,-89.172363,2.100042
-1038.116455,1005.889893,-201.049805,2.100793
-33.782959,587.768555,-439.086914,2.101535
52.734375,637.939453,-1102.386475,2.102277
49.255371,654.327393,-926.055908,2.103018
-5.67627,732.879639,-334.533691,2.10376
-433.227539,1049.468994,23.620605,2.104491
-224.212646,1229.003906,291.046143,2.105222
-185.211182,1205.383301,50.262451,2.105952
-286.102295,1007.995605,-371.063232,2.10671
-524.871826,922.393799,-378.112793,2.10745
-653.778076,792.938232,-218.536377,2.10819
-702.026367,889.61792,21.42334,2.108931
-766.021729,997.283936,109.405518,2.109681
-707.885742,1178.741455,278.869629,2.110422
-651.580811,1204.742432,163.970947,2.111162
-588.409424,1213.165283,47.607422,2.111903
-438.354492,1186.248779,-9.063721,2.112653
-324.371338,1192.565918,108.764648,2.113393
-174.77417,1226.806641,141.906738,2.114133
-137.512207,1200.531006,123.504639,2.114873
-158.111572,1177.093506,68.389893,2.115614
-224.945068,1137.176514,-21.514893,2.116345
-241.607666,1148.071289,-242.340088,2.117075
-319.976807,1133.239746,-400.817871,2.117806
-233.36792,1181.121826,-176.513672,2.118559
-283.538818,1209.777832,-66.558838,2.1193
-357.421875,1255.004883,117.1875,2.120041
-394.317627,1209.503174,86.242676,2.120781
-395.141602,1095.977783,57.128906,2.121522
-386.993408,960.662842,-225.219727,2.122253
-336.273193,882.293701,-455.108643,2.122984
-142.089844,897.30835,-380.310059,2.123714
-130.279541,997.558594,-111.053467,2.124465
-152.160645,1075.469971,-55.206299,2.125204
-221.191406,1070.068359,-35.980225,2.125943
-285.736084,1046.99707,-113.067627,2.126681
-369.32373,965.606689,-185.577393,2.127429
-356.414795,908.569336,-237.304688,2.128168
-278.22876,901.245117,-210.845947,2.128908
-189.880371,905.822754,-207.824707,2.129647
-155.639648,939.056396,-205.810547,2.130421
-147.033691,953.063965,-230.712891,2.131162
-162.04834,972.564697,-229.797363,2.131903
-202.789307,967.529297,-144.65332,2.132649
-176.879883,962.768555,-130.004883,2.133412
-171.75293,885.5896,-237.762451,2.134229
-163.604736,865.356445,-243.530273,2.134971
-146.392822,867.1875,-231.628418,2.135711
-117.462158,898.040771,-249.938965,2.136454
-122.955322,931.82373,-215.240479,2.1372
-165.435791,943.634033,-210.296631,2.13793
-189.422607,903.442383,-265.228271,2.138661
-256.622314,909.210205,-264.770508,2.139418
-223.66333,927.429199,-214.050293,2.140159
-199.676514,924.224854,-233.642578,2.140899
-179.626465,916.992188,-227.966309,2.141639
-144.378662,897.216797,-238.128662,2.142389
-148.956299,898.864746,-279.418945,2.143129
-153.808594,892.913818,-303.68042,2.14387
-157.928467,941.711426,-255.157471,2.14461
-171.936035,966.796875,-235.748291,2.14536
-210.9375,959.472656,-214.050293,2.1461
-184.844971,941.52832,-255.615234,2.14684
-134.94873,924.041748,-281.707764,2.147581
-109.039307,912.597656,-314.117432,2.148322
-64.27002,926.605225,-296.264648,2.149053
-47.790527,951.23291,-266.143799,2.149783
-54.016113,961.212158,-239.501953,2.150514
-80.749512,936.676025,-254.974365,2.151267
-90.72876,908.02002,-310.913086,2.152006
-68.389893,896.66748,-336.273193,2.152745
-16.296387,899.780273,-331.329346,2.153484
15.014648,907.104492,-350.646973,2.154233
43.304443,914.0625,-366.210938,2.154972
67.016602,927.520752,-359.985352,2.155711
28.839111,940.612793,-349.365234,2.15645
-7.965088,938.781738,-367.401123,2.1572
7.781982,922.027588,-377.288818,2.157969
19.866943,913.970947,-396.881104,2.158717
46.051025,918.457031,-420.593262,2.159458
94.207764,952.148438,-385.437012,2.160198
98.693848,957.824707,-377.655029,2.160939
40.283203,965.606689,-375.457764,2.161679
-2.01416,986.114502,-392.303467,2.162419
-31.768799,987.945557,-395.233154,2.163191
-19.40918,987.213135,-364.013672,2.163945
25.268555,1013.397217,-339.294434,2.164714
26.000977,1023.742676,-381.591797,2.165498
28.4729,1026.763916,-371.154785,2.166239
10.620117,1032.897949,-372.344971,2.166979
-1.464844,1044.250488,-394.958496,2.167719
15.472412,1033.26416,-370.880127,2.16847
34.790039,1047.088623,-390.197754,2.169211
28.747559,1060.36377,-419.86084,2.169951
31.677246,1065.490723,-395.782471,2.170692
-4.577637,1088.470459,-358.703613,2.171435
-59.783936,1081.237793,-328.857422,2.172166
-212.95166,1076.568604,-391.662598,2.172896
-253.143311,1094.055176,-431.57959,2.173627
-232.727051,1109.619141,-400.909424,2.174384
-90.179443,1129.211426,-429.382324,2.175125
8.972168,1112.915039,-496.582031,2.175865
226.409912,1101.5625,-498.413086,2.176605
261.657715,1077.575684,-470.855713,2.177307
198.303223,1073.364258,-390.563965,2.178047
185.760498,1092.956543,-311.645508,2.178787
276.306152,1147.613525,-202.606201,2.179528
393.218994,1178.375244,-202.23999,2.180278
269.897461,1213.897705,-269.714355,2.181019
200.866699,1228.45459,-287.200928,2.181759
20.324707,1260.040283,-247.558594,2.1825
-118.927002,1310.119629,-199.401855,2.183206
-448.150635,1324.035645,-181.091309,2.183938
-669.708252,1327.972412,-211.395264,2.184669
-664.215088,1328.24707,-250.854492,2.1854
-416.656494,1329.803467,-244.354248,2.186151
-96.130371,1311.859131,-306.060791,2.186888
8.239746,1304.534912,-368.682861,2.187644
57.861328,1273.773193,-399.536133,2.188386
-93.475342,1262.237549,-379.852295,2.189139
-104.095459,1268.554688,-336.273193,2.18988
-50.811768,1301.971436,-349.639893,2.19062
-2.197266,1305.541992,-418.395996,2.191361
-94.573975,1261.505127,-503.082275,2.192101
-244.812012,1240.631104,-523.223877,2.192832
-263.671875,1239.990234,-393.218994,2.193564
-387.634277,1265.808105,-471.313477,2.194294
-445.404053,1188.62915,-675.384521,2.195045
-259.460449,1156.036377,-596.099854,2.195784
131.378174,1210.968018,-415.008545,2.196523
325.378418,1189.727783,-345.336914,2.197262
1263.061523,1185.699463,-239.318848,2.198019
428.924561,1334.564209,-18.768311,2.198753
-373.077393,1405.24292,192.352295,2.199484
-654.510498,1355.895996,11.71875,2.200215
-337.921143,1189.086914,-504.638672,2.200965
-377.01416,1173.88916,-304.229736,2.201696
-175.231934,1304.80957,-101.44043,2.202426
-19.500732,1322.845459,-181.182861,2.203157
-54.199219,1255.554199,-390.197754,2.20389
-414.367676,1137.359619,-580.535889,2.204622
-490.997314,1110.992432,-506.92749,2.205353
-278.137207,1153.747559,-495.849609,2.206083
237.487793,1181.213379,-456.481934,2.206847
251.037598,1171.691895,-522.491455,2.207578
-33.782959,1126.373291,-601.593018,2.208309
-52.368164,1014.221191,-732.60498,2.209039
-63.262939,991.424561,-651.489258,2.209781
-161.956787,1021.453857,-359.619141,2.210512
-215.606689,1074.005127,-266.693115,2.211243
-212.585449,1095.88623,-278.320312,2.211974
-267.974854,1094.329834,-263.305664,2.212713
-268.157959,1076.293945,-411.16333,2.213444
-276.947021,1038.574219,-604.980469,2.214175
-282.989502,1018.981934,-534.942627,2.214906
-207.000732,1006.713867,-484.863281,2.215652
-124.328613,996.734619,-463.165283,2.216383
-168.457031,963.043213,-540.618896,2.217113
-290.039062,853.271484,-804.199219,2.217844
-341.949463,835.601807,-850.616455,2.218599
-358.612061,827.270508,-899.047852,2.219343
-404.205322,785.339355,-940.704346,2.220083
-417.297363,756.68335,-788.543701,2.220823
-260.101318,782.775879,-645.996094,2.221573
-87.432861,802.734375,-430.755615,2.222314
-75.531006,785.797119,-504.180908,2.223054
-353.393555,764.923096,-540.710449,2.223795
-507.843018,728.027344,-792.205811,2.224547
-589.508057,642.608643,-910.491943,2.225287
-774.719238,564.605713,-1016.876221,2.226029
-767.303467,550.048828,-967.895508,2.226777
-717.224121,504.180908,-1127.838135,2.227547
-678.68042,450.622559,-1215.820312,2.228297
-675.476074,379.119873,-1375.579834,2.229037
-743.591309,423.706055,-1334.655762,2.229778
-782.684326,405.303955,-1313.781738,2.23054
-744.9646,366.30249,-1529.663086,2.231281
-801.544189,265.594482,-1657.836914,2.232022
-900.421143,-78.460693,-1647.766113,2.232762
-102.264404,219.543457,-1809.173584,2.233512
-35.430908,552.612305,-1670.562744,2.234254
-634.643555,258.361816,-2320.3125,2.234994
79.925537,-64.727783,-3000.0,2.235735
2705.291748,136.962891,-3000.0,2.236476
2292.205811,1154.47998,-3000.0,2.237249
2999.908447,-333.80127,-1946.044922,2.238003
1915.924072,-159.484863,-1823.0896,2.238764
645.629883,-445.220947,-498.321533,2.239513
415.924072,111.328125,-318.695068,2.240254
47.241211,284.729004,56.488037,2.240995
456.573486,-39.459229,-88.989258,2.241755
749.725342,540.252686,-288.757324,2.242496
-327.484131,2336.334229,-709.899902,2.243236
751.373291,1042.419434,-640.960693,2.243977
-266.143799,644.989014,157.562256,2.244728
-305.328369,613.128662,-456.481934,2.245469
-154.083252,588.500977,-834.320068,2.246209
-392.76123,305.69458,-909.576416,2.246949
-758.148193,-751.647949,-562.5,2.24769
-1070.983887,-149.871826,-362.365723,2.24842
-491.729736,-1968.292236,222.290039,2.249151
-2842.895508,2999.908447,-3000.0,2.249882
-3000.0,2287.261963,-2484.832764,2.250638
-946.838379,1259.94873,-1787.841797,2.251379
315.124512,1439.483643,-1520.141602,2.252128
2999.908447,1080.780029,-720.88623,2.252869
2816.986084,1838.012695,-433.868408,2.253611
2117.706299,1323.21167,1640.075684,2.254352
-1030.975342,282.531738,2042.907715,2.255093
332.427979,1113.647461,801.361084,2.255834
-1871.154785,1292.816162,638.85498,2.256585
501.068115,1164.733887,13.092041,2.257326
-1052.856445,1180.023193,183.105469,2.258066
-2081.268311,967.346191,613.220215,2.258807
-2046.661377,361.175537,960.205078,2.259547
-729.858398,777.923584,221.64917,2.260277
-1171.051025,1316.436768,-1165.100098,2.261008
-347.076416,1075.469971,-658.26416,2.261739
-569.915771,727.844238,-294.98291,2.26248
1032.806396,849.151611,-482.299805,2.263222
931.82373,801.544189,-730.865479,2.263962
-13.092041,832.763672,-763.183594,2.264703
-101.806641,894.470215,-890.350342,2.265435
-460.693359,886.047363,-962.036133,2.266165
273.376465,851.531982,-1009.735107,2.266895
980.34668,822.143555,-627.960205,2.267626
-132.019043,993.530273,-555.999756,2.268362
445.3125,1094.146729,-519.927979,2.269102
1212.524414,1000.488281,-320.251465,2.269842
-751.281738,1079.13208,-511.59668,2.270582
-798.431396,1123.260498,-729.58374,2.271321
243.530273,922.027588,-657.989502,2.272154
-302.398682,792.755127,-716.400146,2.27294
-908.752441,987.030029,-220.092773,2.273703
-2090.240479,1208.312988,196.014404,2.274498
-2895.996094,1419.616699,-44.952393,2.275258
838.806152,1642.089844,-85.327148,2.276012
1620.391846,1587.524414,-114.349365,2.276769
-320.983887,1503.112793,-131.835938,2.277549
240.142822,1427.947998,-26.367188,2.278307
-42.755127,1314.605713,-263.85498,2.279067
656.799316,1325.775146,-352.111816,2.279823
1342.62085,1214.904785,-341.766357,2.280608
-556.640625,1462.097168,-517.456055,2.281389
809.143066,1792.877197,30.761719,2.282145
1155.761719,1848.266602,260.192871,2.282919
-688.934326,1807.250977,344.421387,2.283703
-361.724854,1779.418945,358.795166,2.284463
-282.25708,1570.220947,223.937988,2.285209
-179.626465,1531.036377,179.992676,2.285976
-497.131348,1517.578125,139.61792,2.286717
-1260.131836,1454.681396,30.670166,2.287463
-944.641113,1443.511963,-132.110596,2.288204
-518.096924,1463.195801,-121.032715,2.288957
-159.301758,1513.275146,-80.474854,2.289698
-285.552979,1510.620117,-1.190186,2.290439
-85.601807,1509.246826,-68.29834,2.291179
149.871826,1482.421875,-25.817871,2.291929
476.989746,1504.02832,40.924072,2.292671
187.957764,1455.230713,93.109131,2.293411
-5.859375,1433.441162,11.627197,2.294152
94.207764,1419.708252,-25.360107,2.294892
249.938965,1336.578369,-85.144043,2.295626
334.350586,1218.75,-140.441895,2.296361
28.106689,898.590088,-478.820801,2.297141
-176.055908,541.07666,-852.172852,2.29789
-22.705078,354.949951,-1042.144775,2.298631
16.296387,346.984863,-1011.291504,2.299372
-120.20874,450.98877,-809.143066,2.300113
-79.284668,532.37915,-639.770508,2.300854
119.567871,715.759277,-557.830811,2.301599
253.051758,784.14917,-432.220459,2.302376
89.355469,744.32373,-507.110596,2.303154
-31.219482,600.219727,-688.842773,2.303928
23.254395,450.714111,-812.072754,2.304683
19.226074,419.86084,-763.092041,2.305429
-9.887695,478.45459,-713.104248,2.306193
-41.19873,578.887939,-590.698242,2.306934
-30.578613,586.669922,-575.134277,2.307675
57.495117,595.092773,-606.719971,2.308417
96.313477,601.959229,-602.416992,2.30916
82.946777,603.33252,-563.049316,2.309891
76.99585,554.077148,-578.613281,2.310622
162.780762,501.342773,-722.991943,2.311406
87.890625,480.560303,-750.915527,2.312148
-105.560303,434.783936,-718.87207,2.312887
-149.871826,439.453125,-656.158447,2.313627
-86.975098,452.545166,-638.305664,2.314377
-41.19873,472.961426,-593.261719,2.315116
-36.437988,513.519287,-599.029541,2.315873
37.261963,514.801025,-630.249023,2.316614
113.983154,483.215332,-663.116455,2.317353
140.350342,435.058594,-673.187256,2.318105
-88.989258,417.938232,-667.785645,2.318868
-145.385742,404.47998,-662.29248,2.319611
-92.651367,392.669678,-652.313232,2.320373
-58.044434,393.4021,-656.890869,2.321113
-44.494629,407.409668,-648.193359,2.321853
-31.768799,428.375244,-609.832764,2.322594
13.092041,438.446045,-622.558594,2.323345
38.269043,427.368164,-620.544434,2.324086
-39.367676,371.887207,-659.27124,2.324827
-164.154053,362.182617,-685.913086,2.325566
-103.088379,393.493652,-675.933838,2.326306
-103.637695,419.494629,-640.228271,2.327037
-112.518311,473.876953,-621.276855,2.327768
38.085938,496.673584,-584.564209,2.328498
15.380859,493.469238,-580.352783,2.329245
-222.015381,466.644287,-623.931885,2.329976
-301.574707,462.249756,-672.454834,2.330706
-227.69165,464.538574,-680.419922,2.331436
-91.644287,505.828857,-651.947021,2.332188
-73.425293,504.455566,-613.586426,2.332929
-51.452637,520.294189,-612.670898,2.33367
-117.553711,509.490967,-646.636963,2.334411
-287.475586,491.18042,-688.38501,2.335161
-328.399658,460.418701,-703.765869,2.335901
-279.968262,461.975098,-700.286865,2.336642
-108.947754,487.792969,-635.192871,2.337383
-11.810303,547.76001,-614.044189,2.338144
-77.178955,566.986084,-611.114502,2.338883
-348.266602,518.005371,-641.235352,2.339622
-364.105225,471.588135,-707.336426,2.340361
-140.716553,469.848633,-724.456787,2.341111
-170.013428,468.017578,-675.201416,2.34185
-302.124023,488.616943,-628.509521,2.342589
-367.584229,524.871826,-650.848389,2.343417
-38.909912,549.499512,-680.236816,2.344172
-183.380127,539.886475,-642.425537,2.344906
-382.232666,546.020508,-657.806396,2.345637
-424.346924,544.189453,-683.990479,2.346368
-36.895752,530.181885,-703.674316,2.347118
-47.88208,518.737793,-668.609619,2.347849
-388.916016,539.428711,-643.798828,2.34858
-415.924072,551.330566,-679.6875,2.34931
-244.354248,557.647705,-699.554443,2.350058
-165.893555,519.836426,-695.343018,2.350789
-208.740234,524.230957,-689.941406,2.35152
-349.182129,531.555176,-675.476074,2.35225
-372.253418,547.393799,-675.292969,2.352992
-236.663818,542.541504,-679.504395,2.353723
-233.459473,540.435791,-686.37085,2.354453
-316.223145,542.175293,-681.427002,2.355183
-429.748535,545.562744,-696.533203,2.355938
-345.611572,542.08374,-708.80127,2.356679
-155.36499,546.203613,-698.547363,2.35742
-215.606689,562.957764,-673.736572,2.35816
-308.624268,555.267334,-657.531738,2.358903
-366.668701,552.612305,-693.42041,2.359633
-317.138672,541.809082,-714.752197,2.360364
-222.015381,550.964355,-718.505859,2.361095
-225.769043,561.950684,-674.377441,2.361848
-250.396729,575.500488,-653.869629,2.362599
-288.848877,577.056885,-680.236816,2.363351
-264.404297,564.239502,-718.139648,2.364098
-209.655762,540.710449,-722.167969,2.364889
-206.726074,565.612793,-690.582275,2.365637
-221.282959,580.444336,-664.672852,2.366378
-225.311279,593.170166,-657.714844,2.367119
-220.550537,605.712891,-685.36377,2.36786
-235.931396,591.97998,-697.44873,2.368601
-257.629395,581.176758,-713.012695,2.369341
-241.790771,574.21875,-716.674805,2.370082
-190.704346,580.535889,-703.765869,2.37084
-177.886963,578.521729,-695.892334,2.371596
-188.323975,582.183838,-703.033447,2.37234
-173.858643,596.008301,-697.998047,2.37315
-136.962891,609.191895,-689.575195,2.373896
-143.463135,626.220703,-660.919189,2.374636
-161.499023,613.037109,-662.658691,2.375377
-186.49292,603.515625,-679.6875,2.376128
-193.084717,580.810547,-721.893311,2.376868
-218.719482,566.070557,-733.062744,2.377609
-191.52832,562.774658,-713.745117,2.378349
-158.752441,571.929932,-683.532715,2.37909
-111.328125,594.726562,-672.546387,2.379823
-138.244629,597.473145,-672.363281,2.380554
-132.476807,599.304199,-681.976318,2.381284
-125.88501,580.810547,-697.265625,2.382041
-132.202148,567.993164,-678.68042,2.382782
-158.569336,575.134277,-676.483154,2.383523
-174.316406,578.338623,-685.36377,2.384263
-166.168213,576.965332,-701.202393,2.385014
-141.265869,563.415527,-712.82959,2.385754
-143.737793,568.450928,-695.43457,2.386495
-161.773682,587.677002,-685.821533,2.387254
-141.448975,601.867676,-671.905518,2.38801
-144.104004,587.585449,-668.884277,2.388751
-144.927979,585.479736,-658.355713,2.389491
-149.871826,577.789307,-680.328369,2.390231
-141.906738,584.381104,-677.856445,2.390982
-91.003418,593.62793,-666.687012,2.391722
-65.185547,592.529297,-642.608643,2.392463
-72.32666,592.163086,-659.088135,2.393203
-96.221924,577.514648,-684.906006,2.393943
-113.067627,559.661865,-693.786621,2.394674
-142.63916,562.866211,-693.237305,2.395405
-138.336182,588.043213,-667.694092,2.396135
-152.618408,583.740234,-640.319824,2.396889
-145.385742,590.057373,-648.925781,2.39763
-129.364014,575.592041,-670.440674,2.39837
-104.003906,567.169189,-689.849854,2.399111
-68.206787,582.550049,-693.42041,2.399851
-54.382324,608.093262,-679.046631,2.400582
-75.805664,586.395264,-677.67334,2.401312
-119.018555,561.859131,-685.821533,2.402044
-150.054932,553.985596,-691.680908,2.402795
-157.562256,555.908203,-711.730957,2.403536
-144.744873,574.127197,-690.856934,2.404276
-122.589111,586.669922,-672.180176,2.405017
-71.044922,595.550537,-671.447754,2.405758
-59.60083,597.106934,-695.526123,2.406488
-91.461182,571.746826,-686.462402,2.407219
-109.680176,585.754395,-723.449707,2.407949
-99.884033,572.20459,-724.273682,2.408703
-79.101562,585.754395,-707.702637,2.409442
-88.348389,599.304199,-667.419434,2.410181
-112.701416,626.220703,-659.912109,2.410919
-134.58252,620.727539,-663.299561,2.411667
-186.126709,609.924316,-680.603027,2.412491
-130.462646,612.213135,-716.949463,2.413231
-42.297363,601.043701,-694.335938,2.413969
-28.015137,594.451904,-690.490723,2.414721
-194.458008,609.649658,-694.885254,2.415474
-95.214844,613.677979,-726.013184,2.416215
-37.811279,619.262695,-684.7229,2.416986
-88.989258,641.235352,-663.116455,2.417728
-185.119629,668.426514,-657.897949,2.418468
-149.871826,659.729004,-668.243408,2.419208
-73.974609,641.51001,-687.744141,2.419958
-80.932617,630.249023,-711.364746,2.420699
-112.243652,635.467529,-717.498779,2.421439
-118.560791,630.523682,-710.174561,2.422179
-97.229004,640.319824,-701.843262,2.422927
-33.416748,652.587891,-698.455811,2.423658
-102.172852,666.595459,-678.68042,2.424388
-160.675049,668.701172,-668.426514,2.425119
-136.505127,662.200928,-678.405762,2.425861
-51.727295,661.92627,-702.301025,2.426604
-66.467285,648.742676,-705.596924,2.427345
-119.567871,642.883301,-709.533691,2.428083
-119.018555,645.53833,-714.202881,2.428843
-102.996826,649.749756,-682.250977,2.429585
-57.312012,655.334473,-683.898926,2.430325
-70.3125,688.659668,-672.088623,2.431065
-132.751465,676.116943,-671.173096,2.431805
-114.715576,673.461914,-673.278809,2.432546
-99.609375,670.98999,-700.744629,2.433286
-116.455078,657.806396,-692.321777,2.434026
-124.87793,647.460938,-712.738037,2.434774
-87.341309,636.566162,-720.336914,2.435515
-62.164307,652.313232,-703.125,2.43625
-111.602783,656.066895,-682.983398,2.437019
-136.047363,679.595947,-673.828125,2.437791
-99.609375,689.849854,-671.447754,2.438532
-102.630615,692.138672,-666.137695,2.439273
-123.22998,685.455322,-678.222656,2.440013
-147.216797,662.93335,-681.70166,2.440764
-109.49707,656.25,-704.13208,2.441532
-109.863281,651.123047,-706.695557,2.442284
-103.729248,655.24292,-670.715332,2.443069
-97.686768,666.137695,-661.010742,2.443818
-74.981689,672.821045,-685.72998,2.444558
-83.312988,672.821045,-692.138672,2.445298
-159.393311,665.039062,-681.060791,2.446039
-174.133301,644.165039,-667.96875,2.44678
-142.913818,644.439697,-668.97583,2.44752
-108.581543,648.193359,-665.130615,2.44826
-122.86377,640.411377,-661.193848,2.449013
-111.419678,646.362305,-667.144775,2.449744
-52.642822,632.446289,-662.475586,2.450475
-32.318115,635.009766,-666.412354,2.451205
-94.665527,619.812012,-666.412354,2.451944
-129.272461,625.488281,-669.250488,2.452685
-143.463135,626.312256,-674.468994,2.453426
-141.448975,627.227783,-669.525146,2.454166
-140.441895,636.291504,-652.130127,2.454907
-169.189453,640.319824,-651.763916,2.455648
-130.828857,644.53125,-650.115967,2.456389
-84.228516,634.918213,-658.813477,2.45713
-90.362549,618.713379,-673.736572,2.457882
-115.356445,608.917236,-682.983398,2.458623
-116.821289,599.578857,-663.574219,2.459385
-89.904785,622.558594,-651.855469,2.460127
-157.287598,634.643555,-643.066406,2.460868
-200.317383,625.671387,-651.763916,2.461608
-183.654785,605.712891,-661.2854,2.462349
-144.470215,597.473145,-694.335938,2.463089
-98.602295,583.190918,-700.286865,2.46383
-109.588623,595.092773,-699.09668,2.46457
-118.927002,590.881348,-665.313721,2.46531
-92.376709,589.691162,-661.376953,2.46605
-88.07373,593.719482,-648.193359,2.466786
-136.59668,591.97998,-652.679443,2.467516
-168.548584,601.776123,-672.912598,2.468247
-160.949707,595.733643,-702.484131,2.468978
-119.659424,602.050781,-679.779053,2.469712
-136.322021,585.113525,-661.92627,2.470443
-172.485352,573.944092,-667.510986,2.471174
-149.871826,575.408936,-703.857422,2.471905
-131.92749,575.683594,-721.801758,2.472641
-123.779297,609.008789,-693.054199,2.473382
-146.118164,631.80542,-640.50293,2.474123
-152.618408,626.77002,-624.11499,2.474863
-153.259277,611.297607,-644.53125,2.475604
-161.773682,595.916748,-683.349609,2.476345
-181.365967,592.529297,-695.251465,2.477085
-119.476318,594.451904,-705.13916,2.477826
-111.51123,589.141846,-683.624268,2.478576
-121.948242,606.170654,-669.525146,2.479307
-137.969971,632.446289,-668.243408,2.480038
-181.091309,610.839844,-670.532227,2.480768
-193.359375,605.34668,-675.018311,2.481556
-146.759033,606.811523,-672.271729,2.482383
-122.2229,613.40332,-662.658691,2.48314
-130.828857,614.501953,-673.187256,2.48388
-115.814209,594.085693,-693.878174,2.484632
-118.835449,593.811035,-702.11792,2.485372
-146.026611,587.036133,-704.040527,2.48611
-165.802002,602.050781,-679.504395,2.486849
-163.421631,615.783691,-664.215088,2.487598
-152.984619,639.770508,-673.00415,2.488337
-149.139404,636.291504,-678.863525,2.489076
-162.597656,634.460449,-679.962158,2.489814
-153.533936,625.12207,-688.751221,2.490555
-138.793945,609.649658,-700.744629,2.491306
-144.012451,621.917725,-703.765869,2.492042
-165.893555,622.741699,-697.265625,2.492773
-167.175293,634.643555,-689.666748,2.493548
-150.238037,648.376465,-671.264648,2.494301
-164.978027,664.215088,-671.630859,2.495034
-185.394287,660.827637,-670.806885,2.495786
-167.907715,652.130127,-672.729492,2.496517
-159.851074,638.397217,-696.716309,2.497248
-166.625977,638.214111,-704.772949,2.497978
-162.689209,638.305664,-711.730957,2.498711
-165.893555,642.883301,-707.336426,2.499441
-145.294189,654.510498,-700.836182,2.500172
-142.547607,657.714844,-689.483643,2.500903
-176.330566,672.363281,-678.955078,2.501637
-188.873291,667.053223,-695.43457,2.502369
-175.598145,661.834717,-693.695068,2.503099
-140.258789,664.855957,-701.202393,2.503834
-147.033691,657.25708,-706.695557,2.50461
-157.653809,661.468506,-705.413818,2.50536
-151.519775,661.2854,-697.723389,2.506102
-141.906738,668.97583,-688.659668,2.506842
-153.076172,674.194336,-685.180664,2.507584
-189.697266,671.539307,-679.412842,2.508333
-164.703369,669.433594,-697.814941,2.509088
-143.920898,634.735107,-700.10376,2.509835
-158.203125,648.925781,-695.159912,2.510626
-177.703857,645.904541,-693.786621,2.511371
-160.308838,664.764404,-691.131592,2.512111
-140.899658,673.828125,-691.040039,2.512851
-135.681152,664.581299,-693.603516,2.513603
-164.611816,662.93335,-677.856445,2.514344
-188.415527,656.890869,-683.074951,2.515084
-181.091309,654.052734,-693.42041,2.515865
-153.717041,661.468506,-693.969727,2.516618
-147.216797,651.580811,-696.899414,2.517359
-158.477783,661.102295,-694.244385,2.5181
-159.851074,661.376953,-681.793213,2.518842
-140.991211,660.369873,-687.927246,2.519595
-136.047363,654.510498,-692.504883,2.520335
-140.258789,662.29248,-681.152344,2.521076
-170.379639,658.447266,-689.208984,2.521816
-162.780762,664.672852,-682.250977,2.522558
-143.096924,667.510986,-690.948486,2.523288
-128.631592,660.644531,-682.250977,2.52402
-142.822266,659.545898,-672.088623,2.524766
-155.731201,657.623291,-680.419922,2.525519
-130.004883,659.820557,-680.69458,2.52626
-130.187988,658.26416,-681.793213,2.527001
-138.061523,663.116455,-687.011719,2.527741
-163.146973,661.743164,-672.088623,2.528492
-138.153076,657.348633,-673.64502,2.529233
-133.300781,661.2854,-686.004639,2.529973
-134.307861,657.165527,-683.990479,2.530714
-139.068604,651.580811,-683.074951,2.531455
-115.539551,662.109375,-677.215576,2.532186
-104.003906,669.799805,-678.68042,2.532916
-111.694336,653.778076,-673.370361,2.533685
-138.702393,644.897461,-672.637939,2.534429
-120.025635,638.580322,-674.835205,2.53517
-129.730225,641.418457,-672.729492,2.53591
-116.455078,651.763916,-673.919678,2.536647
-115.447998,647.460938,-656.066895,2.537378
-106.933594,638.122559,-666.96167,2.538109
-105.560303,619.903564,-676.116943,2.53884
-113.433838,618.713379,-682.342529,2.539571
-124.053955,611.938477,-680.603027,2.540302
-117.828369,617.156982,-680.328369,2.541033
-109.405518,631.622314,-673.64502,2.541763
-140.441895,638.214111,-660.552979,2.542497
-146.118164,630.065918,-665.130615,2.543238
-143.920898,628.509521,-674.835205,2.543978
-131.835938,632.720947,-676.300049,2.544718
-126.342773,635.650635,-667.510986,2.545459
-128.082275,636.566162,-670.440674,2.546199
-119.018555,612.304688,-670.532227,2.546956
-118.652344,628.875732,-669.616699,2.547697
-130.828857,640.411377,-678.039551,2.548482
-161.04126,652.770996,-667.053223,2.549223
-160.675049,644.165039,-664.398193,2.549964
-166.992188,625.579834,-661.2854,2.550704
-150.787354,630.249023,-672.546387,2.551547
-141.448975,633.361816,-694.335938,2.552289
-148.956299,629.150391,-685.089111,2.55303
-142.730713,623.931885,-682.250977,2.55377
-117.004395,620.819092,-678.588867,2.554483
-107.391357,622.558594,-658.538818,2.555214
-114.257812,634.735107,-649.108887,2.555945
-119.20166,640.411377,-657.348633,2.556676
-126.617432,641.876221,-663.665771,2.557431
-145.935059,634.185791,-665.771484,2.558172
-159.301758,623.382568,-674.926758,2.558913
-157.653809,614.135742,-679.6875,2.559653
-160.675049,611.206055,-684.265137,2.560403
-153.35083,626.220703,-686.004639,2.561143
-135.314941,638.763428,-674.01123,2.561883
-128.173828,653.961182,-654.052734,2.562624
-118.103027,656.982422,-665.313721,2.563374
-127.990723,647.55249,-667.144775,2.564115
-156.463623,635.009766,-675.476074,2.564855
-151.062012,639.312744,-670.440674,2.565596
-143.188477,634.82666,-677.032471,2.566342
-146.850586,644.714355,-682.342529,2.567083
-159.759521,639.770508,-679.6875,2.567825
-154.907227,646.728516,-674.285889,2.568565
-150.32959,648.010254,-667.419434,2.569316
-130.92041,660.644531,-663.024902,2.570057
-138.793945,658.538818,-674.377441,2.570795
-135.864258,655.517578,-677.307129,2.571549
-152.984619,654.510498,-683.71582,2.5723
-154.724121,659.912109,-680.328369,2.573041
-152.252197,665.679932,-684.814453,2.573828
-153.991699,669.708252,-684.539795,2.574578
-146.759033,660.461426,-687.835693,2.575364
-151.428223,667.602539,-687.011719,2.576111
-148.681641,664.123535,-690.948486,2.576852
-148.498535,668.97583,-692.504883,2.577607
-131.835938,681.060791,-680.69458,2.578348
-139.709473,683.532715,-684.356689,2.579088
-158.294678,679.321289,-692.230225,2.579855
-181.091309,677.124023,-695.43457,2.580609
-182.281494,664.215088,-707.15332,2.581377
-160.491943,671.99707,-700.561523,2.582124
-129.91333,679.412842,-688.293457,2.582884
-105.377197,682.617188,-688.842773,2.58365
-184.844971,688.018799,-692.41333,2.58439
-209.197998,689.208984,-718.322754,2.58513
-118.652344,676.574707,-721.160889,2.585871
-113.983154,666.595459,-712.738037,2.586621
-166.168213,667.785645,-710.266113,2.587362
-204.803467,682.617188,-705.688477,2.588104
-148.498535,688.934326,-695.068359,2.588845
-93.200684,683.807373,-702.758789,2.589586
-179.260254,688.201904,-693.695068,2.590317
-190.704346,706.237793,-693.695068,2.591049
-123.504639,681.060791,-709.716797,2.591779
-90.454102,677.398682,-711.914062,2.592526
-145.019531,674.926758,-706.878662,2.593256
-204.071045,688.842773,-701.843262,2.593987
-177.154541,694.610596,-700.836182,2.594718
-104.003906,692.230225,-687.103271,2.595475
-116.088867,689.300537,-674.285889,2.596216
-113.342285,690.673828,-673.187256,2.596956
-152.160645,675.65918,-684.173584,2.597697
-166.168213,668.426514,-701.019287,2.598447
-128.814697,661.468506,-704.589844,2.599188
-106.018066,659.545898,-699.920654,2.599928
-160.03418,663.574219,-677.307129,2.600702
-159.210205,670.166016,-667.96875,2.601457
-137.786865,674.835205,-661.834717,2.602198
-114.16626,654.052734,-680.236816,2.602939
-107.940674,645.53833,-681.060791,2.603679
-142.456055,649.108887,-692.596436,2.604431
-149.963379,646.179199,-699.645996,2.605171
-130.645752,650.20752,-692.504883,2.605911
-131.469727,650.57373,-669.525146,2.606651
-144.012451,643.981934,-667.602539,2.607391
-140.075684,650.939941,-690.032959,2.608122
-135.498047,648.742676,-695.343018,2.608853
-110.778809,640.228271,-693.969727,2.609584
-137.695312,639.770508,-678.131104,2.61034
-128.540039,634.185791,-671.081543,2.611081
-132.293701,634.918213,-683.258057,2.611821
-130.371094,641.967773,-689.300537,2.612562
-130.187988,638.946533,-684.448242,2.613185
-133.026123,638.305664,-691.680908,2.613926
-140.808105,629.516602,-691.040039,2.614666
-128.173828,633.728027,-678.771973,2.615406
-127.075195,626.12915,-691.40625,2.616156
-142.730713,630.981445,-696.716309,2.616897
-140.350342,623.840332,-708.80127,2.617637
-128.723145,619.445801,-707.519531,2.618378
-133.209229,621.643066,-705.047607,2.619118
-147.491455,630.523682,-698.730469,2.619849
-167.724609,633.81958,-693.695068,2.620666
-159.851074,622.650146,-702.392578,2.621397
-145.843506,622.467041,-709.16748,2.622168
-149.230957,617.340088,-709.716797,2.622909
-148.864746,611.572266,-720.794678,2.623648
-146.575928,611.206055,-727.844238,2.624389
-138.977051,609.008789,-729.309082,2.625162
-151.245117,623.199463,-725.463867,2.625899
-181.182861,638.397217,-720.062256,2.626654
-176.147461,642.150879,-719.604492,2.627396
-159.942627,650.390625,-715.393066,2.628137
-154.998779,643.341064,-714.660645,2.628877
-149.139404,658.538818,-713.83667,2.629618
-153.625488,655.151367,-723.907471,2.63036
-148.864746,643.890381,-727.111816,2.6311
-142.730713,651.489258,-724.456787,2.631841
-141.174316,667.236328,-708.709717,2.632581
-150.238037,673.278809,-698.913574,2.633336
-157.37915,670.715332,-698.913574,2.634067
-160.03418,662.567139,-707.611084,2.634798
-159.393311,673.828125,-709.442139,2.635529
-157.562256,673.095703,-719.87915,2.636261
-163.879395,667.419434,-715.667725,2.637008
-158.02002,667.053223,-716.491699,2.637745
-157.562256,661.560059,-717.956543,2.638475
-155.914307,669.342041,-710.723877,2.639217
-157.562256,671.813965,-705.505371,2.639948
-154.449463,684.997559,-709.350586,2.640678
-153.717041,685.546875,-708.068848,2.641409
-154.907227,681.060791,-703.765869,2.642139
-159.851074,675.109863,-711.273193,2.642871
-156.646729,669.98291,-721.618652,2.643608
-157.836914,662.93335,-733.428955,2.644357
-142.63916,680.877686,-728.942871,2.645118
-142.547607,690.032959,-725.55542,2.645848
-147.674561,696.899414,-719.87915,2.646579
-162.414551,697.814941,-709.533691,2.647309
-164.337158,701.019287,-707.794189,2.64807
-185.577393,702.575684,-709.075928,2.648811
-152.160645,700.469971,-710.81543,2.649551
-147.949219,699.554443,-718.963623,2.650292
-149.414062,698.0896,-726.104736,2.651034
-137.145996,695.892334,-721.069336,2.651765
-145.385742,693.054199,-729.217529,2.652496
-152.618408,694.702148,-723.724365,2.653226
-146.942139,695.709229,-721.343994,2.653982
-134.674072,697.631836,-720.52002,2.654723
-146.942139,697.174072,-720.245361,2.655467
-142.272949,703.308105,-713.012695,2.656207
-141.63208,697.44873,-720.336914,2.656979
-135.5896,707.702637,-735.168457,2.657739
-132.93457,698.364258,-733.612061,2.658485
-136.962891,703.765869,-723.724365,2.659251
-126.342773,712.646484,-721.5271,2.660022
-121.124268,708.709717,-719.512939,2.660762
-126.068115,716.766357,-721.984863,2.661503
-124.969482,709.899902,-721.5271,2.662243
-126.983643,707.519531,-727.844238,2.662994
-125.427246,715.759277,-726.837158,2.663735
-126.983643,709.991455,-726.745605,2.664475
-132.476807,704.864502,-728.759766,2.665216
-132.476807,711.914062,-729.400635,2.665957
-117.919922,722.53418,-727.661133,2.666688
-116.455078,719.87915,-723.815918,2.667419
-116.363525,717.132568,-716.766357,2.668149
-114.349365,716.674805,-725.738525,2.668905
-113.525391,712.646484,-729.034424,2.669645
-114.898682,711.181641,-727.935791,2.670385
-123.87085,710.723877,-731.048584,2.671126
-125.610352,703.582764,-733.24585,2.671876
-110.321045,705.413818,-726.104736,2.672616
-100.067139,706.787109,-722.167969,2.673356
-101.44043,697.723389,-718.87207,2.674097
-113.983154,699.829102,-713.287354,2.674847
-121.124268,702.575684,-727.844238,2.675588
-115.447998,700.10376,-728.118896,2.676329
-119.750977,686.920166,-732.696533,2.677069
-131.652832,702.392578,-723.449707,2.67781
-125.610352,691.589355,-716.400146,2.678541
-96.038818,698.455811,-708.1604,2.679272
-115.997314,691.680908,-709.533691,2.680003
-114.715576,691.223145,-713.378906,2.680757
-116.821289,683.624268,-717.224121,2.681497
-115.447998,676.849365,-723.175049,2.682237
-106.384277,675.018311,-730.133057,2.682977
-115.17334,680.786133,-718.322754,2.683727
-132.110596,670.623779,-714.385986,2.684468
-133.483887,671.081543,-711.273193,2.685208
-129.455566,673.553467,-711.090088,2.685948
-133.94165,673.736572,-716.308594,2.686688
-136.138916,672.363281,-711.730957,2.687456
-125.610352,669.616699,-712.738037,2.688189
-108.764648,664.764404,-711.82251,2.688935
-119.842529,659.912109,-705.047607,2.689676
-133.209229,659.637451,-700.10376,2.690511
-126.89209,648.55957,-702.758789,2.691252
-128.723145,641.693115,-706.329346,2.692008
-137.878418,640.686035,-696.350098,2.692751
-135.314941,630.249023,-690.124512,2.693491
-129.547119,632.263184,-686.737061,2.694231
-118.927002,625.305176,-685.089111,2.69499
-145.202637,630.523682,-690.032959,2.695733
-147.949219,625.12207,-695.892334,2.696473
-140.533447,622.375488,-688.018799,2.697214
-141.357422,622.283936,-670.257568,2.697954
-154.174805,617.889404,-671.813965,2.698695
-155.731201,620.452881,-673.370361,2.699435
-146.30127,618.804932,-680.145264,2.700175
-148.681641,613.40332,-681.884766,2.70091
-149.047852,596.191406,-689.941406,2.701641
-153.991699,596.008301,-690.032959,2.702383
-147.674561,598.937988,-690.39917,2.703123
-149.230957,602.966309,-688.201904,2.703865
-153.717041,608.551025,-684.082031,2.704605
-167.449951,611.846924,-681.243896,2.705345
-158.752441,611.663818,-671.630859,2.706085
-143.554688,610.015869,-670.440674,2.706825
-145.294189,609.191895,-681.518555,2.707565
-142.822266,615.142822,-680.969238,2.708305
-142.547607,608.093262,-677.307129,2.709045
-134.674072,605.712891,-685.089111,2.709778
-136.962891,615.692139,-676.66626,2.710509
-144.012451,617.248535,-677.215576,2.711239
-143.188477,625.12207,-675.842285,2.711969
-137.878418,627.227783,-678.863525,2.712726
-160.308838,625.396729,-685.089111,2.713473
-141.906738,632.995605,-684.631348,2.714242
-131.286621,639.129639,-689.208984,2.71499
-132.476807,636.016846,-689.300537,2.71575
-128.082275,648.376465,-694.793701,2.716491
-126.89209,677.032471,-685.36377,2.717247
-137.60376,664.215088,-682.70874,2.718003
-144.561768,670.349121,-684.265137,2.718777
-147.491455,665.130615,-694.793701,2.719542
-150.421143,661.651611,-702.484131,2.720285
-140.533447,667.236328,-697.357178,2.721045
-130.371094,670.715332,-701.202393,2.721786
-125.244141,675.842285,-702.392578,2.722526
-138.153076,674.743652,-696.44165,2.723267
-142.730713,676.940918,-699.005127,2.724017
-126.708984,681.427002,-697.44873,2.724758
-129.91333,693.969727,-690.582275,2.725499
-129.638672,695.43457,-693.603516,2.726239
-141.174316,695.068359,-697.814941,2.72699
-138.885498,697.906494,-707.611084,2.727721
-141.448975,675.842285,-711.273193,2.728452
-132.202148,678.588867,-703.308105,2.729182
-128.265381,701.477051,-720.794678,2.729917
-137.420654,678.588867,-714.111328,2.730659
-135.5896,679.046631,-722.53418,2.731399
-141.723633,677.947998,-718.688965,2.73214
-147.583008,686.737061,-709.716797,2.732881
-145.202637,689.483643,-702.11792,2.733621
-128.90625,684.814453,-704.681396,2.734362
-142.364502,674.6521,-727.386475,2.735106
-142.547607,675.842285,-731.506348,2.735848
-146.026611,668.151855,-723.449707,2.736594
-136.138916,671.539307,-714.202881,2.737335
-134.58252,674.560547,-708.251953,2.738077
-145.294189,680.786133,-711.730957,2.738818
-149.32251,682.067871,-709.716797,2.739549
-146.484375,683.441162,-708.068848,2.740279
-158.660889,683.71582,-718.505859,2.74101
-144.470215,682.067871,-720.977783,2.741741
-155.822754,675.567627,-726.013184,2.742496
-155.914307,671.447754,-716.491699,2.743237
-149.688721,680.419922,-713.653564,2.743977
-152.526855,684.539795,-708.984375,2.744718
-159.942627,686.920166,-716.033936,2.74546
-162.139893,680.328369,-705.780029,2.746191
-156.463623,674.377441,-708.1604,2.746922
-156.738281,676.849365,-708.068848,2.747652
-164.154053,671.813965,-716.949463,2.748403
-163.238525,669.708252,-716.949463,2.749171
-156.829834,672.454834,-712.82959,2.749919
-159.0271,673.736572,-717.132568,2.750661
-160.583496,672.729492,-713.104248,2.751402
-178.527832,663.208008,-711.364746,2.752143
-175.598145,669.891357,-719.87915,2.752884
-170.379639,679.962158,-703.857422,2.753625
-169.921875,682.983398,-706.420898,2.754366
-164.337158,679.779053,-706.787109,2.755107
-166.625977,678.68042,-708.618164,2.755848
-158.752441,688.934326,-716.949463,2.756588
-152.984619,692.321777,-714.935303,2.757319
-160.03418,688.751221,-711.090088,2.758049
-162.597656,701.019287,-717.407227,2.75878
-159.851074,707.794189,-711.273193,2.759627
-171.661377,708.892822,-705.963135,2.760411
