ACC_X,ACC_Y,ACC_Z,Time
181.091309,969.635010,-25.268555,0.000138
180.084229,966.705322,-18.859863,0.000891
183.013916,968.994141,-24.902344,0.001632
180.541992,970.458984,-23.712158,0.002373
180.725098,971.008301,-21.240234,0.003139
179.534912,976.318359,-22.521973,0.003879
181.915283,971.374512,-22.979736,0.004620
181.182861,971.374512,-15.838623,0.005360
183.563232,973.205566,-17.395020,0.006111
184.844971,978.973389,-16.479492,0.006851
182.189941,976.318359,-17.120361,0.007592
185.485840,972.473145,-19.683838,0.008331
176.696777,972.198486,-20.690918,0.009082
176.422119,972.747803,-19.775391,0.009822
182.189941,971.649170,-13.366699,0.010562
183.654785,977.600098,-14.739990,0.011302
178.527832,975.219727,-20.507812,0.012052
182.006836,975.585938,-15.472412,0.012792
176.055908,976.959229,-14.556885,0.013532
173.675537,975.769043,-21.789551,0.014272
181.457520,979.614258,-19.592285,0.015024
179.809570,972.473145,-20.507812,0.015764
176.605225,976.867676,-15.930176,0.016504
171.295166,973.205566,-16.021729,0.017244
171.569824,973.022461,-18.218994,0.017991
171.478271,982.910156,-15.289307,0.018731
176.055908,981.445312,-21.057129,0.019472
175.781250,977.325439,-21.148682,0.020211
173.492432,985.931396,-12.451172,0.020958
173.950195,973.663330,-16.571045,0.021713
169.372559,974.945068,-22.796631,0.022453
173.034668,978.698730,-12.542725,0.023193
176.239014,980.895996,-19.866943,0.023942
173.217773,982.543945,-28.381348,0.024679
166.076660,978.332520,-19.317627,0.025431
169.921875,979.339600,-18.676758,0.026172
171.661377,983.917236,-19.500732,0.026920
172.943115,978.790283,-21.514893,0.027662
171.020508,977.783203,-22.338867,0.028400
176.055908,985.382080,-19.775391,0.029150
170.288086,976.318359,-27.008057,0.029900
179.626465,971.740723,-23.803711,0.030640
177.062988,975.769043,-26.367188,0.031380
173.583984,974.578857,-27.923584,0.032120
163.055420,976.684570,-28.839111,0.032870
175.689697,974.395752,-39.459229,0.033611
172.851562,974.853516,-26.641846,0.034352
169.555664,966.064453,-35.522461,0.035093
168.548584,964.691162,-35.797119,0.035842
172.851562,965.515137,-38.818359,0.036596
175.781250,965.057373,-40.740967,0.037372
176.147461,958.831787,-40.740967,0.038131
187.133789,967.163086,-30.395508,0.038914
182.830811,973.754883,-34.423828,0.039672
171.569824,962.493896,-30.303955,0.040453
175.872803,965.881348,-32.775879,0.041210
179.351807,975.036621,-23.529053,0.041969
180.725098,974.029541,-28.472900,0.042727
176.055908,974.487305,-22.705078,0.043515
178.710938,977.325439,-21.423340,0.044276
178.161621,968.811035,-24.169922,0.045027
186.035156,980.621338,-20.965576,0.045769
186.401367,979.522705,-19.042969,0.046534
177.337646,979.705811,-21.514893,0.047266
176.239014,972.747803,-27.465820,0.047997
174.224854,973.388672,-24.810791,0.048728
182.830811,981.628418,-23.895264,0.049488
179.351807,982.818604,-20.782471,0.050229
188.781738,981.262207,-27.923584,0.050971
189.331055,981.719971,-21.423340,0.051711
188.232422,975.860596,-20.599365,0.052463
174.224854,979.339600,-18.951416,0.053204
176.788330,979.431152,-24.444580,0.053945
176.055908,979.888916,-1.831055,0.054686
175.140381,977.691650,-21.240234,0.055435
179.809570,981.719971,-23.529053,0.056177
182.006836,977.142334,-15.380859,0.056917
173.950195,981.353760,-13.000488,0.057658
176.788330,989.227295,-14.190674,0.058399
176.147461,977.050781,-16.204834,0.059131
174.682617,984.466553,-16.387939,0.059862
172.576904,982.086182,-19.226074,0.060593
174.316406,979.064941,-15.747070,0.061347
173.583984,981.445312,-17.211914,0.062088
177.429199,974.121094,-21.148682,0.062827
182.373047,979.156494,-12.176514,0.063567
175.964355,976.684570,-10.986328,0.064317
180.450439,978.149414,-6.866455,0.065057
189.788818,988.861084,-16.937256,0.065796
180.633545,980.255127,-8.880615,0.066536
185.485840,972.015381,-21.423340,0.067283
180.267334,973.114014,-16.754150,0.068021
182.830811,974.670410,-21.789551,0.068758
205.078125,975.402832,-14.373779,0.069545
187.591553,974.670410,-12.084961,0.070298
190.521240,981.536865,-21.972656,0.071040
182.647705,974.670410,-18.768311,0.071780
187.225342,979.248047,-18.310547,0.072521
182.464600,971.466064,-23.529053,0.073381
179.168701,971.649170,-23.803711,0.074122
179.809570,968.353271,-20.050049,0.074863
179.260254,963.867188,-22.247314,0.075603
186.218262,971.649170,-19.592285,0.076354
177.978516,962.768555,-21.514893,0.077096
184.844971,956.359863,-23.712158,0.077837
179.443359,970.184326,-43.304443,0.078578
188.598633,953.979492,-23.071289,0.079329
189.788818,937.683105,-23.162842,0.080070
186.218262,962.493896,-22.430420,0.080811
185.302734,963.226318,-26.092529,0.081552
187.042236,960.296631,-24.353027,0.082305
185.852051,953.063965,-27.008057,0.083046
189.239502,954.711914,-32.684326,0.083786
186.584473,954.711914,-26.458740,0.084527
187.225342,963.317871,-25.817871,0.085275
189.880371,955.169678,-33.966064,0.086016
186.492920,947.753906,-32.684326,0.086756
188.690186,959.106445,-38.360596,0.087497
188.232422,953.796387,-35.064697,0.088248
192.352295,960.113525,-32.043457,0.088988
193.542480,983.276367,-33.508301,0.089729
190.429688,963.958740,-33.233643,0.090470
187.408447,961.944580,-17.852783,0.091220
193.267822,972.839355,-15.655518,0.091962
182.281494,971.191406,-26.184082,0.092703
189.605713,974.029541,-29.022217,0.093444
200.408936,976.043701,-27.648926,0.094194
181.915283,974.487305,-29.113770,0.094935
188.323975,973.388672,-21.423340,0.095676
190.429688,967.712402,-26.824951,0.096417
165.252686,976.318359,-33.416748,0.097168
184.753418,972.747803,-29.022217,0.097909
187.316895,977.966309,-26.916504,0.098650
178.070068,977.142334,-21.697998,0.099391
185.577393,975.860596,-20.416260,0.100141
187.042236,977.874756,-27.008057,0.100882
188.415527,983.551025,-22.705078,0.101623
185.852051,978.240967,-21.057129,0.102364
177.246094,984.100342,-22.888184,0.103114
186.126709,977.691650,-22.796631,0.103855
187.957764,981.994629,-32.501221,0.104596
183.563232,973.937988,-21.148682,0.105336
188.598633,985.565186,-18.402100,0.106087
175.140381,985.565186,-21.514893,0.106828
179.260254,974.304199,-19.775391,0.107569
175.781250,977.874756,-24.902344,0.108310
177.429199,998.016357,-21.972656,0.109061
167.266846,980.438232,-19.500732,0.109802
168.640137,980.712891,-27.648926,0.110546
173.217773,983.001709,-25.268555,0.111310
175.872803,984.375000,-24.078369,0.112084
172.851562,981.628418,-26.000977,0.112830
172.027588,987.304688,-29.479980,0.113627
165.527344,987.213135,-36.895752,0.114402
164.703369,981.719971,-40.100098,0.115146
167.633057,983.825684,-26.733398,0.115890
166.992188,985.198975,-29.388428,0.116633
164.245605,986.114502,-27.832031,0.117374
167.083740,968.170166,-26.641846,0.118116
167.083740,984.558105,-24.169922,0.118857
162.506104,989.776611,-24.261475,0.119598
163.879395,984.924316,-30.853271,0.120339
160.125732,989.776611,-29.571533,0.121080
165.161133,988.769531,-35.156250,0.121821
164.520264,977.874756,-39.184570,0.122562
164.978027,977.325439,-32.958984,0.123304
162.231445,980.163574,-25.543213,0.124044
162.689209,992.980957,-22.521973,0.124783
157.379150,988.128662,-21.697998,0.125523
164.062500,990.966797,-31.585693,0.126264
155.090332,982.269287,-30.395508,0.127004
161.499023,993.438721,-28.289795,0.127743
157.287598,985.473633,-24.353027,0.128482
187.316895,985.656738,-21.697998,0.129221
163.330078,981.262207,-24.810791,0.129960
160.125732,980.072021,-27.740479,0.130700
164.611816,980.895996,-26.733398,0.131439
158.386230,982.177734,-27.740479,0.132179
157.745361,978.698730,-32.867432,0.132919
162.780762,987.121582,-4.394531,0.133658
162.048340,984.649658,-21.331787,0.134397
159.027100,975.952148,-32.409668,0.135137
164.886475,979.248047,-28.564453,0.135877
166.076660,973.205566,-20.233154,0.136616
163.421631,968.811035,-29.388428,0.137355
170.562744,979.888916,-25.909424,0.138095
163.879395,971.374512,-28.015137,0.138834
166.809082,972.747803,-34.698486,0.139574
175.323486,980.255127,-26.275635,0.140313
169.006348,979.705811,-25.177002,0.141054
171.386719,980.346680,-24.444580,0.141793
177.154541,975.311279,-35.430908,0.142532
176.055908,972.381592,-27.282715,0.143271
171.112061,972.290039,-25.817871,0.144012
170.928955,970.825195,-23.254395,0.144752
177.886963,967.620850,-27.099609,0.145580
181.915283,973.297119,-20.782471,0.146320
177.246094,973.114014,-19.409180,0.147060
176.971436,968.536377,-24.078369,0.147800
174.865723,971.282959,-29.388428,0.148539
167.541504,960.479736,-27.099609,0.149279
177.520752,974.395752,-23.437500,0.150031
181.091309,971.832275,-24.078369,0.150771
180.633545,970.001221,-26.641846,0.151510
184.387207,969.909668,-25.543213,0.152250
188.232422,969.909668,-43.762207,0.152989
176.330566,964.233398,-32.684326,0.153729
178.070068,968.170166,-19.226074,0.154469
172.485352,969.818115,-21.606445,0.155208
171.112061,966.613770,-26.092529,0.155947
174.316406,965.789795,-17.120361,0.156687
180.816650,974.212646,-26.275635,0.157426
184.661865,971.191406,-20.324707,0.158165
185.852051,974.304199,-15.563965,0.158913
176.330566,973.846436,-24.444580,0.159654
175.506592,967.529297,-20.233154,0.160393
178.344727,975.769043,-16.571045,0.161133
179.626465,975.128174,-16.479492,0.161873
186.126709,974.212646,-19.042969,0.162613
183.105469,967.803955,-25.360107,0.163352
183.380127,973.571777,-23.712158,0.164091
177.886963,969.635010,-21.057129,0.164831
181.457520,972.839355,-20.690918,0.165570
175.689697,971.466064,-17.944336,0.166339
180.084229,969.268799,-19.500732,0.167168
179.351807,965.881348,-34.057617,0.167919
183.746338,963.226318,-26.184082,0.168659
178.894043,964.416504,-28.656006,0.169398
176.330566,964.050293,-29.479980,0.170139
177.886963,972.290039,-18.951416,0.170879
178.894043,978.881836,-24.078369,0.171618
171.844482,966.247559,-26.092529,0.172357
175.964355,968.627930,-24.353027,0.173097
175.598145,970.092773,-1.922607,0.173839
176.239014,969.177246,-17.120361,0.174579
179.077148,966.064453,-24.536133,0.175318
180.908203,961.029053,-22.430420,0.176060
184.204102,960.754395,-29.022217,0.176799
176.971436,957.733154,-19.409180,0.177539
175.689697,970.916748,-23.254395,0.178279
180.267334,971.832275,-19.683838,0.179020
178.619385,969.635010,-16.479492,0.179760
182.830811,966.430664,-20.874023,0.180500
179.443359,970.825195,-15.289307,0.181241
177.429199,967.712402,-16.021729,0.181984
164.886475,967.895508,-22.247314,0.182725
178.344727,973.297119,-13.641357,0.183465
177.886963,973.663330,-22.430420,0.184205
178.527832,975.128174,-19.134521,0.184945
177.154541,965.240479,-23.254395,0.185684
179.809570,972.015381,-23.529053,0.186425
174.682617,976.409912,-18.859863,0.187170
177.429199,967.620850,-20.782471,0.187932
177.886963,970.642090,-16.021729,0.188675
187.500000,973.846436,-17.211914,0.189415
185.394287,975.128174,-18.859863,0.190154
184.387207,977.508545,-12.542725,0.190894
181.091309,970.001221,-16.845703,0.191634
174.774170,973.480225,-25.085449,0.192373
177.520752,977.874756,-17.669678,0.193113
181.365967,970.550537,-18.127441,0.193866
171.478271,983.276367,-19.409180,0.194605
183.929443,985.931396,-13.000488,0.195344
175.964355,975.311279,-13.000488,0.196082
185.211182,980.163574,-14.373779,0.196821
175.140381,977.874756,-8.697510,0.197561
178.161621,974.761963,-12.176514,0.198300
174.499512,974.304199,-15.838623,0.199040
181.457520,970.642090,-20.599365,0.199780
181.182861,977.325439,-12.725830,0.200520
178.070068,976.318359,-12.451172,0.201259
176.330566,972.930908,-13.000488,0.201998
179.626465,974.853516,-13.183594,0.202738
187.591553,974.578857,-10.986328,0.203477
182.006836,977.325439,-17.028809,0.204216
177.886963,971.099854,-19.592285,0.204956
174.957275,971.649170,-15.747070,0.205697
169.281006,966.156006,-20.690918,0.206436
173.492432,967.529297,-18.676758,0.207176
179.718018,974.395752,-13.366699,0.207915
179.718018,962.768555,-22.338867,0.208655
176.788330,973.663330,-13.916016,0.209395
182.464600,974.121094,-35.980225,0.210134
181.549072,969.909668,-24.536133,0.210874
177.520752,971.649170,-18.676758,0.211614
176.239014,968.078613,-23.345947,0.212354
172.576904,961.853027,-17.120361,0.213094
172.851562,963.409424,-21.606445,0.213833
164.886475,966.613770,-16.479492,0.214573
167.999268,964.782715,-21.423340,0.215313
177.246094,965.423584,-21.423340,0.216052
177.520752,964.874268,-27.008057,0.216792
173.583984,942.443848,-21.606445,0.217531
175.598145,966.522217,-27.465820,0.218387
167.907715,963.775635,-25.909424,0.219127
174.041748,957.275391,-30.303955,0.219867
170.379639,956.268311,-26.641846,0.220607
170.928955,963.500977,-31.585693,0.221346
171.936035,963.134766,-45.867920,0.222085
169.372559,972.198486,-21.423340,0.222825
175.781250,963.867188,-33.050537,0.223575
163.696289,959.197998,-29.754639,0.224315
170.471191,964.782715,-30.761719,0.225054
170.104980,958.374023,-23.437500,0.225793
164.886475,961.486816,-26.000977,0.226541
167.083740,960.205078,-21.972656,0.227281
166.351318,960.937500,-31.402588,0.228021
164.611816,960.296631,-27.191162,0.228760
164.978027,964.050293,-27.557373,0.229500
168.457031,960.845947,-25.817871,0.230239
142.456055,961.853027,-29.113770,0.230979
167.266846,953.979492,-30.578613,0.231718
167.724609,954.162598,-28.198242,0.232457
163.055420,959.381104,-38.635254,0.233197
167.266846,961.669922,-29.846191,0.233936
167.266846,958.099365,-32.043457,0.234675
160.034180,963.134766,-27.648926,0.235424
160.400391,960.296631,-30.120850,0.236164
154.083252,961.669922,-30.761719,0.236903
162.322998,968.719482,-22.521973,0.237660
159.576416,958.282471,-27.282715,0.238464
165.161133,967.071533,-32.409668,0.239222
164.428711,959.930420,-23.437500,0.239962
160.858154,960.662842,-27.557373,0.240724
159.484863,960.937500,-27.465820,0.241463
163.238525,963.226318,-34.057617,0.242202
161.041260,970.367432,-26.550293,0.242941
161.224365,965.057373,-30.303955,0.243689
159.118652,970.184326,-29.937744,0.244429
150.421143,966.247559,-37.536621,0.245169
150.238037,970.367432,-31.036377,0.245908
153.625488,962.768555,-31.860352,0.246656
154.083252,968.536377,-30.578613,0.247396
155.456543,973.205566,-25.085449,0.248136
151.702881,969.635010,-33.966064,0.248875
150.512695,972.747803,-27.557373,0.249615
154.541016,973.663330,-26.824951,0.250354
153.350830,969.818115,-34.240723,0.251094
149.414062,971.374512,-20.050049,0.251833
144.287109,966.705322,-25.085449,0.252574
154.174805,977.325439,-30.761719,0.253313
152.343750,967.987061,-23.986816,0.254053
152.709961,967.803955,-18.676758,0.254796
153.717041,966.979980,-23.986816,0.255550
152.893066,972.930908,-28.564453,0.256290
146.118164,976.593018,-29.388428,0.257029
150.878906,979.705811,-20.050049,0.257769
144.836426,978.790283,-22.521973,0.258519
151.153564,971.008301,-23.254395,0.259259
154.083252,975.585938,-22.979736,0.259999
143.463135,974.670410,-21.606445,0.260738
147.674561,974.121094,-22.979736,0.261478
146.118164,975.952148,-28.381348,0.262222
144.287109,972.015381,-22.613525,0.262967
148.864746,978.424072,-23.712158,0.263710
147.949219,980.621338,-16.296387,0.264477
142.364502,974.945068,-23.803711,0.265219
144.195557,982.452393,-23.437500,0.265972
148.590088,972.015381,-14.007568,0.266717
147.216797,972.381592,-21.331787,0.267456
152.709961,976.043701,-14.831543,0.268196
150.146484,978.149414,-25.360107,0.268935
145.935059,975.677490,-24.169922,0.269674
146.392822,968.902588,-22.064209,0.270415
149.963379,973.297119,-22.796631,0.271153
153.717041,978.973389,-24.902344,0.271890
150.878906,967.346191,-28.381348,0.272654
157.196045,976.318359,-25.451660,0.273419
152.252197,962.036133,-22.979736,0.274160
151.519775,967.712402,-27.832031,0.274901
164.245605,969.360352,-31.860352,0.275642
164.520264,965.881348,-23.071289,0.276393
162.963867,967.895508,-19.226074,0.277134
162.048340,966.613770,-13.366699,0.277875
153.625488,969.360352,-21.240234,0.278617
159.667969,958.557129,-16.113281,0.279368
163.970947,984.100342,-26.367188,0.280110
162.048340,961.578369,-30.395508,0.280851
164.428711,967.712402,-19.042969,0.281592
169.372559,959.930420,-20.416260,0.282347
168.914795,965.423584,-18.218994,0.283089
171.752930,958.923340,-25.451660,0.283830
169.921875,969.635010,-18.859863,0.284571
169.189453,969.543457,-23.895264,0.285322
164.886475,965.332031,-21.240234,0.286063
162.963867,967.437744,-24.078369,0.286804
167.083740,966.430664,-21.057129,0.287545
175.048828,966.430664,-44.952393,0.288296
169.647217,974.304199,-19.226074,0.289037
173.858643,971.374512,-19.409180,0.289778
174.224854,967.254639,-3.936768,0.290607
179.260254,963.958740,-26.000977,0.291360
178.894043,965.515137,-28.198242,0.292101
168.365479,964.141846,-28.198242,0.292842
170.196533,968.536377,-21.972656,0.293583
172.668457,965.332031,-19.409180,0.294334
180.450439,971.466064,-24.353027,0.295075
176.788330,969.543457,-16.571045,0.295817
185.302734,973.205566,-19.592285,0.296558
180.908203,978.607178,-18.585205,0.297309
180.267334,969.360352,-17.303467,0.298051
176.422119,971.099854,-14.465332,0.298792
182.189941,967.163086,-18.402100,0.299533
182.098389,966.064453,-14.373779,0.300284
189.056396,978.881836,-16.479492,0.301025
177.337646,974.304199,-15.655518,0.301766
184.020996,974.304199,-18.859863,0.302507
191.711426,979.156494,-18.127441,0.303258
181.182861,975.677490,-16.021729,0.303999
188.415527,972.381592,-19.866943,0.304740
194.458008,975.952148,-15.289307,0.305481
188.415527,970.642090,-22.613525,0.306232
186.767578,968.078613,-18.402100,0.306973
185.028076,972.290039,-14.648438,0.307714
195.556641,977.416992,-15.838623,0.308455
193.542480,967.987061,-20.050049,0.309208
188.140869,966.064453,-18.951416,0.309950
191.619873,971.099854,-14.831543,0.310724
195.739746,973.663330,-15.106201,0.311510
190.063477,983.001709,-5.310059,0.312259
192.718506,982.543945,-6.042480,0.312999
195.007324,986.022949,-5.401611,0.313738
192.260742,969.635010,-11.901855,0.314490
196.380615,982.086182,-10.620117,0.315230
164.428711,979.888916,-5.676270,0.315969
184.844971,976.684570,-13.183594,0.316708
194.274902,975.769043,-9.704590,0.317458
191.619873,977.325439,-12.725830,0.318198
184.753418,979.888916,-9.338379,0.318937
189.147949,975.677490,-8.422852,0.319677
191.711426,984.832764,-6.134033,0.320426
181.640625,972.930908,-12.725830,0.321165
184.936523,982.177734,-13.000488,0.321904
181.091309,977.325439,-8.972168,0.322644
180.725098,971.099854,-15.930176,0.323392
189.788818,975.219727,-11.169434,0.324132
187.683105,978.881836,-8.697510,0.324871
182.281494,972.930908,-15.472412,0.325611
185.577393,969.635010,-12.359619,0.326354
184.020996,969.726562,-25.817871,0.327096
190.063477,974.670410,-15.747070,0.327836
179.992676,972.473145,-11.077881,0.328576
185.668945,969.635010,-23.803711,0.329325
178.710938,971.923828,-1.831055,0.330065
186.218262,967.254639,-12.817383,0.330804
190.612793,964.050293,-21.331787,0.331544
185.943604,962.860107,-18.493652,0.332294
180.450439,970.825195,-15.380859,0.333034
177.429199,963.226318,-16.571045,0.333773
185.485840,964.965820,-19.500732,0.334513
180.725098,958.923340,-17.944336,0.335260
173.583984,960.479736,-26.641846,0.336000
179.260254,954.620361,-29.388428,0.336740
183.013916,940.887451,-26.458740,0.337479
180.725098,958.648682,-33.050537,0.338228
175.872803,961.578369,-25.085449,0.338967
173.217773,950.958252,-29.296875,0.339707
182.739258,951.049805,-24.627686,0.340446
175.598145,949.859619,-22.888184,0.341186
175.598145,956.268311,-24.902344,0.341927
172.668457,956.268311,-23.620605,0.342667
184.112549,964.324951,-13.549805,0.343406
178.161621,960.205078,-21.606445,0.344146
178.253174,956.085205,-21.423340,0.344885
174.407959,958.099365,-25.451660,0.345625
176.605225,962.127686,-29.571533,0.346364
172.851562,950.408936,-23.895264,0.347104
177.612305,950.958252,-27.465820,0.347844
179.077148,953.063965,-22.979736,0.348583
174.957275,950.775146,-31.311035,0.349322
170.288086,954.345703,-21.240234,0.350071
173.767090,958.374023,-21.789551,0.350811
179.626465,955.993652,-27.465820,0.351550
185.119629,956.176758,-25.543213,0.352290
170.562744,950.500488,-2.929688,0.353029
171.020508,950.225830,-18.493652,0.353769
179.351807,939.056396,-19.317627,0.354509
182.281494,966.522217,-21.331787,0.355248
170.654297,954.803467,-20.965576,0.355988
173.858643,960.205078,-15.563965,0.356728
172.943115,954.528809,-17.852783,0.357468
171.478271,961.212158,-24.169922,0.358207
175.781250,961.120605,-23.986816,0.358947
175.872803,959.197998,-26.550293,0.359687
168.182373,957.092285,-15.563965,0.360426
167.633057,960.937500,-12.908936,0.361166
185.211182,957.824707,-19.866943,0.361906
168.914795,966.339111,-18.035889,0.362646
163.238525,956.726074,-22.613525,0.363471
169.738770,966.705322,-21.423340,0.364211
167.907715,965.423584,-27.557373,0.364951
172.119141,967.712402,-28.381348,0.365691
171.386719,970.916748,-27.282715,0.366431
176.513672,961.395264,-24.078369,0.367170
174.957275,971.374512,-19.500732,0.367920
170.379639,971.557617,-19.042969,0.368660
174.774170,966.796875,-19.042969,0.369399
167.999268,971.923828,-25.177002,0.370139
173.767090,965.606689,-24.169922,0.370879
173.675537,965.789795,-22.064209,0.371618
168.457031,972.381592,-44.769287,0.372357
169.097900,967.437744,-29.022217,0.373097
171.478271,965.423584,-18.676758,0.373836
165.161133,967.987061,-19.500732,0.374576
171.569824,965.423584,-25.360107,0.375315
164.611816,969.085693,-31.311035,0.376054
171.569824,971.740723,-14.373779,0.376795
164.886475,971.099854,-26.916504,0.377552
143.005371,967.803955,-24.261475,0.378288
173.400879,968.261719,-33.416748,0.379019
160.308838,969.360352,-25.085449,0.379777
165.252686,966.247559,-22.064209,0.380508
162.231445,965.423584,-26.092529,0.381239
170.654297,967.620850,-24.078369,0.381972
169.921875,970.733643,-18.402100,0.382746
160.858154,962.860107,-28.106689,0.383488
164.154053,959.655762,-22.247314,0.384247
165.161133,967.895508,-25.177002,0.385038
165.802002,962.860107,-29.663086,0.385782
170.471191,974.029541,-23.529053,0.386515
167.907715,961.120605,-19.683838,0.387260
167.999268,974.761963,-15.289307,0.387997
166.259766,966.888428,-27.557373,0.388730
167.816162,963.500977,-31.860352,0.389479
178.070068,971.282959,-22.430420,0.390274
169.921875,966.064453,-23.071289,0.391019
167.083740,960.388184,-27.465820,0.391755
169.189453,957.458496,-30.303955,0.392486
171.112061,984.100342,-29.388428,0.393225
170.562744,961.120605,-30.303955,0.393967
171.936035,958.740234,-29.571533,0.394707
171.844482,965.332031,-31.127930,0.395447
172.851562,966.522217,-32.135010,0.396187
177.062988,971.832275,-29.754639,0.396927
180.633545,970.184326,-27.465820,0.397668
176.055908,971.557617,-23.071289,0.398408
172.027588,965.972900,-29.571533,0.399150
177.246094,971.282959,-25.543213,0.399891
169.921875,972.473145,-26.367188,0.400631
165.618896,967.803955,-23.345947,0.401371
171.203613,960.021973,-31.860352,0.402110
172.668457,971.099854,-29.571533,0.402848
175.872803,970.184326,-26.000977,0.403600
177.612305,972.747803,-28.839111,0.404346
178.344727,965.148926,-30.761719,0.405087
179.992676,978.881836,-24.536133,0.405830
181.823730,972.015381,-27.282715,0.406570
181.915283,962.585449,-20.507812,0.407310
175.598145,974.395752,-33.508301,0.408066
167.175293,967.620850,-26.916504,0.408806
171.844482,977.783203,-26.550293,0.409547
170.196533,977.233887,-29.571533,0.410286
174.041748,979.339600,-22.064209,0.411035
172.393799,972.747803,-21.789551,0.411782
178.161621,978.698730,-22.979736,0.412569
178.619385,969.818115,-25.726318,0.413352
176.147461,964.782715,-26.092529,0.414101
177.795410,986.297607,-22.979736,0.414847
170.928955,979.980469,-15.747070,0.415592
175.415039,979.797363,-20.874023,0.416350
168.457031,981.628418,-22.979736,0.417096
177.154541,1003.051758,-21.240234,0.417841
175.872803,984.008789,-27.740479,0.418587
176.879883,977.691650,-25.634766,0.419332
181.823730,980.987549,-44.677734,0.420068
175.140381,978.057861,-18.585205,0.420861
179.534912,980.987549,-22.705078,0.421597
177.612305,978.149414,-25.085449,0.422357
171.752930,980.895996,-31.219482,0.423103
177.062988,995.910645,-22.247314,0.423848
181.732178,992.156982,-25.634766,0.424593
172.943115,977.142334,-23.620605,0.425348
172.760010,983.825684,-17.211914,0.426092
176.055908,986.206055,-21.789551,0.426836
175.048828,979.614258,-22.888184,0.427581
175.048828,980.804443,-24.719238,0.428326
171.020508,982.543945,-23.437500,0.429061
172.943115,981.353760,-24.810791,0.429795
167.541504,976.501465,-28.106689,0.430530
171.661377,976.135254,-28.381348,0.431289
169.464111,975.128174,-30.212402,0.432034
172.760010,979.156494,-30.303955,0.432779
167.175293,978.424072,-24.810791,0.433523
171.020508,979.888916,-18.585205,0.434278
170.013428,982.360840,-30.120850,0.435023
164.520264,976.684570,-26.184082,0.435769
165.618896,968.444824,-27.557373,0.436610
163.146973,980.072021,-26.092529,0.437371
169.921875,975.585938,-23.803711,0.438117
177.062988,972.106934,-25.085449,0.438861
173.675537,981.079102,-25.543213,0.439607
171.295166,976.318359,-27.923584,0.440232
167.816162,978.149414,-24.169922,0.440967
170.471191,972.747803,-29.022217,0.441702
171.661377,976.684570,-27.282715,0.442437
174.133301,980.621338,-28.930664,0.443206
168.823242,974.304199,-25.634766,0.443950
171.752930,975.952148,-19.409180,0.444693
171.386719,972.198486,-27.191162,0.445436
176.971436,975.036621,-26.000977,0.446191
166.900635,975.128174,-23.895264,0.446934
167.266846,977.325439,-27.008057,0.447678
185.668945,980.163574,-20.416260,0.448421
168.457031,977.966309,-19.683838,0.449172
177.429199,969.635010,-18.493652,0.449915
172.760010,978.698730,-18.951416,0.450659
176.971436,967.803955,-17.120361,0.451402
171.295166,977.325439,-18.310547,0.452153
175.781250,976.318359,-15.380859,0.452893
174.591064,971.466064,-19.317627,0.453634
178.161621,973.022461,-25.451660,0.454429
182.373047,972.930908,-29.296875,0.455207
183.288574,975.769043,-25.268555,0.456008
177.062988,975.494385,-18.310547,0.456760
179.077148,968.811035,-14.282227,0.457506
181.549072,979.339600,-16.479492,0.458251
179.718018,976.318359,-12.176514,0.458995
178.619385,975.311279,-19.042969,0.459740
177.429199,976.776123,-19.775391,0.460486
177.062988,969.543457,-19.134521,0.461230
180.541992,966.796875,-19.042969,0.461975
180.084229,976.226807,-11.901855,0.462719
183.563232,968.536377,-24.261475,0.463479
191.162109,970.733643,-26.916504,0.464214
179.992676,974.212646,-15.930176,0.464948
181.549072,974.395752,-16.937256,0.465682
187.591553,977.783203,-18.859863,0.466417
208.282471,973.022461,-32.409668,0.467177
190.338135,973.480225,-22.705078,0.467922
186.492920,968.536377,-12.451172,0.468666
186.950684,973.754883,-17.120361,0.469411
181.365967,966.430664,-20.233154,0.470164
166.900635,964.324951,-25.085449,0.470910
194.274902,969.085693,-17.303467,0.471655
186.584473,975.128174,-13.183594,0.472400
185.760498,978.698730,-16.479492,0.473154
196.289062,975.219727,-19.042969,0.473901
193.908691,965.606689,-22.979736,0.474646
191.436768,963.684082,-22.888184,0.475391
193.542480,971.008301,-24.078369,0.476138
187.500000,970.458984,-22.705078,0.476872
192.993164,961.761475,-26.550293,0.477607
195.922852,966.522217,-22.521973,0.478341
195.556641,971.740723,-17.395020,0.479113
193.634033,962.036133,-22.796631,0.479857
196.838379,974.121094,-25.085449,0.480600
196.105957,975.311279,-15.655518,0.481344
195.922852,971.099854,-17.578125,0.482097
199.127197,966.705322,-17.852783,0.482841
194.549561,966.796875,-19.317627,0.483585
192.077637,972.564697,-19.317627,0.484329
187.957764,971.099854,-25.085449,0.485082
191.528320,971.191406,-18.218994,0.485826
188.049316,968.627930,-1.098633,0.486569
193.542480,965.972900,-20.416260,0.487312
189.880371,978.057861,-24.169922,0.488147
188.507080,976.867676,-20.599365,0.489047
191.802979,978.790283,-27.099609,0.489810
188.415527,967.895508,-23.345947,0.490555
166.900635,974.304199,-18.402100,0.491300
184.844971,971.282959,-25.909424,0.491977
185.302734,975.311279,-21.881104,0.492739
184.570312,982.360840,-24.536133,0.493485
187.500000,977.966309,-3.845215,0.494229
179.901123,977.691650,-18.859863,0.494974
177.154541,981.994629,-16.204834,0.495728
182.647705,981.445312,-20.599365,0.496474
179.901123,985.198975,-18.310547,0.497219
181.091309,981.353760,-13.824463,0.497963
176.605225,973.846436,-15.472412,0.498708
177.978516,983.184814,-17.486572,0.499442
173.767090,978.698730,-29.388428,0.500176
174.591064,979.431152,-26.184082,0.500910
171.752930,979.248047,-2.838135,0.501668
178.619385,982.727051,-19.775391,0.502413
173.309326,981.445312,-19.042969,0.503157
168.823242,981.811523,-23.712158,0.503902
166.351318,977.874756,-18.585205,0.504656
169.189453,982.177734,-22.521973,0.505401
164.978027,981.262207,-16.571045,0.506145
170.928955,974.761963,-28.656006,0.506890
171.203613,975.494385,-30.029297,0.507644
168.273926,981.170654,-17.852783,0.508388
168.365479,977.691650,-24.261475,0.509223
166.442871,970.275879,-25.177002,0.509969
163.879395,981.262207,-25.268555,0.510715
172.210693,979.705811,-42.297363,0.511450
171.569824,981.903076,-32.226562,0.512184
168.823242,975.311279,-25.451660,0.512919
160.858154,970.367432,-30.120850,0.513685
163.330078,972.015381,-30.944824,0.514429
160.217285,976.501465,-34.332275,0.515172
163.238525,976.226807,-33.599854,0.515915
166.351318,975.036621,-28.747559,0.516668
165.161133,972.198486,-35.339355,0.517412
165.893555,977.874756,-29.022217,0.518155
165.985107,974.578857,-25.817871,0.518898
160.308838,971.191406,-33.050537,0.519643
160.858154,979.248047,-22.521973,0.520378
163.421631,980.804443,-22.979736,0.521113
171.478271,976.593018,-30.761719,0.521847
166.992188,976.318359,-33.233643,0.522608
160.583496,971.923828,-26.916504,0.523352
162.231445,970.458984,-32.958984,0.524096
163.696289,979.522705,-24.261475,0.524839
162.414551,973.663330,-26.275635,0.525583
166.076660,977.508545,-36.437988,0.526327
168.823242,977.966309,-23.712158,0.527070
166.809082,975.494385,-25.726318,0.527814
165.618896,967.895508,-25.268555,0.528558
162.414551,968.719482,-27.374268,0.529308
160.217285,974.945068,-25.268555,0.530058
164.337158,985.839844,-26.367188,0.530834
166.259766,974.761963,-28.198242,0.531588
173.400879,980.804443,-23.620605,0.532332
171.569824,976.409912,-24.169922,0.533076
162.780762,973.205566,-23.071289,0.533820
163.055420,975.219727,-23.895264,0.534565
165.161133,965.057373,-24.261475,0.535310
168.273926,975.769043,-2.014160,0.536054
174.041748,975.219727,-24.078369,0.536799
174.224854,970.733643,-19.592285,0.537557
159.851074,970.184326,-21.697998,0.538292
162.506104,967.620850,-26.641846,0.539027
166.625977,965.148926,-0.549316,0.539762
167.083740,970.184326,-21.331787,0.540515
170.471191,974.487305,-21.148682,0.541260
171.295166,966.156006,-20.050049,0.542004
174.041748,969.268799,-23.529053,0.542748
176.879883,967.346191,-30.578613,0.543493
172.485352,960.845947,-30.487061,0.544237
170.379639,967.895508,-27.557373,0.544982
177.612305,962.036133,-29.022217,0.545726
177.154541,956.176758,-23.162842,0.546474
174.407959,960.754395,-26.184082,0.547220
179.443359,972.564697,-29.846191,0.547965
181.274414,959.381104,-32.226562,0.548709
178.802490,961.212158,-26.550293,0.549454
180.084229,961.578369,-23.254395,0.550188
184.661865,965.240479,-46.508789,0.550923
185.852051,957.183838,-33.325195,0.551658
188.323975,969.177246,-26.641846,0.552392
182.189941,970.825195,-24.353027,0.553160
184.936523,969.085693,-23.620605,0.553904
184.753418,967.071533,-46.691895,0.554647
187.774658,974.487305,-19.592285,0.555391
191.528320,977.508545,-20.324707,0.556161
187.591553,979.339600,-21.789551,0.556904
187.866211,976.135254,-19.409180,0.557648
187.408447,975.769043,-1.098633,0.558391
189.971924,985.107422,-15.014648,0.559144
190.795898,978.149414,-23.712158,0.559887
177.520752,975.036621,-22.064209,0.560630
186.401367,976.226807,-18.493652,0.561373
190.155029,972.930908,-22.338867,0.562126
187.683105,979.705811,-14.465332,0.562869
164.794922,978.607178,-20.599365,0.563858
182.647705,977.783203,-23.895264,0.564736
178.253174,979.156494,-26.916504,0.565485
186.126709,974.578857,-23.529053,0.566231
184.112549,975.128174,-26.367188,0.566994
187.408447,978.698730,-17.944336,0.567739
182.464600,976.043701,-21.331787,0.568484
186.492920,984.283447,-12.359619,0.569247
184.661865,970.642090,-18.218994,0.569991
178.253174,980.987549,-17.944336,0.570736
178.253174,966.796875,-16.845703,0.571480
183.746338,970.733643,-15.930176,0.572235
181.732178,970.184326,-9.796143,0.572979
178.436279,974.945068,-12.634277,0.573723
180.541992,978.698730,-14.465332,0.574468
172.210693,975.219727,-26.367188,0.575213
177.703857,973.754883,-17.120361,0.575947
171.936035,976.135254,-15.747070,0.576681
171.203613,974.121094,-12.176514,0.577416
175.231934,977.416992,-11.810303,0.578163
167.724609,975.585938,-13.366699,0.578908
168.640137,980.529785,-9.704590,0.579653
173.950195,975.860596,-12.084961,0.580397
168.914795,971.099854,-16.204834,0.581142
173.767090,979.614258,-16.296387,0.581887
168.914795,973.114014,-22.430420,0.582716
167.083740,969.726562,-21.240234,0.583461
170.104980,973.937988,-10.803223,0.584205
165.985107,974.121094,-21.789551,0.584950
163.238525,976.959229,-21.331787,0.585695
162.231445,969.543457,-20.324707,0.586440
186.309814,970.550537,-17.395020,0.587188
166.534424,972.564697,-17.761230,0.587923
167.816162,970.642090,-23.986816,0.588657
162.689209,965.881348,-24.719238,0.589392
164.978027,960.937500,-22.979736,0.590141
162.139893,969.543457,-16.937256,0.590884
164.245605,965.972900,-13.732910,0.591628
170.562744,966.705322,-22.064209,0.592370
173.767090,958.282471,-25.451660,0.593120
170.928955,970.550537,-20.965576,0.593863
165.435791,960.113525,-29.205322,0.594606
169.006348,958.923340,-30.487061,0.595349
164.886475,959.106445,-30.029297,0.596093
172.851562,962.585449,-22.613525,0.596836
170.104980,959.289551,-15.380859,0.597579
167.449951,959.014893,-26.916504,0.598322
173.583984,960.937500,-28.106689,0.599066
168.914795,963.500977,-19.866943,0.599809
167.816162,958.557129,-25.268555,0.600553
165.435791,953.063965,-25.543213,0.601301
168.914795,961.944580,-24.536133,0.602072
164.062500,963.500977,-26.458740,0.602843
173.767090,967.803955,-25.085449,0.603601
173.950195,963.592529,-26.184082,0.604393
170.471191,961.944580,-30.395508,0.605196
172.119141,962.219238,-28.564453,0.605950
173.309326,957.458496,-25.726318,0.606696
169.097900,960.113525,-33.233643,0.607441
180.541992,969.451904,-29.479980,0.608208
173.675537,966.064453,-17.578125,0.608953
178.253174,964.599609,-28.930664,0.609698
170.928955,964.691162,-25.177002,0.610443
176.696777,965.148926,-30.578613,0.611187
174.957275,964.691162,-28.839111,0.611922
172.851562,967.071533,-29.846191,0.612656
172.760010,967.254639,-25.543213,0.613390
173.492432,969.543457,-22.705078,0.614152
178.070068,958.648682,-26.916504,0.614896
181.182861,959.472656,-21.789551,0.615636
180.725098,959.747314,-22.155762,0.616370
178.527832,963.226318,-26.824951,0.617128
175.964355,968.353271,-19.775391,0.617873
178.161621,960.754395,-35.522461,0.618617
177.612305,959.930420,-27.740479,0.619362
176.696777,966.705322,-21.697998,0.620153
176.513672,964.782715,-24.810791,0.620900
178.161621,967.620850,-15.197754,0.621645
182.281494,970.550537,-16.113281,0.622390
177.703857,968.444824,-30.120850,0.623136
170.837402,964.508057,-25.543213,0.623870
176.879883,969.268799,-16.845703,0.624604
172.668457,969.360352,-28.839111,0.625338
173.675537,964.965820,-21.972656,0.626109
174.865723,965.423584,-20.599365,0.626853
175.689697,970.001221,-22.979736,0.627596
173.950195,975.494385,-23.986816,0.628340
176.147461,980.712891,-21.606445,0.629092
170.013428,973.388672,-28.289795,0.629835
171.844482,968.261719,-20.690918,0.630579
164.520264,966.430664,-20.050049,0.631322
163.513184,966.796875,-19.226074,0.632065
164.520264,967.620850,-35.064697,0.632808
167.358398,969.726562,-26.550293,0.633552
168.640137,974.304199,-29.296875,0.634296
168.273926,973.297119,-29.754639,0.635040
171.020508,968.719482,-25.451660,0.635783
164.154053,958.465576,-30.395508,0.636526
168.914795,968.078613,-27.557373,0.637270
170.104980,968.353271,-29.113770,0.638013
164.611816,961.669922,-28.198242,0.638872
162.414551,967.712402,-31.219482,0.639635
171.112061,962.310791,-27.832031,0.640505
166.900635,969.085693,-30.212402,0.641255
161.407471,970.642090,-18.493652,0.642000
140.899658,959.655762,-25.451660,0.642745
165.802002,964.050293,-19.409180,0.643525
167.816162,965.789795,-27.923584,0.644271
166.534424,965.698242,-23.712158,0.645015
166.076660,965.240479,-35.522461,0.645760
161.315918,970.825195,-31.036377,0.646505
169.372559,973.205566,-28.106689,0.647249
161.773682,974.487305,-0.091553,0.647994
159.393311,972.290039,-18.585205,0.648738
160.675049,975.036621,-28.656006,0.649493
170.745850,969.818115,-27.099609,0.650237
167.633057,977.508545,-21.057129,0.650981
171.386719,974.304199,-37.628174,0.651725
170.654297,975.677490,-20.782471,0.652469
168.182373,979.614258,-27.648926,0.653204
170.654297,977.416992,-21.148682,0.653938
167.541504,971.008301,-27.191162,0.654672
171.295166,976.135254,-17.852783,0.655520
171.569824,967.071533,-20.324707,0.656266
168.914795,966.979980,-23.529053,0.657010
167.907715,969.177246,-24.169922,0.657755
171.569824,963.409424,-27.008057,0.658510
175.781250,972.290039,-20.416260,0.659255
171.844482,969.085693,-17.303467,0.660000
173.034668,964.965820,-19.317627,0.660744
173.492432,965.698242,-16.113281,0.661499
170.562744,960.845947,-22.613525,0.662243
174.682617,939.056396,-24.902344,0.662988
176.147461,954.620361,-30.487061,0.663732
177.154541,959.106445,-26.824951,0.664477
176.605225,959.197998,-33.966064,0.665211
176.147461,954.254150,-30.944824,0.665946
179.260254,953.338623,-25.817871,0.666680
176.147461,951.782227,-28.839111,0.667444
178.710938,946.197510,-28.381348,0.668187
175.415039,951.599121,-25.634766,0.668930
174.499512,949.584961,-21.972656,0.669673
177.246094,945.098877,-25.177002,0.670425
176.422119,944.732666,-28.656006,0.671168
175.048828,948.760986,-30.670166,0.671911
174.407959,949.493408,-29.937744,0.672654
175.781250,955.627441,-30.487061,0.673406
179.260254,952.056885,-29.296875,0.674149
164.978027,947.937012,-30.395508,0.674896
175.140381,951.141357,-30.029297,0.675647
171.478271,925.048828,-30.670166,0.676442
173.217773,947.845459,-34.240723,0.677195
177.520752,941.528320,-28.381348,0.677940
171.203613,950.134277,-35.888672,0.678684
169.555664,943.359375,-37.902832,0.679447
169.006348,944.915771,-31.860352,0.680192
172.668457,938.873291,-36.254883,0.680936
168.914795,946.746826,-30.487061,0.681680
173.858643,944.732666,-30.578613,0.682434
169.097900,945.098877,-30.212402,0.683179
167.083740,956.085205,-20.233154,0.683923
177.246094,950.500488,-29.937744,0.684667
170.654297,956.268311,-27.374268,0.685411
173.217773,958.099365,-33.233643,0.686146
168.548584,956.359863,-29.937744,0.686880
167.175293,952.697754,-17.578125,0.687615
173.492432,949.859619,-21.972656,0.688374
167.999268,960.571289,-25.268555,0.689119
171.386719,961.944580,-19.042969,0.689863
169.647217,963.684082,-14.282227,0.690607
169.372559,964.965820,-24.810791,0.691361
170.928955,962.036133,-25.543213,0.692106
172.027588,960.388184,-20.782471,0.692851
170.379639,965.240479,-25.726318,0.693597
173.400879,966.979980,-23.712158,0.694357
170.196533,965.789795,-22.796631,0.695101
173.858643,971.649170,-19.592285,0.695845
169.281006,969.818115,-15.563965,0.696589
168.914795,967.163086,-19.958496,0.697331
176.605225,963.684082,-18.859863,0.698066
178.253174,964.324951,-25.085449,0.698800
177.246094,966.613770,-18.218994,0.699535
177.062988,966.705322,-23.895264,0.700301
178.161621,964.324951,-19.683838,0.701044
179.168701,967.163086,-25.726318,0.701787
178.436279,963.226318,-17.761230,0.702531
179.443359,962.310791,-24.261475,0.703283
174.316406,960.296631,-21.606445,0.704027
184.844971,959.655762,-16.113281,0.704770
179.168701,965.606689,-17.028809,0.705513
179.718018,965.881348,-19.866943,0.706265
168.273926,967.620850,-15.838623,0.707008
179.443359,955.169678,-14.739990,0.707752
175.415039,964.233398,-23.254395,0.708495
181.549072,973.205566,-20.965576,0.709245
174.591064,964.782715,-20.599365,0.709986
186.676025,971.466064,-13.549805,0.710727
186.309814,966.156006,-18.493652,0.711517
181.274414,962.951660,-19.775391,0.712263
175.231934,962.860107,-19.958496,0.712997
174.133301,963.500977,-18.768311,0.713808
178.802490,967.620850,-18.951416,0.714549
179.077148,969.909668,-13.275146,0.715284
175.415039,967.254639,-25.268555,0.716017
182.098389,968.261719,-28.747559,0.716750
178.619385,965.148926,-17.486572,0.717484
171.844482,968.353271,-22.155762,0.718235
175.781250,975.494385,-23.986816,0.718970
180.816650,974.029541,-22.338867,0.719716
179.534912,974.945068,-15.289307,0.720461
180.175781,971.557617,-21.972656,0.721206
181.549072,974.487305,-14.465332,0.721950
174.133301,974.578857,-20.782471,0.722688
174.224854,980.987549,-18.768311,0.723423
179.351807,974.395752,-15.014648,0.724157
181.640625,970.001221,-19.775391,0.724892
179.168701,976.593018,-13.916016,0.725636
173.217773,973.388672,-10.894775,0.726381
173.400879,972.290039,-19.317627,0.727126
178.619385,965.972900,-21.148682,0.727871
167.816162,971.099854,-20.599365,0.728699
164.611816,971.374512,-21.881104,0.729444
169.006348,966.705322,-19.775391,0.730189
167.724609,973.022461,-24.261475,0.730934
167.266846,969.635010,-22.430420,0.731676
173.400879,970.733643,-27.282715,0.732422
173.858643,977.050781,-18.127441,0.733596
165.985107,980.255127,-26.367188,0.735278
168.090820,974.578857,-27.099609,0.736932
172.119141,979.705811,-19.866943,0.738658
174.224854,1005.432129,-14.465332,0.740334
172.943115,984.375000,-23.071289,0.742034
170.745850,980.438232,-23.437500,0.743712
168.731689,988.769531,-19.409180,0.745388
171.844482,986.572266,-21.240234,0.747065
171.478271,989.959717,-21.057129,0.748779
174.774170,987.121582,-23.345947,0.750571
169.372559,995.269775,-22.338867,0.752259
168.273926,984.832764,-20.782471,0.753936
169.647217,990.692139,-24.719238,0.755613
166.809082,987.579346,-26.916504,0.757289
166.076660,988.677979,-19.775391,0.758975
168.365479,990.325928,-20.141602,0.760628
164.886475,988.311768,-19.683838,0.762337
142.822266,989.318848,-20.324707,0.764013
160.766602,989.501953,-23.071289,0.765712
184.112549,994.812012,-23.803711,0.767391
158.660889,968.170166,-26.733398,0.769090
159.576416,984.649658,-29.479980,0.770764
164.886475,984.466553,-23.620605,0.772417
157.012939,980.804443,-21.057129,0.774110
157.470703,980.804443,-29.296875,0.775786
161.224365,978.607178,-28.930664,0.777480
161.590576,976.776123,-26.641846,0.779155
157.012939,968.261719,-28.472900,0.780854
158.203125,974.212646,-29.479980,0.782529
160.400391,967.163086,-33.599854,0.784227
156.097412,974.945068,-30.487061,0.785903
156.463623,973.937988,-27.832031,0.787581
160.034180,975.494385,-22.247314,0.789257
159.759521,969.177246,-21.148682,0.791213
162.689209,974.487305,-28.106689,0.792900
161.590576,975.402832,-25.085449,0.794602
160.858154,982.452393,-35.339355,0.796279
155.548096,962.219238,-24.353027,0.797962
166.809082,973.754883,-31.036377,0.799635
159.576416,978.515625,-22.064209,0.801393
167.266846,970.275879,-14.923096,0.803095
164.794922,974.670410,-18.127441,0.804777
165.252686,985.382080,-23.986816,0.806454
166.625977,983.825684,-30.212402,0.808127
165.252686,985.015869,-8.331299,0.809807
167.083740,988.677979,-18.402100,0.810709
169.830322,992.248535,-21.057129,0.811444
172.210693,991.790771,-16.754150,0.812197
164.337158,965.606689,-22.796631,0.812943
162.414551,975.219727,-21.606445,0.813687
164.703369,984.558105,-13.275146,0.814432
168.365479,989.135742,-14.831543,0.815177
169.830322,987.487793,-11.901855,0.815922
167.083740,984.832764,-13.732910,0.816667
168.090820,990.783691,-14.465332,0.817412
142.822266,983.367920,-12.084961,0.818157
165.344238,987.304688,-16.754150,0.818901
174.499512,986.572266,-16.754150,0.819646
170.379639,992.797852,-11.535645,0.820391
169.921875,989.318848,-13.000488,0.821137
168.640137,987.030029,-14.556885,0.821882
173.675537,978.424072,-17.120361,0.822640
179.718018,978.790283,-19.317627,0.823393
172.119141,980.163574,-8.697510,0.824182
181.823730,984.741211,-13.824463,0.824932
180.633545,989.227295,-15.838623,0.825677
174.957275,983.184814,-22.979736,0.826422
171.020508,976.776123,-24.261475,0.827167
175.689697,978.424072,-19.226074,0.827912
178.710938,983.184814,-12.908936,0.828656
178.802490,978.149414,-17.944336,0.829401
176.971436,982.086182,-26.641846,0.830164
178.985596,981.445312,-19.226074,0.830899
173.126221,980.895996,-19.500732,0.831633
172.760010,980.804443,-19.866943,0.832367
178.161621,975.219727,-20.324707,0.833104
179.534912,973.388672,-23.895264,0.833849
176.422119,968.902588,-14.465332,0.834594
188.598633,973.754883,-17.761230,0.835338
174.957275,974.761963,-18.493652,0.836084
177.429199,970.733643,-21.881104,0.836829
176.696777,966.247559,-24.444580,0.837573
184.753418,976.409912,-16.845703,0.838318
180.816650,971.466064,-22.521973,0.839063
176.788330,968.170166,-13.824463,0.839818
183.288574,971.191406,-17.028809,0.840563
184.112549,975.952148,-14.282227,0.841307
176.605225,977.783203,-17.761230,0.842052
180.358887,969.818115,-12.451172,0.842796
180.633545,968.994141,-12.451172,0.843531
177.246094,962.860107,-19.775391,0.844354
179.901123,969.635010,-15.563965,0.845090
181.365967,961.303711,-21.148682,0.845860
181.549072,966.522217,-10.620117,0.846604
189.239502,973.022461,-16.845703,0.847349
177.337646,968.261719,-28.289795,0.848094
179.534912,965.972900,-19.042969,0.848848
180.725098,976.226807,-14.373779,0.849593
176.605225,963.409424,-16.937256,0.850337
177.612305,973.937988,-20.599365,0.851082
177.429199,966.339111,-21.423340,0.851837
179.992676,963.867188,-22.247314,0.852582
180.541992,969.085693,-21.697998,0.853327
177.795410,965.332031,-17.395020,0.854071
178.344727,963.500977,-16.204834,0.854816
180.725098,968.994141,-22.796631,0.855551
183.380127,967.895508,-22.247314,0.856285
183.929443,962.951660,-0.274658,0.857020
179.260254,958.465576,-23.162842,0.857780
180.999756,966.888428,-16.204834,0.858410
183.197021,964.233398,-15.747070,0.859155
174.682617,966.064453,-14.831543,0.859900
174.133301,961.303711,-22.521973,0.860655
178.161621,965.057373,-23.529053,0.861400
173.767090,957.275391,-17.120361,0.862145
180.816650,964.233398,-18.218994,0.862894
178.802490,952.972412,-21.972656,0.863649
175.598145,958.007812,-17.578125,0.864393
178.894043,963.684082,-22.888184,0.865138
183.380127,960.479736,-18.951416,0.865959
173.217773,957.641602,-17.120361,0.866706
178.894043,959.472656,-11.718750,0.867451
178.344727,959.747314,-25.360107,0.868198
180.633545,950.958252,-30.303955,0.868961
178.253174,955.169678,-26.916504,0.869706
177.154541,955.993652,-21.881104,0.870451
182.647705,958.557129,-45.043945,0.871196
176.422119,950.134277,-18.127441,0.871954
171.752930,952.514648,-16.845703,0.872698
171.661377,948.486328,-19.042969,0.873442
176.696777,952.148438,-26.824951,0.874186
178.253174,953.979492,-1.281738,0.874930
183.471680,948.394775,-30.761719,0.875664
178.070068,955.352783,-25.634766,0.876397
181.732178,945.465088,-28.747559,0.877131
183.288574,949.401855,-25.543213,0.877890
180.725098,952.331543,-24.353027,0.878635
179.077148,952.331543,-20.233154,0.879379
176.971436,955.718994,-22.521973,0.880124
181.182861,950.592041,-22.155762,0.880891
180.450439,951.507568,-31.860352,0.881637
184.112549,952.423096,-29.022217,0.882381
185.668945,952.148438,-28.839111,0.883126
186.309814,951.416016,-20.233154,0.883883
186.950684,945.648193,-27.191162,0.884627
184.020996,943.817139,-22.247314,0.885371
187.408447,944.458008,-28.930664,0.886115
185.668945,946.472168,-26.733398,0.886858
174.591064,947.845459,-25.360107,0.887592
185.211182,951.873779,-17.669678,0.888326
182.830811,952.423096,-22.979736,0.889060
178.436279,947.113037,-23.437500,0.889817
175.323486,941.894531,-20.416260,0.890561
182.739258,943.908691,-24.719238,0.891304
182.006836,945.281982,-16.845703,0.892048
181.365967,948.303223,-27.008057,0.892791
182.098389,957.366943,-22.064209,0.893534
177.520752,957.092285,-19.042969,0.894277
179.260254,955.718994,-26.916504,0.895020
178.894043,960.754395,-19.317627,0.895764
181.274414,963.043213,-23.162842,0.896507
180.267334,958.831787,-44.586182,0.897250
182.647705,959.381104,-22.430420,0.897993
182.556152,957.733154,-16.387939,0.898746
177.886963,955.627441,-19.683838,0.899489
170.471191,960.754395,-19.409180,0.900232
178.710938,959.564209,-44.128418,0.900974
176.239014,962.127686,-23.712158,0.901726
173.400879,956.268311,-15.655518,0.902470
167.083740,958.465576,-21.514893,0.903213
173.400879,965.148926,-21.514893,0.903956
170.288086,961.669922,-19.042969,0.904699
169.738770,964.050293,-23.895264,0.905442
172.210693,964.141846,-23.803711,0.906185
169.189453,967.803955,-20.507812,0.906928
174.499512,964.508057,-21.697998,0.907672
164.611816,963.043213,-1.281738,0.908415
174.682617,968.170166,-21.881104,0.909157
175.231934,968.170166,-18.493652,0.909900
172.210693,963.958740,-21.331787,0.910643
172.210693,965.515137,-19.866943,0.911386
172.119141,966.247559,-18.859863,0.912130
169.281006,962.036133,-23.071289,0.912873
172.302246,965.057373,-21.972656,0.913616
165.344238,969.635010,-21.057129,0.914359
164.978027,973.846436,-25.726318,0.915102
167.816162,967.071533,-21.331787,0.915845
162.048340,971.740723,-22.705078,0.916587
187.408447,970.367432,-25.909424,0.917421
160.675049,965.789795,-30.670166,0.918165
161.132812,979.522705,-19.042969,0.918909
164.794922,975.585938,-22.888184,0.919662
155.364990,973.388672,-24.810791,0.920406
156.555176,978.240967,-20.507812,0.921150
155.639648,979.522705,-16.754150,0.921893
154.907227,975.585938,-16.845703,0.922645
159.210205,1004.241943,-15.289307,0.923389
149.505615,978.240967,-21.240234,0.924132
158.569336,984.558105,-13.824463,0.924875
153.076172,984.283447,-13.275146,0.925619
145.660400,974.395752,-15.838623,0.926375
149.322510,977.325439,-19.226074,0.927118
149.597168,977.325439,-23.345947,0.927862
146.026611,976.776123,-22.247314,0.928605
147.033691,975.585938,-43.395996,0.929355
154.815674,979.064941,-29.937744,0.930098
146.026611,974.212646,-26.458740,0.930842
147.949219,977.874756,-26.092529,0.931586
148.132324,982.452393,-25.360107,0.932339
144.561768,983.825684,-29.754639,0.933082
142.364502,970.550537,-33.325195,0.933826
146.026611,979.888916,-25.634766,0.934569
145.935059,979.248047,-29.296875,0.935196
146.209717,975.311279,-28.472900,0.935940
151.153564,981.445312,-32.226562,0.936683
150.054932,973.022461,-25.909424,0.937427
153.076172,978.790283,-32.684326,0.938203
148.406982,977.325439,-25.726318,0.938955
150.604248,977.691650,-26.641846,0.939755
150.054932,963.592529,-25.177002,0.940503
150.146484,967.712402,-31.585693,0.941283
152.252197,970.458984,-30.303955,0.942030
157.470703,974.578857,-34.973145,0.942839
157.562256,967.803955,-32.226562,0.943627
184.570312,965.698242,-35.430908,0.944388
159.118652,964.965820,-30.578613,0.945137
160.400391,968.444824,-29.937744,0.945879
163.513184,971.191406,-29.937744,0.946657
155.456543,963.134766,-31.494141,0.947399
158.020020,960.113525,-25.268555,0.948139
159.301758,960.845947,-29.846191,0.948879
165.893555,973.480225,-29.754639,0.949650
170.104980,970.275879,-29.937744,0.950410
168.365479,964.874268,-32.409668,0.951152
163.879395,966.339111,-24.444580,0.951892
166.992188,965.515137,-23.529053,0.952553
172.027588,964.599609,-27.099609,0.953293
171.936035,968.536377,-21.240234,0.954035
170.745850,970.092773,-25.726318,0.954775
171.478271,970.092773,-27.191162,0.955529
167.724609,975.677490,-17.761230,0.956269
167.266846,978.515625,-8.697510,0.957008
175.872803,981.445312,-11.352539,0.957747
174.133301,985.198975,-8.605957,0.958499
177.886963,985.107422,-10.437012,0.959238
175.415039,975.952148,-10.986328,0.959977
177.337646,983.459473,-19.042969,0.960716
184.753418,975.128174,-14.007568,0.961466
164.520264,969.360352,-15.563965,0.962206
178.344727,976.226807,-18.127441,0.962945
180.633545,966.339111,-30.029297,0.963685
188.873291,975.860596,-27.648926,0.964442
182.647705,973.571777,-28.564453,0.965181
182.556152,962.677002,-31.494141,0.965921
186.035156,971.282959,-26.916504,0.966660
185.577393,968.627930,-21.240234,0.967410
185.028076,966.156006,-26.641846,0.968149
183.013916,965.332031,-28.472900,0.968889
186.584473,971.740723,-24.536133,0.969628
185.577393,976.776123,-28.381348,0.970377
190.795898,967.437744,-21.789551,0.971117
188.964844,956.085205,-18.585205,0.971856
190.155029,959.747314,-21.697998,0.972596
198.120117,955.902100,-18.768311,0.973345
187.866211,955.078125,-23.895264,0.974084
200.958252,956.542969,-32.867432,0.974824
196.105957,953.155518,-27.374268,0.975563
203.704834,958.099365,-28.381348,0.976313
195.556641,949.951172,-33.508301,0.977053
195.465088,953.338623,-26.367188,0.977793
205.627441,961.578369,-24.444580,0.978532
199.676514,953.887939,-33.874512,0.979281
204.071045,954.528809,-27.740479,0.980021
202.239990,960.205078,-31.402588,0.980761
202.789307,958.557129,-30.761719,0.981500
206.085205,959.655762,-3.845215,0.982249
200.775146,958.923340,-14.282227,0.982989
197.845459,949.951172,-22.705078,0.983729
200.225830,947.570801,-17.578125,0.984469
206.542969,952.880859,-21.697998,0.985217
210.571289,963.226318,-15.655518,0.985957
202.514648,962.768555,-21.697998,0.986696
201.141357,955.718994,-16.937256,0.987435
207.458496,959.472656,-16.021729,0.988113
207.641602,958.557129,-15.747070,0.988852
200.225830,957.092285,-15.106201,0.989591
203.338623,949.493408,-23.895264,0.990426
200.775146,955.902100,-21.514893,0.991175
202.514648,957.550049,-15.930176,0.991914
208.099365,960.571289,-14.190674,0.992654
205.444336,961.578369,-19.226074,0.993393
201.690674,957.550049,-19.683838,0.994143
203.796387,949.859619,-18.035889,0.994882
199.768066,954.528809,-23.345947,0.995622
203.338623,957.733154,-16.387939,0.996362
198.944092,957.092285,-24.536133,0.997111
209.564209,960.845947,-26.000977,0.997851
200.866699,956.176758,-31.127930,0.998591
206.542969,959.381104,-25.543213,0.999330
208.099365,959.472656,-18.585205,1.000089
204.162598,966.339111,-20.782471,1.000828
198.394775,964.324951,-44.494629,1.001567
202.697754,963.226318,-24.444580,1.002307
204.345703,960.571289,-15.014648,1.003056
201.232910,968.078613,-13.916016,1.003795
197.570801,975.952148,-10.894775,1.004534
192.718506,970.458984,-14.007568,1.005274
199.951172,972.839355,-13.000488,1.006022
199.310303,965.881348,-16.021729,1.006761
200.408936,979.614258,-10.070801,1.007500
190.612793,978.424072,-18.218994,1.008239
196.380615,984.008789,-14.739990,1.008989
198.120117,971.466064,-15.014648,1.009728
195.281982,986.022949,-11.260986,1.010482
187.225342,978.881836,-14.739990,1.011229
194.915771,981.903076,-12.084961,1.011999
190.795898,981.445312,-8.239746,1.012745
182.556152,983.001709,-11.444092,1.013484
192.352295,979.797363,-12.817383,1.014224
189.514160,965.606689,-13.549805,1.014978
190.063477,973.754883,-18.493652,1.015718
191.619873,979.156494,-22.338867,1.016457
185.668945,982.910156,-45.410156,1.017196
183.471680,976.043701,-23.162842,1.017947
182.647705,972.747803,-26.733398,1.018690
189.239502,975.036621,-18.310547,1.019451
183.929443,977.325439,-24.078369,1.020194
183.105469,977.416992,-14.831543,1.020959
189.971924,974.212646,-22.888184,1.021700
188.873291,968.353271,-24.169922,1.022440
194.000244,976.409912,-22.521973,1.023180
187.683105,968.536377,-23.071289,1.023961
192.260742,972.930908,-26.275635,1.024706
188.323975,970.184326,-23.620605,1.025445
194.732666,964.324951,-26.367188,1.026184
190.521240,969.268799,-19.409180,1.026939
192.810059,963.775635,-21.881104,1.027681
190.795898,963.958740,-22.247314,1.028421
191.986084,965.057373,-45.135498,1.029160
192.810059,955.261230,-25.817871,1.029909
195.739746,967.712402,-25.909424,1.030649
188.507080,971.740723,-28.015137,1.031388
187.316895,959.381104,-22.247314,1.032127
187.957764,959.472656,-37.536621,1.032879
184.753418,954.162598,-30.303955,1.033619
187.316895,958.282471,-27.740479,1.034358
184.295654,962.951660,-32.867432,1.035097
185.211182,959.197998,-28.015137,1.035843
187.683105,959.930420,-32.135010,1.036582
184.753418,961.578369,-27.832031,1.037321
184.753418,964.782715,-24.444580,1.038060
189.147949,963.958740,-29.663086,1.038808
187.042236,965.515137,-29.754639,1.039547
178.710938,962.036133,-33.416748,1.040286
182.739258,972.381592,-27.282715,1.041025
183.746338,971.649170,-29.754639,1.041773
178.070068,961.029053,-28.289795,1.042512
186.859131,972.839355,-27.648926,1.043251
183.380127,979.248047,-29.754639,1.043990
188.232422,979.339600,-27.923584,1.044738
183.929443,974.761963,-26.824951,1.045477
184.661865,976.867676,-30.029297,1.046216
183.197021,973.205566,-26.000977,1.046955
181.640625,976.684570,-22.338867,1.047704
175.048828,977.600098,-22.888184,1.048443
169.097900,977.966309,-18.127441,1.049182
175.415039,983.917236,-20.233154,1.049921
175.964355,973.388672,-21.240234,1.050669
170.928955,981.994629,-22.796631,1.051409
180.175781,980.529785,-17.852783,1.052148
183.563232,982.360840,-13.641357,1.052887
180.633545,985.107422,-17.944336,1.053635
183.563232,983.459473,-25.543213,1.054374
186.676025,985.656738,-18.310547,1.055113
188.415527,983.642578,-44.219971,1.055852
185.211182,981.170654,-26.000977,1.056600
183.563232,992.340088,-24.627686,1.057339
180.908203,991.149902,-24.902344,1.058077
173.309326,994.903564,-30.487061,1.058816
177.246094,986.480713,-16.204834,1.059564
177.612305,983.093262,-24.719238,1.060303
176.147461,993.164062,-23.437500,1.061042
176.788330,1001.495361,-11.627197,1.061782
180.999756,1003.784180,-10.711670,1.062621
181.365967,1003.692627,-12.542725,1.063362
182.556152,1001.220703,-13.275146,1.064101
187.316895,1002.593994,-8.880615,1.064840
187.408447,1000.579834,-15.838623,1.065589
181.640625,997.100830,-8.514404,1.066328
183.013916,994.628906,-19.866943,1.067067
182.189941,996.734619,-22.796631,1.067807
173.309326,993.621826,-30.212402,1.068554
162.963867,999.755859,-33.966064,1.069293
167.266846,995.269775,-29.479980,1.070032
165.252686,988.403320,-28.015137,1.070771
164.062500,1001.037598,-20.965576,1.071519
170.471191,994.995117,-14.465332,1.072258
167.633057,995.727539,-11.810303,1.072997
180.633545,1002.319336,-6.774902,1.073736
180.175781,990.875244,-7.598877,1.074484
177.429199,989.776611,-10.070801,1.075222
179.351807,991.516113,-4.486084,1.075961
166.351318,989.685059,-12.451172,1.076699
167.541504,990.417480,-21.697998,1.077448
165.161133,988.403320,-19.592285,1.078187
162.322998,989.318848,-21.057129,1.078926
169.097900,986.389160,-20.507812,1.079665
166.259766,999.023438,-21.881104,1.080414
163.970947,993.255615,-11.718750,1.081153
163.513184,987.945557,-13.824463,1.081892
162.689209,986.846924,-4.302979,1.082632
161.590576,993.621826,-11.535645,1.083397
164.154053,1004.241943,-3.936768,1.084154
160.308838,997.375488,-3.662109,1.084928
156.372070,1006.530762,-5.950928,1.085671
154.907227,1001.129150,-13.824463,1.086411
151.885986,999.298096,-9.063721,1.087150
152.160645,1009.002686,-4.943848,1.087890
158.935547,1003.875732,-14.099121,1.088655
168.640137,1007.354736,-13.824463,1.089395
161.956787,1006.896973,-10.437012,1.090134
171.203613,1010.375977,-9.521484,1.090873
175.506592,1001.129150,-12.817383,1.091619
179.626465,995.361328,-15.838623,1.092358
189.880371,995.361328,-8.605957,1.093097
189.331055,1001.129150,-18.951416,1.093843
187.042236,990.783691,-24.536133,1.094598
173.675537,991.973877,-26.184082,1.095366
180.999756,973.846436,-42.572021,1.096120
170.013428,976.409912,-50.903320,1.096878
177.978516,973.846436,-60.882568,1.097687
173.309326,971.557617,-66.650391,1.098454
191.436768,984.832764,-72.143555,1.099223
188.140869,970.092773,-72.326660,1.099985
198.028564,878.356934,-64.086914,1.100776
230.255127,969.543457,-69.488525,1.101529
137.603760,925.964355,-121.398926,1.102296
158.569336,917.266846,-172.576904,1.103054
147.125244,871.856689,-227.874756,1.103810
161.682129,898.315430,-304.779053,1.104555
197.753906,914.886475,-372.344971,1.105296
231.445312,907.104492,-447.692871,1.106061
253.417969,887.054443,-456.115723,1.106806
188.690186,868.103027,-435.699463,1.107547
238.037109,816.192627,-397.613525,1.108288
210.754395,792.297363,-357.238770,1.109029
240.509033,764.099121,-373.809814,1.109770
232.818604,756.134033,-369.781494,1.110510
214.874268,755.035400,-375.183105,1.111251
208.099365,735.900879,-380.126953,1.111992
217.071533,732.513428,-382.415771,1.112733
228.149414,734.985352,-409.240723,1.113473
196.838379,736.724854,-421.783447,1.114214
247.650146,727.935791,-443.481445,1.114954
225.860596,731.506348,-473.785400,1.115686
237.579346,732.604980,-516.723633,1.116417
249.664307,747.070312,-530.456543,1.117148
260.375977,751.922607,-572.753906,1.117879
287.658691,754.211426,-599.487305,1.118631
276.306152,769.409180,-648.468018,1.119362
269.805908,770.050049,-685.546875,1.120093
291.595459,765.014648,-700.469971,1.120825
258.544922,758.697510,-689.758301,1.121573
283.081055,758.605957,-698.364258,1.122304
251.312256,752.929688,-726.013184,1.123034
258.087158,756.042480,-744.598389,1.123765
214.508057,741.119385,-754.669189,1.124507
190.795898,726.562500,-742.401123,1.125237
191.986084,722.625732,-738.006592,1.125968
225.311279,744.415283,-726.837158,1.126698
197.937012,752.929688,-795.043945,1.127440
182.922363,785.339355,-817.108154,1.128171
190.887451,815.368652,-846.954346,1.128901
163.696289,842.010498,-855.651855,1.129632
208.831787,873.321533,-863.342285,1.130388
181.732178,932.189941,-804.565430,1.131128
173.309326,930.633545,-779.113770,1.131867
175.323486,974.304199,-750.366211,1.132607
218.719482,995.361328,-723.083496,1.133357
185.485840,998.840332,-700.836182,1.134184
229.156494,1007.263184,-693.145752,1.134924
-681.427002,-96.679688,492.004395,1.135663
-1428.222656,651.397705,228.881836,1.136411
25.634766,1197.326660,-503.540039,1.137150
412.994385,1122.070312,-558.013916,1.137889
-291.503906,1087.097168,-590.423584,1.138628
-741.485596,1077.209473,-251.312256,1.139378
2047.119141,1336.029053,-372.528076,1.140117
1809.539795,1216.186523,-183.197021,1.140856
-85.693359,1149.261475,-67.565918,1.141596
2934.814453,1337.768555,24.078369,1.142345
2999.908447,1372.467041,-322.631836,1.143084
-616.973877,1375.762939,-467.742920,1.143824
23.895264,1188.629150,-432.312012,1.144563
945.007324,1275.970459,-433.685303,1.145311
838.531494,1369.445801,-492.370605,1.146050
251.770020,1338.684082,-564.605713,1.146790
-38.909912,1327.514648,-586.853027,1.147529
-87.066650,1245.941162,-232.269287,1.148149
540.985107,1247.772217,-43.579102,1.148889
689.483643,1306.274414,-15.106201,1.149628
232.818604,1298.217773,-118.835449,1.150367
103.088379,1204.650879,-144.195557,1.151116
379.669189,1163.177490,-255.340576,1.151855
413.543701,1147.155762,-326.019287,1.152594
152.069092,1091.308594,-417.846680,1.153333
186.492920,1043.060303,-262.207031,1.154081
1098.175049,1142.211914,-46.875000,1.154822
461.242676,1077.850342,220.367432,1.155573
-51.086426,1021.728516,198.211670,1.156321
95.397949,1075.836182,47.515869,1.157085
113.250732,1073.822021,36.254883,1.157826
-467.651367,1045.806885,95.672607,1.158566
-632.720947,901.519775,227.142334,1.159305
823.242188,986.022949,259.552002,1.160056
1456.146240,1064.392090,287.384033,1.160796
-1.831055,934.295654,270.629883,1.161535
-503.356934,939.514160,200.592041,1.162274
1019.073486,1119.689941,19.592285,1.163022
634.185791,1148.620605,-128.997803,1.163762
-302.307129,1048.828125,-127.349854,1.164501
494.659424,987.121582,-109.130859,1.165240
765.472412,990.051270,-68.023682,1.165989
-88.623047,970.916748,-48.339844,1.166728
-377.105713,898.498535,-108.764648,1.167467
149.230957,892.639160,-178.344727,1.168206
186.126709,907.379150,-428.558350,1.168954
-118.743896,896.484375,-883.300781,1.169694
-242.340088,1008.270264,-1145.782471,1.170433
747.985840,891.723633,-532.653809,1.171175
1747.009277,637.023926,-274.841309,1.171931
-3000.000000,488.159180,298.645020,1.172671
-3000.000000,746.063232,-15.563965,1.173410
549.774170,648.376465,-102.813721,1.174150
2654.663086,1366.058350,-769.592285,1.174897
2334.960938,1479.034424,-990.234375,1.175636
1217.926025,1090.393066,-890.808105,1.176374
433.044434,1147.796631,-742.858887,1.177127
-1223.327637,879.730225,-518.371582,1.177881
-3000.000000,899.688721,-127.899170,1.178620
-3000.000000,806.854248,-70.404053,1.179359
587.402344,856.475830,-251.312256,1.180098
2828.063965,1190.826416,-603.515625,1.180845
2999.908447,1593.658447,-629.425049,1.181585
2999.908447,1478.942871,-1132.598877,1.182324
2999.908447,903.259277,-1306.823730,1.183063
-783.050537,-54.016113,-775.726318,1.183812
-2489.685059,515.899658,-714.752197,1.184551
-2046.569824,762.176514,-1407.348633,1.185290
-1647.491455,707.153320,-1565.826416,1.186030
-3000.000000,74.707031,-527.801514,1.186779
-2551.483154,180.999756,-511.047363,1.187518
2999.908447,914.154053,-425.079346,1.188257
2999.908447,1340.698242,-760.162354,1.188996
2999.908447,972.656250,-1127.105713,1.189744
124.328613,519.287109,-1197.326660,1.190485
-821.868896,671.356201,-1197.052002,1.191224
-976.776123,801.544189,-1400.207520,1.191963
-1141.296387,816.375732,-1622.314453,1.192713
-1909.606934,744.140625,-1661.041260,1.193452
-2265.563965,600.036621,-1372.558594,1.194192
-2093.902588,559.295654,-1144.134521,1.194932
-1519.226074,873.687744,-1262.054443,1.195680
-695.159912,574.218750,-1316.345215,1.196420
2999.908447,1098.724365,-1216.644287,1.197159
2999.908447,1397.644043,-1129.760742,1.197898
2999.908447,1500.640869,-559.844971,1.198647
764.923096,785.339355,-925.140381,1.199386
-285.186768,825.164795,-640.136719,1.200125
-1881.225586,988.220215,-396.697998,1.200864
365.936279,2999.908447,2999.908447,1.201613
-889.251709,2999.908447,2999.908447,1.202352
2224.548340,2999.908447,2999.908447,1.203199
1809.631348,2999.908447,2999.908447,1.203941
-434.783936,2999.908447,2518.615723,1.204694
-1775.665283,2999.908447,1536.987305,1.205433
-2419.281006,2339.996338,633.819580,1.206172
-2630.950928,1799.743652,-237.670898,1.206912
-1154.937744,902.801514,-571.289062,1.207661
-769.866943,767.211914,-910.034180,1.208401
-122.222900,934.204102,-845.031738,1.209141
393.218994,1185.882568,-312.377930,1.209880
441.192627,1254.821777,-195.281982,1.210629
295.623779,1302.520752,-406.311035,1.211368
229.705811,1294.006348,-425.628662,1.212107
126.892090,1252.441406,-356.597900,1.212846
-110.504150,1142.944336,-523.406982,1.213594
-141.174316,1055.328369,-633.544922,1.214334
-74.066162,968.353271,-572.387695,1.215073
-1.373291,994.628906,-509.857178,1.215812
-52.001953,916.534424,-608.367920,1.216560
-360.168457,665.954590,-597.747803,1.217299
-438.903809,652.404785,-505.371094,1.218038
-494.567871,686.004639,-570.556641,1.218777
-430.114746,760.528564,-670.166016,1.219525
-330.047607,780.303955,-575.775146,1.220264
-283.538818,763.916016,-578.338623,1.221003
-216.430664,942.169189,-552.520752,1.221742
18.402100,1057.800293,-618.530273,1.222492
71.228027,1024.658203,-670.623779,1.223232
97.320557,953.704834,-694.885254,1.223970
87.066650,858.123779,-794.311523,1.224710
104.278564,750.091553,-1150.451660,1.225456
551.330566,619.903564,-566.894531,1.226196
582.366943,986.022949,-838.531494,1.226936
61.523438,630.981445,-1574.798584,1.227688
219.818115,558.105469,-1228.088379,1.228455
3.387451,646.362305,-927.795410,1.229213
-385.803223,933.197021,-297.912598,1.229996
-713.470459,1022.644043,-200.225830,1.230779
1058.624268,781.311035,-423.980713,1.231519
1291.168213,831.939697,-908.660889,1.232253
1023.651123,843.658447,-375.091553,1.232991
328.491211,1123.718262,94.940186,1.233723
-171.661377,1221.221924,-72.509766,1.234454
-495.208740,1117.492676,-153.991699,1.235184
-637.207031,942.443848,-319.152832,1.235917
-690.948486,950.775146,-280.059814,1.236648
-443.023682,1044.433594,-213.500977,1.237379
-319.885254,1061.279297,-213.409424,1.238110
-12.725830,1032.440186,-210.113525,1.238859
166.351318,994.262695,-322.265625,1.239604
199.035645,923.217773,-410.980225,1.240336
124.969482,900.054932,-462.432861,1.241067
23.162842,860.137939,-529.174805,1.241812
-29.388428,783.508301,-529.174805,1.242543
70.953369,762.817383,-573.211670,1.243273
87.341309,758.239746,-593.536377,1.244004
93.475342,786.346436,-522.033691,1.244769
92.468262,791.564941,-537.597656,1.245515
105.834961,763.092041,-617.431641,1.246268
84.777832,749.450684,-640.960693,1.247033
107.940674,764.739990,-641.510010,1.247831
86.608887,783.416748,-642.791748,1.248595
97.503662,763.824463,-647.094727,1.249360
100.067139,777.099609,-624.847412,1.250129
107.482910,791.931152,-631.805420,1.250930
84.320068,786.895752,-621.459961,1.251702
108.032227,769.226074,-618.713379,1.252463
186.584473,789.367676,-602.691650,1.253224
199.218750,816.467285,-574.951172,1.254041
190.887451,815.185547,-554.901123,1.254815
202.514648,793.945312,-615.234375,1.255590
180.633545,808.959961,-627.777100,1.256344
160.675049,799.987793,-630.615234,1.257114
175.506592,803.283691,-627.319336,1.257855
175.415039,787.811279,-693.603516,1.258594
143.920898,790.008545,-708.068848,1.259333
182.373047,835.693359,-650.939941,1.260083
211.120605,864.990234,-630.157471,1.260823
225.952148,879.638672,-633.178711,1.261562
296.264648,874.511719,-623.382568,1.262301
266.326904,834.960938,-636.291504,1.263052
201.507568,823.608398,-656.982422,1.263792
194.732666,839.172363,-683.624268,1.264530
178.894043,864.898682,-630.889893,1.265269
212.677002,876.159668,-609.741211,1.266019
302.947998,908.569336,-611.755371,1.266759
311.279297,893.096924,-587.860107,1.267499
301.116943,886.596680,-623.565674,1.268238
271.270752,881.469727,-644.897461,1.268990
268.798828,867.919922,-640.686035,1.269729
232.177734,881.652832,-633.270264,1.270468
273.742676,911.590576,-577.606201,1.271208
287.841797,927.795410,-538.970947,1.271958
305.145264,922.302246,-541.717529,1.272698
293.426514,896.118164,-588.226318,1.273438
264.587402,861.602783,-622.192383,1.274295
263.122559,862.518311,-630.065918,1.275036
264.221191,873.229980,-620.269775,1.275776
282.623291,882.476807,-595.733643,1.276516
307.891846,889.617920,-567.810059,1.277266
341.766357,914.794922,-561.035156,1.278006
350.738525,913.787842,-582.092285,1.278746
310.729980,884.857178,-593.627930,1.279487
293.426514,859.771729,-623.840332,1.280237
303.771973,855.194092,-630.523682,1.280977
293.426514,867.462158,-601.501465,1.281716
311.645508,877.807617,-555.725098,1.282456
302.947998,897.125244,-563.964844,1.283204
328.765869,902.618408,-556.732178,1.283944
341.400146,894.195557,-543.914795,1.284684
319.152832,862.884521,-580.444336,1.285424
349.456787,850.891113,-598.114014,1.286163
319.702148,846.679688,-574.951172,1.286903
328.582764,863.159180,-563.232422,1.287643
330.047607,860.595703,-561.584473,1.288382
343.597412,855.743408,-572.204590,1.289122
328.857422,856.658936,-582.092285,1.289862
329.681396,842.559814,-580.352783,1.290601
318.237305,820.953369,-583.099365,1.291340
317.962646,825.531006,-593.078613,1.292088
330.688477,824.157715,-573.760986,1.292825
335.998535,840.911865,-563.507080,1.293562
355.865479,845.947266,-577.789307,1.294300
365.478516,831.115723,-584.014893,1.295086
361.633301,804.107666,-599.487305,1.295839
356.964111,813.720703,-599.853516,1.296585
357.696533,811.340332,-602.325439,1.297327
361.724854,810.333252,-597.564697,1.298097
355.499268,800.811768,-591.613770,1.298838
361.175537,819.396973,-575.134277,1.299578
359.527588,836.242676,-559.753418,1.300317
344.055176,845.947266,-538.696289,1.301067
344.970703,822.235107,-550.415039,1.301806
359.893799,830.474854,-554.534912,1.302545
360.443115,834.594727,-557.830811,1.303284
330.230713,832.122803,-538.513184,1.304045
323.181152,832.305908,-537.780762,1.304789
341.033936,809.509277,-575.958252,1.305534
347.717285,781.494141,-589.233398,1.306278
348.083496,778.106689,-594.726562,1.307017
322.265625,774.169922,-586.761475,1.307756
355.499268,793.762207,-568.725586,1.308495
375.823975,799.346924,-560.302734,1.309232
363.647461,797.698975,-562.774658,1.309969
344.696045,781.127930,-584.564209,1.310717
337.188721,766.937256,-601.684570,1.311459
313.110352,760.070801,-609.466553,1.312215
301.391602,763.366699,-590.240479,1.312966
293.884277,774.169922,-585.845947,1.313715
294.342041,764.007568,-585.937500,1.314477
318.237305,765.472412,-607.360840,1.315227
330.871582,745.513916,-619.995117,1.315977
338.195801,752.563477,-611.572266,1.316716
341.400146,765.563965,-589.050293,1.317453
364.471436,782.043457,-583.557129,1.318203
373.535156,777.648926,-569.549561,1.318943
368.591309,784.240723,-558.013916,1.319740
349.182129,805.572510,-580.169678,1.320496
309.265137,777.282715,-557.464600,1.321266
321.807861,790.008545,-526.428223,1.322024
364.562988,803.833008,-546.112061,1.322781
363.464355,780.120850,-560.302734,1.323525
383.148193,795.410156,-549.774170,1.324265
414.184570,808.868408,-564.880371,1.325004
385.986328,807.769775,-592.712402,1.325744
378.936768,788.818359,-577.972412,1.326483
319.519043,815.917969,-553.985596,1.327223
306.060791,809.692383,-564.147949,1.327962
353.027344,822.692871,-517.913818,1.328701
364.105225,837.982178,-540.618896,1.329440
368.041992,814.544678,-573.120117,1.330180
356.506348,799.713135,-559.112549,1.330920
395.141602,805.297852,-559.478760,1.331659
399.353027,829.742432,-528.900146,1.332399
380.401611,831.390381,-540.252686,1.333172
383.056641,820.037842,-555.450439,1.333914
428.924561,835.235596,-518.554688,1.334653
404.571533,837.524414,-541.351318,1.335392
377.929688,833.312988,-558.471680,1.336132
363.006592,809.509277,-549.865723,1.336871
343.231201,823.516846,-543.457031,1.337611
367.675781,854.095459,-466.094971,1.338351
330.047607,864.990234,-483.306885,1.339090
315.673828,850.158691,-491.638184,1.339829
322.723389,845.581055,-498.687744,1.340569
312.744141,842.102051,-534.851074,1.341308
322.814941,816.009521,-565.246582,1.342059
335.540771,815.093994,-530.822754,1.342798
343.780518,842.376709,-491.912842,1.343537
304.138184,841.003418,-485.412598,1.344277
292.327881,835.327148,-503.814697,1.345113
327.392578,816.741943,-532.562256,1.345852
352.203369,807.678223,-505.187988,1.346592
359.069824,812.988281,-452.087402,1.347331
279.968262,835.144043,-484.497070,1.348070
249.664307,797.790527,-509.216309,1.348809
213.226318,805.023193,-528.900146,1.349548
241.058350,814.361572,-509.674072,1.350288
252.227783,814.270020,-522.125244,1.351041
339.385986,812.255859,-507.843018,1.351780
347.351074,820.404053,-477.905273,1.352519
302.398682,832.489014,-469.848633,1.353258
227.966309,825.805664,-483.306885,1.354008
192.169189,830.841064,-499.237061,1.354748
191.162109,825.531006,-507.385254,1.355487
252.227783,843.841553,-484.405518,1.356227
238.220215,845.672607,-477.722168,1.356965
216.613770,851.989746,-483.398438,1.357705
201.599121,835.510254,-534.027100,1.358444
190.612793,802.093506,-554.168701,1.359183
202.423096,807.403564,-557.739258,1.359922
200.775146,807.586670,-525.604248,1.360661
198.760986,815.826416,-547.668457,1.361400
214.233398,836.059570,-539.154053,1.362138
194.824219,818.115234,-580.169678,1.362888
186.859131,787.536621,-658.447266,1.363655
177.246094,781.677246,-590.240479,1.364425
199.951172,807.495117,-533.111572,1.365175
147.857666,804.565430,-653.411865,1.365944
69.396973,767.486572,-717.315674,1.366684
120.391846,735.717773,-713.104248,1.367424
-3.021240,704.772949,-595.367432,1.368163
-613.586426,546.936035,-579.803467,1.368909
-550.872803,618.530273,-960.845947,1.369648
2999.908447,1638.061523,-1459.899902,1.370387
1364.593506,694.244385,-683.715820,1.371127
-465.362549,498.138428,-891.174316,1.371876
155.914307,484.588623,-876.251221,1.372616
-396.331787,688.476562,-212.677002,1.373355
-73.608398,718.414307,-190.063477,1.374097
153.625488,842.285156,-197.753906,1.374846
347.808838,883.300781,-250.213623,1.375585
472.320557,902.618408,-341.400146,1.376324
129.180908,733.245850,-370.330811,1.377064
229.156494,696.899414,-362.182617,1.377814
-9.429932,825.622559,-449.615479,1.378554
172.943115,841.552734,-383.605957,1.379293
260.742188,835.144043,-408.325195,1.380032
342.041016,792.205811,-558.837891,1.380782
341.766357,747.528076,-610.290527,1.381522
349.182129,712.280273,-613.677979,1.382263
279.235840,735.443115,-540.252686,1.383003
232.818604,752.563477,-535.675049,1.383654
148.864746,754.943848,-537.048340,1.384393
162.231445,748.901367,-584.197998,1.385132
114.074707,699.005127,-602.233887,1.385872
109.130859,708.801270,-576.049805,1.386621
149.780273,723.358154,-505.645752,1.387360
93.933105,714.660645,-595.184326,1.388099
164.154053,699.462891,-587.127686,1.388839
194.549561,702.301025,-669.158936,1.389588
202.697754,650.848389,-821.960449,1.390328
268.066406,640.228271,-761.352539,1.391067
285.278320,697.540283,-646.636963,1.391806
208.190918,665.405273,-753.845215,1.392558
193.634033,644.622803,-737.640381,1.393312
253.326416,646.728516,-717.864990,1.394079
324.462891,641.693115,-842.468262,1.394840
434.326172,631.347656,-880.737305,1.395613
557.189941,643.524170,-822.235107,1.396358
644.348145,690.490723,-663.757324,1.397098
349.182129,654.510498,-753.570557,1.397837
-55.297852,511.962891,-848.785400,1.398592
-745.605469,508.392334,-725.280762,1.399330
-1222.869873,532.012939,-1215.270996,1.400114
-1323.120117,241.516113,-2043.273926,1.400884
-1555.480957,130.096436,-2500.305176,1.401615
2625.091553,-161.773682,-3000.000000,1.402346
2932.342529,470.947266,-1968.475342,1.403076
2883.178711,-558.563232,-591.796875,1.403820
1786.743164,602.416992,-699.920654,1.404552
980.895996,714.660645,-193.359375,1.405282
-516.265869,634.918213,284.179688,1.406013
-746.887207,595.916748,-320.068359,1.406745
-1123.992920,595.275879,-666.503906,1.407476
-1355.987549,308.349609,-1687.408447,1.408206
-946.197510,227.508545,-1875.549316,1.408937
542.999268,14.923096,-1814.025879,1.409668
149.505615,-61.981201,-871.124268,1.410399
1309.020996,771.789551,-369.049072,1.411130
1977.722168,497.680664,1531.494141,1.411860
2999.908447,581.268311,1454.315186,1.412599
-280.883789,1261.322021,63.812256,1.413339
-1698.303223,1430.053711,-2430.633545,1.414079
-2638.366699,978.698730,-3000.000000,1.414910
-1638.153076,-655.059814,-2676.818848,1.415659
-1062.011719,-696.075439,-2219.512939,1.416399
-140.625000,-552.246094,-2023.132324,1.417139
2.105713,-470.123291,-2028.900146,1.417878
-164.886475,-510.223389,-2088.500977,1.418619
-68.023682,-575.592041,-2231.506348,1.419359
416.107178,-668.701172,-2641.754150,1.420099
1430.877686,-3000.000000,-2161.285400,1.420839
1654.357910,-1112.457275,-2564.666748,1.421579
-439.361572,-2557.250977,-2153.137207,1.422320
-289.398193,-3000.000000,-688.018799,1.423060
2033.843994,-3000.000000,-3000.000000,1.423799
-3000.000000,2999.908447,-3000.000000,1.424539
-3000.000000,-2448.211670,670.623779,1.425278
-3000.000000,-1627.166748,-47.241211,1.426018
371.246338,-1925.262451,798.339844,1.426758
2999.908447,241.790771,-456.024170,1.427508
2999.908447,-162.597656,-451.354980,1.428248
-281.341553,488.067627,-1689.331055,1.428988
-3000.000000,-297.271729,-913.787842,1.429728
-3000.000000,-746.704102,-985.656738,1.430468
-1910.064697,84.045410,-1488.555908,1.431208
2999.908447,497.222900,-1733.917236,1.431948
2999.908447,120.117188,-1870.697021,1.432688
1316.802979,-278.320312,-2038.330078,1.433428
-2035.858154,-201.141357,-1966.461182,1.434168
-1380.615234,14.739990,-2688.171387,1.434908
1379.058838,-121.490479,-2559.356689,1.435648
2668.395996,-291.046143,-2016.174316,1.436388
2392.913818,-237.304688,-2102.783203,1.437130
277.038574,232.635498,-2084.747314,1.437882
429.290771,53.833008,-2068.084717,1.438647
1595.947266,-286.926270,-2013.977051,1.439396
1985.504150,751.922607,-2165.496826,1.440138
819.305420,396.240234,-1752.319336,1.440878
-200.866699,-56.030273,-1673.950195,1.441618
1184.600830,633.911133,-2352.172852,1.442357
1167.022705,992.523193,-1803.955078,1.443097
-283.813477,204.528809,-1551.818848,1.443837
73.516846,496.124268,-1787.475586,1.444577
570.190430,961.395264,-1920.501709,1.445317
-1114.379883,679.687500,-1326.324463,1.446057
-1253.540039,633.544922,-1046.905518,1.446797
-3000.000000,1253.631592,-1357.543945,1.447537
-3000.000000,1179.382324,-1262.878418,1.448287
-3000.000000,1292.083740,-1292.999268,1.449035
-1424.560547,2124.023438,-1417.144775,1.449774
-382.781982,1718.353271,8.148193,1.450514
891.174316,1579.193115,-5.859375,1.451254
-608.093262,1748.565674,-926.055908,1.451998
-176.147461,1566.375732,-126.983643,1.452740
1020.263672,2180.053711,190.155029,1.453479
938.781738,1440.765381,-427.917480,1.454238
645.538330,1756.256104,-413.269043,1.454978
-128.997803,1586.425781,322.082520,1.455718
-88.073730,1644.012451,-1155.578613,1.456458
73.791504,1891.021729,-426.635742,1.457199
-571.289062,1485.900879,1244.476318,1.457938
259.460449,2711.425781,-505.462646,1.458678
666.320801,2103.515625,-1144.866943,1.459417
-865.814209,2210.906982,1428.863525,1.460158
-1019.439697,2134.735107,1581.481934,1.460898
1159.423828,2263.092041,389.739990,1.461638
618.164062,2835.113525,970.642090,1.462377
1603.179932,2999.908447,2999.908447,1.463117
2999.908447,2999.908447,2999.908447,1.463856
1114.196777,2999.908447,-1549.346924,1.464596
-2120.178223,2482.269287,-3000.000000,1.465337
-2339.904785,2303.009033,-27.099609,1.466077
-3000.000000,172.119141,1360.565186,1.466817
-791.564941,194.183350,512.420654,1.467556
2999.908447,1596.313477,-497.680664,1.468299
2999.908447,2999.908447,2918.151855,1.469043
285.369873,851.531982,-238.769531,1.469786
-2924.560547,1011.108398,-858.123779,1.470525
-1981.201172,2135.559082,965.515137,1.471280
-1867.584229,1054.962158,-1036.193848,1.472020
-31.402588,1155.029297,-103.546143,1.472760
880.828857,842.193604,-480.194092,1.473499
-1335.754395,920.471191,-780.395508,1.474239
-3000.000000,923.583984,-348.632812,1.474979
-2914.947510,838.256836,-623.199463,1.475718
-163.238525,1171.600342,-355.682373,1.476457
303.680420,642.517090,-659.820557,1.477197
-116.546631,500.152588,-884.490967,1.477951
-687.377930,667.877197,-807.495117,1.478691
-509.765625,790.832520,-624.572754,1.479430
-183.746338,721.893311,-781.219482,1.480170
306.243896,237.030029,-1181.213379,1.480919
697.448730,107.666016,-1297.668457,1.481660
960.205078,5.126953,-1415.222168,1.482481
866.271973,111.328125,-949.859619,1.483221
650.115967,200.225830,-851.715088,1.483961
91.461182,215.148926,-908.203125,1.484701
106.292725,311.370850,-849.975586,1.485441
233.093262,392.028809,-780.303955,1.486180
42.846680,428.009033,-764.373779,1.486920
16.479492,384.521484,-798.706055,1.487660
79.833984,339.111328,-851.898193,1.488399
156.829834,339.843750,-903.442383,1.489138
143.737793,290.313721,-883.300781,1.489878
78.552246,255.523682,-922.576904,1.490617
126.708984,233.459473,-926.239014,1.491356
355.407715,279.418945,-877.899170,1.492096
357.971191,260.467529,-841.918945,1.492835
112.152100,248.931885,-828.918457,1.493575
297.454834,294.982910,-801.086426,1.494314
396.789551,301.025391,-817.840576,1.495053
289.215088,213.592529,-846.313477,1.495793
130.920410,214.050293,-840.728760,1.496533
144.927979,257.354736,-813.262939,1.497272
279.510498,258.453369,-822.784424,1.498011
239.135742,206.359863,-910.125732,1.498750
358.978271,181.823730,-907.745361,1.499490
417.572021,218.811035,-843.658447,1.500229
243.072510,233.276367,-819.030762,1.500968
-86.791992,252.868652,-787.445068,1.501708
40.740967,285.919189,-822.509766,1.502447
435.333252,262.298584,-866.271973,1.503187
151.794434,194.000244,-868.103027,1.503926
113.342285,205.718994,-843.200684,1.504666
454.833984,249.755859,-821.411133,1.505405
308.074951,179.534912,-853.729248,1.506144
189.147949,176.422119,-848.602295,1.506884
481.292725,221.923828,-817.932129,1.507623
361.083984,217.620850,-831.939697,1.508373
87.524414,216.247559,-825.805664,1.509119
263.122559,259.826660,-825.622559,1.509865
321.807861,261.016846,-837.799072,1.510607
266.967773,241.424561,-842.193604,1.511348
228.424072,277.221680,-803.466797,1.512087
255.706787,257.995605,-838.165283,1.512827
206.634521,174.224854,-938.690186,1.513567
133.575439,180.816650,-860.137939,1.514306
144.195557,233.825684,-867.279053,1.515046
161.407471,258.361816,-820.861816,1.515785
214.324951,305.145264,-848.876953,1.516525
310.546875,297.088623,-813.079834,1.517265
271.270752,276.031494,-888.061523,1.518004
220.733643,259.460449,-863.983154,1.518744
168.273926,249.664307,-811.157227,1.519504
92.102051,257.720947,-824.615479,1.520248
283.813477,258.453369,-883.850098,1.520987
298.370361,237.121582,-913.787842,1.521727
285.827637,255.615234,-894.287109,1.522477
189.239502,249.206543,-841.094971,1.523216
28.747559,268.615723,-859.680176,1.523956
236.572266,287.384033,-847.137451,1.524695
368.316650,253.692627,-904.541016,1.525443
143.096924,230.804443,-950.775146,1.526183
138.610840,315.582275,-786.163330,1.526922
273.284912,346.893311,-891.265869,1.527662
258.178711,244.628906,-987.304688,1.528402
191.619873,248.840332,-886.413574,1.529141
164.520264,321.990967,-847.961426,1.529881
111.236572,337.188721,-831.298828,1.530621
96.313477,307.525635,-889.251709,1.531357
140.258789,252.685547,-885.498047,1.532097
166.442871,283.355713,-907.287598,1.532837
153.900146,293.243408,-864.990234,1.533576
154.724121,278.411865,-884.490967,1.534315
235.198975,296.630859,-912.872314,1.535054
291.595459,269.165039,-924.682617,1.535794
191.802979,282.073975,-893.646240,1.536533
145.751953,307.342529,-861.053467,1.537282
100.891113,340.118408,-851.623535,1.538022
99.243164,309.631348,-834.411621,1.538761
133.850098,314.117432,-880.645752,1.539501
138.427734,317.504883,-890.441895,1.540240
148.590088,313.385010,-869.842529,1.540988
139.617920,311.645508,-893.554688,1.541725
143.188477,291.870117,-908.477783,1.542463
230.346680,284.362793,-894.561768,1.543217
178.436279,281.890869,-900.238037,1.543958
107.574463,317.413330,-863.067627,1.544699
158.294678,321.166992,-831.939697,1.545439
264.953613,304.412842,-848.876953,1.546179
259.368896,283.447266,-910.949707,1.546918
168.823242,269.348145,-882.202148,1.547657
144.744873,315.032959,-838.073730,1.548397
209.197998,317.321777,-854.736328,1.549147
219.451904,280.059814,-890.625000,1.549887
193.634033,274.475098,-856.842041,1.550626
142.272949,313.659668,-851.715088,1.551366
123.229980,327.392578,-854.095459,1.552112
162.414551,307.525635,-856.842041,1.552852
200.866699,286.102295,-879.089355,1.553675
194.641113,298.645020,-851.531982,1.554414
170.471191,303.405762,-840.637207,1.555153
162.231445,285.827637,-863.891602,1.555892
174.682617,275.390625,-886.322021,1.556632
232.086182,273.101807,-870.025635,1.557371
197.662354,286.743164,-850.158691,1.558121
167.816162,309.173584,-823.059082,1.558860
175.598145,304.779053,-834.594727,1.559600
205.627441,261.932373,-869.201660,1.560339
157.470703,259.094238,-881.011963,1.561079
119.750977,276.123047,-841.003418,1.561818
162.231445,303.863525,-832.672119,1.562557
235.473633,287.200928,-858.856201,1.563296
234.375000,283.905029,-849.060059,1.564035
217.437744,281.066895,-840.911865,1.564774
233.825684,289.581299,-835.876465,1.565514
211.853027,288.940430,-850.891113,1.566253
159.667969,257.904053,-860.229492,1.567000
165.527344,282.806396,-852.447510,1.567739
206.726074,297.546387,-832.855225,1.568478
156.738281,292.968750,-844.665527,1.569218
167.633057,293.151855,-839.538574,1.569957
279.693604,299.560547,-833.312988,1.570707
261.749268,279.785156,-859.588623,1.571447
204.071045,283.172607,-855.834961,1.572186
146.942139,305.419922,-830.291748,1.572925
173.858643,324.554443,-836.059570,1.573674
218.719482,295.257568,-853.454590,1.574413
222.656250,281.250000,-860.595703,1.575153
209.381104,296.081543,-817.565918,1.575903
206.359863,332.336426,-814.270020,1.576681
236.663818,320.434570,-842.285156,1.577427
263.214111,300.476074,-861.236572,1.578169
224.945068,287.567139,-848.510742,1.578908
175.323486,308.624268,-812.438965,1.579647
159.393311,324.920654,-822.326660,1.580389
280.517578,291.870117,-862.701416,1.581128
282.531738,276.031494,-852.447510,1.581884
224.212646,296.722412,-837.890625,1.582624
182.647705,328.857422,-804.382324,1.583363
202.972412,329.315186,-809.967041,1.584102
271.820068,304.046631,-851.348877,1.584851
277.038574,290.954590,-860.687256,1.585591
226.409912,312.927246,-835.876465,1.586330
186.676025,333.801270,-802.917480,1.587069
172.851562,336.914062,-817.291260,1.587808
242.065430,303.314209,-853.088379,1.588556
247.283936,320.983887,-828.002930,1.589295
229.156494,336.914062,-817.108154,1.590035
322.540283,328.491211,-828.094482,1.590776
243.530273,299.102783,-848.236084,1.591529
28.381348,304.412842,-830.108643,1.592268
128.997803,363.372803,-803.009033,1.593008
400.726318,335.357666,-833.404541,1.593747
113.708496,264.953613,-887.329102,1.594498
55.938721,291.778564,-806.121826,1.595237
312.835693,371.246338,-788.269043,1.595976
329.589844,300.201416,-866.455078,1.596715
181.549072,270.538330,-879.638672,1.597461
194.274902,316.131592,-813.354492,1.598201
157.104492,355.499268,-796.325684,1.598940
193.542480,347.076416,-830.566406,1.599679
355.041504,275.665283,-898.223877,1.600426
316.040039,263.488770,-899.688721,1.601166
175.048828,313.385010,-819.580078,1.601905
136.138916,352.020264,-779.479980,1.602644
202.423096,344.238281,-818.756104,1.603392
314.300537,281.982422,-884.765625,1.604131
201.416016,271.362305,-855.560303,1.604870
167.541504,345.977783,-800.079346,1.605610
247.558594,367.675781,-832.031250,1.606215
241.424561,287.750244,-871.215820,1.606961
191.619873,270.263672,-888.885498,1.607703
243.804932,307.708740,-839.721680,1.608443
258.728027,336.273193,-811.248779,1.609194
183.654785,292.419434,-865.081787,1.609934
157.562256,299.652100,-864.990234,1.610675
292.510986,335.266113,-823.699951,1.611414
281.433105,327.758789,-859.222412,1.612163
119.018555,291.778564,-868.743896,1.612903
147.857666,313.568115,-844.757080,1.613644
291.687012,318.511963,-842.193604,1.614389
250.854492,287.658691,-856.201172,1.615152
156.280518,301.849365,-851.806641,1.615892
158.477783,315.765381,-825.714111,1.616631
254.791260,326.202393,-834.136963,1.617371
234.924316,295.806885,-872.039795,1.618120
210.113525,269.897461,-876.251221,1.618860
219.177246,319.427490,-824.340820,1.619599
212.768555,321.807861,-815.368652,1.620341
208.923340,286.376953,-856.201172,1.621094
202.606201,270.446777,-860.229492,1.621834
143.463135,304.321289,-841.461182,1.622574
196.929932,348.449707,-829.010010,1.623314
247.283936,335.632324,-872.772217,1.624154
237.030029,277.679443,-890.350342,1.624895
142.639160,296.630859,-847.595215,1.625635
160.766602,324.005127,-822.692871,1.626375
204.162598,330.230713,-839.996338,1.627124
223.388672,283.538818,-887.145996,1.627864
203.704834,292.602539,-879.180908,1.628603
167.083740,325.836182,-839.355469,1.629343
186.767578,330.139160,-858.489990,1.630092
194.915771,294.342041,-872.863770,1.630831
191.253662,293.701172,-869.567871,1.631571
224.304199,312.652588,-852.630615,1.632310
200.958252,323.730469,-850.982666,1.633058
175.048828,313.018799,-872.222900,1.633798
182.647705,300.292969,-876.434326,1.634537
230.438232,310.363770,-861.602783,1.635277
195.190430,306.518555,-861.785889,1.636026
172.576904,304.779053,-872.039795,1.636766
187.500000,300.933838,-878.448486,1.637506
226.959229,300.933838,-884.399414,1.638245
222.656250,310.729980,-881.561279,1.639008
199.768066,307.159424,-880.737305,1.639748
180.999756,324.096680,-868.743896,1.640487
181.457520,321.441650,-868.194580,1.641227
179.534912,321.624756,-868.103027,1.641973
191.802979,304.046631,-882.202148,1.642713
205.169678,312.927246,-867.187500,1.643452
206.085205,310.729980,-872.589111,1.644192
196.655273,320.251465,-873.138428,1.644940
194.458008,322.540283,-877.532959,1.645680
203.155518,325.378418,-876.617432,1.646421
195.190430,324.645996,-876.342773,1.647174
192.535400,333.526611,-872.039795,1.647950
191.802979,327.575684,-867.004395,1.648703
210.388184,330.871582,-884.399414,1.649443
196.929932,321.350098,-878.906250,1.650204
204.345703,318.695068,-885.223389,1.650944
201.873779,351.470947,-876.434326,1.651684
200.500488,322.998047,-880.920410,1.652423
202.880859,326.843262,-884.857178,1.653163
199.493408,322.540283,-884.674072,1.653904
189.056396,317.230225,-892.456055,1.654643
192.626953,333.251953,-874.603271,1.655383
205.444336,332.244873,-876.708984,1.656123
243.621826,328.216553,-890.075684,1.656863
249.481201,321.899414,-883.209229,1.657603
210.296631,327.484131,-887.695312,1.658343
165.527344,327.392578,-876.892090,1.659092
191.528320,326.660156,-877.532959,1.659832
209.655762,327.850342,-889.160156,1.660572
216.064453,304.687500,-886.596680,1.661314
232.727051,318.878174,-886.596680,1.662067
235.656738,327.026367,-880.187988,1.662807
219.451904,321.075439,-867.828369,1.663547
222.839355,317.047119,-887.329102,1.664286
224.853516,326.568604,-880.828857,1.665036
217.620850,327.301025,-876.068115,1.665776
210.205078,329.223633,-872.955322,1.666515
215.240479,323.730469,-886.230469,1.667255
224.578857,323.913574,-889.068604,1.667995
224.304199,317.230225,-887.603760,1.668734
216.247559,308.349609,-888.061523,1.669473
210.479736,333.068848,-875.610352,1.670213
217.987061,332.794189,-886.688232,1.670959
234.375000,333.618164,-884.857178,1.671698
227.233887,323.822021,-887.420654,1.672438
225.677490,331.512451,-885.040283,1.673178
208.099365,323.730469,-884.582520,1.673926
207.366943,305.603027,-887.420654,1.674666
227.325439,324.554443,-888.244629,1.675405
243.164062,324.920654,-894.653320,1.676145
238.311768,327.209473,-887.329102,1.676894
206.359863,322.265625,-885.955811,1.677634
202.423096,329.681396,-882.202148,1.678374
234.375000,331.329346,-886.962891,1.679115
228.790283,319.793701,-892.822266,1.679875
210.296631,317.871094,-882.568359,1.680636
219.635010,328.308105,-883.850098,1.681389
238.952637,331.970215,-893.920898,1.682149
227.325439,292.877197,-892.089844,1.682948
220.825195,310.272217,-883.026123,1.683733
213.134766,333.801270,-877.807617,1.684518
208.923340,326.568604,-887.145996,1.685303
221.923828,327.575684,-888.061523,1.686089
236.755371,324.096680,-892.364502,1.686873
215.057373,319.793701,-888.702393,1.687653
197.296143,326.202393,-886.779785,1.688411
233.184814,325.469971,-882.476807,1.689235
213.043213,304.962158,-896.942139,1.690023
214.874268,308.166504,-895.751953,1.690844
225.860596,326.110840,-891.906738,1.691631
216.064453,327.484131,-891.448975,1.692499
206.542969,327.850342,-891.815186,1.693313
219.451904,320.709229,-889.068604,1.694099
205.169678,326.110840,-888.702393,1.694988
197.937012,322.357178,-890.991211,1.695940
212.219238,325.561523,-891.540527,1.696764
225.402832,315.216064,-905.731201,1.697566
212.493896,324.188232,-896.209717,1.698478
222.564697,319.519043,-902.893066,1.699235
221.649170,330.596924,-900.787354,1.699972
219.360352,326.110840,-900.054932,1.700712
211.395264,326.934814,-896.759033,1.701488
209.564209,313.842773,-897.033691,1.702231
211.029053,322.998047,-898.773193,1.702966
211.120605,324.554443,-889.709473,1.703697
221.374512,322.265625,-890.075684,1.704463
219.085693,322.448730,-892.730713,1.705204
209.289551,329.132080,-900.695801,1.705935
221.832275,334.899902,-895.843506,1.706666
218.536377,341.308594,-891.082764,1.707455
220.184326,332.794189,-903.259277,1.708190
225.677490,324.371338,-903.076172,1.708921
216.339111,324.462891,-895.935059,1.709653
210.754395,332.794189,-891.540527,1.710426
229.888916,328.033447,-894.195557,1.711169
218.902588,335.540771,-889.434814,1.711910
217.346191,332.519531,-885.681152,1.712652
225.860596,339.477539,-895.385742,1.713398
224.670410,333.801270,-899.963379,1.714130
219.268799,327.392578,-896.026611,1.714917
221.740723,327.209473,-889.526367,1.715722
218.994141,332.153320,-888.610840,1.716513
216.705322,344.512939,-881.103516,1.717288
225.860596,334.716797,-894.012451,1.718113
227.874756,330.688477,-881.103516,1.718890
224.029541,323.364258,-880.279541,1.719645
232.727051,325.378418,-879.455566,1.720386
228.607178,324.737549,-874.511719,1.721128
232.086182,327.575684,-880.004883,1.721893
229.614258,325.012207,-881.835938,1.722635
238.220215,318.054199,-877.258301,1.723395
230.621338,315.032959,-883.666992,1.724133
230.163574,313.476562,-880.737305,1.724897
222.381592,320.800781,-882.659912,1.725640
233.276367,323.547363,-884.674072,1.726381
232.910156,318.145752,-885.498047,1.727152
237.670898,315.582275,-881.286621,1.727954
232.452393,323.272705,-876.251221,1.728696
229.522705,320.892334,-874.420166,1.729432
233.367920,315.399170,-880.554199,1.730169
229.797363,312.103271,-889.068604,1.730927
227.416992,306.793213,-884.399414,1.731665
229.064941,311.279297,-879.730225,1.732401
229.705811,307.067871,-881.744385,1.733137
225.128174,309.997559,-879.455566,1.733893
235.382080,314.117432,-878.265381,1.734632
235.198975,308.715820,-879.730225,1.735370
239.410400,307.800293,-876.617432,1.736106
236.114502,311.920166,-874.237061,1.736858
235.748291,306.793213,-881.835938,1.737596
236.572266,297.821045,-885.681152,1.738334
232.635498,302.673340,-888.793945,1.739070
227.691650,309.082031,-883.758545,1.739893
229.797363,322.631836,-889.709473,1.740633
224.670410,327.026367,-883.575439,1.741396
233.551025,329.681396,-883.941650,1.742168
230.712891,332.611084,-889.984131,1.742913
228.240967,317.321777,-899.505615,1.743654
224.761963,325.012207,-889.526367,1.744411
232.543945,336.730957,-913.604736,1.745197
233.642578,329.681396,-894.744873,1.745947
229.797363,333.343506,-897.766113,1.746694
227.508545,332.336426,-899.871826,1.747439
225.494385,341.033936,-899.139404,1.748261
232.727051,346.710205,-896.026611,1.749002
225.952148,342.956543,-889.709473,1.749741
230.163574,341.949463,-893.920898,1.750479
225.402832,343.414307,-906.829834,1.751267
235.839844,341.583252,-905.364990,1.752022
244.445801,346.160889,-894.836426,1.752774
238.586426,348.266602,-905.914307,1.753533
233.093262,348.266602,-903.625488,1.754285
227.050781,358.520508,-901.245117,1.755036
235.565186,354.583740,-898.406982,1.755784
248.748779,350.463867,-914.154053,1.756558
216.888428,353.485107,-908.203125,1.757311
203.613281,351.928711,-898.315430,1.758063
245.635986,356.781006,-896.118164,1.758816
268.066406,340.484619,-908.935547,1.759567
248.107910,334.716797,-923.400879,1.760323
230.072021,356.140137,-893.737793,1.761073
245.452881,361.907959,-893.371582,1.761824
260.742188,357.330322,-900.787354,1.762576
226.501465,335.266113,-914.886475,1.763326
228.790283,343.780518,-899.780273,1.764075
262.390137,345.703125,-902.435303,1.764823
234.741211,335.723877,-915.985107,1.765571
255.432129,328.765869,-917.175293,1.766319
263.214111,341.125488,-907.287598,1.767066
251.220703,354.400635,-892.089844,1.767815
227.783203,347.442627,-901.611328,1.768692
261.199951,342.590332,-915.802002,1.769439
247.650146,341.583252,-907.379150,1.770185
227.325439,335.723877,-903.442383,1.770929
249.847412,344.696045,-902.893066,1.771694
270.446777,335.906982,-910.491943,1.772442
254.974365,337.371826,-910.217285,1.773213
248.291016,337.738037,-908.569336,1.773994
276.397705,347.259521,-897.949219,1.774804
256.256104,348.907471,-908.477783,1.775588
225.952148,337.921143,-916.900635,1.776381
259.460449,348.815918,-908.294678,1.777197
268.249512,333.618164,-900.970459,1.778024
251.586914,341.125488,-911.865234,1.778792
251.495361,327.667236,-911.590576,1.779564
258.636475,342.773438,-901.885986,1.780352
243.621826,337.738037,-906.738281,1.781204
231.445312,334.533691,-909.942627,1.782064
259.826660,340.484619,-902.801514,1.782913
245.727539,339.569092,-899.139404,1.783764
245.361328,332.702637,-904.815674,1.784603
257.354736,333.709717,-904.266357,1.785415
249.664307,327.575684,-908.843994,1.786239
241.607666,328.948975,-908.294678,1.787038
241.149902,336.914062,-907.653809,1.787817
237.487793,333.892822,-903.625488,1.788592
251.037598,327.758789,-900.970459,1.789383
249.114990,321.075439,-909.576416,1.790154
246.276855,324.737549,-907.104492,1.790915
234.649658,326.660156,-897.766113,1.791666
236.938477,321.624756,-905.456543,1.792445
241.516113,316.589355,-935.943604,1.793200
235.931396,315.490723,-909.484863,1.793945
230.529785,323.364258,-904.724121,1.794685
241.790771,315.948486,-912.506104,1.795450
238.037109,318.695068,-908.203125,1.796191
242.340088,322.631836,-904.724121,1.796933
234.191895,316.589355,-909.851074,1.797673
227.416992,325.103760,-906.463623,1.798430
230.895996,323.364258,-905.456543,1.799172
241.790771,315.490723,-913.238525,1.799921
230.255127,315.582275,-910.217285,1.800666
230.712891,320.983887,-932.281494,1.801430
231.262207,315.673828,-907.012939,1.802173
234.191895,318.511963,-919.830322,1.802919
243.804932,321.075439,-916.351318,1.803665
241.149902,328.399658,-907.196045,1.804428
231.445312,321.441650,-908.111572,1.805194
228.698730,331.695557,-912.414551,1.805949
228.149414,331.054688,-910.858154,1.806698
234.191895,327.850342,-922.027588,1.807443
225.952148,349.182129,-915.985107,1.808185
234.191895,335.906982,-916.534424,1.808928
238.769531,324.920654,-913.055420,1.809694
232.635498,324.188232,-891.998291,1.810436
223.571777,332.061768,-907.836914,1.811178
227.874756,339.935303,-915.344238,1.811936
224.487305,326.477051,-920.013428,1.812726
231.262207,328.582764,-907.836914,1.813478
227.325439,323.913574,-915.069580,1.814219
229.064941,324.005127,-912.322998,1.814958
228.515625,315.856934,-903.167725,1.815702
226.226807,323.455811,-911.132812,1.816442
220.916748,323.547363,-905.548096,1.817182
222.381592,325.744629,-911.224365,1.817922
230.529785,321.441650,-903.442383,1.818673
217.895508,321.533203,-909.667969,1.819413
222.290039,320.159912,-907.012939,1.820153
211.761475,315.948486,-911.407471,1.820893
217.895508,325.561523,-910.308838,1.821643
223.754883,315.673828,-937.133789,1.822383
218.994141,310.821533,-909.393311,1.823123
219.635010,321.533203,-909.851074,1.823862
211.120605,320.892334,-910.583496,1.824612
214.691162,322.723389,-913.970947,1.825352
207.000732,321.533203,-909.393311,1.826091
217.071533,328.948975,-913.421631,1.826831
206.817627,316.772461,-923.767090,1.827582
208.099365,313.842773,-924.407959,1.828322
207.458496,313.018799,-921.386719,1.829062
219.451904,320.800781,-912.963867,1.829802
216.430664,320.251465,-914.703369,1.830552
220.733643,321.258545,-916.717529,1.831292
224.029541,320.892334,-916.259766,1.832032
217.620850,324.005127,-916.534424,1.832772
216.705322,318.237305,-920.928955,1.833523
204.895020,316.497803,-921.386719,1.834263
209.381104,320.159912,-922.119141,1.835003
212.127686,326.202393,-913.330078,1.835742
211.761475,322.448730,-910.217285,1.836491
215.057373,317.504883,-907.012939,1.837230
214.141846,329.956055,-910.766602,1.837970
213.134766,329.681396,-905.914307,1.838709
215.423584,326.843262,-905.639648,1.839459
208.190918,317.413330,-909.667969,1.840199
202.606201,322.631836,-914.428711,1.841031
202.056885,322.265625,-916.809082,1.841772
206.268311,317.047119,-920.196533,1.842533
210.479736,324.096680,-911.590576,1.843274
204.528809,321.441650,-909.667969,1.844014
208.740234,328.033447,-915.618896,1.844753
214.782715,329.772949,-917.724609,1.845508
212.036133,327.484131,-908.294678,1.846248
212.219238,323.822021,-915.252686,1.846988
211.120605,320.892334,-908.660889,1.847727
210.754395,319.793701,-915.985107,1.848477
212.402344,329.589844,-910.949707,1.849216
216.888428,320.617676,-919.555664,1.849956
209.289551,328.399658,-915.985107,1.850695
210.205078,328.216553,-907.470703,1.851449
210.296631,327.484131,-903.808594,1.852189
214.233398,328.674316,-911.407471,1.852928
210.754395,324.737549,-911.407471,1.853668
211.303711,325.286865,-899.963379,1.854412
216.888428,321.899414,-913.055420,1.855149
226.501465,317.596436,-915.802002,1.855887
229.156494,318.420410,-917.449951,1.856625
224.578857,322.265625,-908.935547,1.857389
215.148926,319.793701,-914.611816,1.858129
231.262207,329.956055,-915.618896,1.858869
226.409912,325.103760,-908.203125,1.859608
222.473145,324.371338,-906.463623,1.860355
221.282959,328.308105,-915.252686,1.861127
230.712891,313.110352,-906.280518,1.861878
231.353760,321.624756,-905.731201,1.862653
225.952148,325.744629,-903.076172,1.863402
226.684570,315.399170,-906.646729,1.864144
227.142334,320.251465,-907.287598,1.864885
232.452393,323.547363,-903.259277,1.865627
234.924316,331.512451,-909.027100,1.866369
235.198975,328.399658,-908.477783,1.867110
230.712891,321.350098,-906.646729,1.867851
250.030518,323.455811,-903.808594,1.868591
240.051270,315.673828,-902.709961,1.869332
234.466553,314.117432,-909.393311,1.870073
234.741211,316.040039,-902.801514,1.870814
233.276367,315.307617,-907.196045,1.871555
229.614258,323.181152,-904.083252,1.872296
225.952148,321.624756,-907.470703,1.873038
236.297607,315.948486,-899.230957,1.873779
234.008789,323.730469,-898.132324,1.874520
230.255127,317.596436,-902.801514,1.875262
232.177734,317.413330,-899.230957,1.876003
235.931396,316.864014,-906.463623,1.876744
239.227295,312.469482,-909.576416,1.877487
212.036133,313.842773,-909.851074,1.878233
228.881836,313.110352,-902.801514,1.878974
226.043701,308.624268,-913.146973,1.879715
231.353760,311.828613,-905.456543,1.880457
228.424072,315.032959,-912.597656,1.881197
224.487305,320.800781,-908.569336,1.881938
233.184814,324.005127,-933.013916,1.882680
230.255127,324.096680,-913.696289,1.883421
228.149414,332.519531,-906.097412,1.884162
241.149902,326.568604,-909.484863,1.884903
232.727051,329.956055,-895.294189,1.885644
233.093262,326.751709,-904.815674,1.886398
228.973389,318.145752,-903.442383,1.887139
251.403809,327.484131,-901.153564,1.887881
243.530273,326.110840,-894.927979,1.888622
232.543945,327.667236,-909.851074,1.889365
239.868164,321.258545,-909.759521,1.890106
239.318848,322.540283,-909.759521,1.890847
230.712891,321.258545,-910.308838,1.891589
233.459473,321.716309,-913.604736,1.892340
241.699219,328.125000,-910.034180,1.893082
240.417480,331.970215,-907.012939,1.893823
236.663818,328.125000,-905.181885,1.894564
235.382080,329.223633,-906.646729,1.895314
231.445312,331.787109,-915.435791,1.896056
229.522705,322.448730,-905.822754,1.896797
253.051758,334.899902,-903.808594,1.897538
233.184814,332.519531,-931.457520,1.898279
236.755371,330.139160,-911.132812,1.899020
235.839844,327.850342,-909.210205,1.899761
229.431152,327.026367,-914.245605,1.900502
232.269287,323.181152,-899.963379,1.901253
228.057861,326.293945,-908.020020,1.901994
225.769043,323.455811,-918.548584,1.902735
233.184814,323.364258,-913.879395,1.903476
235.931396,321.716309,-916.259766,1.904218
233.184814,324.188232,-915.069580,1.904959
232.727051,322.448730,-908.020020,1.905700
225.769043,320.526123,-906.463623,1.906441
228.973389,326.751709,-910.766602,1.907191
236.389160,325.561523,-905.548096,1.907933
229.064941,328.582764,-909.851074,1.908675
225.219727,329.956055,-902.893066,1.909416
221.557617,321.166992,-909.393311,1.910167
223.388672,324.829102,-911.041260,1.910908
233.825684,327.758789,-913.879395,1.911736
233.184814,330.139160,-913.055420,1.912477
229.705811,330.230713,-914.428711,1.913218
235.290527,324.188232,-909.210205,1.913959
226.959229,331.329346,-915.344238,1.914701
220.367432,326.293945,-912.689209,1.915442
227.233887,331.512451,-911.407471,1.916183
222.839355,331.878662,-918.548584,1.916924
222.747803,330.230713,-911.865234,1.917666
231.079102,325.286865,-911.956787,1.918408
226.867676,326.843262,-911.499023,1.919149
217.437744,326.934814,-913.330078,1.919893
220.275879,326.477051,-910.766602,1.920644
219.726562,325.469971,-908.843994,1.921397
221.466064,320.343018,-909.210205,1.922151
220.275879,320.068359,-920.837402,1.922906
230.163574,327.209473,-911.315918,1.923664
230.529785,325.012207,-911.499023,1.924424
225.585938,321.441650,-907.379150,1.925183
224.761963,305.511475,-912.506104,1.925927
228.973389,326.202393,-917.266846,1.926668
223.571777,327.484131,-913.513184,1.927410
225.128174,337.463379,-909.576416,1.928152
230.804443,325.378418,-912.322998,1.928894
231.445312,323.089600,-909.942627,1.929635
231.262207,327.392578,-909.210205,1.930376
225.036621,322.998047,-906.555176,1.931144
235.015869,327.575684,-908.203125,1.931887
226.501465,327.301025,-905.548096,1.932640
221.832275,324.920654,-911.224365,1.933393
226.959229,321.533203,-909.942627,1.934170
235.290527,327.758789,-910.583496,1.934920
233.184814,320.800781,-908.843994,1.935662
225.036621,318.420410,-905.548096,1.936403
232.910156,320.617676,-909.942627,1.937166
231.994629,318.603516,-910.217285,1.937908
233.093262,322.357178,-898.773193,1.938649
238.861084,328.308105,-906.280518,1.939391
235.839844,323.822021,-901.428223,1.940142
224.761963,319.152832,-909.393311,1.940884
228.240967,323.272705,-913.421631,1.941625
227.966309,313.201904,-891.357422,1.942366
228.057861,312.927246,-908.294678,1.943117
232.818604,314.117432,-906.463623,1.943858
234.283447,314.941406,-902.618408,1.944600
229.431152,317.230225,-906.005859,1.945342
238.494873,317.871094,-899.780273,1.946092
237.304688,315.948486,-898.406982,1.946833
228.332520,310.821533,-902.984619,1.947574
231.994629,312.561035,-906.097412,1.948315
232.269287,325.469971,-901.245117,1.949069
229.431152,317.047119,-905.090332,1.949811
229.064941,314.758301,-902.801514,1.950552
233.001709,320.892334,-900.054932,1.951293
234.832764,311.737061,-901.977539,1.952044
233.642578,317.504883,-908.843994,1.952785
238.311768,317.138672,-908.843994,1.953526
237.487793,320.526123,-899.414062,1.954267
239.776611,315.032959,-909.667969,1.955017
234.375000,318.420410,-903.533936,1.955758
239.685059,327.575684,-901.794434,1.956499
254.699707,314.941406,-904.449463,1.957241
232.086182,305.053711,-912.780762,1.957993
242.523193,314.849854,-904.266357,1.958734
238.220215,320.434570,-896.026611,1.959475
232.910156,315.673828,-901.702881,1.960216
236.022949,316.589355,-909.210205,1.960964
237.945557,315.307617,-902.709961,1.961706
245.727539,312.469482,-908.020020,1.962447
242.706299,317.779541,-905.090332,1.963189
241.149902,324.279785,-903.808594,1.963939
240.509033,326.751709,-901.336670,1.964680
237.579346,324.188232,-905.273438,1.965422
242.523193,332.702637,-903.717041,1.966163
246.002197,324.188232,-903.350830,1.966913
241.607666,330.230713,-902.709961,1.967654
242.706299,327.758789,-899.597168,1.968395
244.537354,350.921631,-900.329590,1.969136
239.593506,329.498291,-904.174805,1.969887
244.262695,326.751709,-901.794434,1.970628
245.452881,326.751709,-910.125732,1.971369
245.452881,332.427979,-910.491943,1.972110
239.685059,327.301025,-913.055420,1.972861
238.952637,324.554443,-911.041260,1.973602
247.192383,328.582764,-907.928467,1.974343
243.988037,326.202393,-902.160645,1.975085
236.846924,330.688477,-914.794922,1.975836
246.276855,337.097168,-915.069580,1.976577
242.980957,334.442139,-892.089844,1.977318
243.072510,335.723877,-904.083252,1.978059
242.889404,323.181152,-912.048340,1.978809
237.396240,321.899414,-911.773682,1.979551
239.044189,322.631836,-915.252686,1.980292
238.128662,324.005127,-914.428711,1.981033
236.663818,331.512451,-909.484863,1.981784
240.600586,336.822510,-908.569336,1.982609
234.466553,332.794189,-907.104492,1.983351
236.846924,335.174561,-906.463623,1.984092
237.579346,334.625244,-909.484863,1.984843
237.487793,335.723877,-915.252686,1.985585
231.811523,326.477051,-915.344238,1.986326
242.065430,335.815430,-918.457031,1.987067
234.283447,338.470459,-908.203125,1.987818
230.346680,325.286865,-915.710449,1.988559
235.565186,328.216553,-916.442871,1.989300
229.156494,333.435059,-917.358398,1.990042
229.888916,332.611084,-910.125732,1.990791
227.691650,333.068848,-906.829834,1.991532
231.079102,330.413818,-917.358398,1.992273
232.177734,335.266113,-917.358398,1.993014
229.614258,334.075928,-921.752930,1.993765
224.670410,332.885742,-920.562744,1.994510
228.332520,331.787109,-909.118652,1.995251
228.790283,333.618164,-906.555176,1.995992
222.747803,327.484131,-912.963867,1.996745
237.670898,328.857422,-913.513184,1.997488
233.642578,324.645996,-913.879395,1.998242
235.839844,327.941895,-919.006348,1.998984
231.811523,321.807861,-921.112061,1.999745
230.346680,323.272705,-914.245605,2.000487
233.642578,328.216553,-891.265869,2.001228
225.036621,327.117920,-916.442871,2.001969
230.712891,328.308105,-910.858154,2.002719
227.233887,323.455811,-921.295166,2.003460
226.867676,327.575684,-915.344238,2.004201
232.727051,324.462891,-913.055420,2.004953
230.529785,328.216553,-915.802002,2.005754
233.459473,327.392578,-911.132812,2.006511
231.353760,326.385498,-913.055420,2.007256
237.213135,328.582764,-914.245605,2.007997
231.079102,332.794189,-910.766602,2.008763
232.910156,332.244873,-910.766602,2.009505
231.811523,323.272705,-907.012939,2.010246
229.980469,323.730469,-912.414551,2.010987
243.072510,335.083008,-908.569336,2.011738
237.762451,323.089600,-914.428711,2.012479
233.734131,329.681396,-910.400391,2.013220
235.931396,331.146240,-902.984619,2.013962
233.367920,320.434570,-912.963867,2.014712
238.769531,326.019287,-934.570312,2.015454
238.403320,317.779541,-910.308838,2.016195
241.333008,325.744629,-906.097412,2.016937
245.544434,324.371338,-899.688721,2.017687
232.635498,315.216064,-904.357910,2.018428
230.255127,321.533203,-905.273438,2.019170
234.375000,316.864014,-907.653809,2.019913
238.403320,322.814941,-898.681641,2.020666
235.473633,320.251465,-901.153564,2.021408
232.910156,321.624756,-898.132324,2.022149
240.966797,313.293457,-905.090332,2.022890
243.896484,322.082520,-905.090332,2.023645
239.593506,317.413330,-900.695801,2.024386
242.248535,316.772461,-898.590088,2.025127
237.945557,310.546875,-892.822266,2.025868
230.895996,313.934326,-898.773193,2.026619
237.121582,313.018799,-895.568848,2.027360
237.396240,307.525635,-897.857666,2.028102
235.839844,307.891846,-896.942139,2.028843
231.719971,308.074951,-903.717041,2.029593
239.776611,313.476562,-899.047852,2.030334
232.910156,312.652588,-900.421143,2.031076
239.318848,316.497803,-904.174805,2.031817
230.346680,308.624268,-898.223877,2.032568
231.170654,316.131592,-894.287109,2.033309
235.656738,312.377930,-888.519287,2.034051
231.353760,312.561035,-896.942139,2.034792
230.438232,319.610596,-894.195557,2.035542
226.135254,316.864014,-893.920898,2.036284
231.903076,314.025879,-896.759033,2.037025
229.339600,311.187744,-893.371582,2.037766
223.663330,306.976318,-894.836426,2.038515
230.895996,311.004639,-893.737793,2.039257
225.402832,317.321777,-895.660400,2.039998
229.248047,313.751221,-894.104004,2.040739
225.311279,316.131592,-888.702393,2.041489
221.649170,308.624268,-893.554688,2.042231
219.909668,309.539795,-900.512695,2.042972
220.642090,303.680420,-894.287109,2.043713
225.677490,313.934326,-891.998291,2.044465
228.973389,314.666748,-893.920898,2.045206
255.432129,317.596436,-893.371582,2.045947
227.783203,314.208984,-886.322021,2.046688
229.522705,320.983887,-895.111084,2.047439
229.248047,317.596436,-890.625000,2.048180
229.705811,305.419922,-891.357422,2.048922
223.297119,316.040039,-890.350342,2.049663
223.022461,313.568115,-881.561279,2.050416
228.424072,310.272217,-891.174316,2.051157
221.191406,312.469482,-893.463135,2.051898
217.987061,316.040039,-889.068604,2.052639
220.916748,304.046631,-890.350342,2.053387
223.388672,309.814453,-894.561768,2.054214
219.726562,308.441162,-891.174316,2.054955
221.282959,321.258545,-884.307861,2.055697
222.198486,319.335938,-888.793945,2.056449
221.557617,308.532715,-896.575928,2.057191
214.599609,313.201904,-890.625000,2.057932
220.550537,312.469482,-894.104004,2.058673
220.275879,316.497803,-900.238037,2.059424
219.268799,320.343018,-891.265869,2.060165
220.275879,317.596436,-889.984131,2.060906
225.677490,320.526123,-892.456055,2.061647
225.128174,318.695068,-900.512695,2.062397
225.402832,320.800781,-904.083252,2.063138
223.205566,315.673828,-894.012451,2.063879
231.811523,313.568115,-894.836426,2.064620
229.797363,314.666748,-901.794434,2.065370
224.761963,320.709229,-892.730713,2.066112
226.593018,313.934326,-894.561768,2.066853
227.874756,316.040039,-894.195557,2.067594
229.339600,323.364258,-895.660400,2.068345
225.128174,320.983887,-897.857666,2.069086
222.381592,317.962646,-895.477295,2.069827
228.332520,319.702148,-899.047852,2.070569
234.375000,325.378418,-894.561768,2.071321
232.635498,324.188232,-893.463135,2.072064
234.649658,324.645996,-896.301270,2.072807
240.783691,327.850342,-895.935059,2.073548
236.755371,323.547363,-901.062012,2.074316
236.480713,325.195312,-904.357910,2.075078
232.177734,329.223633,-896.759033,2.075828
229.888916,329.956055,-898.132324,2.076596
236.846924,330.871582,-897.949219,2.077344
210.937500,329.132080,-901.153564,2.078084
241.882324,331.146240,-902.160645,2.078824
233.917236,329.406738,-897.216797,2.079564
238.769531,321.258545,-898.498535,2.080304
235.839844,332.611084,-901.794434,2.081044
233.093262,322.540283,-903.808594,2.081784
235.748291,318.878174,-906.188965,2.082526
243.713379,323.089600,-904.541016,2.083266
240.692139,320.434570,-906.280518,2.084007
241.333008,317.413330,-900.329590,2.084747
236.755371,325.561523,-894.287109,2.085509
240.783691,320.526123,-900.512695,2.086249
242.065430,323.913574,-901.336670,2.086989
255.798340,317.962646,-895.843506,2.087728
238.220215,319.885254,-900.054932,2.088478
236.206055,316.589355,-891.174316,2.089218
234.649658,319.061279,-899.047852,2.089958
240.600586,318.969727,-897.216797,2.090698
241.333008,317.413330,-890.167236,2.091443
238.769531,320.526123,-912.963867,2.092183
240.966797,317.504883,-894.287109,2.092923
240.692139,313.385010,-896.026611,2.093663
242.431641,312.377930,-896.209717,2.094414
234.191895,316.131592,-888.519287,2.095154
231.719971,312.835693,-889.709473,2.095894
237.579346,312.011719,-892.730713,2.096634
235.656738,312.744141,-892.822266,2.097383
236.389160,307.983398,-894.378662,2.098123
238.952637,309.722900,-892.547607,2.098863
234.924316,313.568115,-891.723633,2.099603
233.184814,311.370850,-895.843506,2.100343
231.536865,313.201904,-899.688721,2.101083
231.262207,314.575195,-893.463135,2.101823
236.297607,305.145264,-901.977539,2.102564
226.318359,307.708740,-893.005371,2.103304
230.072021,312.561035,-889.160156,2.104044
224.121094,309.722900,-899.047852,2.104784
231.170654,318.511963,-899.597168,2.105524
235.565186,304.779053,-896.850586,2.106264
236.846924,320.709229,-896.301270,2.107003
223.754883,319.793701,-898.956299,2.107743
229.156494,318.237305,-893.371582,2.108484
227.691650,316.680908,-890.808105,2.109225
229.980469,320.251465,-898.315430,2.109964
229.980469,317.230225,-898.315430,2.110704
237.854004,319.610596,-896.942139,2.111445
229.064941,319.427490,-899.139404,2.112194
232.452393,321.716309,-900.421143,2.112935
227.600098,317.138672,-906.280518,2.113675
231.170654,326.934814,-903.350830,2.114416
234.832764,323.638916,-903.533936,2.115165
229.339600,313.568115,-908.477783,2.115905
228.607178,316.497803,-905.273438,2.116645
233.734131,316.497803,-905.181885,2.117385
238.494873,320.709229,-896.942139,2.118125
236.297607,320.983887,-897.583008,2.118864
235.290527,322.265625,-904.266357,2.119604
218.811035,322.265625,-900.054932,2.120343
237.213135,317.138672,-893.920898,2.121083
236.663818,322.814941,-910.583496,2.121823
236.206055,320.159912,-900.146484,2.122563
235.565186,324.371338,-894.470215,2.123303
235.198975,325.927734,-891.723633,2.124042
238.220215,326.660156,-897.216797,2.124865
234.100342,328.674316,-898.223877,2.125605
256.072998,329.132080,-896.667480,2.126345
236.389160,315.307617,-891.906738,2.127085
233.825684,327.301025,-894.470215,2.127825
227.783203,328.033447,-896.850586,2.128565
236.480713,326.385498,-901.428223,2.129305
240.692139,324.829102,-899.322510,2.130045
236.389160,326.019287,-899.505615,2.130785
228.698730,319.885254,-898.223877,2.131525
235.565186,326.293945,-895.751953,2.132266
242.156982,318.695068,-889.617920,2.133006
238.220215,319.335938,-890.716553,2.133746
236.206055,323.089600,-890.258789,2.134485
236.389160,313.751221,-884.399414,2.135225
236.297607,319.152832,-890.441895,2.135975
228.790283,319.610596,-895.385742,2.136716
237.396240,309.906006,-891.815186,2.137456
234.100342,311.096191,-890.625000,2.138195
228.973389,310.180664,-898.498535,2.138945
230.895996,314.392090,-896.484375,2.139685
234.100342,314.117432,-870.208740,2.140424
230.804443,310.089111,-888.885498,2.141164
240.051270,310.089111,-884.307861,2.141915
227.783203,312.469482,-884.307861,2.142655
231.445312,320.068359,-895.843506,2.143394
228.973389,307.891846,-889.709473,2.144134
