ACC_X,ACC_Y,ACC_Z,Time
-510.040283,830.474854,126.617432,0.000315
-505.004883,826.629639,121.398926,0.002315
-498.779297,839.172363,117.828369,0.004250
-504.913330,829.467773,120.666504,0.006194
-509.124756,832.672119,121.307373,0.008104
-502.349854,834.136963,97.412109,0.010013
-504.089355,837.524414,128.082275,0.011948
-506.561279,836.883545,123.504639,0.013856
-511.047363,835.784912,126.342773,0.015790
-507.385254,845.581055,131.744385,0.017680
-507.568359,842.742920,134.307861,0.019561
-505.554199,844.024658,130.279541,0.021498
-504.913330,847.045898,126.892090,0.023402
-507.202148,845.672607,130.737305,0.025305
-503.814697,849.609375,127.258301,0.027234
-510.864258,840.270996,120.666504,0.029137
-505.920410,847.045898,139.251709,0.031066
-502.166748,847.137451,130.004883,0.032995
-504.364014,846.405029,130.920410,0.034897
-501.800537,842.010498,131.378174,0.036824
-499.328613,837.890625,133.392334,0.038726
-500.061035,835.968018,133.483887,0.040653
-501.708984,830.749512,127.624512,0.042617
-493.469238,832.946777,131.195068,0.044520
-499.053955,836.059570,123.596191,0.046439
-493.835449,830.566406,119.934082,0.048341
-511.779785,831.207275,125.335693,0.050246
-491.363525,831.390381,132.110596,0.051498
-490.264893,834.228516,128.265381,0.052239
-491.912842,834.686279,120.666504,0.052978
-488.800049,837.524414,128.265381,0.053718
-492.095947,833.679199,125.335693,0.054467
-485.229492,842.010498,127.807617,0.055207
-485.870361,834.320068,127.166748,0.055946
-480.834961,836.517334,123.229980,0.056685
-484.039307,836.517334,130.462646,0.057434
-484.771729,829.284668,131.835938,0.058173
-485.687256,835.601807,131.103516,0.058912
-482.666016,845.214844,129.821777,0.059651
-485.046387,844.116211,128.723145,0.060398
-487.152100,842.559814,133.483887,0.061135
-489.166260,840.270996,130.737305,0.061886
-484.313965,848.144531,122.955322,0.062627
-487.609863,851.074219,125.793457,0.063376
-487.609863,849.700928,134.216309,0.064116
-493.286133,841.278076,117.919922,0.064856
-485.137939,853.271484,122.314453,0.065596
-488.525391,852.539062,126.342773,0.066349
-489.532471,855.743408,126.342773,0.067111
-487.060547,849.060059,130.920410,0.067864
-484.863281,849.151611,128.997803,0.068608
-491.546631,858.673096,130.828857,0.069375
-493.011475,850.433350,123.138428,0.070116
-489.898682,857.940674,122.497559,0.070856
-488.433838,857.116699,118.194580,0.071595
-489.990234,861.419678,122.589111,0.072344
-489.257812,860.504150,118.286133,0.073083
-492.095947,852.722168,121.856689,0.073823
-493.560791,856.750488,125.152588,0.074563
-493.011475,856.292725,128.631592,0.075317
-489.532471,854.553223,122.497559,0.076056
-490.631104,852.172852,125.335693,0.076796
-492.370605,860.229492,119.934082,0.077535
-493.469238,855.377197,94.757080,0.078285
-493.286133,856.475830,122.131348,0.079025
-487.609863,854.278564,116.638184,0.079764
-485.870361,859.680176,127.166748,0.080504
-490.631104,855.743408,124.328613,0.081253
-488.433838,857.025146,126.159668,0.081992
-496.490479,857.940674,123.046875,0.082745
-493.377686,856.109619,118.194580,0.083501
-497.222900,850.982666,124.328613,0.084243
-495.574951,859.222412,122.955322,0.084983
-499.328613,847.137451,127.532959,0.085722
-501.617432,849.975586,122.680664,0.086476
-497.680664,859.405518,124.603271,0.087220
-489.898682,854.278564,127.441406,0.087960
-496.032715,856.567383,123.779297,0.088733
-496.215820,848.968506,126.708984,0.089476
-491.088867,838.806152,125.518799,0.090217
-496.673584,844.482422,124.420166,0.090956
-508.300781,844.940186,116.088867,0.091706
-502.258301,851.074219,125.427246,0.092446
-502.075195,842.285156,125.244141,0.093185
-505.004883,843.475342,123.504639,0.093924
-501.708984,847.412109,122.680664,0.094683
-505.737305,855.102539,123.229980,0.095425
-504.547119,842.651367,126.525879,0.096165
-508.666992,838.256836,131.561279,0.096905
-510.223389,832.946777,128.448486,0.097677
-500.244141,832.122803,115.631104,0.098419
-500.244141,829.650879,121.307373,0.099159
-507.568359,839.904785,119.842529,0.099899
-510.681152,829.193115,124.420166,0.100650
-502.532959,831.939697,115.356445,0.101389
-504.364014,828.002930,121.307373,0.102239
-503.906250,835.327148,121.948242,0.102983
-510.498047,839.355469,130.187988,0.103736
-508.575439,828.002930,136.047363,0.104476
-510.314941,828.826904,121.124268,0.105215
-515.899658,831.756592,126.159668,0.105955
-510.314941,832.122803,125.244141,0.106705
-505.187988,833.679199,125.518799,0.107445
-508.483887,825.256348,124.511719,0.108184
-505.737305,832.305908,119.293213,0.108923
-505.371094,830.017090,121.856689,0.109674
-504.638672,831.756592,125.152588,0.110414
-505.462646,827.270508,120.574951,0.111153
-506.652832,831.390381,128.540039,0.111892
-505.554199,823.791504,132.019043,0.112640
-512.054443,828.918457,129.730225,0.113377
-507.659912,830.017090,127.990723,0.114115
-510.681152,823.791504,118.835449,0.114865
-506.195068,827.545166,128.631592,0.115606
-499.694824,829.010010,123.138428,0.116346
-506.561279,830.841064,122.772217,0.117086
-508.850098,831.573486,119.659424,0.117835
-503.997803,831.115723,121.124268,0.118575
-501.983643,825.531006,125.427246,0.119315
-500.152588,830.474854,116.455078,0.120067
-501.342773,831.481934,125.885010,0.120809
-500.976562,828.643799,118.377686,0.121549
-504.089355,829.742432,123.413086,0.122288
-497.680664,826.263428,126.617432,0.123027
-497.497559,833.404541,121.490479,0.123767
-501.983643,833.862305,128.906250,0.124506
-498.138428,837.890625,126.342773,0.125246
-498.687744,838.439941,127.716064,0.125985
-500.152588,839.904785,134.765625,0.126735
-494.018555,830.932617,126.342773,0.127475
-493.743896,839.172363,131.378174,0.128214
-501.983643,842.651367,133.483887,0.128954
-500.701904,840.087891,121.765137,0.129702
-499.053955,845.123291,124.969482,0.130441
-499.420166,838.073730,121.124268,0.131181
-497.772217,828.826904,120.849609,0.131920
-496.398926,840.362549,122.131348,0.132660
-494.293213,846.679688,129.180908,0.133399
-494.201660,843.475342,129.913330,0.134139
-491.455078,836.883545,125.061035,0.134878
-491.455078,838.806152,121.856689,0.135641
-496.124268,838.439941,127.899170,0.136382
-492.462158,841.735840,122.406006,0.137121
-491.912842,837.158203,129.913330,0.137861
-492.095947,842.651367,128.356934,0.138622
-486.145020,843.566895,129.638672,0.139366
-483.032227,834.411621,134.490967,0.140106
-489.257812,839.996338,127.258301,0.140847
-490.631104,838.531494,122.039795,0.141600
-488.342285,838.989258,126.800537,0.142339
-487.426758,842.285156,130.462646,0.143079
-491.363525,835.144043,130.554199,0.143818
-488.800049,835.144043,123.138428,0.144567
-483.398438,845.214844,128.540039,0.145306
-480.194092,839.263916,130.004883,0.146046
-473.968506,834.686279,123.687744,0.146786
-477.905273,832.489014,129.455566,0.147535
-478.179932,841.827393,128.906250,0.148275
-486.602783,837.249756,121.582031,0.149014
-483.123779,842.742920,130.645752,0.149754
-476.715088,836.608887,128.997803,0.150505
-482.116699,839.080811,126.434326,0.151243
-476.806641,841.552734,125.885010,0.151997
-476.440430,841.278076,127.441406,0.152747
-480.743408,829.925537,126.068115,0.153507
-480.102539,836.883545,129.821777,0.154247
-479.919434,835.968018,124.877930,0.154987
-478.912354,830.200195,122.589111,0.155727
-479.736328,839.080811,131.469727,0.156467
-480.285645,841.003418,127.441406,0.157214
-472.686768,835.052490,119.842529,0.157957
-477.447510,832.672119,125.518799,0.158708
-479.644775,829.284668,127.807617,0.159446
-475.799561,835.601807,126.525879,0.160200
-475.524902,838.348389,118.469238,0.160958
-476.165771,829.467773,119.201660,0.161703
-477.722168,839.172363,126.617432,0.162444
-480.834961,831.207275,127.532959,0.163183
-476.165771,833.770752,123.687744,0.163922
-477.081299,832.122803,116.363525,0.164659
-473.876953,831.298828,117.370605,0.165407
-476.257324,834.777832,124.603271,0.166148
-470.214844,834.136963,130.554199,0.166885
-472.137451,832.580566,117.553711,0.167627
-474.700928,833.679199,125.427246,0.168368
-479.553223,834.136963,120.391846,0.169108
-476.898193,839.538574,123.321533,0.169858
-482.025146,843.383789,123.046875,0.170599
-483.856201,839.904785,116.638184,0.171340
-482.208252,840.820312,128.173828,0.172120
-486.053467,841.827393,115.814209,0.172883
-478.179932,853.729248,120.758057,0.173739
-482.757568,850.341797,120.208740,0.174488
-483.489990,845.123291,118.652344,0.175253
-491.088867,849.060059,117.187500,0.175994
-514.068604,854.827881,111.236572,0.176734
-493.194580,851.440430,111.419678,0.177473
-497.314453,844.299316,113.616943,0.178223
-496.124268,845.581055,110.961914,0.178969
-498.870850,851.257324,116.638184,0.179740
-499.877930,856.475830,117.736816,0.180491
-498.504639,852.905273,128.356934,0.181252
-502.258301,855.926514,124.511719,0.181994
-500.610352,858.581543,115.539551,0.182733
-504.730225,853.912354,109.313965,0.183472
-503.173828,859.771729,115.722656,0.184223
-505.371094,852.996826,115.905762,0.184963
-497.955322,851.989746,122.314453,0.185702
-506.835938,852.996826,111.877441,0.186441
-510.681152,848.602295,117.279053,0.187191
-515.167236,853.271484,114.074707,0.187930
-492.279053,861.145020,114.990234,0.188672
-509.765625,860.137939,115.356445,0.189413
-512.786865,853.729248,115.905762,0.190166
-509.674072,861.694336,121.032715,0.190906
-514.984131,859.863281,112.609863,0.191645
-519.104004,853.088379,113.250732,0.192385
-520.294189,856.292725,107.208252,0.193156
-515.350342,858.123779,111.694336,0.193903
-495.391846,863.800049,112.426758,0.194650
-511.047363,863.342285,119.201660,0.195391
-523.315430,856.018066,112.792969,0.196153
-524.871826,862.609863,117.828369,0.196892
-522.949219,860.595703,117.645264,0.197631
-524.963379,856.292725,107.208252,0.198370
-527.709961,857.116699,112.701416,0.199119
-522.949219,858.947754,119.384766,0.199859
-526.702881,850.250244,113.891602,0.200598
-525.329590,854.278564,113.800049,0.201337
-531.097412,855.010986,111.694336,0.202090
-534.484863,859.771729,114.624023,0.202842
-530.090332,857.940674,116.912842,0.203586
-533.569336,856.842041,111.785889,0.204332
-529.083252,862.152100,116.180420,0.205098
-528.625488,856.018066,109.130859,0.205846
-532.104492,863.616943,109.771729,0.206585
-531.097412,864.257812,109.863281,0.207324
-531.463623,867.919922,110.961914,0.208073
-531.097412,869.201660,111.419678,0.208813
-534.027100,857.849121,109.222412,0.209552
-560.760498,852.905273,107.391357,0.210291
-536.224365,859.588623,112.792969,0.211042
-533.111572,850.799561,111.419678,0.211782
-536.224365,848.785400,110.504150,0.212521
-535.858154,854.644775,111.236572,0.213260
-536.499023,847.595215,114.624023,0.214008
-534.667969,848.602295,109.039307,0.214747
-534.301758,852.264404,110.137939,0.215485
-532.379150,850.067139,105.743408,0.216224
-537.689209,848.236084,105.194092,0.216975
-541.625977,845.672607,108.306885,0.217715
-538.055420,844.390869,105.743408,0.218453
-537.139893,848.602295,114.440918,0.219192
-540.069580,846.405029,106.292725,0.219938
-538.146973,847.869873,110.504150,0.220677
-527.618408,848.144531,105.468750,0.221429
-522.491455,851.074219,107.849121,0.222173
-530.090332,845.672607,105.834961,0.222932
-530.090332,842.559814,107.482910,0.223676
-527.343750,845.947266,109.497070,0.224415
-520.202637,850.708008,113.983154,0.225155
-526.428223,846.496582,101.348877,0.225905
-521.209717,846.862793,106.842041,0.226644
-523.956299,846.771240,106.750488,0.227383
-526.428223,844.390869,111.328125,0.228122
-526.062012,852.447510,108.306885,0.228870
-524.414062,848.236084,109.588623,0.229609
-523.040771,844.665527,105.010986,0.230348
-518.737793,841.278076,108.398438,0.231086
-512.969971,821.868896,99.609375,0.231834
-521.484375,848.327637,110.046387,0.232573
-521.026611,851.257324,105.468750,0.233313
-514.251709,861.236572,109.863281,0.234052
-515.716553,850.891113,110.870361,0.234801
-517.456055,849.426270,109.771729,0.235540
-511.596680,854.644775,109.039307,0.236279
-516.723633,850.067139,112.152100,0.237018
-510.589600,859.130859,105.194092,0.237766
-518.280029,848.602295,105.834961,0.238506
-508.483887,852.172852,104.827881,0.239245
-504.638672,857.666016,113.708496,0.239984
-505.096436,852.996826,113.891602,0.240731
-497.680664,861.145020,105.743408,0.241470
-506.103516,859.771729,105.102539,0.242210
-505.920410,857.299805,105.560303,0.242949
-503.814697,864.257812,115.631104,0.243697
-490.722656,851.715088,113.616943,0.244522
-469.665527,861.236572,107.849121,0.245262
-501.251221,861.694336,107.849121,0.246000
-500.061035,859.313965,119.110107,0.246749
-493.011475,856.933594,114.532471,0.247485
-500.244141,851.898193,112.518311,0.248222
-493.103027,863.891602,115.081787,0.248972
-500.701904,859.863281,110.961914,0.249728
-486.602783,865.814209,113.433838,0.250459
-489.440918,853.820801,114.257812,0.251189
-496.124268,854.278564,115.081787,0.251920
-494.567871,857.940674,119.018555,0.252662
-495.941162,854.095459,115.264893,0.253393
-494.018555,857.116699,137.969971,0.254123
-488.708496,863.891602,122.314453,0.254853
-487.609863,852.447510,117.828369,0.255594
-484.588623,852.905273,122.497559,0.256324
-490.264893,852.539062,111.877441,0.257055
-490.356445,858.306885,120.666504,0.257786
-501.434326,858.398438,123.413086,0.258539
-492.736816,850.799561,124.511719,0.259279
-493.103027,857.299805,124.328613,0.260020
-482.574463,850.708008,121.948242,0.260773
-490.997314,863.983154,112.335205,0.261542
-483.489990,859.039307,113.983154,0.262283
-486.145020,859.222412,118.652344,0.263022
-493.194580,854.553223,113.891602,0.263761
-486.419678,850.799561,115.447998,0.264508
-490.173340,850.708008,112.792969,0.265246
-491.455078,853.271484,114.898682,0.265999
-497.589111,853.546143,118.560791,0.266747
-501.617432,850.799561,121.124268,0.267514
-487.792969,855.743408,119.842529,0.268263
-484.222412,851.898193,117.645264,0.269007
-486.602783,851.440430,117.736816,0.269746
-492.095947,853.363037,118.652344,0.270507
-486.328125,853.454590,118.743896,0.271247
-496.582031,854.370117,120.849609,0.271986
-490.631104,855.468750,116.912842,0.272727
-487.701416,846.038818,120.941162,0.273496
-490.905762,858.489990,124.420166,0.274258
-492.645264,851.257324,120.025635,0.275006
-483.398438,852.539062,117.279053,0.275746
-484.039307,851.348877,125.610352,0.276507
-511.413574,838.531494,118.103027,0.277247
-485.961914,844.940186,115.814209,0.277986
-490.814209,855.285645,121.215820,0.278726
-485.412598,851.348877,112.060547,0.279477
-492.187500,840.270996,111.236572,0.280220
-488.250732,839.263916,121.856689,0.280960
-490.997314,840.087891,112.701416,0.281701
-492.828369,847.869873,116.180420,0.282460
-490.081787,846.588135,111.145020,0.283199
-485.137939,845.031738,116.638184,0.283938
-493.469238,840.179443,120.941162,0.284678
-489.715576,842.193604,110.687256,0.285426
-487.152100,838.073730,113.342285,0.286166
-487.152100,844.207764,116.455078,0.286905
-483.856201,849.700928,117.462158,0.287644
-485.229492,848.785400,117.645264,0.288393
-489.166260,822.692871,116.455078,0.289132
-490.173340,848.144531,120.574951,0.289871
-496.398926,849.243164,120.025635,0.290612
-493.560791,850.982666,121.948242,0.291364
-490.356445,846.221924,113.708496,0.292104
-489.257812,842.742920,124.328613,0.292843
-488.433838,846.496582,120.391846,0.293583
-486.328125,840.820312,118.835449,0.294332
-488.708496,835.693359,115.997314,0.295071
-487.426758,844.207764,108.947754,0.295810
-487.609863,840.087891,113.800049,0.296549
-490.814209,839.996338,111.419678,0.297298
-487.060547,845.947266,117.462158,0.298037
-488.067627,841.735840,119.842529,0.298776
-496.765137,848.419189,115.173340,0.299516
-489.624023,838.348389,123.870850,0.300264
-497.406006,840.454102,124.237061,0.301004
-489.349365,844.024658,114.990234,0.301743
-486.145020,842.468262,111.877441,0.302482
-487.060547,842.376709,116.638184,0.303230
-491.455078,837.982178,121.948242,0.303969
-489.349365,834.411621,116.455078,0.304709
-487.792969,845.397949,119.293213,0.305448
-509.307861,844.665527,121.490479,0.306198
-490.997314,842.834473,122.772217,0.306938
-494.384766,849.609375,119.934082,0.307678
-491.729736,842.834473,121.490479,0.308417
-494.018555,841.918945,115.722656,0.309163
-491.912842,848.327637,120.025635,0.309903
-492.462158,845.581055,137.603760,0.310642
-496.948242,841.918945,117.095947,0.311381
-495.849609,845.581055,117.462158,0.312130
-490.905762,840.362549,117.187500,0.312869
-496.124268,839.813232,117.828369,0.313610
-498.138428,840.454102,134.216309,0.314351
-500.335693,846.588135,118.011475,0.315194
-496.032715,843.933105,127.075195,0.315935
-496.124268,842.926025,118.652344,0.316675
-491.546631,841.644287,117.095947,0.317415
-501.892090,846.862793,113.525391,0.318166
-498.779297,846.313477,116.455078,0.318906
-501.800537,844.116211,114.990234,0.319645
-503.814697,841.003418,120.391846,0.320384
-503.906250,846.038818,115.997314,0.321132
-505.004883,843.383789,116.912842,0.321872
-505.920410,835.784912,113.708496,0.322611
-508.117676,849.334717,113.708496,0.323351
-504.180908,844.940186,110.412598,0.324104
-511.505127,849.151611,111.511230,0.324843
-514.984131,853.912354,115.905762,0.325583
-513.244629,851.715088,113.800049,0.326323
-521.301270,857.116699,115.997314,0.327071
-515.716553,855.468750,116.455078,0.327811
-510.589600,858.673096,114.257812,0.328551
-521.850586,857.574463,115.081787,0.329290
-523.773193,853.912354,111.236572,0.330038
-524.139404,847.869873,112.976074,0.330777
-523.498535,856.842041,117.462158,0.331517
-531.188965,860.778809,111.053467,0.332256
-529.724121,854.278564,107.391357,0.333004
-532.379150,848.968506,114.990234,0.333743
-527.984619,852.264404,110.595703,0.334483
-531.463623,857.391357,111.511230,0.335222
-534.484863,849.060059,99.700928,0.335970
-529.724121,852.813721,114.440918,0.336709
-527.343750,858.215332,111.419678,0.337452
-530.181885,857.299805,109.405518,0.338199
-530.639648,851.074219,109.497070,0.338964
-530.273438,853.088379,107.482910,0.339711
-532.470703,854.187012,106.201172,0.340451
-536.499023,848.876953,112.152100,0.341190
-533.477783,847.595215,113.250732,0.341945
-526.885986,846.771240,101.989746,0.342684
-521.850586,847.320557,111.145020,0.343424
-520.568848,844.299316,107.482910,0.344163
-524.322510,842.468262,106.567383,0.344921
-524.597168,844.116211,110.046387,0.345671
-526.702881,844.482422,106.475830,0.346421
-520.935059,845.306396,108.764648,0.347166
-522.308350,843.383789,105.194092,0.347932
-525.238037,852.722168,119.476318,0.348713
-522.949219,854.095459,113.433838,0.349496
-523.773193,848.236084,117.279053,0.350285
-514.617920,859.588623,112.518311,0.351036
-513.427734,850.250244,113.800049,0.351817
-517.639160,855.468750,111.602783,0.352578
-513.427734,850.982666,114.166260,0.353419
-514.068604,844.116211,109.863281,0.354175
-513.061523,847.137451,114.715576,0.354920
-522.491455,842.285156,109.497070,0.355729
-517.272949,842.926025,110.137939,0.356483
-514.617920,851.715088,116.638184,0.357240
-517.181396,866.088867,116.180420,0.358033
-509.490967,845.672607,117.095947,0.358802
-511.779785,846.221924,116.088867,0.359592
-507.293701,865.814209,113.800049,0.360352
-511.322021,846.771240,111.602783,0.361107
-504.913330,844.940186,106.475830,0.361852
-515.991211,842.010498,109.497070,0.362593
-506.378174,844.299316,104.187012,0.363360
-511.047363,842.102051,105.834961,0.364102
-506.011963,846.130371,105.651855,0.364842
-514.617920,851.165771,115.081787,0.365582
-515.350342,845.581055,112.884521,0.366335
-504.821777,840.911865,112.518311,0.367077
-501.800537,850.158691,105.834961,0.367818
-501.983643,849.609375,109.497070,0.368557
-503.173828,851.715088,113.891602,0.369297
-500.885010,853.820801,116.546631,0.370044
-501.068115,851.165771,124.603271,0.370797
-501.159668,839.996338,120.117188,0.371540
-503.082275,850.067139,121.856689,0.372280
-504.913330,854.003906,130.554199,0.373019
-506.652832,850.158691,129.547119,0.373758
-502.899170,848.602295,123.046875,0.374498
-498.321533,851.623535,129.547119,0.375237
-497.772217,854.553223,119.567871,0.375976
-501.159668,848.876953,119.293213,0.376715
-488.983154,857.849121,123.138428,0.377455
-494.201660,848.785400,129.089355,0.378210
-493.377686,859.588623,126.708984,0.378952
-495.849609,847.503662,127.075195,0.379691
-496.490479,846.954346,130.371094,0.380430
-492.462158,843.475342,139.984131,0.381170
-496.948242,848.602295,121.948242,0.381910
-503.356934,844.207764,125.518799,0.382650
-497.131348,842.559814,127.532959,0.383388
-498.779297,842.926025,121.948242,0.384127
-493.927002,847.595215,125.427246,0.384867
-489.532471,845.489502,126.068115,0.385608
-491.180420,838.348389,131.652832,0.386435
-494.384766,832.672119,123.046875,0.387179
-490.173340,835.418701,125.061035,0.387923
-493.835449,821.044922,127.349854,0.388664
-515.441895,834.777832,121.032715,0.389403
-502.624512,823.059082,139.160156,0.390145
-495.483398,828.094482,120.849609,0.390885
-495.666504,829.284668,122.314453,0.391624
-493.194580,829.101562,125.061035,0.392363
-497.863770,823.516846,116.821289,0.393101
-492.279053,822.509766,95.489502,0.393838
-493.286133,824.157715,112.518311,0.394575
-496.032715,830.017090,117.279053,0.395328
-496.765137,821.136475,122.955322,0.396080
-494.659424,824.981689,115.631104,0.396812
-491.638184,833.129883,129.913330,0.397542
-490.356445,824.707031,128.997803,0.398273
-491.912842,825.164795,129.455566,0.399014
-496.215820,826.263428,134.490967,0.399744
-495.758057,828.277588,130.828857,0.400475
-489.532471,816.284180,129.089355,0.401205
-490.631104,818.115234,123.779297,0.401947
-492.736816,825.439453,117.187500,0.402677
-486.968994,822.875977,130.645752,0.403408
-492.095947,821.136475,131.011963,0.404138
-495.849609,823.883057,134.033203,0.404884
-493.011475,825.347900,137.237549,0.405624
-486.694336,823.242188,137.603760,0.406374
-497.039795,828.277588,134.948730,0.407121
-490.447998,825.714111,138.244629,0.407867
-493.652344,824.615479,124.328613,0.408607
-492.095947,824.707031,127.258301,0.409347
-490.905762,833.312988,126.068115,0.410086
-489.715576,815.826416,128.448486,0.410826
-490.264893,823.059082,127.532959,0.411566
-487.426758,831.390381,129.455566,0.412327
-491.546631,819.488525,128.723145,0.413098
-492.187500,822.692871,129.913330,0.413853
-494.384766,830.017090,136.688232,0.414596
-485.687256,825.347900,130.737305,0.415336
-494.384766,820.861816,123.779297,0.416075
-493.377686,824.523926,128.448486,0.416814
-501.525879,831.939697,127.166748,0.417553
-494.659424,825.439453,128.814697,0.418293
-495.574951,829.742432,134.216309,0.419032
-486.785889,824.981689,126.617432,0.419772
-496.673584,818.298340,127.349854,0.420514
-493.286133,820.861816,124.145508,0.421256
-499.603271,828.826904,131.378174,0.422023
-491.821289,822.143555,124.969482,0.422768
-492.553711,822.509766,121.948242,0.423511
-493.927002,827.819824,123.321533,0.424251
-497.406006,823.883057,117.187500,0.424990
-496.124268,826.812744,126.983643,0.425730
-497.406006,822.875977,117.736816,0.426469
-496.582031,819.580078,119.201660,0.427208
-494.842529,821.319580,130.828857,0.427961
-498.138428,828.552246,128.540039,0.428701
-497.039795,833.129883,125.152588,0.429440
-500.610352,828.552246,120.117188,0.430178
-499.603271,836.883545,123.596191,0.430927
-499.328613,826.904297,118.927002,0.431666
-499.420166,836.700439,116.912842,0.432406
-494.750977,831.939697,128.906250,0.433144
-490.356445,834.411621,122.589111,0.433884
-490.539551,838.439941,119.934082,0.434623
-492.553711,836.517334,120.300293,0.435362
-491.821289,834.686279,123.779297,0.436101
-501.800537,828.277588,119.018555,0.436841
-502.624512,826.446533,121.765137,0.437580
-498.687744,836.791992,124.786377,0.438319
-501.708984,836.608887,114.624023,0.439058
-508.483887,835.601807,119.750977,0.439807
-502.441406,836.608887,127.899170,0.440546
-508.758545,848.419189,118.286133,0.441286
-500.701904,837.432861,120.758057,0.442025
-510.040283,840.911865,119.476318,0.442774
-512.054443,835.876465,114.349365,0.443514
-505.737305,843.383789,115.539551,0.444253
-504.455566,842.102051,114.990234,0.444992
-510.223389,835.601807,119.293213,0.445731
-512.512207,838.348389,118.377686,0.446470
-509.216309,831.024170,115.905762,0.447209
-513.977051,839.538574,118.560791,0.447949
-511.505127,840.454102,117.370605,0.448688
-518.280029,836.059570,120.208740,0.449427
-515.441895,843.109131,119.750977,0.450166
-514.892578,837.982178,116.821289,0.450906
-521.667480,838.165283,115.905762,0.451656
-523.498535,841.552734,121.856689,0.452396
-520.751953,836.883545,119.293213,0.453135
-513.793945,837.707520,118.286133,0.453874
-514.984131,843.292236,116.638184,0.454620
-518.188477,849.060059,114.074707,0.455361
-520.477295,839.355469,116.271973,0.456100
-515.441895,849.426270,116.455078,0.456839
-516.357422,841.094971,119.110107,0.457667
-539.062500,846.588135,116.821289,0.458408
-522.583008,843.292236,111.694336,0.459149
-518.646240,841.735840,112.518311,0.459889
-515.625000,822.692871,111.877441,0.460628
-515.716553,831.481934,112.609863,0.461368
-495.483398,838.806152,113.159180,0.462107
-521.026611,840.179443,109.405518,0.462847
-520.385742,837.524414,112.060547,0.463600
-512.969971,845.214844,111.602783,0.464340
-517.639160,848.876953,119.018555,0.465079
-515.350342,847.045898,120.666504,0.465820
-525.695801,837.707520,121.765137,0.466570
-528.442383,837.249756,115.264893,0.467309
-520.935059,846.221924,116.363525,0.468049
-520.660400,848.327637,120.117188,0.468788
-520.843506,838.531494,116.638184,0.469528
-525.970459,834.045410,125.518799,0.470267
-522.399902,833.496094,114.715576,0.471007
-519.378662,839.813232,113.616943,0.471746
-514.984131,841.461182,112.701416,0.472486
-521.942139,835.968018,116.821289,0.473225
-516.082764,825.988770,107.574463,0.473964
-515.167236,840.362549,111.877441,0.474703
-518.463135,837.341309,120.117188,0.475443
-517.822266,847.595215,95.855713,0.476182
-514.892578,846.679688,114.715576,0.476922
-513.336182,839.080811,114.532471,0.477661
-514.160156,841.827393,115.905762,0.478402
-513.977051,839.172363,111.602783,0.479150
-518.646240,831.390381,111.785889,0.479896
-516.723633,841.369629,107.666016,0.480642
-493.652344,842.834473,115.814209,0.481399
-513.977051,832.122803,113.708496,0.482139
-512.054443,832.397461,117.645264,0.482879
-512.786865,833.862305,124.328613,0.483619
-508.392334,835.601807,121.490479,0.484371
-510.498047,841.552734,117.462158,0.485113
-513.244629,846.130371,113.250732,0.485901
-510.681152,835.784912,118.011475,0.486649
-509.216309,839.813232,119.476318,0.487397
-511.962891,843.933105,116.912842,0.488139
-511.779785,840.637207,110.229492,0.488878
-513.061523,837.158203,122.314453,0.489617
-506.011963,836.059570,122.131348,0.490356
-504.364014,834.960938,114.807129,0.491095
-505.371094,831.207275,114.257812,0.491834
-508.483887,834.228516,116.821289,0.492573
-509.490967,834.503174,113.250732,0.493345
-508.758545,834.228516,107.574463,0.494085
-508.941650,835.693359,115.356445,0.494826
-507.202148,840.545654,120.208740,0.495566
-505.737305,843.566895,116.912842,0.496306
-509.948730,836.700439,117.645264,0.497045
-507.843018,841.827393,118.011475,0.497784
-511.138916,838.439941,123.962402,0.498522
-509.307861,843.200684,122.863770,0.499271
-510.131836,843.383789,122.314453,0.500010
-508.026123,841.918945,114.715576,0.500749
-505.004883,839.904785,94.024658,0.501488
-511.322021,839.355469,112.792969,0.502228
-508.209229,836.151123,114.349365,0.502967
-502.258301,837.799072,116.455078,0.503706
-496.215820,847.229004,119.750977,0.504445
-503.814697,840.362549,117.462158,0.505185
-496.490479,847.686768,117.645264,0.505925
-503.906250,851.531982,114.898682,0.506667
-508.666992,843.109131,109.588623,0.507407
-504.272461,841.186523,116.638184,0.508147
-495.208740,864.990234,119.842529,0.508886
-505.371094,846.313477,116.363525,0.509625
-500.976562,841.461182,112.792969,0.510364
-505.462646,850.250244,115.081787,0.511118
-506.103516,846.954346,113.525391,0.511857
-501.708984,866.546631,114.898682,0.512596
-507.751465,842.651367,118.286133,0.513336
-504.638672,843.383789,126.617432,0.514075
-505.371094,846.496582,97.686768,0.514814
-505.371094,843.017578,113.342285,0.515553
-504.455566,846.771240,118.286133,0.516292
-499.969482,846.313477,113.891602,0.517031
-502.624512,841.644287,114.074707,0.517770
-506.835938,842.834473,114.074707,0.518510
-499.877930,849.334717,108.123779,0.519249
-502.716064,845.123291,111.877441,0.519989
-500.976562,847.229004,110.961914,0.520729
-511.871338,839.538574,111.694336,0.521468
-512.512207,840.270996,110.595703,0.522207
-509.948730,846.679688,112.609863,0.522963
-500.976562,838.897705,115.081787,0.523706
-507.934570,836.883545,111.419678,0.524444
-504.821777,841.644287,117.828369,0.525184
-505.462646,837.615967,112.701416,0.525948
-504.638672,847.778320,115.264893,0.526687
-501.342773,841.735840,116.363525,0.527426
-506.103516,843.109131,107.757568,0.528251
-497.772217,845.947266,113.250732,0.528992
-508.209229,848.693848,113.983154,0.529731
-501.068115,852.722168,102.355957,0.530470
-506.286621,847.412109,115.173340,0.531209
-499.969482,851.623535,107.391357,0.531948
-502.441406,849.884033,109.313965,0.532687
-502.624512,852.172852,105.560303,0.533426
-501.068115,854.919434,111.694336,0.534164
-497.680664,856.933594,108.673096,0.534905
-501.434326,857.666016,117.279053,0.535645
-497.680664,855.834961,112.060547,0.536384
-502.349854,849.792480,102.081299,0.537123
-506.195068,866.729736,106.750488,0.537868
-500.427246,852.172852,101.348877,0.538609
-503.265381,852.172852,105.194092,0.539350
-503.723145,852.172852,98.419189,0.540089
-501.068115,850.250244,105.468750,0.540830
-496.307373,853.912354,105.468750,0.541567
-500.610352,851.715088,110.137939,0.542304
-501.342773,847.595215,107.025146,0.543056
-495.941162,848.327637,102.813721,0.543814
-500.518799,855.377197,99.243164,0.544545
-499.603271,852.722168,102.905273,0.545275
-497.863770,851.715088,104.827881,0.546005
-499.511719,856.018066,105.194092,0.546736
-505.371094,849.151611,103.546143,0.547467
-505.096436,851.715088,105.651855,0.548197
-500.518799,856.018066,107.299805,0.548927
-500.061035,849.517822,108.032227,0.549660
-507.568359,845.306396,109.130859,0.550392
-504.089355,853.363037,108.856201,0.551130
-508.483887,850.982666,110.687256,0.551869
-507.110596,858.673096,107.940674,0.552615
-500.518799,851.806641,103.271484,0.553358
-502.990723,853.729248,95.306396,0.554099
-508.392334,855.468750,102.630615,0.554839
-507.202148,855.377197,104.187012,0.555579
-508.941650,849.975586,103.820801,0.556321
-502.349854,853.271484,107.849121,0.557060
-505.554199,856.201172,102.539062,0.557800
-510.772705,856.842041,95.214844,0.558548
-507.110596,856.292725,96.862793,0.559338
-501.525879,851.715088,94.848633,0.560114
-499.603271,852.905273,106.658936,0.560891
-499.786377,849.517822,106.567383,0.561633
-495.208740,852.539062,107.666016,0.562373
-501.983643,855.285645,102.996826,0.563113
-498.138428,851.989746,103.729248,0.563853
-502.807617,846.679688,103.637695,0.564595
-498.962402,856.658936,110.504150,0.565336
-500.885010,860.687256,104.095459,0.566075
-498.870850,856.750488,106.750488,0.566814
-503.814697,850.067139,103.271484,0.567552
-503.723145,852.996826,105.377197,0.568291
-501.708984,857.025146,100.433350,0.569029
-495.300293,848.236084,103.088379,0.569782
-496.948242,851.898193,101.989746,0.570522
-506.469727,847.778320,105.194092,0.571262
-503.082275,844.482422,102.630615,0.572001
-504.180908,852.447510,103.088379,0.572751
-504.913330,848.052979,97.412109,0.573491
-497.772217,821.044922,111.328125,0.574230
-496.765137,843.750000,112.976074,0.574969
-503.448486,848.144531,105.468750,0.575710
-500.885010,845.672607,106.658936,0.576449
-498.413086,841.552734,103.363037,0.577189
-498.687744,846.862793,108.032227,0.577930
-495.391846,847.503662,104.644775,0.578669
-506.744385,846.221924,101.165771,0.579409
-497.863770,851.531982,102.355957,0.580148
-493.560791,850.433350,107.849121,0.580887
-498.138428,845.306396,105.926514,0.581625
-506.011963,847.686768,101.989746,0.582362
-509.582520,846.679688,108.306885,0.583098
-503.356934,851.257324,113.342285,0.583879
-498.779297,841.461182,108.947754,0.584640
-501.068115,841.186523,105.194092,0.585380
-498.779297,848.144531,107.208252,0.586120
-501.342773,843.566895,102.905273,0.586860
-498.229980,843.933105,108.673096,0.587601
-501.708984,845.397949,109.130859,0.588331
-500.976562,831.848145,106.842041,0.589061
-505.096436,839.263916,109.313965,0.589792
-499.145508,844.665527,109.222412,0.590544
-503.448486,846.496582,101.806641,0.591284
-500.427246,843.475342,109.130859,0.592024
-498.321533,845.397949,104.553223,0.592765
-501.983643,843.933105,101.623535,0.593515
-494.293213,841.461182,105.926514,0.594255
-501.434326,839.263916,106.292725,0.594995
-500.885010,841.918945,108.398438,0.595736
-498.138428,846.221924,115.539551,0.596486
-497.314453,834.869385,114.715576,0.597226
-513.061523,845.397949,109.039307,0.597966
-500.427246,823.150635,110.870361,0.598798
-498.687744,840.820312,108.032227,0.599551
-471.954346,844.207764,105.743408,0.600292
-499.053955,846.130371,100.158691,0.601032
-498.138428,853.454590,117.004395,0.601772
-494.659424,842.926025,111.419678,0.602523
-493.103027,838.439941,108.215332,0.603266
-493.286133,842.010498,104.553223,0.604007
-493.286133,844.299316,111.968994,0.604747
-491.180420,843.109131,106.658936,0.605503
-511.505127,850.341797,112.976074,0.606243
-497.589111,852.630615,116.180420,0.606983
-493.286133,852.722168,111.328125,0.607723
-498.504639,848.510742,109.313965,0.608473
-499.328613,849.060059,107.666016,0.609214
-494.384766,849.975586,101.165771,0.609954
-497.680664,850.524902,104.461670,0.610695
-498.046875,850.250244,113.159180,0.611445
-496.673584,852.172852,103.271484,0.612185
-488.525391,850.799561,105.743408,0.612925
-496.856689,851.898193,102.813721,0.613665
-498.504639,851.898193,106.750488,0.614415
-489.166260,857.666016,114.715576,0.615155
-490.264893,853.820801,107.940674,0.615895
-490.722656,851.806641,108.764648,0.616635
-495.758057,847.229004,107.025146,0.617385
-495.666504,847.595215,112.701416,0.618127
-490.814209,854.827881,120.758057,0.618869
-500.061035,859.130859,107.574463,0.619609
-498.229980,856.384277,108.764648,0.620383
-500.610352,850.708008,107.025146,0.621136
-499.603271,851.623535,105.651855,0.621895
-505.920410,844.665527,133.483887,0.622646
-499.603271,854.278564,110.504150,0.623413
-500.976562,852.996826,104.095459,0.624155
-487.701416,845.581055,105.010986,0.624896
-490.997314,859.863281,107.757568,0.625637
-493.469238,847.503662,110.321045,0.626387
-493.286133,849.426270,101.257324,0.627128
-495.758057,853.637695,107.574463,0.627868
-496.673584,846.862793,108.123779,0.628609
-499.053955,844.482422,104.370117,0.629362
-496.673584,830.291748,109.771729,0.630103
-502.166748,850.067139,115.539551,0.630843
-501.068115,847.503662,106.018066,0.631583
-507.934570,849.243164,103.820801,0.632333
-494.842529,848.510742,109.130859,0.633073
-493.286133,849.975586,106.750488,0.633814
-497.589111,851.257324,108.398438,0.634554
-494.110107,860.504150,103.179932,0.635304
-491.271973,857.757568,104.919434,0.636061
-503.173828,854.095459,105.560303,0.636821
-506.103516,854.278564,110.412598,0.637569
-505.462646,853.729248,109.954834,0.638338
-502.624512,862.518311,108.489990,0.639084
-505.279541,857.666016,107.666016,0.639824
-508.300781,857.208252,104.553223,0.640565
-500.061035,858.123779,113.433838,0.641318
-503.631592,852.081299,105.102539,0.642059
-503.082275,863.708496,112.792969,0.642799
-498.504639,858.215332,113.708496,0.643539
-503.631592,861.785889,114.715576,0.644289
-500.885010,860.687256,112.792969,0.645029
-504.180908,858.856201,112.884521,0.645769
-500.335693,856.658936,106.109619,0.646509
-514.068604,858.215332,103.729248,0.647259
-509.216309,859.954834,108.673096,0.648000
-511.871338,858.306885,110.778809,0.648740
-508.575439,858.032227,106.292725,0.649481
-511.413574,851.806641,99.884033,0.650230
-515.075684,857.391357,110.046387,0.650971
-511.596680,857.574463,112.426758,0.651711
-510.681152,855.468750,111.236572,0.652451
-513.977051,856.018066,105.468750,0.653201
-513.061523,859.588623,103.637695,0.653941
-512.878418,853.912354,110.137939,0.654681
-513.336182,859.588623,109.497070,0.655421
-510.681152,854.187012,101.806641,0.656170
-503.631592,859.771729,110.321045,0.656911
-509.033203,857.482910,104.095459,0.657651
-515.258789,852.172852,114.166260,0.658391
-509.948730,848.327637,115.447998,0.659141
-509.307861,853.729248,111.145020,0.659882
-521.209717,840.637207,102.539062,0.660622
-515.258789,851.531982,111.053467,0.661362
-514.526367,850.433350,105.651855,0.662112
-518.005371,853.729248,109.313965,0.662853
-519.012451,850.799561,107.482910,0.663593
-511.322021,860.046387,108.032227,0.664334
-519.104004,841.278076,110.504150,0.665090
-514.526367,836.608887,98.419189,0.665834
-516.082764,852.996826,106.292725,0.666575
-519.104004,847.778320,103.363037,0.667316
-509.399414,843.109131,97.412109,0.668075
-509.399414,845.764160,102.722168,0.668815
-515.625000,851.715088,104.278564,0.669556
-522.857666,844.390869,104.461670,0.670384
-523.132324,845.306396,107.849121,0.671135
-518.371582,844.848633,106.567383,0.671875
-519.561768,845.397949,101.715088,0.672615
-516.632080,844.390869,112.335205,0.673356
-523.498535,838.439941,105.194092,0.674108
-524.139404,846.405029,111.145020,0.674851
-526.153564,845.397949,109.680176,0.675592
-521.942139,843.841553,114.349365,0.676332
-525.604248,844.848633,105.743408,0.677085
-522.949219,849.792480,112.060547,0.677825
-517.822266,843.292236,116.455078,0.678567
-521.484375,853.363037,110.412598,0.679309
-525.512695,857.574463,113.616943,0.680062
-512.969971,853.088379,105.102539,0.680803
-523.864746,848.144531,129.821777,0.681543
-525.878906,840.820312,106.384277,0.682283
-522.399902,850.891113,107.666016,0.683034
-524.230957,841.644287,105.743408,0.683774
-525.878906,841.918945,105.926514,0.684515
-530.364990,850.341797,109.954834,0.685255
-529.174805,848.602295,110.504150,0.686005
-522.491455,845.214844,111.511230,0.686746
-523.132324,845.031738,110.137939,0.687486
-527.618408,846.496582,113.708496,0.688226
-530.456543,837.707520,104.278564,0.688976
-522.399902,844.116211,103.546143,0.689716
-527.801514,840.637207,104.644775,0.690457
-530.181885,838.806152,107.391357,0.691198
-527.069092,841.461182,107.574463,0.691959
-529.632568,839.721680,111.145020,0.692709
-529.083252,845.764160,113.616943,0.693458
-525.421143,841.461182,119.293213,0.694205
-527.893066,832.855225,108.123779,0.694968
-535.400391,831.207275,111.511230,0.695710
-521.026611,840.911865,113.159180,0.696451
-523.773193,841.369629,111.419678,0.697191
-521.118164,836.883545,110.321045,0.697943
-517.456055,840.820312,111.511230,0.698683
-525.329590,835.876465,107.666016,0.699423
-519.927979,841.552734,106.658936,0.700176
-525.878906,832.305908,114.715576,0.700948
-520.294189,838.348389,109.039307,0.701696
-524.230957,839.080811,113.616943,0.702442
-520.660400,843.200684,114.990234,0.703182
-521.759033,841.186523,113.708496,0.703941
-523.223877,837.799072,107.849121,0.704683
-524.414062,838.806152,115.447998,0.705423
-524.322510,833.679199,113.433838,0.706163
-522.125244,833.038330,117.279053,0.706913
-514.617920,839.721680,115.264893,0.707656
-513.153076,831.665039,110.046387,0.708398
-518.920898,827.087402,115.905762,0.709139
-516.357422,835.235596,117.645264,0.709890
-511.871338,839.996338,110.137939,0.710631
-512.878418,835.327148,110.595703,0.711372
-517.089844,833.038330,112.792969,0.712112
-514.526367,839.172363,111.053467,0.712861
-519.927979,837.249756,110.870361,0.713602
-518.463135,850.982666,107.299805,0.714342
-510.223389,846.588135,118.835449,0.715082
-510.589600,843.841553,117.553711,0.715832
-516.723633,839.721680,116.088867,0.716573
-520.751953,830.200195,115.173340,0.717320
-493.927002,837.615967,118.011475,0.718068
-517.089844,832.672119,110.137939,0.718844
-516.174316,844.665527,108.947754,0.719592
-516.540527,842.468262,117.919922,0.720340
-510.040283,849.334717,115.081787,0.721094
-507.385254,847.412109,114.990234,0.721850
-510.406494,866.271973,117.553711,0.722604
-512.695312,842.193604,116.363525,0.723360
-508.850098,839.813232,115.356445,0.724109
-503.448486,843.566895,118.194580,0.724851
-507.843018,838.531494,107.116699,0.725591
-514.892578,834.960938,110.687256,0.726332
-506.835938,839.538574,118.652344,0.727072
-505.279541,842.285156,113.983154,0.727814
-507.019043,833.953857,123.870850,0.728555
-504.272461,837.615967,122.955322,0.729296
-498.596191,838.806152,119.567871,0.730037
-504.272461,839.630127,120.208740,0.730777
-502.899170,837.432861,117.645264,0.731517
-503.082275,843.566895,116.638184,0.732258
-498.413086,840.362549,116.821289,0.733012
-503.448486,839.355469,117.828369,0.733753
-497.314453,832.031250,119.567871,0.734494
-502.258301,832.305908,114.807129,0.735234
-502.441406,830.657959,118.011475,0.735983
-503.723145,831.024170,114.257812,0.736724
-501.525879,835.144043,113.067627,0.737464
-506.286621,831.573486,120.574951,0.738204
-497.680664,831.390381,128.997803,0.738953
-497.680664,827.362061,118.469238,0.739697
-499.328613,824.707031,139.526367,0.740438
-497.039795,836.334229,122.131348,0.741262
-507.568359,830.657959,127.166748,0.742003
-497.680664,826.629639,119.293213,0.742744
-492.828369,831.298828,114.074707,0.743485
-493.927002,824.340820,117.370605,0.744226
-494.018555,830.200195,105.651855,0.744966
-501.068115,830.017090,120.208740,0.745707
-494.567871,831.939697,99.700928,0.746447
-500.335693,834.960938,114.440918,0.747187
-498.596191,835.052490,120.208740,0.747928
-492.736816,832.763672,111.419678,0.748668
-493.011475,830.383301,116.271973,0.749408
-494.567871,835.784912,121.856689,0.750148
-499.603271,839.813232,122.955322,0.750900
-502.075195,839.813232,125.610352,0.751640
-499.053955,836.334229,122.406006,0.752381
-500.518799,834.960938,117.553711,0.753122
-508.026123,838.256836,122.863770,0.753871
-500.518799,831.207275,122.406006,0.754612
-500.701904,830.200195,115.447998,0.755353
-497.314453,838.073730,111.968994,0.756093
-502.441406,830.841064,114.715576,0.756833
-504.272461,832.214355,114.807129,0.757574
-504.821777,829.925537,114.440918,0.758314
-500.976562,824.890137,125.244141,0.759055
-503.356934,824.707031,118.652344,0.759796
-505.004883,835.052490,119.842529,0.760537
-501.434326,832.855225,119.567871,0.761277
-506.744385,838.531494,119.293213,0.762018
-496.582031,832.946777,112.243652,0.762758
-499.145508,829.650879,123.870850,0.763503
-508.026123,836.425781,124.603271,0.764250
-505.187988,835.235596,122.131348,0.765001
-506.378174,831.573486,121.032715,0.765748
-499.877930,838.897705,120.208740,0.766489
-500.793457,821.228027,113.891602,0.767229
-498.687744,835.327148,118.011475,0.767970
-499.145508,836.151123,117.004395,0.768710
-500.244141,835.235596,114.349365,0.769451
-498.229980,833.312988,115.905762,0.770205
-498.138428,825.714111,109.130859,0.770954
-511.047363,833.038330,114.074707,0.771704
-504.638672,836.791992,117.645264,0.772449
-504.455566,834.320068,115.997314,0.773189
-497.222900,839.813232,113.891602,0.773929
-506.378174,838.531494,117.553711,0.774670
-501.068115,842.834473,95.672607,0.775410
-502.532959,837.615967,113.708496,0.776151
-500.518799,835.510254,111.785889,0.776891
-506.286621,835.418701,122.314453,0.777631
-510.955811,831.573486,115.997314,0.778374
-517.456055,831.756592,109.405518,0.779114
-506.011963,833.679199,117.462158,0.779855
-506.469727,836.242676,116.363525,0.780596
-502.807617,834.228516,116.821289,0.781336
-499.694824,836.791992,120.849609,0.782076
-500.335693,826.354980,117.919922,0.782816
-500.518799,839.080811,116.363525,0.783570
-505.004883,831.481934,116.729736,0.784311
-499.603271,832.397461,114.349365,0.785051
-501.892090,834.960938,113.800049,0.785792
-513.610840,830.657959,114.624023,0.786541
-508.941650,837.890625,111.145020,0.787282
-504.180908,829.833984,115.539551,0.788022
-508.850098,834.777832,106.475830,0.788762
-505.187988,835.601807,109.588623,0.789511
-494.567871,835.601807,118.286133,0.790252
-504.089355,840.179443,113.159180,0.790992
-499.328613,828.094482,114.349365,0.791733
-502.075195,831.024170,110.961914,0.792486
-496.673584,835.968018,117.279053,0.793228
-499.511719,833.862305,105.560303,0.793968
-496.582031,834.045410,108.489990,0.794708
-499.420166,829.376221,110.046387,0.795458
-500.061035,835.784912,121.856689,0.796198
-501.617432,835.052490,118.194580,0.796939
-501.617432,834.869385,115.631104,0.797679
-496.307373,832.855225,119.750977,0.798419
-508.941650,832.672119,116.088867,0.799161
-507.934570,836.700439,113.342285,0.799901
-503.997803,834.777832,118.011475,0.800641
-505.828857,829.650879,115.356445,0.801382
-499.877930,830.017090,106.842041,0.802122
-497.589111,829.833984,108.398438,0.802862
-498.321533,819.946289,110.321045,0.803602
-500.518799,826.538086,108.489990,0.804342
-493.469238,826.263428,114.715576,0.805083
-491.180420,830.657959,108.947754,0.805823
-498.779297,837.158203,112.426758,0.806563
-499.145508,828.094482,108.032227,0.807305
-491.088867,829.833984,100.799561,0.808045
-497.680664,828.002930,109.039307,0.808786
-499.328613,830.474854,116.271973,0.809526
-496.765137,828.186035,108.032227,0.810266
-494.750977,830.383301,116.912842,0.811018
-491.912842,841.278076,107.482910,0.811840
-495.941162,841.003418,106.933594,0.812581
-500.610352,847.229004,112.792969,0.813322
-497.406006,839.172363,109.863281,0.814062
-504.364014,841.552734,115.631104,0.814802
-505.645752,846.221924,110.961914,0.815542
-497.863770,843.658447,111.602783,0.816283
-497.039795,851.989746,111.145020,0.817023
-497.406006,852.539062,109.771729,0.817763
-497.222900,854.370117,113.250732,0.818504
-501.983643,842.834473,101.806641,0.819253
-500.335693,847.686768,108.306885,0.819994
-498.962402,841.918945,116.363525,0.820735
-499.053955,860.961914,111.053467,0.821475
-501.251221,850.250244,117.095947,0.822216
-497.406006,844.390869,110.961914,0.822957
-499.420166,849.700928,112.884521,0.823697
-496.765137,841.735840,113.250732,0.824438
-506.561279,842.285156,114.166260,0.825178
-501.434326,839.996338,107.116699,0.825919
-497.955322,843.200684,115.997314,0.826659
-500.793457,847.595215,111.968994,0.827399
-498.596191,843.933105,107.208252,0.828140
-497.497559,850.341797,106.475830,0.828880
-499.053955,839.538574,108.489990,0.829621
-502.990723,842.834473,111.968994,0.830361
-498.321533,846.771240,115.997314,0.831101
-500.518799,846.130371,108.581543,0.831851
-502.807617,842.834473,105.651855,0.832592
-497.589111,846.588135,109.863281,0.833332
-501.983643,842.102051,109.863281,0.834088
-503.997803,842.559814,110.778809,0.834842
-499.328613,851.257324,115.356445,0.835591
-506.011963,848.419189,108.673096,0.836339
-507.843018,847.137451,108.947754,0.837081
-512.603760,851.531982,109.680176,0.837824
-512.603760,852.355957,112.152100,0.838565
-506.927490,849.334717,102.813721,0.839306
-506.744385,846.954346,102.905273,0.840047
-509.857178,854.644775,110.412598,0.840789
-517.089844,847.229004,104.003906,0.841529
-512.420654,853.179932,110.046387,0.842269
-508.941650,849.792480,106.018066,0.843022
-508.758545,848.968506,109.588623,0.843772
-512.786865,851.165771,114.715576,0.844521
-510.406494,853.912354,109.954834,0.845266
-510.772705,850.708008,112.060547,0.846026
-513.244629,847.320557,106.201172,0.846768
-512.054443,844.757080,99.334717,0.847508
-514.617920,854.919434,106.567383,0.848248
-515.167236,856.567383,108.123779,0.849001
-512.786865,861.053467,110.321045,0.849743
-517.272949,857.574463,105.194092,0.850483
-514.617920,854.461670,102.722168,0.851224
-520.660400,853.088379,107.208252,0.851973
-525.146484,850.891113,106.018066,0.852714
-523.223877,849.517822,109.039307,0.853454
-497.955322,857.391357,110.504150,0.854195
-522.857666,851.806641,113.525391,0.854945
-517.272949,850.982666,101.989746,0.855686
-518.554688,850.524902,105.834961,0.856426
-522.583008,854.644775,108.581543,0.857166
-516.265869,852.813721,104.553223,0.857916
-522.125244,848.876953,104.370117,0.858657
-512.786865,842.010498,102.355957,0.859397
-516.357422,848.327637,106.567383,0.860137
-516.815186,847.137451,103.179932,0.860878
-515.350342,854.095459,105.102539,0.861619
-522.399902,851.257324,101.165771,0.862361
-524.688721,850.616455,108.764648,0.863105
-516.448975,847.503662,111.602783,0.863848
-512.054443,853.637695,116.271973,0.864589
-521.759033,843.200684,104.370117,0.865330
-514.984131,849.700928,103.088379,0.866070
-520.385742,844.940186,101.623535,0.866810
-521.484375,840.087891,102.081299,0.867551
-518.554688,833.862305,105.834961,0.868291
-518.188477,845.123291,104.827881,0.869031
-521.026611,823.791504,106.384277,0.869772
-521.209717,832.946777,104.187012,0.870512
-522.491455,841.461182,104.278564,0.871253
-515.991211,841.735840,104.003906,0.871993
-521.575928,838.256836,104.461670,0.872733
-519.012451,840.545654,104.370117,0.873474
-514.617920,847.045898,103.179932,0.874214
-522.125244,835.784912,97.412109,0.874954
-521.118164,839.447021,101.165771,0.875694
-517.913818,844.116211,103.363037,0.876449
-515.716553,840.728760,106.842041,0.877190
-518.554688,845.031738,105.285645,0.877932
-522.857666,848.693848,109.954834,0.878681
-521.118164,827.728271,104.278564,0.879423
-514.343262,838.165283,106.475830,0.880163
-517.364502,845.489502,102.447510,0.880904
-519.836426,846.862793,97.869873,0.881652
-518.920898,845.214844,97.778320,0.882393
-516.082764,848.602295,106.658936,0.883216
-517.181396,842.010498,105.194092,0.883957
-525.604248,848.602295,101.165771,0.884698
-517.181396,852.996826,101.806641,0.885438
-513.702393,856.292725,109.497070,0.886178
-515.991211,842.010498,104.919434,0.886919
-521.667480,841.003418,105.285645,0.887659
-519.744873,844.116211,106.018066,0.888400
-518.646240,846.405029,107.299805,0.889141
-510.406494,848.327637,111.236572,0.889881
-513.793945,841.735840,101.440430,0.890635
-518.188477,843.109131,105.468750,0.891376
-513.153076,846.679688,103.546143,0.892116
-516.265869,847.045898,104.736328,0.892856
-516.632080,855.834961,107.299805,0.893602
-515.899658,850.250244,108.032227,0.894342
-518.920898,849.151611,104.827881,0.895083
-518.096924,851.989746,102.172852,0.895823
-512.603760,845.581055,109.039307,0.896564
-514.984131,849.609375,104.919434,0.897305
-515.441895,844.848633,106.292725,0.898045
-522.674561,851.531982,109.588623,0.898785
-514.984131,849.884033,105.743408,0.899526
-517.456055,849.975586,107.025146,0.900266
-510.589600,854.827881,108.947754,0.901006
-514.434814,851.348877,107.482910,0.901748
-518.737793,850.067139,101.898193,0.902489
-518.554688,855.285645,108.215332,0.903229
-510.498047,847.686768,109.863281,0.903970
-507.202148,853.820801,107.849121,0.904713
-510.772705,858.764648,106.018066,0.905471
-511.962891,850.158691,109.771729,0.906224
-515.991211,845.947266,112.335205,0.906979
-513.336182,851.989746,110.778809,0.907735
-516.632080,849.060059,112.335205,0.908518
-518.829346,849.792480,104.827881,0.909272
-520.019531,840.270996,103.820801,0.910016
-513.336182,837.890625,110.687256,0.910764
-517.730713,840.362549,109.130859,0.911508
-509.857178,840.637207,106.475830,0.912254
-507.293701,866.455078,116.180420,0.912996
-511.138916,843.475342,110.687256,0.913750
-506.103516,842.834473,114.532471,0.914516
-503.723145,844.940186,115.081787,0.915271
-513.061523,840.270996,108.764648,0.916020
-530.639648,843.200684,111.877441,0.916761
-520.019531,841.461182,103.088379,0.917502
-519.927979,842.926025,115.539551,0.918243
-515.441895,842.926025,114.257812,0.918983
-513.610840,838.439941,117.095947,0.919724
-513.244629,836.242676,108.581543,0.920466
-505.554199,838.806152,137.420654,0.921207
-510.589600,840.087891,120.941162,0.921947
-507.019043,837.432861,119.934082,0.922687
-510.223389,837.615967,123.596191,0.923444
-506.561279,839.538574,116.912842,0.924186
-504.364014,840.637207,120.849609,0.924926
-507.843018,832.122803,121.032715,0.925666
-503.631592,826.263428,118.103027,0.926407
-513.153076,836.791992,115.631104,0.927148
-515.441895,831.390381,112.335205,0.927888
-517.364502,828.643799,119.934082,0.928628
-516.082764,827.270508,113.342285,0.929378
-517.181396,832.580566,121.765137,0.930118
-512.237549,835.968018,138.061523,0.930859
-505.187988,826.995850,118.560791,0.931599
-511.138916,823.150635,123.596191,0.932341
-510.589600,821.136475,116.638184,0.933082
-509.307861,825.805664,123.046875,0.933822
-508.575439,817.932129,119.567871,0.934562
-509.124756,830.017090,124.053955,0.935303
-505.004883,828.460693,117.553711,0.936043
-508.117676,822.967529,112.792969,0.936784
-503.906250,823.242188,121.215820,0.937524
-509.582520,822.875977,118.011475,0.938265
-507.202148,820.678711,118.927002,0.939006
-510.223389,821.868896,119.567871,0.939746
-506.011963,815.093994,124.328613,0.940486
-504.455566,815.551758,116.088867,0.941236
-506.469727,843.109131,121.307373,0.941977
-504.089355,821.777344,122.589111,0.942717
-507.019043,826.080322,127.258301,0.943457
-504.180908,816.925049,126.342773,0.944206
-511.962891,816.650391,120.391846,0.944947
-506.286621,813.079834,128.265381,0.945687
-500.701904,817.108154,116.546631,0.946427
-503.356934,820.770264,114.074707,0.947176
-502.441406,814.636230,111.694336,0.947916
-498.046875,821.228027,120.666504,0.948657
-497.314453,817.108154,118.286133,0.949397
-503.723145,818.756104,116.638184,0.950139
-497.131348,822.143555,124.420166,0.950878
-490.447998,840.454102,118.469238,0.951617
-497.406006,815.093994,120.483398,0.952356
-498.504639,819.305420,119.476318,0.953096
-496.582031,817.840576,116.088867,0.953932
-498.138428,820.861816,123.138428,0.954671
-501.434326,823.699951,128.631592,0.955410
-494.201660,825.714111,125.244141,0.956164
-494.476318,820.587158,129.547119,0.956904
-493.103027,824.249268,120.025635,0.957643
-492.645264,825.714111,125.793457,0.958382
-492.828369,825.622559,120.941162,0.959121
-491.729736,825.897217,128.631592,0.959860
-493.377686,825.897217,128.173828,0.960599
-488.342285,830.932617,125.427246,0.961338
-496.032715,830.566406,119.201660,0.962077
-495.117188,828.277588,121.490479,0.962816
-496.124268,826.263428,120.941162,0.963561
-496.215820,824.615479,121.582031,0.964306
-497.131348,825.439453,118.194580,0.965045
-495.666504,829.101562,124.694824,0.965785
-497.589111,826.080322,120.666504,0.966524
-496.490479,842.010498,114.715576,0.967263
-493.560791,829.559326,121.856689,0.968015
-497.772217,828.460693,124.053955,0.968755
-498.138428,820.770264,139.526367,0.969495
-504.913330,818.115234,115.264893,0.970234
-499.877930,843.200684,115.722656,0.970975
-502.441406,826.538086,115.447998,0.971714
-501.525879,823.699951,116.455078,0.972453
-496.215820,823.699951,117.279053,0.973192
-499.511719,819.580078,119.201660,0.973931
-498.504639,819.946289,121.582031,0.974670
-502.899170,819.396973,116.363525,0.975409
-507.293701,817.565918,114.807129,0.976159
-511.322021,812.713623,120.208740,0.976913
-508.392334,820.220947,116.638184,0.977663
-508.575439,817.382812,119.750977,0.978410
-508.850098,817.474365,139.709473,0.979149
-509.674072,819.396973,117.462158,0.979906
-505.920410,823.608398,112.335205,0.980646
-508.209229,819.488525,113.616943,0.981385
-506.195068,814.544678,115.447998,0.982124
-512.420654,814.361572,112.335205,0.982876
-513.885498,813.446045,111.328125,0.983616
-511.138916,828.094482,111.877441,0.984355
-505.462646,820.495605,113.342285,0.985093
-509.948730,829.010010,115.264893,0.985842
-504.547119,802.001953,101.898193,0.986581
-506.469727,822.601318,114.074707,0.987320
-510.681152,826.354980,106.658936,0.988059
-507.568359,830.841064,114.715576,0.988798
-514.892578,829.925537,109.130859,0.989538
-505.462646,828.552246,112.243652,0.990278
-512.695312,831.939697,110.137939,0.991018
-515.167236,828.643799,114.074707,0.991758
-512.512207,828.186035,107.940674,0.992497
-517.364502,828.735352,115.447998,0.993236
-519.012451,826.995850,108.764648,0.993975
-510.040283,834.228516,112.609863,0.994725
-513.336182,833.953857,108.856201,0.995464
-512.512207,834.686279,103.820801,0.996203
-509.307861,842.010498,110.229492,0.996942
-511.962891,835.693359,107.208252,0.997682
-510.955811,834.686279,108.764648,0.998422
-511.688232,839.355469,112.884521,0.999161
-514.526367,841.186523,109.863281,0.999900
-513.977051,837.158203,108.032227,1.000649
-505.462646,834.960938,102.630615,1.001400
-505.920410,841.735840,111.511230,1.002175
-511.779785,835.601807,106.201172,1.002914
-508.026123,835.876465,107.391357,1.003653
-510.681152,835.876465,103.729248,1.004392
-516.632080,840.362549,105.285645,1.005132
-504.364014,838.531494,99.884033,1.005871
-508.117676,837.799072,104.736328,1.006624
-501.251221,835.784912,102.905273,1.007365
-507.202148,840.270996,105.194092,1.008104
-513.336182,840.637207,115.356445,1.008843
-512.145996,846.862793,107.025146,1.009591
-507.568359,850.799561,105.834961,1.010330
-504.364014,846.130371,104.827881,1.011069
-506.103516,841.186523,102.081299,1.011811
-511.962891,848.785400,113.250732,1.012577
-492.828369,836.608887,110.961914,1.013323
-509.582520,836.883545,107.574463,1.014067
-510.406494,847.412109,108.856201,1.014806
-510.406494,866.363525,110.412598,1.015545
-508.758545,851.531982,112.976074,1.016284
-505.096436,845.764160,105.377197,1.017023
-513.610840,839.630127,102.447510,1.017761
-510.131836,842.834473,101.440430,1.018500
-505.828857,851.898193,105.651855,1.019238
-504.638672,854.644775,110.137939,1.019977
-505.554199,858.215332,104.644775,1.020715
-508.666992,859.497070,111.602783,1.021468
-505.737305,853.363037,110.870361,1.022209
-503.631592,849.517822,108.306885,1.022947
-506.103516,857.025146,97.686768,1.023686
-511.779785,853.546143,113.342285,1.024505
-513.519287,853.179932,101.531982,1.025246
-509.399414,847.137451,109.313965,1.025986
-516.174316,853.271484,102.905273,1.026725
-514.251709,846.405029,105.285645,1.027464
-504.364014,849.151611,111.785889,1.028203
-498.962402,847.778320,108.306885,1.028942
-504.089355,849.334717,107.574463,1.029681
-510.681152,852.447510,107.299805,1.030420
-512.695312,845.397949,101.165771,1.031160
-508.026123,849.151611,102.813721,1.031899
-503.540039,848.876953,109.863281,1.032638
-501.617432,851.806641,114.166260,1.033376
-503.448486,856.750488,113.708496,1.034115
-494.476318,856.842041,105.194092,1.034854
-500.885010,856.201172,105.743408,1.035593
-503.173828,855.377197,108.764648,1.036341
-504.638672,842.651367,106.292725,1.037080
-499.511719,855.285645,108.123779,1.037819
-503.906250,845.855713,102.081299,1.038557
-497.772217,844.573975,104.370117,1.039306
-503.265381,845.581055,106.292725,1.040045
-499.145508,849.792480,110.504150,1.040784
-501.892090,846.771240,109.405518,1.041522
-501.708984,846.496582,107.208252,1.042261
-495.666504,838.714600,107.940674,1.042999
-495.849609,858.215332,99.426270,1.043738
-499.969482,851.440430,112.701416,1.044477
-502.075195,839.172363,101.989746,1.045223
-500.976562,838.073730,107.299805,1.045963
-508.026123,843.566895,108.215332,1.046703
-498.596191,850.708008,103.088379,1.047452
-496.490479,859.130859,96.862793,1.048198
-495.208740,859.954834,97.045898,1.048962
-491.455078,857.482910,103.088379,1.049701
-493.377686,852.813721,101.623535,1.050440
-493.103027,837.066650,101.806641,1.051179
-515.258789,848.968506,100.891113,1.051917
-489.349365,855.285645,96.862793,1.052656
-490.264893,856.292725,92.193604,1.053396
-491.546631,856.292725,109.497070,1.054143
-481.750488,852.081299,112.060547,1.054890
-482.482910,848.968506,111.419678,1.055636
-488.067627,849.334717,107.391357,1.056380
-486.785889,865.814209,105.560303,1.057121
-489.807129,866.912842,96.862793,1.057863
-488.525391,861.602783,99.060059,1.058602
-483.856201,864.257812,112.152100,1.059340
-489.990234,862.884521,104.644775,1.060079
-495.666504,868.011475,111.328125,1.060818
-491.729736,869.842529,109.680176,1.061558
-490.081787,864.074707,99.792480,1.062297
-484.588623,871.307373,101.898193,1.063037
-482.025146,871.215820,106.109619,1.063777
-479.644775,873.413086,103.179932,1.064515
-477.539062,868.652344,101.348877,1.065254
-483.764648,862.792969,96.496582,1.065993
-490.264893,864.898682,110.778809,1.066744
-485.321045,862.152100,101.257324,1.067483
-496.948242,861.602783,99.151611,1.068222
-493.377686,865.722656,110.137939,1.068960
-503.448486,858.764648,102.447510,1.069708
-493.652344,858.856201,104.736328,1.070447
-493.194580,861.419678,106.109619,1.071186
-492.645264,861.511230,97.778320,1.071925
-479.827881,858.581543,102.539062,1.072672
-487.609863,864.074707,101.074219,1.073411
-488.342285,860.321045,99.243164,1.074150
-484.313965,859.588623,108.947754,1.074889
-486.877441,857.116699,100.067139,1.075636
-487.060547,855.285645,105.010986,1.076375
-490.447998,857.116699,103.179932,1.077114
-490.814209,847.412109,98.968506,1.077852
-493.194580,847.320557,108.947754,1.078601
-494.018555,854.370117,105.010986,1.079340
-491.088867,860.137939,108.947754,1.080079
-484.039307,850.158691,108.581543,1.080817
-487.243652,855.651855,101.989746,1.081566
-483.673096,852.905273,105.102539,1.082304
-485.321045,849.517822,103.912354,1.083043
-477.905273,848.693848,105.834961,1.083782
-476.806641,847.961426,103.179932,1.084531
-484.313965,840.270996,110.046387,1.085272
-486.511230,844.390869,105.651855,1.086010
-497.222900,836.242676,103.454590,1.086748
-490.173340,841.827393,101.165771,1.087496
-495.758057,838.256836,102.264404,1.088235
-487.976074,832.946777,109.039307,1.088974
-488.067627,840.820312,99.243164,1.089713
-488.067627,837.432861,104.553223,1.090463
-489.898682,841.003418,104.553223,1.091202
-494.384766,831.298828,101.806641,1.091942
-492.645264,833.587646,107.666016,1.092685
-489.624023,833.312988,114.532471,1.093440
-489.715576,832.031250,105.926514,1.094181
-488.067627,836.608887,101.348877,1.094922
-489.074707,830.566406,104.553223,1.095764
-497.589111,828.002930,101.989746,1.096505
-498.962402,829.376221,104.827881,1.097244
-494.934082,820.587158,102.905273,1.097983
-497.314453,827.453613,105.560303,1.098726
-492.187500,827.453613,111.145020,1.099469
-493.103027,828.918457,111.877441,1.100220
-487.518311,825.256348,108.581543,1.100965
-488.067627,842.926025,110.961914,1.101745
-490.539551,821.319580,112.060547,1.102493
-496.215820,827.453613,109.771729,1.103248
-494.293213,829.467773,107.208252,1.103997
-494.018555,826.263428,114.349365,1.104771
-502.624512,822.052002,100.891113,1.105522
-499.969482,820.953369,101.715088,1.106268
-505.462646,820.770264,106.567383,1.107014
-500.335693,824.249268,105.377197,1.107792
-503.356934,823.425293,111.328125,1.108539
-501.434326,818.847656,119.476318,1.109286
-505.096436,824.707031,112.060547,1.110033
-500.061035,820.312500,113.891602,1.110826
-501.434326,823.699951,104.827881,1.111567
-495.574951,829.650879,105.377197,1.112316
-500.152588,824.340820,117.279053,1.113064
-499.511719,819.763184,110.687256,1.113830
-502.624512,816.558838,113.342285,1.114561
-495.666504,820.129395,111.968994,1.115292
-497.314453,825.164795,114.898682,1.116023
-496.124268,822.509766,118.194580,1.116766
-507.934570,824.981689,124.420166,1.117511
-512.695312,836.975098,129.913330,1.118280
-523.681641,845.855713,130.645752,1.119019
-528.900146,864.440918,122.772217,1.119775
-529.815674,867.370605,124.511719,1.120507
-526.428223,870.300293,128.997803,1.121236
-531.555176,873.229980,135.681152,1.121967
-538.970947,871.032715,137.512207,1.122737
-533.203125,868.743896,139.343262,1.123491
-530.548096,873.138428,124.786377,1.124239
-518.737793,870.300293,124.237061,1.124984
-516.357422,870.758057,118.377686,1.125746
-516.448975,870.208740,125.793457,1.126487
-508.941650,861.694336,129.821777,1.127227
-518.829346,858.398438,122.039795,1.127967
-519.195557,860.595703,123.138428,1.128728
-534.484863,855.560303,120.574951,1.129469
-533.843994,853.729248,126.342773,1.130209
-532.379150,857.574463,130.004883,1.130949
-537.322998,864.532471,144.836426,1.131701
-534.942627,864.807129,152.893066,1.132441
-531.921387,867.736816,156.463623,1.133183
-524.963379,864.715576,157.287598,1.133923
-524.230957,863.983154,158.386230,1.134675
-530.822754,859.497070,157.470703,1.135416
-533.477783,854.003906,160.034180,1.136156
-518.554688,863.433838,164.154053,1.136896
-531.372070,864.990234,153.350830,1.137648
-527.984619,861.328125,145.477295,1.138389
-525.970459,864.990234,156.555176,1.139130
-526.611328,866.088867,160.491943,1.139870
-522.583008,857.849121,158.386230,1.140621
-530.181885,863.891602,164.428711,1.141362
-524.414062,865.997314,141.448975,1.142102
-519.470215,870.941162,170.837402,1.142842
-515.899658,867.828369,170.288086,1.143593
-512.512207,867.736816,172.210693,1.144333
-514.526367,858.856201,171.936035,1.145073
-515.350342,858.581543,161.315918,1.145814
-514.343262,855.102539,159.301758,1.146591
-521.484375,848.876953,157.562256,1.147340
-524.780273,843.566895,149.230957,1.148080
-528.900146,839.721680,148.956299,1.148821
-529.449463,835.876465,149.139404,1.149581
-528.625488,830.657959,143.920898,1.150322
-525.421143,835.327148,159.210205,1.151062
-520.935059,834.686279,165.893555,1.151802
-516.540527,833.038330,164.794922,1.152548
-513.610840,839.080811,165.985107,1.153288
-500.335693,834.594727,165.161133,1.154029
-504.455566,828.460693,168.090820,1.154769
-500.610352,823.516846,160.308838,1.155517
-497.863770,820.037842,154.998779,1.156257
-499.053955,809.875488,150.878906,1.156997
-504.364014,810.333252,152.435303,1.157738
-507.659912,810.516357,155.639648,1.158487
-507.934570,821.136475,157.012939,1.159227
-499.786377,821.868896,155.639648,1.159968
-495.208740,818.115234,171.386719,1.160710
-491.912842,822.601318,183.380127,1.161463
-485.870361,821.685791,184.295654,1.162203
-487.976074,813.079834,183.929443,1.162943
-472.412109,819.488525,175.323486,1.163683
-470.214844,819.854736,185.485840,1.164432
-477.905273,802.276611,186.126709,1.165173
-477.081299,813.812256,177.886963,1.165913
-489.990234,810.333252,177.886963,1.166738
-491.729736,803.649902,172.210693,1.167490
-480.651855,806.945801,179.809570,1.168230
-488.433838,804.382324,172.943115,1.168971
-488.159180,809.234619,141.998291,1.169711
-482.482910,811.248779,175.781250,1.170461
-486.602783,813.262939,174.865723,1.171202
-484.130859,811.157227,170.562744,1.171942
-488.616943,808.319092,174.591064,1.172683
-488.891602,815.368652,186.126709,1.173438
-495.574951,812.530518,181.365967,1.174178
-495.300293,816.558838,178.527832,1.174919
-481.750488,813.537598,179.168701,1.175659
-485.321045,809.875488,174.591064,1.176408
-485.229492,807.495117,165.618896,1.177148
-484.313965,813.262939,171.386719,1.177888
-484.222412,813.629150,167.083740,1.178627
-483.398438,813.171387,165.344238,1.179376
-486.968994,818.206787,161.407471,1.180116
-485.687256,816.009521,165.252686,1.180856
-484.680176,815.093994,168.731689,1.181596
-498.870850,811.248779,169.281006,1.182345
-486.694336,810.333252,143.096924,1.183085
-495.391846,810.699463,154.266357,1.183825
-488.342285,812.713623,161.132812,1.184565
-481.292725,815.460205,163.604736,1.185314
-472.503662,819.213867,166.992188,1.186055
-475.982666,812.072754,167.083740,1.186796
-468.750000,814.636230,152.801514,1.187535
-490.539551,811.706543,163.146973,1.188285
-473.144531,816.558838,157.379150,1.189033
-480.194092,803.375244,153.076172,1.189781
-477.447510,808.868408,148.590088,1.190528
-481.201172,808.959961,145.660400,1.191291
-486.328125,809.600830,142.364502,1.192033
-489.898682,802.917480,132.110596,1.192773
-494.567871,811.431885,132.568359,1.193513
-501.708984,808.410645,136.596680,1.194263
-492.279053,820.495605,162.231445,1.195011
-488.250732,821.502686,142.730713,1.195761
-480.194092,828.826904,148.315430,1.196511
-479.919434,831.115723,147.857666,1.197280
-477.447510,839.080811,161.499023,1.198021
-478.820801,849.517822,156.280518,1.198761
-469.757080,853.637695,160.125732,1.199501
-480.285645,852.813721,148.590088,1.200250
-480.285645,852.630615,143.005371,1.200991
-483.306885,863.616943,142.547607,1.201730
-488.525391,864.898682,148.773193,1.202470
-489.807129,862.243652,148.681641,1.203220
-494.110107,868.927002,146.484375,1.203964
-495.117188,871.673584,148.773193,1.204710
-486.877441,874.603271,156.738281,1.205450
-485.687256,882.843018,161.041260,1.206208
-484.588623,886.962891,166.809082,1.206949
-477.172852,892.547607,162.506104,1.207689
-480.560303,869.110107,159.027100,1.208429
-472.137451,893.646240,161.407471,1.209178
-475.616455,896.484375,161.132812,1.209918
-478.454590,897.308350,163.055420,1.210658
-483.123779,900.421143,161.773682,1.211398
-481.384277,897.583008,156.738281,1.212147
-480.010986,896.301270,157.745361,1.212887
-475.982666,901.153564,160.491943,1.213627
-478.088379,905.273438,159.027100,1.214367
-455.200195,902.069092,156.921387,1.215115
-450.073242,908.477783,165.618896,1.215856
-446.594238,904.266357,158.843994,1.216596
-418.395996,908.569336,180.175781,1.217336
-420.593262,936.492920,175.231934,1.218086
-407.592773,908.386230,177.978516,1.218826
-376.373291,920.471191,172.943115,1.219567
-392.578125,923.400879,172.851562,1.220307
-391.479492,937.133789,174.499512,1.221056
-386.077881,938.323975,180.175781,1.221797
-380.310059,939.605713,184.020996,1.222538
-380.310059,935.760498,186.676025,1.223278
-382.781982,942.993164,191.986084,1.224027
-364.105225,1004.425049,175.140381,1.224767
-342.132568,1023.651123,207.641602,1.225507
-391.296387,994.903564,270.263672,1.226247
-372.619629,1016.601562,421.600342,1.226996
-367.584229,1106.964111,455.108643,1.227736
-380.126953,1151.092529,430.755615,1.228477
-393.035889,1192.657471,407.501221,1.229218
-395.416260,1187.622070,444.030762,1.229971
-414.001465,1163.360596,461.059570,1.230711
-426.269531,1140.655518,502.441406,1.231451
-431.671143,1110.534668,557.830811,1.232192
-394.409180,1061.279297,639.495850,1.232941
-384.063721,1044.799805,579.345703,1.233681
-352.111816,1077.758789,524.047852,1.234422
-333.526611,1154.113770,417.572021,1.235162
-273.193359,1175.170898,380.218506,1.235911
-254.241943,1199.066162,356.506348,1.236652
-264.404297,1195.953369,375.457764,1.237477
-298.828125,1195.495605,395.507812,1.238218
-356.781006,1184.509277,433.959961,1.238970
-383.514404,1188.262939,472.045898,1.239711
-418.212891,1179.382324,473.510742,1.240451
-427.825928,1163.635254,490.905762,1.241191
-421.417236,1164.276123,474.975586,1.241978
-386.993408,1178.283691,472.686768,1.242718
-352.752686,1148.986816,473.236084,1.243460
-286.926270,1169.494629,476.989746,1.244202
-236.297607,1174.713135,467.285156,1.244952
-215.515137,1167.480469,418.579102,1.245698
-219.543457,1218.841553,238.037109,1.246438
-104.461670,1396.911621,-27.465820,1.247178
-9.887695,1377.319336,190.704346,1.247928
-313.293457,1214.263916,355.957031,1.248668
-438.903809,1134.887695,510.589600,1.249408
-387.451172,1139.373779,490.631104,1.250148
-708.068848,1175.537109,439.819336,1.250897
-871.307373,1138.641357,550.323486,1.251637
-531.555176,1091.491699,579.254150,1.252377
-454.193115,1130.126953,501.617432,1.253118
-498.687744,1154.937744,461.517334,1.253867
-360.717773,1061.187744,440.093994,1.254607
-299.102783,1088.012695,406.768799,1.255347
-434.967041,1079.589844,418.945312,1.256087
-564.331055,1055.603027,446.502686,1.256836
-636.749268,1058.807373,476.257324,1.257577
-757.232666,1071.624756,480.560303,1.258317
-809.875488,1128.204346,414.733887,1.259057
1712.860107,1333.374023,242.706299,1.259810
389.190674,1160.064697,251.220703,1.260567
-492.095947,1118.225098,368.499756,1.261314
-680.511475,1093.231201,374.267578,1.262054
-318.969727,1037.475586,401.641846,1.262817
-295.257568,994.812012,433.135986,1.263558
-274.658203,965.148926,450.988770,1.264298
-135.406494,1037.384033,358.703613,1.265038
-27.465820,889.892578,308.990479,1.265791
-248.016357,695.068359,168.823242,1.266534
-282.073975,734.802246,107.666016,1.267274
-299.560547,792.205811,104.187012,1.268015
-246.093750,842.376709,74.249268,1.268772
-239.959717,868.103027,75.988770,1.269512
-288.757324,719.696045,26.367188,1.270252
-215.881348,670.806885,-6.317139,1.270992
-285.095215,581.634521,-50.170898,1.271742
-222.198486,644.989014,-107.208252,1.272482
-197.021484,659.912109,-51.635742,1.273229
-292.877197,678.039551,-30.761719,1.273988
-300.109863,685.729980,54.107666,1.274762
-216.339111,674.011230,84.136963,1.275513
-261.566162,665.039062,133.575439,1.276256
-282.989502,697.906494,150.421143,1.276996
-188.415527,714.477539,163.055420,1.277755
-4.028320,679.138184,190.795898,1.278496
199.951172,634.552002,143.280029,1.279236
-178.436279,676.574707,149.597168,1.279976
-309.173584,738.006592,125.976562,1.280726
-61.798096,697.814941,118.377686,1.281467
-242.065430,683.349609,109.222412,1.282207
-321.441650,640.502930,100.433350,1.282947
-387.268066,677.581787,90.911865,1.283696
-467.559814,687.469482,109.130859,1.284437
-478.271484,712.280273,120.391846,1.285176
-553.070068,776.733398,150.695801,1.285916
-407.592773,572.113037,215.881348,1.286666
579.895020,129.272461,279.785156,1.287407
-539.154053,710.632324,178.985596,1.288148
-12.268066,715.209961,125.885010,1.288888
215.515137,853.363037,132.751465,1.289639
-149.414062,687.561035,208.648682,1.290379
-242.156982,699.554443,198.211670,1.291119
-87.707520,841.827393,219.177246,1.291860
-201.049805,855.743408,296.630859,1.292610
-612.121582,466.552734,273.284912,1.293351
-424.255371,746.154785,136.688232,1.294092
-499.328613,780.212402,125.152588,1.294832
-428.466797,809.417725,167.175293,1.295582
-201.599121,600.860596,171.112061,1.296322
-370.788574,692.504883,170.379639,1.297063
-219.543457,807.312012,175.598145,1.297803
-158.477783,811.889648,237.670898,1.298555
-293.426514,823.059082,270.080566,1.299296
-127.990723,775.177002,336.273193,1.300036
52.917480,827.453613,310.913086,1.300776
-228.881836,907.470703,301.574707,1.301526
-185.852051,961.944580,304.138184,1.302266
-245.178223,955.810547,305.969238,1.303007
-298.461914,949.951172,308.349609,1.303747
-97.961426,942.810059,321.716309,1.304503
-457.214355,932.373047,352.386475,1.305244
-554.534912,959.106445,382.507324,1.305985
-509.674072,990.509033,395.782471,1.306725
-570.831299,1034.820557,418.487549,1.307474
-571.563721,1077.301025,473.693848,1.308294
-506.195068,1078.582764,495.483398,1.309034
-471.405029,1087.554932,548.034668,1.309776
-474.792480,1087.921143,593.719482,1.310517
-399.719238,1146.514893,630.157471,1.311258
-360.992432,1185.974121,713.012695,1.311999
-305.511475,1185.882568,747.070312,1.312740
-303.497314,1232.849121,767.852783,1.313472
-292.877197,1244.842529,799.621582,1.314202
-272.552490,1249.786377,838.714600,1.314933
-267.700195,1343.444824,882.843018,1.315664
-53.649902,1081.787109,903.259277,1.316425
-97.320557,1239.532471,788.085938,1.317167
-83.587646,1217.468262,811.889648,1.317908
-485.778809,981.903076,779.663086,1.318649
-1313.140869,914.611816,658.996582,1.319390
-357.513428,1045.898438,593.170166,1.320131
-120.849609,1042.602539,591.979980,1.320872
-403.381348,1015.777588,637.939453,1.321614
-406.860352,1066.406250,633.636475,1.322355
-309.539795,1121.704102,678.131104,1.323097
-364.746094,1091.583252,761.260986,1.323838
-487.243652,1085.998535,803.924561,1.324579
-487.518311,1107.238770,891.357422,1.325320
-579.071045,1142.120361,918.731689,1.326060
-520.019531,1306.823730,958.557129,1.326801
-452.819824,1401.580811,1021.911621,1.327553
-478.271484,1390.228271,1057.617188,1.328295
-599.853516,414.459229,1119.964600,1.329035
-601.959229,580.261230,1046.722412,1.329776
-677.398682,1107.879639,1009.277344,1.330538
-321.075439,1298.583984,1032.989502,1.331287
13.275146,1174.713135,1081.970215,1.332036
-248.199463,1606.292725,1123.260498,1.332782
-214.508057,1862.640381,1179.473877,1.333523
510.955811,750.915527,1303.894043,1.334264
-489.990234,370.788574,1167.572021,1.335005
-312.835693,2054.901123,968.444824,1.335746
-173.675537,1798.736572,965.423584,1.336487
166.717529,1061.645508,1086.456299,1.337236
91.094971,1212.341309,1044.250488,1.337988
1258.026123,806.762695,1059.631348,1.338738
899.780273,1019.805908,1038.940430,1.339485
1101.654053,715.118408,951.690674,1.340227
-527.343750,1287.139893,868.835449,1.340967
156.555176,1107.604980,841.003418,1.341708
312.194824,1576.812744,852.447510,1.342449
32.226562,1346.832275,929.168701,1.343190
-265.869141,620.544434,965.972900,1.343930
173.492432,375.823975,844.116211,1.344672
225.860596,1166.656494,738.372803,1.345423
-1216.094971,489.715576,784.790039,1.346168
-1109.252930,1393.066406,619.628906,1.346909
1037.109375,-45.776367,699.554443,1.347650
90.087891,1573.699951,512.512207,1.348391
1864.013672,-1135.162354,-5.859375,1.349132
963.409424,1652.343750,-15.197754,1.349872
850.158691,1600.341797,44.311523,1.350612
461.242676,1273.681641,169.372559,1.351353
-3000.000000,-1073.638916,258.728027,1.352095
-3000.000000,1117.767334,392.669678,1.352836
-2918.060303,1018.066406,532.196045,1.353578
-772.430420,20.141602,549.224854,1.354333
640.869141,83.953857,318.237305,1.355075
1058.898926,916.625977,286.926270,1.355816
997.741699,1282.104492,290.222168,1.356557
1071.624756,1118.865967,279.968262,1.357306
924.774170,1110.351562,286.651611,1.358047
-683.166504,351.654053,370.056152,1.358788
-2465.148926,946.655273,364.105225,1.359528
286.651611,679.138184,236.389160,1.360278
470.672607,1096.160889,251.586914,1.361019
729.400635,993.255615,267.700195,1.361759
644.348145,864.166260,268.524170,1.362500
524.963379,921.112061,282.806396,1.363249
-600.311279,428.924561,306.427002,1.363990
-1589.630127,578.887939,326.843262,1.364730
-494.659424,468.017578,305.419922,1.365471
157.196045,856.475830,314.208984,1.366211
485.687256,724.182129,301.483154,1.366953
461.700439,838.897705,313.568115,1.367694
424.346924,765.838623,294.891357,1.368435
5.493164,611.114502,263.946533,1.369175
-835.968018,744.964600,144.836426,1.369916
344.970703,636.932373,-678.222656,1.370657
-334.259033,2055.908203,-899.963379,1.371398
72.509766,1378.601074,398.620605,1.372140
-74.707031,700.286865,614.501953,1.372880
217.803955,361.358643,250.579834,1.373621
-12.634277,705.047607,-18.035889,1.374362
180.725098,797.332764,-108.306885,1.375102
-30.944824,512.512207,242.340088,1.375856
-559.936523,409.881592,244.903564,1.376597
332.794189,648.284912,-14.007568,1.377337
279.327393,742.309570,-18.585205,1.378158
4.943848,582.275391,19.042969,1.378900
-119.750977,604.522705,-64.636230,1.379640
-338.104248,503.906250,-32.135010,1.380380
-270.446777,526.885986,32.135010,1.381121
-369.689941,478.820801,45.593262,1.381862
-452.819824,462.341309,34.057617,1.382603
-376.556396,483.673096,67.474365,1.383344
-355.773926,497.497559,40.466309,1.384097
-363.922119,464.721680,42.480469,1.384839
-382.598877,433.135986,83.129883,1.385579
-380.584717,439.727783,113.067627,1.386320
-140.075684,411.071777,98.968506,1.387071
472.137451,292.236328,49.530029,1.387812
-712.738037,380.584717,157.104492,1.388552
-1176.452637,523.132324,274.749756,1.389293
-750.183105,479.461670,248.931885,1.390042
-716.583252,452.819824,249.481201,1.390783
-1014.404297,519.012451,252.044678,1.391524
-1012.390137,503.082275,285.552979,1.392265
-849.426270,450.073242,340.118408,1.393006
-1055.969238,443.298340,295.440674,1.393746
-1252.990723,477.630615,267.242432,1.394487
-1162.353516,451.080322,227.142334,1.395228
-1259.582520,410.339355,243.347168,1.395969
-1306.640625,394.409180,278.320312,1.396710
-1233.123779,398.162842,281.433105,1.397451
-1179.748535,394.226074,296.997070,1.398191
-1126.281738,408.508301,349.639893,1.398932
-1003.967285,443.939209,375.823975,1.399674
-957.275391,535.125732,442.565918,1.400415
-867.919922,583.557129,510.040283,1.401157
-661.834717,608.734131,537.597656,1.401907
-598.571777,611.114502,553.161621,1.402657
-541.625977,615.234375,530.639648,1.403405
-481.475830,591.888428,515.258789,1.404146
-455.932617,609.100342,501.434326,1.404887
-416.015625,614.318848,484.222412,1.405628
-359.985352,603.881836,458.953857,1.406369
-339.111328,602.600098,446.319580,1.407110
-300.109863,612.670898,431.488037,1.407850
-265.319824,619.445801,414.642334,1.408591
-243.988037,625.579834,430.938721,1.409346
-263.305664,604.614258,451.812744,1.410105
-177.429199,617.523193,403.656006,1.410869
-143.096924,609.100342,340.576172,1.411632
-65.368652,594.177246,328.308105,1.412388
-52.917480,604.339600,356.689453,1.413137
-88.714600,613.220215,370.422363,1.413903
-126.342773,652.404785,380.126953,1.414646
-140.625000,664.489746,347.717285,1.415389
-155.364990,659.912109,337.554932,1.416130
-91.278076,660.827637,314.758301,1.416872
-88.256836,642.974854,316.680908,1.417613
-82.672119,637.847900,312.011719,1.418354
-104.370117,630.981445,331.604004,1.419095
-147.399902,647.003174,342.407227,1.419838
-158.569336,658.905029,350.646973,1.420584
-150.787354,669.982910,350.555420,1.421325
-163.970947,665.313721,353.668213,1.422066
-154.541016,671.173096,364.471436,1.422806
-153.900146,659.362793,363.830566,1.423547
-145.935059,651.214600,370.239258,1.424288
-165.985107,635.833740,375.091553,1.425028
-141.174316,637.664795,376.831055,1.425769
-162.872314,637.756348,386.810303,1.426510
-156.372070,637.207031,396.972656,1.427262
-132.568359,645.172119,412.353516,1.428024
-205.078125,636.291504,465.270996,1.428779
-233.184814,655.242920,502.075195,1.429548
-282.806396,642.883301,514.984131,1.430312
-286.285400,626.037598,539.611816,1.431069
-312.194824,609.466553,569.091797,1.431848
-324.096680,633.911133,569.183350,1.432610
-331.237793,620.178223,567.443848,1.433378
-327.667236,616.882324,567.901611,1.434126
-329.040527,611.755371,570.281982,1.434893
-320.526123,596.282959,563.873291,1.435637
-317.779541,596.466064,560.485840,1.436378
-291.320801,585.479736,548.400879,1.437118
-291.687012,571.472168,521.667480,1.437870
-250.946045,561.676025,504.364014,1.438611
-252.777100,538.879395,463.623047,1.439351
-234.466553,529.632568,441.375732,1.440092
-232.635498,482.757568,440.368652,1.440842
-232.177734,469.757080,429.107666,1.441582
-213.409424,462.249756,411.437988,1.442322
-188.781738,467.559814,395.507812,1.443062
-162.963867,461.334229,380.401611,1.443815
-173.950195,457.122803,370.422363,1.444556
-172.576904,444.488525,360.168457,1.445297
-185.485840,436.981201,349.914551,1.446036
-190.612793,432.312012,334.716797,1.446787
-193.176270,425.170898,307.342529,1.447527
-195.922852,412.078857,309.539795,1.448268
-189.788818,409.332275,288.665771,1.449009
-193.450928,410.064697,286.651611,1.449838
-195.648193,427.276611,281.158447,1.450579
-197.021484,417.938232,271.270752,1.451319
-198.303223,418.579102,267.883301,1.452059
-182.373047,430.297852,268.707275,1.452809
-181.091309,439.910889,263.488770,1.453550
-174.316406,438.262939,265.228271,1.454290
-166.534424,448.883057,259.826660,1.455031
-167.541504,443.572998,253.234863,1.455781
-157.379150,457.397461,245.819092,1.456523
-157.562256,469.299316,242.706299,1.457265
-165.893555,475.158691,242.523193,1.458009
-159.027100,499.786377,240.051270,1.458770
-157.836914,501.617432,237.121582,1.459512
-158.477783,512.878418,235.931396,1.460253
-169.189453,509.857178,224.761963,1.460993
-179.809570,511.047363,208.557129,1.461743
-178.070068,504.455566,191.436768,1.462484
-203.247070,525.512695,180.999756,1.463224
-194.915771,535.858154,178.436279,1.463964
-183.837891,559.936523,160.400391,1.464713
-185.577393,595.458984,145.019531,1.465454
-189.056396,607.086182,140.625000,1.466194
-193.634033,656.250000,129.547119,1.466934
-194.091797,673.187256,112.426758,1.467684
-205.810547,698.638916,99.243164,1.468425
-208.282471,714.385986,104.187012,1.469165
-236.206055,721.435547,104.003906,1.469906
-262.756348,727.569580,110.595703,1.470656
-256.713867,729.675293,98.236084,1.471418
-253.417969,755.950928,99.884033,1.472179
-257.629395,790.008545,101.623535,1.472948
-262.847900,833.679199,99.884033,1.473738
-276.580811,826.446533,110.504150,1.474500
-249.847412,850.982666,116.821289,1.475257
-239.044189,866.363525,133.392334,1.476017
-226.043701,890.075684,144.927979,1.476803
-214.874268,903.076172,172.119141,1.477565
-215.972900,911.132812,190.521240,1.478325
-215.423584,929.168701,205.535889,1.479084
-253.234863,886.505127,309.997559,1.479869
-213.317871,961.761475,353.118896,1.480628
-231.536865,967.529297,301.391602,1.481374
-223.205566,1003.875732,318.145752,1.482115
-189.331055,1004.608154,343.780518,1.482875
-217.987061,1015.228271,331.329346,1.483617
-195.739746,1039.764404,332.702637,1.484357
-201.690674,1043.975830,352.294922,1.485098
-215.606689,1048.553467,369.873047,1.485848
-217.163086,1052.215576,395.141602,1.486590
-218.902588,1044.982910,385.070801,1.487332
-165.252686,1031.158447,405.395508,1.488074
134.857178,986.572266,448.608398,1.488826
-395.141602,1050.659180,592.620850,1.489566
-590.332031,1087.097168,712.646484,1.490307
-411.437988,1128.112793,725.555420,1.491048
-481.842041,1169.128418,800.537109,1.491798
-571.563721,1150.451660,885.681152,1.492539
-371.246338,1168.121338,954.528809,1.493279
-339.294434,1176.727295,946.746826,1.494020
-495.941162,1189.819336,981.262207,1.494771
-423.614502,1201.812744,999.847412,1.495512
-374.816895,1202.087402,1030.792236,1.496253
-448.699951,1191.192627,1025.573730,1.496994
-448.059082,1182.678223,1032.623291,1.497744
-366.394043,1190.734863,1025.390625,1.498485
-413.085938,1176.086426,1025.207520,1.499226
-405.120850,1169.219971,1020.721436,1.499967
-332.153320,1153.564453,1007.629395,1.500717
-338.562012,1125.915527,958.557129,1.501458
-307.891846,1117.492676,916.442871,1.502198
-232.543945,1080.047607,820.129395,1.502939
-228.881836,1035.736084,729.309082,1.503688
-228.149414,1022.918701,685.455322,1.504429
-220.550537,993.988037,647.735596,1.505170
-236.755371,978.240967,628.417969,1.505910
-237.396240,932.647705,601.867676,1.506660
-235.839844,917.266846,582.183838,1.507401
-233.917236,909.393311,566.162109,1.508141
-211.120605,888.336182,548.400879,1.508882
-190.979004,888.702393,541.534424,1.509631
-178.985596,869.201660,542.633057,1.510372
-146.026611,858.764648,547.210693,1.511113
-134.765625,857.391357,546.478271,1.511853
-113.433838,844.757080,552.429199,1.512603
-117.370605,841.369629,545.196533,1.513344
-101.440430,813.262939,532.928467,1.514085
-90.087891,799.987793,523.040771,1.514826
-86.883545,789.916992,511.322021,1.515576
-112.884521,773.986816,485.504150,1.516317
-101.257324,763.732910,469.757080,1.517057
-91.094971,755.126953,465.454102,1.517797
-97.412109,738.281250,442.199707,1.518547
-93.383789,726.928711,430.847168,1.519288
-62.896729,721.893311,419.769287,1.520111
-69.305420,715.576172,397.521973,1.520854
-67.657471,711.822510,371.520996,1.521606
-54.840088,713.378906,367.584229,1.522347
-67.291260,696.533203,358.428955,1.523087
-78.277588,698.547363,355.682373,1.523827
-55.389404,703.857422,348.724365,1.524577
-64.453125,722.625732,339.019775,1.525318
-73.883057,710.815430,338.378906,1.526058
-32.775879,704.772949,342.590332,1.526799
-57.861328,710.083008,342.773438,1.527549
-50.262451,710.357666,330.871582,1.528289
-44.677734,730.865479,346.069336,1.529030
-36.621094,723.999023,344.604492,1.529771
-33.782959,730.041504,339.294434,1.530521
-36.987305,725.555420,351.470947,1.531261
-28.564453,737.915039,354.766846,1.532002
-27.099609,786.621094,351.837158,1.532743
-125.335693,802.093506,338.195801,1.533492
381.958008,765.563965,276.214600,1.534233
383.880615,767.120361,330.871582,1.534973
-10.345459,747.070312,341.400146,1.535714
251.403809,793.579102,329.589844,1.536467
358.886719,799.530029,329.498291,1.537210
125.061035,770.507812,353.118896,1.537950
81.390381,783.508301,380.950928,1.538691
272.827148,795.867920,381.317139,1.539442
196.014404,795.318604,389.099121,1.540183
135.498047,793.945312,407.592773,1.540923
236.572266,809.143066,417.938232,1.541664
255.706787,807.769775,434.143066,1.542414
186.950684,808.776855,437.255859,1.543163
228.057861,827.636719,459.045410,1.543910
259.735107,821.777344,474.426270,1.544681
217.529297,829.101562,477.447510,1.545430
241.516113,842.468262,483.123779,1.546171
259.185791,853.546143,487.518311,1.546912
241.333008,846.954346,485.778809,1.547690
251.861572,847.869873,485.321045,1.548431
257.446289,858.856201,486.785889,1.549171
256.713867,858.215332,489.715576,1.549912
257.537842,860.778809,497.222900,1.550661
257.812500,859.863281,500.793457,1.551415
258.087158,870.391846,501.617432,1.552162
258.178711,887.329102,497.222900,1.552911
255.615234,878.631592,498.138428,1.553659
254.699707,876.800537,487.060547,1.554401
257.171631,871.582031,490.539551,1.555141
251.953125,868.011475,477.172852,1.555881
246.093750,869.750977,473.968506,1.556622
242.889404,873.962402,477.630615,1.557364
242.431641,889.343262,464.630127,1.558138
237.121582,887.969971,458.496094,1.558879
247.375488,887.969971,453.643799,1.559620
238.769531,882.568359,443.115234,1.560360
237.579346,888.427734,436.340332,1.561101
237.854004,887.878418,420.776367,1.561841
229.248047,901.702881,420.410156,1.562598
233.551025,905.181885,404.113770,1.563339
221.832275,904.724121,408.782959,1.564080
215.423584,896.575928,416.381836,1.564821
203.979492,910.217285,410.522461,1.565562
191.345215,904.998779,428.924561,1.566302
161.315918,909.210205,430.389404,1.567042
114.898682,911.956787,445.129395,1.567783
96.496582,909.484863,440.551758,1.568523
83.679199,908.386230,436.065674,1.569264
50.994873,909.576416,433.593750,1.570004
52.551270,915.161133,442.474365,1.570744
63.354492,924.499512,446.685791,1.571484
56.121826,926.696777,438.720703,1.572224
57.312012,921.203613,441.650391,1.572964
62.805176,915.802002,447.418213,1.573704
63.720703,914.794922,428.100586,1.574443
67.474365,930.725098,437.164307,1.575173
78.826904,938.232422,422.607422,1.575903
83.587646,960.754395,420.227051,1.576633
91.186523,1025.024414,409.423828,1.577363
102.081299,1051.391602,476.074219,1.578105
59.326172,1035.003662,514.526367,1.578846
74.798584,1010.284424,579.711914,1.579587
78.460693,996.734619,588.592529,1.580328
85.784912,1005.523682,604.064941,1.581069
93.750000,1022.003174,569.366455,1.581811
52.642822,1044.891357,549.957275,1.582561
48.706055,1086.822510,535.400391,1.583304
51.086426,1103.576660,523.406982,1.584045
20.965576,1129.211426,527.069092,1.584787
31.951904,1170.501709,559.661865,1.585528
24.078369,1153.381348,586.303711,1.586268
39.916992,1176.086426,632.629395,1.587009
50.079346,1191.467285,669.250488,1.587749
35.247803,1203.552246,664.947510,1.588489
22.705078,1224.060059,676.391602,1.589230
33.966064,1232.757568,678.131104,1.589971
5.218506,1238.800049,695.892334,1.590711
5.767822,1225.067139,692.230225,1.591451
1.647949,1217.102051,699.645996,1.592191
-25.268555,1199.798584,696.899414,1.593029
-36.163330,1191.009521,680.786133,1.593771
-50.445557,1161.987305,664.215088,1.594512
-67.382812,1143.493652,649.291992,1.595252
-100.250244,1150.909424,632.263184,1.595993
-124.328613,1143.676758,590.789795,1.596733
-137.329102,1125.000000,548.492432,1.597474
-152.801514,1111.267090,536.682129,1.598215
-181.274414,1100.921631,495.758057,1.598956
-173.858643,1098.632812,480.010986,1.599696
-179.443359,1088.287354,482.574463,1.600437
-172.485352,1066.589355,473.236084,1.601189
-166.992188,1064.117432,462.432861,1.601931
-154.632568,1065.032959,459.045410,1.602671
-150.421143,1062.652588,439.270020,1.603412
-137.420654,1082.702637,422.698975,1.604163
-125.885010,1088.653564,414.184570,1.604904
-116.546631,1072.814941,418.121338,1.605645
-100.250244,1067.687988,406.585693,1.606385
-109.771729,1052.581787,404.388428,1.607135
-99.884033,1037.017822,400.451660,1.607876
-115.631104,1011.383057,390.930176,1.608618
-95.855713,1003.967285,371.154785,1.609359
-53.192139,991.882324,368.316650,1.610109
-45.135498,991.333008,352.478027,1.610850
-44.219971,984.558105,343.322754,1.611590
-26.641846,980.072021,338.836670,1.612331
-47.149658,982.360840,342.132568,1.613092
-75.714111,986.206055,341.949463,1.613842
-76.538086,978.515625,333.251953,1.614593
-92.010498,979.431152,332.061768,1.615342
-80.017090,981.811523,335.174561,1.616088
-73.150635,982.910156,309.173584,1.616830
-83.038330,977.142334,308.441162,1.617570
-55.664062,1004.333496,271.636963,1.618311
-50.903320,997.100830,255.432129,1.619052
-34.515381,987.487793,251.495361,1.619793
-20.324707,985.748291,247.009277,1.620533
-36.437988,993.438721,254.425049,1.621273
-46.966553,994.171143,256.256104,1.622018
-53.558350,1007.080078,274.841309,1.622767
-82.763672,1007.537842,285.552979,1.623526
-99.243164,1008.178711,309.173584,1.624274
-116.455078,1012.481689,331.787109,1.625030
-136.413574,1018.341064,339.935303,1.625781
-157.287598,1017.974854,346.527100,1.626522
-149.322510,1014.678955,342.407227,1.627263
-151.611328,1020.721436,338.653564,1.628012
-150.512695,1018.066406,342.224121,1.628754
-139.434814,1017.333984,331.512451,1.629495
-133.850098,1023.468018,312.011719,1.630238
-148.590088,1025.939941,328.308105,1.630980
-135.955811,1011.291504,324.462891,1.631721
-148.681641,1021.636963,327.117920,1.632463
-159.210205,1020.355225,327.301025,1.633205
-127.716064,1028.869629,334.625244,1.633945
-139.984131,1047.363281,337.005615,1.634686
-138.061523,1014.770508,341.125488,1.635427
-127.349854,1033.081055,336.730957,1.636167
-150.787354,1059.722900,308.898926,1.636908
-82.580566,1092.681885,332.336426,1.637649
-70.953369,1074.554443,366.302490,1.638390
-56.671143,1078.491211,381.500244,1.639131
-26.092529,1078.399658,399.902344,1.639872
-7.598877,1076.385498,410.797119,1.640613
-68.572998,1046.630859,420.318604,1.641354
-60.150146,1023.651123,436.340332,1.642094
-69.396973,1032.806396,417.297363,1.642836
-111.602783,1039.764404,387.176514,1.643577
-109.313965,1043.518066,385.437012,1.644318
-131.927490,1006.896973,378.295898,1.645059
-150.146484,1022.003174,348.083496,1.645811
-157.562256,1034.912109,305.328369,1.646552
-157.562256,1019.165039,314.483643,1.647293
-149.871826,1025.024414,320.343018,1.648033
-152.709961,1009.552002,330.047607,1.648774
-158.477783,1013.488770,343.597412,1.649515
-157.287598,1019.989014,354.675293,1.650255
-148.040771,1019.805908,366.668701,1.650996
-139.709473,1014.862061,371.887207,1.651737
-142.822266,1033.172607,375.732422,1.652477
-116.638184,1047.637939,380.676270,1.653218
-113.891602,1038.940430,383.056641,1.653958
-89.813232,1039.855957,385.711670,1.654699
-52.459717,1025.390625,360.443115,1.655440
-64.178467,1018.341064,349.456787,1.656181
-29.479980,1031.250000,314.575195,1.656922
-20.507812,1014.495850,269.439697,1.657672
-12.268066,1003.875732,260.467529,1.658413
3.112793,1008.544922,216.430664,1.659155
4.119873,975.677490,190.612793,1.659895
-42.663574,988.037109,203.063965,1.660644
0.549316,989.959717,195.098877,1.661385
-95.489502,984.832764,218.994141,1.662127
-73.974609,995.727539,252.410889,1.662867
-57.128906,995.819092,286.010742,1.663693
-136.047363,987.854004,315.948486,1.664435
-36.895752,980.987549,327.575684,1.665179
-54.748535,986.389160,348.541260,1.665920
-77.178955,974.578857,342.773438,1.666661
48.248291,975.402832,292.419434,1.667401
62.988281,973.388672,290.039062,1.668142
-0.183105,927.886963,263.214111,1.668882
30.487061,929.992676,229.431152,1.669624
115.631104,938.415527,216.888428,1.670364
-9.429932,883.392334,178.802490,1.671104
-27.923584,828.643799,179.718018,1.671845
212.585449,833.496094,150.604248,1.672586
138.977051,886.779785,96.038818,1.673326
-584.564209,824.157715,85.327148,1.674066
-81.665039,890.167236,4.486084,1.674807
-282.714844,899.505615,-27.557373,1.675567
-383.148193,887.420654,-59.783936,1.676310
-241.882324,903.167725,-133.575439,1.677050
-309.631348,889.160156,-166.259766,1.677791
-224.670410,869.018555,-216.522217,1.678533
-161.224365,876.892090,-253.875732,1.679274
-98.052979,887.145996,-276.123047,1.680014
-33.508301,908.111572,-316.680908,1.680755
-0.915527,904.174805,-360.717773,1.681505
22.613525,907.287598,-370.971680,1.682246
6.774902,913.146973,-368.865967,1.682986
-50.262451,907.562256,-367.858887,1.683727
-82.855225,925.048828,-366.394043,1.684467
-100.067139,946.929932,-364.746094,1.685208
-142.913818,964.141846,-363.189697,1.685951
-177.246094,950.408936,-369.049072,1.686700
-211.944580,953.796387,-393.768311,1.687452
-301.208496,963.958740,-367.858887,1.688199
-288.299561,989.685059,-342.590332,1.688940
-202.606201,1005.249023,-332.336426,1.689683
-175.598145,1040.039062,-355.682373,1.690425
-213.592529,1020.904541,-348.999023,1.691167
-270.172119,1014.404297,-328.857422,1.691907
-233.093262,1047.546387,-279.785156,1.692648
-215.423584,1067.687988,-268.707275,1.693389
-282.257080,1073.547363,-247.833252,1.694131
-300.109863,968.811035,-212.677002,1.694886
218.170166,682.891846,-146.392822,1.695633
41.748047,1282.562256,67.840576,1.696381
-165.069580,1052.398682,107.940674,1.697124
510.955811,1213.073730,122.680664,1.697865
341.949463,1111.358643,147.399902,1.698606
-108.581543,1041.046143,152.893066,1.699347
338.470459,1186.798096,106.658936,1.700087
59.417725,1180.847168,101.165771,1.700830
86.334229,1093.505859,76.904297,1.701571
123.321533,1263.153076,82.031250,1.702311
-17.028809,1278.259277,77.178955,1.703052
88.256836,1263.519287,63.812256,1.703792
67.932129,1233.581543,79.010010,1.704533
-10.528564,1188.446045,89.172363,1.705273
72.509766,1281.188965,104.644775,1.706015
20.050049,1272.399902,107.757568,1.706755
80.017090,1229.461670,113.433838,1.707500
228.149414,1300.048828,140.899658,1.708243
131.561279,1311.859131,164.520264,1.708985
248.565674,1387.023926,241.973877,1.709726
300.933838,1412.567139,336.273193,1.710467
197.296143,1397.460938,374.725342,1.711226
-4.486084,1043.609619,542.999268,1.711968
-798.522949,324.920654,1306.915283,1.712708
-1225.891113,1040.771484,1530.761719,1.713449
-397.064209,1586.883545,1045.257568,1.714192
500.335693,1662.597656,925.415039,1.714938
237.213135,1635.864258,825.531006,1.715679
53.375244,1486.633301,1025.848389,1.716420
1104.400635,1664.245605,892.913818,1.717173
2103.607178,1777.862549,875.152588,1.717915
872.955322,1597.137451,743.591309,1.718656
-340.484619,1605.926514,646.545410,1.719396
-92.010498,1547.149658,691.131592,1.720143
174.865723,1551.910400,656.890869,1.720884
262.847900,1522.430420,578.704834,1.721625
178.985596,1473.175049,533.386230,1.722366
-78.186035,1349.487305,413.452148,1.723115
-190.887451,1270.477295,262.573242,1.723856
-377.014160,1261.505127,185.211182,1.724597
-293.609619,1218.292236,66.650391,1.725337
-234.375000,1215.454102,-30.029297,1.726080
-82.855225,1202.270508,-62.805176,1.726823
-64.819336,1166.015625,-129.455566,1.727563
-142.639160,1135.437012,-156.829834,1.728304
-258.453369,1059.997559,-207.092285,1.729045
-335.632324,1037.384033,-270.904541,1.729786
-631.164551,1044.891357,-226.043701,1.730526
-642.425537,1043.243408,-172.943115,1.731267
-139.251709,1073.638916,-174.774170,1.732008
442.291260,1107.604980,-140.350342,1.732749
407.226562,1101.837158,-163.604736,1.733490
-102.081299,1024.841309,-175.140381,1.734313
-317.596436,929.168701,-226.226807,1.735055
-256.988525,926.239014,-270.172119,1.735796
106.384277,954.711914,-279.785156,1.736536
224.304199,995.361328,-327.667236,1.737277
121.032715,1021.636963,-343.963623,1.738018
-147.949219,1001.037598,-340.393066,1.738760
-149.871826,963.775635,-416.015625,1.739501
-264.587402,950.134277,-418.579102,1.740242
-826.354980,1004.150391,-205.627441,1.740983
-211.944580,1011.657715,78.277588,1.741724
884.582520,1142.944336,113.342285,1.742465
753.570557,1218.933105,137.786865,1.743206
17.944336,1228.912354,120.849609,1.743950
-97.869873,1193.206787,10.253906,1.744706
41.564941,1171.691895,-173.858643,1.745451
103.363037,1213.989258,-224.029541,1.746192
-313.568115,1153.930664,-232.452393,1.746933
-440.002441,1145.782471,-213.958740,1.747678
-249.938965,1155.029297,-161.956787,1.748420
-8.880615,1126.281738,-190.429688,1.749161
239.501953,1129.486084,-197.479248,1.749902
18.585205,1036.285400,-266.784668,1.750643
-164.062500,1007.446289,-346.893311,1.751383
-435.699463,1022.644043,-357.879639,1.752123
71.136475,991.424561,7.049561,1.752877
943.084717,1035.552979,55.847168,1.753619
-174.774170,1191.650391,51.086426,1.754360
-562.042236,1194.488525,-42.022705,1.755100
-228.240967,1187.530518,-107.666016,1.755843
589.050293,1251.068115,-244.171143,1.756587
587.860107,1246.582031,-274.291992,1.757336
-188.049316,1120.056152,-358.062744,1.758086
-471.679688,1059.082031,-475.616455,1.758832
-286.834717,1052.215576,-546.295166,1.759574
348.358154,1068.695068,-676.483154,1.760317
561.676025,1059.082031,-835.784912,1.761063
52.276611,1014.862061,-895.111084,1.761804
-1770.996094,831.939697,-453.002930,1.762545
-1298.950195,894.012451,-237.854004,1.763285
819.671631,1213.989258,-259.552002,1.764026
1354.431152,1324.951172,-308.258057,1.764767
500.701904,1240.814209,-293.334961,1.765514
-678.955078,1166.107178,-286.285400,1.766265
-808.319092,1188.262939,-366.210938,1.767015
91.918945,1351.135254,-148.223877,1.767766
2991.760254,2999.908447,2999.908447,1.768509
2489.410400,2999.908447,2999.908447,1.769250
2361.785889,2559.082031,2072.753906,1.769990
1240.539551,1783.905029,-3000.000000,1.770731
-2174.377441,1287.963867,-3000.000000,1.771474
842.285156,762.084961,-2765.350342,1.772216
2462.585449,-17.578125,2612.915039,1.772956
-456.481934,696.350098,1475.921631,1.773697
-1017.791748,1540.008545,-1350.860596,1.774438
-247.192383,1440.124512,-1488.372803,1.775180
248.748779,467.926025,222.198486,1.775921
640.136719,481.842041,-107.299805,1.776662
-510.772705,860.595703,-101.623535,1.777404
-464.813232,1033.172607,327.484131,1.778145
-2.746582,1149.353027,109.497070,1.778886
133.850098,1244.567871,-282.714844,1.779626
137.054443,1174.804688,-571.380615,1.780367
62.896729,1031.982422,-614.959717,1.781108
42.938232,1000.122070,-298.919678,1.781848
-120.574951,1042.602539,-169.281006,1.782601
-216.064453,1100.738525,-114.166260,1.783343
-236.572266,1186.981201,10.162354,1.784084
-341.400146,1176.910400,21.148682,1.784824
-293.334961,1113.372803,-104.003906,1.785574
-303.955078,1084.075928,-148.406982,1.786315
-431.396484,1107.147217,-129.272461,1.787056
-560.852051,1165.283203,-80.657959,1.787797
-639.404297,1212.615967,37.353516,1.788546
-619.262695,1234.313965,51.544189,1.789287
-558.105469,1190.551758,-171.844482,1.790028
-283.447266,1115.844727,-207.916260,1.790770
66.558838,1079.956055,-262.390137,1.791523
168.640137,1077.484131,-294.433594,1.792266
352.752686,1041.412354,-269.897461,1.793007
385.803223,1037.109375,-326.843262,1.793748
331.787109,1058.990479,-340.576172,1.794489
248.657227,1087.188721,-247.375488,1.795230
194.183350,1064.758301,-187.316895,1.795971
-120.208740,930.999756,-148.223877,1.796711
-261.199951,861.602783,-148.406982,1.797452
-254.882812,857.208252,-201.782227,1.798193
-22.613525,925.781250,-180.908203,1.798933
139.526367,953.338623,33.233643,1.799674
571.289062,1008.270264,89.904785,1.800415
780.761719,976.226807,23.803711,1.801155
739.837646,949.951172,-57.678223,1.801896
727.661133,1089.019775,-193.634033,1.802637
594.909668,1258.941650,-115.722656,1.803459
472.778320,1328.704834,-49.530029,1.804201
369.781494,1391.967773,-12.634277,1.804942
265.686035,1390.960693,-95.214844,1.805683
1.373291,1302.429199,-90.270996,1.806424
-183.837891,1218.200684,-17.211914,1.807165
-216.430664,1201.263428,33.233643,1.807906
-250.305176,1199.432373,72.235107,1.808646
-256.988525,1191.741943,16.845703,1.809388
-247.467041,1172.698975,-14.099121,1.810132
-213.226318,1202.362061,-52.276611,1.810874
-176.696777,1214.813232,-139.343262,1.811615
-128.906250,1147.888184,-186.676025,1.812371
-105.926514,1096.527100,-175.689697,1.813112
61.340332,1088.378906,-115.814209,1.813853
267.425537,1121.063232,-72.052002,1.814593
301.757812,1142.761230,-117.187500,1.815342
226.959229,1169.128418,-150.878906,1.816083
47.332764,1173.706055,-177.886963,1.816823
-49.163818,1167.388916,-174.957275,1.817564
-183.197021,1138.366699,-137.329102,1.818314
-209.564209,1115.386963,-89.263916,1.819055
-157.836914,1120.788574,-88.165283,1.819796
-45.593262,1115.295410,-122.039795,1.820537
8.514404,1112.274170,-173.126221,1.821286
51.361084,1116.668701,-187.683105,1.822027
19.775391,1092.498779,-214.050293,1.822768
-30.853271,1083.984375,-218.811035,1.823508
-20.416260,1074.920654,-220.458984,1.824249
12.817383,1079.315186,-223.571777,1.824990
85.235596,1084.991455,-216.888428,1.825732
73.425293,1082.427979,-222.015381,1.826486
71.502686,1083.435059,-250.030518,1.827283
22.796631,1056.060791,-260.467529,1.828048
23.712158,1047.729492,-275.848389,1.828821
40.740967,1047.454834,-251.586914,1.829585
79.101562,1064.392090,-237.762451,1.830378
87.524414,1071.716309,-236.480713,1.831136
71.502686,1073.822021,-236.938477,1.831896
42.297363,1059.356689,-244.628906,1.832658
40.740967,1053.955078,-255.889893,1.833449
36.895752,1047.912598,-268.341064,1.834199
34.606934,1044.982910,-279.418945,1.834941
34.790039,1046.722412,-255.889893,1.835682
26.824951,1054.321289,-245.452881,1.836442
34.790039,1057.800293,-254.516602,1.837183
30.853271,1060.455322,-262.390137,1.837938
20.965576,1059.082031,-270.538330,1.838688
7.598877,1053.771973,-273.651123,1.839470
1.922607,1045.806885,-275.848389,1.840220
18.310547,1053.039551,-269.714355,1.840962
39.367676,1060.729980,-262.664795,1.841702
47.424316,1053.405762,-269.714355,1.842463
41.839600,1055.969238,-274.475098,1.843204
31.036377,1062.744141,-275.390625,1.843945
15.472412,1063.110352,-269.165039,1.844685
2.105713,1063.751221,-261.108398,1.845440
5.859375,1066.589355,-258.361816,1.846180
11.993408,1080.139160,-255.340576,1.846920
45.959473,1078.674316,-257.263184,1.847661
32.592773,1083.160400,-245.452881,1.848412
29.846191,1085.083008,-248.474121,1.849153
23.437500,1099.822998,-244.537354,1.849893
19.134521,1082.519531,-246.917725,1.850634
18.951416,1090.209961,-244.720459,1.851383
31.402588,1084.533691,-241.241455,1.852124
39.459229,1078.125000,-242.431641,1.852865
51.269531,1096.252441,-222.839355,1.853605
48.431396,1099.182129,-223.663330,1.854355
47.332764,1092.773438,-218.261719,1.855097
43.945312,1091.857910,-222.930908,1.855837
44.586182,1083.068848,-224.761963,1.856578
54.748535,1078.674316,-215.148926,1.857340
50.354004,1080.413818,-213.592529,1.858097
40.374756,1067.687988,-215.515137,1.858855
35.430908,1068.878174,-217.163086,1.859620
24.993896,1066.772461,-217.163086,1.860413
17.852783,1066.223145,-224.670410,1.861169
44.586182,1062.011719,-228.607178,1.861928
31.951904,1059.997559,-221.008301,1.862687
41.839600,1048.736572,-233.734131,1.863474
47.973633,1052.581787,-226.501465,1.864233
46.875000,1047.912598,-239.776611,1.864987
48.431396,1037.017822,-249.206543,1.865751
54.748535,1037.567139,-239.501953,1.866543
46.417236,1038.940430,-234.283447,1.867334
41.015625,1030.700684,-241.333008,1.868090
51.361084,1028.686523,-246.093750,1.868851
52.734375,1021.087646,-248.565674,1.869621
53.649902,1028.869629,-246.551514,1.870373
44.036865,1023.010254,-232.177734,1.871115
44.952393,1024.108887,-232.818604,1.871856
36.712646,1017.059326,-241.149902,1.872597
39.001465,1013.031006,-248.931885,1.873337
41.107178,1015.502930,-250.854492,1.874078
43.029785,1006.072998,-245.269775,1.874917
41.656494,1020.904541,-237.854004,1.875664
44.769287,1008.270264,-243.988037,1.876404
34.057617,992.889404,-237.121582,1.877145
22.705078,989.959717,-244.262695,1.877888
35.430908,982.452393,-252.685547,1.878629
43.029785,975.769043,-253.051758,1.879369
45.593262,973.937988,-252.502441,1.880110
44.586182,975.585938,-245.269775,1.880860
44.036865,981.811523,-251.678467,1.881601
48.797607,976.043701,-261.108398,1.882343
46.600342,957.092285,-257.080078,1.883087
42.205811,957.824707,-260.742188,1.883843
34.698486,958.190918,-258.178711,1.884584
34.423828,947.753906,-274.841309,1.885325
43.029785,957.000732,-276.397705,1.886065
36.712646,947.662354,-276.947021,1.886815
34.057617,932.006836,-272.277832,1.887556
30.761719,933.929443,-273.193359,1.888297
26.184082,931.823730,-275.665283,1.889038
18.859863,920.562744,-276.123047,1.889787
29.754639,927.886963,-269.439697,1.890528
34.973145,925.781250,-278.320312,1.891269
20.507812,923.217773,-274.749756,1.892010
14.282227,923.217773,-264.495850,1.892759
18.493652,934.570312,-260.375977,1.893500
7.324219,931.732178,-263.763428,1.894241
10.620117,926.971436,-265.960693,1.894980
8.880615,924.499512,-258.911133,1.895722
7.598877,924.041748,-260.650635,1.896464
22.338867,927.703857,-249.298096,1.897211
18.676758,926.788330,-245.178223,1.897959
13.824463,930.541992,-252.593994,1.898707
25.909424,928.253174,-249.847412,1.899447
14.465332,930.358887,-244.445801,1.900188
11.901855,935.119629,-237.030029,1.900929
15.380859,933.380127,-237.121582,1.901670
15.197754,935.394287,-246.368408,1.902410
14.373779,933.013916,-244.995117,1.903151
9.063721,938.507080,-239.868164,1.903891
7.781982,925.231934,-240.509033,1.904648
8.880615,932.373047,-223.846436,1.905399
8.056641,933.197021,-229.339600,1.906146
3.021240,936.035156,-226.501465,1.906893
6.958008,929.168701,-225.677490,1.907639
4.760742,924.041748,-233.001709,1.908379
9.521484,923.400879,-228.424072,1.909119
11.352539,928.802490,-222.839355,1.909860
2.380371,925.323486,-215.240479,1.910602
-3.479004,921.844482,-215.881348,1.911342
-3.845215,921.295166,-231.994629,1.912081
6.500244,916.809082,-229.614258,1.912823
-0.091553,910.217285,-228.607178,1.913584
6.500244,914.062500,-218.444824,1.914326
6.225586,909.301758,-219.360352,1.915076
8.514404,920.745850,-216.339111,1.915818
4.577637,907.928467,-224.945068,1.916558
-2.655029,897.674561,-222.106934,1.917299
-4.211426,906.555176,-224.212646,1.918039
7.324219,899.322510,-223.480225,1.918779
12.451172,904.266357,-220.642090,1.919529
5.767822,904.174805,-221.740723,1.920270
5.859375,891.357422,-225.036621,1.921010
9.063721,896.942139,-216.979980,1.921750
7.965088,900.787354,-213.775635,1.922499
18.951416,904.266357,-216.796875,1.923239
17.669678,888.885498,-218.078613,1.923980
10.070801,881.652832,-212.951660,1.924720
11.993408,894.104004,-222.473145,1.925461
17.120361,887.878418,-222.564697,1.926202
15.106201,889.801025,-215.972900,1.926943
22.155762,894.012451,-208.740234,1.927683
19.409180,895.751953,-210.479736,1.928424
20.965576,894.012451,-208.190918,1.929164
21.789551,884.124756,-214.416504,1.929904
16.479492,890.533447,-212.219238,1.930644
23.620605,886.871338,-204.254150,1.931385
27.648926,884.033203,-205.078125,1.932125
30.303955,891.632080,-196.380615,1.932866
32.135010,882.202148,-204.071045,1.933606
35.705566,891.448975,-207.824707,1.934355
34.606934,883.850098,-212.219238,1.935096
32.226562,876.342773,-205.444336,1.935837
42.938232,882.110596,-195.098877,1.936577
44.311523,880.828857,-197.113037,1.937327
36.437988,868.560791,-203.155518,1.938067
39.367676,875.518799,-212.860107,1.938807
43.670654,868.743896,-208.740234,1.939548
48.065186,870.483398,-204.528809,1.940288
68.572998,868.835449,-204.711914,1.941029
51.177979,875.701904,-204.345703,1.941769
58.593750,873.046875,-218.811035,1.942510
52.642822,866.912842,-220.916748,1.943250
54.382324,870.117188,-224.578857,1.943991
61.065674,859.405518,-223.114014,1.944731
57.586670,854.187012,-224.487305,1.945471
67.199707,863.250732,-220.184326,1.946215
69.854736,861.236572,-213.775635,1.946959
64.544678,861.053467,-191.986084,1.947783
69.763184,856.292725,-211.944580,1.948525
66.284180,862.060547,-209.564209,1.949280
82.763672,862.976074,-208.923340,1.950021
80.841064,863.891602,-204.803467,1.950761
85.235596,872.039795,-203.979492,1.951502
84.045410,872.314453,-202.789307,1.952243
80.566406,867.828369,-193.084717,1.952983
85.601807,866.088867,-194.458008,1.953724
87.615967,873.504639,-201.965332,1.954464
81.756592,879.821777,-192.443848,1.955204
87.799072,876.983643,-198.852539,1.955945
84.777832,882.476807,-195.739746,1.956685
83.953857,888.977051,-197.296143,1.957425
89.080811,876.434326,-201.416016,1.958177
82.946777,871.856689,-202.606201,1.958917
90.820312,875.518799,-202.697754,1.959658
84.136963,880.920410,-206.268311,1.960398
86.791992,872.222900,-209.289551,1.961148
85.052490,882.476807,-197.937012,1.961888
82.214355,883.850098,-202.239990,1.962629
84.411621,878.631592,-204.528809,1.963369
77.819824,888.336182,-196.746826,1.964118
84.686279,890.075684,-196.655273,1.964859
68.298340,883.941650,-201.599121,1.965600
68.847656,881.469727,-193.817139,1.966340
67.291260,882.019043,-195.922852,1.967081
72.601318,891.540527,-194.549561,1.967822
70.587158,867.462158,-194.458008,1.968571
66.558838,878.814697,-199.218750,1.969318
62.255859,890.899658,-203.155518,1.970066
63.995361,889.251709,-194.641113,1.970810
54.565430,898.590088,-200.775146,1.971550
57.952881,896.118164,-193.542480,1.972290
58.227539,903.259277,-188.690186,1.973032
49.987793,901.428223,-193.542480,1.973773
51.361084,895.294189,-198.852539,1.974513
50.811768,892.456055,-196.380615,1.975254
50.170898,899.688721,-187.866211,1.976014
53.009033,905.731201,-188.049316,1.976756
43.395996,896.392822,-197.479248,1.977499
41.564941,905.639648,-192.535400,1.978248
47.790527,893.554688,-195.648193,1.979000
50.720215,894.653320,-187.500000,1.979750
48.889160,897.766113,-203.704834,1.980496
50.354004,897.399902,-195.922852,1.981237
44.769287,901.062012,-196.472168,1.981978
42.938232,906.188965,-185.485840,1.982718
40.924072,900.787354,-191.711426,1.983458
37.719727,894.744873,-197.662354,1.984199
43.212891,891.448975,-197.296143,1.984942
50.994873,894.653320,-193.359375,1.985683
45.776367,884.765625,-201.324463,1.986423
58.410645,890.167236,-206.451416,1.987163
54.748535,899.047852,-193.359375,1.987918
55.114746,901.245117,-187.957764,1.988660
52.185059,886.505127,-190.704346,1.989401
50.354004,884.765625,-191.986084,1.990142
49.621582,884.490967,-198.669434,1.990890
51.086426,878.814697,-203.521729,1.991631
52.093506,877.716064,-206.542969,1.992371
49.804688,882.110596,-196.563721,1.993112
44.586182,876.251221,-204.345703,1.993852
47.882080,876.434326,-211.944580,1.994593
33.782959,870.117188,-208.282471,1.995333
51.452637,869.750977,-205.444336,1.996074
39.001465,878.082275,-201.324463,1.996817
38.452148,853.546143,-198.944092,1.997559
37.078857,861.877441,-200.683594,1.998300
46.875000,859.405518,-208.099365,1.999041
40.100098,855.926514,-201.324463,1.999791
37.170410,861.877441,-194.458008,2.000532
36.895752,865.631104,-190.979004,2.001272
38.818359,857.482910,-198.944092,2.002012
42.114258,860.229492,-198.577881,2.002754
41.656494,864.440918,-196.197510,2.003495
42.755127,858.856201,-195.556641,2.004236
43.945312,864.807129,-191.162109,2.004976
38.452148,869.842529,-187.042236,2.005716
41.748047,863.891602,-201.599121,2.006456
46.600342,844.848633,-194.183350,2.007197
40.466309,862.884521,-205.902100,2.007938
42.022705,859.405518,-200.134277,2.008678
44.952393,857.025146,-205.810547,2.009419
36.987305,869.384766,-200.225830,2.010159
37.719727,868.835449,-206.817627,2.010899
35.339355,867.645264,-210.479736,2.011653
35.614014,864.349365,-209.289551,2.012393
30.212402,863.616943,-200.500488,2.013133
31.860352,870.666504,-203.521729,2.013873
26.916504,872.772217,-213.500977,2.014613
23.162842,868.927002,-210.479736,2.015354
28.106689,871.490479,-207.550049,2.016093
24.078369,871.307373,-205.352783,2.016833
24.810791,870.391846,-203.155518,2.017581
24.169922,882.659912,-205.444336,2.018321
27.648926,884.857178,-201.599121,2.019062
27.008057,875.976562,-197.570801,2.019803
29.571533,884.582520,-208.465576,2.020671
33.874512,887.145996,-209.838867,2.021411
31.219482,886.413574,-206.817627,2.022151
36.163330,883.666992,-205.444336,2.022891
24.719238,881.103516,-203.247070,2.023644
30.120850,882.568359,-204.986572,2.024385
30.029297,883.941650,-204.071045,2.025125
33.691406,884.674072,-208.374023,2.025864
46.325684,891.723633,-205.261230,2.026613
33.508301,891.815186,-205.078125,2.027353
29.846191,892.272949,-197.937012,2.028093
27.374268,908.935547,-201.141357,2.028833
30.853271,897.308350,-205.169678,2.029582
31.311035,897.766113,-196.563721,2.030322
40.283203,904.266357,-198.120117,2.031065
40.008545,902.709961,-195.465088,2.031811
37.261963,901.428223,-201.324463,2.032571
35.980225,907.379150,-207.641602,2.033312
39.916992,898.498535,-209.106445,2.034052
44.952393,900.146484,-211.578369,2.034792
43.487549,904.083252,-205.902100,2.035542
38.635254,906.005859,-208.007812,2.036282
37.811279,906.280518,-204.437256,2.037022
42.297363,900.970459,-213.500977,2.037762
36.346436,908.294678,-207.824707,2.038510
39.184570,915.710449,-208.465576,2.039251
37.902832,916.168213,-206.268311,2.039991
32.318115,909.210205,-204.345703,2.040735
41.656494,914.062500,-199.584961,2.041487
42.388916,913.787842,-201.599121,2.042238
39.550781,912.322998,-199.127197,2.042986
36.712646,914.611816,-198.303223,2.043727
36.346436,911.041260,-205.169678,2.044494
33.050537,906.738281,-204.437256,2.045236
42.663574,913.970947,-212.951660,2.045977
40.649414,910.034180,-204.437256,2.046717
34.606934,908.020020,-205.902100,2.047463
34.515381,914.978027,-203.979492,2.048215
36.621094,913.330078,-204.071045,2.048965
35.339355,912.322998,-204.071045,2.049711
34.332275,914.794922,-203.338623,2.050476
40.740967,916.625977,-204.711914,2.051218
44.403076,921.569824,-211.029053,2.051959
41.748047,894.744873,-210.662842,2.052700
39.642334,914.886475,-206.085205,2.053450
39.459229,911.773682,-203.796387,2.054190
38.360596,912.506104,-211.669922,2.054931
43.487549,915.344238,-206.634521,2.055671
37.719727,908.294678,-213.592529,2.056421
37.628174,916.442871,-207.641602,2.057162
43.395996,911.224365,-211.578369,2.057904
42.755127,920.928955,-212.036133,2.058644
43.670654,918.914795,-219.909668,2.059395
44.036865,916.717529,-216.613770,2.060137
42.297363,920.837402,-216.979980,2.060877
42.846680,924.407959,-208.465576,2.061617
41.290283,921.112061,-208.557129,2.062367
40.191650,925.689697,-210.205078,2.063107
38.543701,920.379639,-210.388184,2.063848
36.254883,913.970947,-218.170166,2.064588
38.452148,924.957275,-213.409424,2.065338
35.888672,935.577393,-207.000732,2.066078
42.297363,930.084229,-207.824707,2.066819
42.663574,932.556152,-197.296143,2.067559
38.635254,932.647705,-199.951172,2.068308
43.121338,931.457520,-196.838379,2.069049
46.325684,939.788818,-201.416016,2.069790
40.008545,939.697266,-199.310303,2.070530
43.579102,930.450439,-203.796387,2.071279
48.339844,929.077148,-205.535889,2.072019
50.079346,929.260254,-199.035645,2.072760
68.481445,928.161621,-207.733154,2.073500
49.530029,933.837891,-203.247070,2.074241
48.156738,934.112549,-205.627441,2.074973
45.227051,940.795898,-202.880859,2.075715
42.480469,925.781250,-207.366943,2.076454
47.058105,922.943115,-208.374023,2.077199
48.522949,929.992676,-215.698242,2.077941
44.860840,929.443359,-215.240479,2.078681
42.663574,926.513672,-212.127686,2.079421
36.529541,921.936035,-214.965820,2.080174
43.853760,928.802490,-214.965820,2.080916
40.008545,923.858643,-212.677002,2.081657
39.642334,929.168701,-212.127686,2.082396
39.459229,932.006836,-219.635010,2.083148
47.698975,919.738770,-226.776123,2.083888
42.480469,922.576904,-221.466064,2.084627
48.248291,922.485352,-217.987061,2.085373
41.931152,925.689697,-222.290039,2.086124
44.586182,923.126221,-220.733643,2.086863
42.663574,930.358887,-228.607178,2.087603
43.945312,923.858643,-223.297119,2.088342
40.283203,923.492432,-226.135254,2.089091
40.008545,924.041748,-223.846436,2.089831
42.938232,915.161133,-220.825195,2.090570
41.381836,921.295166,-224.395752,2.091310
39.184570,922.851562,-231.628418,2.092059
38.360596,930.175781,-226.318359,2.092882
41.564941,921.112061,-224.670410,2.093623
34.606934,919.555664,-213.500977,2.094362
42.480469,931.732178,-221.740723,2.095113
41.656494,924.591064,-228.057861,2.095852
38.085938,922.302246,-225.677490,2.096592
40.649414,925.415039,-216.064453,2.097332
45.776367,929.809570,-208.648682,2.098081
53.375244,935.577393,-207.458496,2.098821
48.339844,933.563232,-215.057373,2.099560
48.156738,937.866211,-226.593018,2.100300
50.079346,941.802979,-218.994141,2.101048
49.713135,939.697266,-218.994141,2.101788
51.269531,945.831299,-212.036133,2.102527
52.551270,939.239502,-215.972900,2.103266
54.290771,944.000244,-213.500977,2.104015
54.016113,946.472168,-217.437744,2.104754
51.635742,943.634033,-232.360840,2.105494
63.720703,947.387695,-206.176758,2.106233
59.417725,947.021484,-213.592529,2.106981
58.868408,954.345703,-210.296631,2.107720
61.340332,942.718506,-208.190918,2.108460
58.776855,951.049805,-213.409424,2.109199
62.164307,946.563721,-220.642090,2.109948
66.192627,941.528320,-218.902588,2.110688
61.065674,940.521240,-218.811035,2.111427
67.016602,938.781738,-218.444824,2.112167
64.544678,945.373535,-206.909180,2.112915
