ACC_X,ACC_Y,ACC_Z,Time
-475.158691,760.070801,418.762207,0.000155
-479.003906,752.288818,421.508789,0.000913
-476.440430,758.331299,424.163818,0.001678
-475.341797,763.458252,423.522949,0.002419
-474.975586,763.275146,420.135498,0.003159
-474.609375,761.718750,421.783447,0.003899
-474.975586,761.260986,419.677734,0.004644
-470.489502,754.669189,422.973633,0.005414
-471.954346,761.627197,409.698486,0.006159
-476.623535,759.063721,427.001953,0.006898
-483.032227,759.063721,429.199219,0.007651
-476.806641,757.415771,427.551270,0.008391
-469.573975,755.676270,420.318604,0.009131
-473.144531,754.211426,424.713135,0.009870
-476.715088,758.789062,426.086426,0.010622
-480.560303,757.690430,415.649414,0.011363
-477.722168,748.901367,417.297363,0.012103
-472.412109,759.246826,417.846680,0.012844
-471.771240,753.570557,419.586182,0.013592
-473.327637,753.753662,421.325684,0.014329
-489.624023,760.253906,426.177979,0.015066
-472.503662,757.781982,417.297363,0.015806
-481.292725,758.422852,422.973633,0.016604
-474.243164,760.711670,422.698975,0.017393
-473.510742,756.866455,421.875000,0.018154
-481.018066,754.852295,426.269531,0.018931
-477.539062,760.162354,426.727295,0.019675
-476.806641,771.697998,429.656982,0.020415
-471.313477,756.683350,426.086426,0.021156
-479.095459,751.373291,422.332764,0.021913
-475.982666,753.570557,405.029297,0.022653
-474.151611,763.366699,425.262451,0.023390
-472.045898,764.282227,426.818848,0.024127
-476.715088,758.056641,427.459717,0.024898
-470.489502,760.162354,418.853760,0.025651
-470.855713,758.697510,422.424316,0.026404
-476.898193,763.549805,422.882080,0.027158
-478.454590,756.500244,416.473389,0.027901
-479.187012,761.169434,428.649902,0.028640
-472.961426,762.908936,423.797607,0.029380
-467.193604,759.796143,418.487549,0.030134
-472.595215,756.042480,429.656982,0.030872
-471.679688,762.451172,421.600342,0.031622
-473.052979,763.000488,443.756104,0.032373
-472.961426,756.774902,422.698975,0.033137
-468.017578,759.338379,424.163818,0.033879
-469.665527,765.106201,422.607422,0.034618
-466.827393,769.500732,425.537109,0.035357
-485.046387,763.458252,421.234131,0.036082
-475.158691,762.451172,424.255371,0.036821
-473.052979,767.303467,430.572510,0.037571
-472.320557,772.521973,425.445557,0.038324
-472.137451,759.704590,426.086426,0.039085
-471.221924,764.648438,428.192139,0.039840
-471.679688,774.078369,426.818848,0.040586
-480.010986,767.669678,423.706055,0.041336
-476.989746,767.303467,423.339844,0.042088
-474.975586,771.240234,423.522949,0.042829
-475.799561,763.824463,422.058105,0.043568
-475.250244,756.408691,415.100098,0.044320
-475.982666,765.197754,419.403076,0.045059
-474.151611,761.810303,425.537109,0.045798
-478.363037,769.409180,430.847168,0.046537
-479.187012,763.641357,423.522949,0.047250
-476.898193,764.099121,423.706055,0.048009
-478.820801,768.218994,428.375244,0.048749
-474.151611,760.711670,423.797607,0.049488
-475.708008,761.260986,423.156738,0.050235
-473.236084,760.345459,421.691895,0.050971
-486.968994,760.162354,429.199219,0.051720
-482.849121,755.493164,418.945312,0.052472
-483.581543,761.352539,418.670654,0.053225
-481.842041,755.218506,416.748047,0.053968
-481.292725,756.134033,419.494629,0.054706
-484.313965,758.148193,400.360107,0.055458
-483.764648,755.584717,415.466309,0.056200
-486.694336,754.394531,419.403076,0.057012
-477.996826,758.331299,421.417236,0.057790
-477.447510,759.613037,425.903320,0.058542
-479.461670,757.324219,421.600342,0.059287
-471.862793,750.366211,413.635254,0.060028
-482.299805,755.767822,411.254883,0.060766
-477.355957,761.901855,416.473389,0.061506
-471.862793,761.169434,413.726807,0.062247
-482.299805,757.232666,417.022705,0.063016
-481.567383,754.302979,398.803711,0.063770
-478.637695,759.429932,416.473389,0.064509
-481.201172,756.866455,417.114258,0.065246
-480.377197,759.887695,406.494141,0.066007
-478.820801,763.183594,419.219971,0.066757
-481.475830,761.169434,422.515869,0.067507
-481.750488,768.859863,417.572021,0.068272
-479.553223,765.197754,422.149658,0.069012
-483.673096,757.507324,418.945312,0.069752
-482.208252,770.416260,416.290283,0.070533
-477.539062,760.620117,421.142578,0.071443
-486.328125,760.070801,417.938232,0.072188
-491.363525,768.127441,416.290283,0.072928
-490.631104,761.169434,418.579102,0.073668
-485.046387,766.571045,419.860840,0.074421
-486.968994,764.099121,420.593262,0.075162
-487.243652,762.084961,422.424316,0.075902
-482.940674,769.226074,421.417236,0.076642
-488.067627,766.845703,421.508789,0.077391
-483.489990,769.042969,430.572510,0.078134
-489.257812,764.739990,423.889160,0.078875
-488.067627,762.725830,440.460205,0.079615
-487.152100,759.887695,420.959473,0.080375
-491.180420,762.908936,421.325684,0.081129
-487.335205,765.472412,420.227051,0.081874
-483.398438,768.493652,420.501709,0.082627
-481.933594,766.845703,427.459717,0.083369
-480.834961,766.204834,425.628662,0.084112
-486.236572,770.324707,422.424316,0.084888
-485.137939,767.028809,425.079346,0.085654
-484.680176,761.810303,425.262451,0.086386
-489.440918,759.155273,403.106689,0.087125
-489.532471,752.838135,417.297363,0.087859
-485.046387,756.774902,422.241211,0.088622
-490.447998,771.240234,416.839600,0.089364
-488.342285,766.754150,421.417236,0.090103
-495.025635,761.718750,421.783447,0.090842
-488.983154,761.901855,424.072266,0.091588
-486.145020,761.627197,423.339844,0.092328
-485.504150,763.000488,427.001953,0.093067
-483.581543,759.338379,428.924561,0.093806
-486.053467,756.134033,423.065186,0.094549
-480.834961,757.232666,421.417236,0.095289
-489.715576,766.571045,425.079346,0.096028
-495.025635,755.859375,413.452148,0.096767
-481.201172,761.535645,420.776367,0.097515
-481.933594,760.070801,419.311523,0.098252
-483.673096,761.352539,423.065186,0.098994
-488.800049,756.683350,424.713135,0.099752
-479.370117,761.444092,427.734375,0.100544
-483.123779,772.338867,422.790527,0.101295
-485.321045,752.746582,424.987793,0.102036
-483.947754,756.500244,431.854248,0.102778
-489.807129,752.929688,420.043945,0.103537
-486.419678,752.655029,414.367676,0.104277
-482.116699,753.936768,419.219971,0.105016
-485.595703,752.197266,420.318604,0.105755
-481.658936,755.401611,420.135498,0.106504
-488.708496,757.415771,421.417236,0.107255
-480.468750,751.464844,421.051025,0.108006
-482.025146,763.916016,426.818848,0.108755
-482.940674,758.789062,425.170898,0.109524
-478.637695,751.556396,425.628662,0.110268
-484.771729,757.415771,420.227051,0.111011
-471.405029,756.774902,421.600342,0.111756
-483.947754,752.288818,419.769287,0.112497
-481.384277,755.767822,426.544189,0.113299
-476.074219,755.218506,423.522949,0.114075
-479.553223,758.972168,420.776367,0.114814
-474.975586,764.465332,422.607422,0.115552
-470.123291,760.070801,421.051025,0.116303
-473.510742,756.042480,423.431396,0.117084
-476.348877,762.634277,426.727295,0.117865
-473.144531,758.514404,420.501709,0.118629
-473.968506,763.916016,422.515869,0.119361
-469.482422,762.176514,419.494629,0.120121
-464.447021,763.366699,420.227051,0.120873
-473.510742,756.500244,424.255371,0.121636
-469.482422,759.429932,415.740967,0.122378
-468.750000,771.331787,423.339844,0.123118
-470.306396,763.000488,419.036865,0.123857
-474.700928,763.000488,421.875000,0.124599
-471.130371,760.711670,425.537109,0.125355
-469.757080,769.592285,422.424316,0.126104
-471.954346,759.155273,425.445557,0.126855
-488.342285,765.106201,420.867920,0.127614
-472.412109,760.528564,418.579102,0.128366
-472.961426,767.395020,414.093018,0.129105
-468.566895,764.831543,417.846680,0.129842
-466.918945,760.162354,417.572021,0.130598
-475.433350,755.218506,414.916992,0.131342
-467.376709,756.408691,419.952393,0.132129
-462.341309,764.923096,414.276123,0.132897
-492.004395,758.972168,422.058105,0.133657
-463.439941,760.803223,421.966553,0.134408
-471.588135,760.803223,425.170898,0.135161
-466.003418,762.542725,401.550293,0.135931
-461.975098,757.232666,415.100098,0.136684
-465.637207,764.007568,416.656494,0.137425
-466.186523,768.493652,398.712158,0.138164
-471.862793,759.979248,420.867920,0.138915
-466.003418,762.176514,418.762207,0.139654
-464.447021,761.810303,419.403076,0.140394
-469.940186,770.965576,423.431396,0.141134
-466.186523,770.141602,444.580078,0.141881
-467.102051,755.950928,422.424316,0.142710
-467.651367,761.535645,418.945312,0.143458
-467.468262,758.148193,428.009033,0.144244
-462.982178,761.718750,432.678223,0.144981
-467.102051,756.683350,432.952881,0.145712
-465.545654,759.338379,423.431396,0.146443
-467.010498,752.563477,425.811768,0.147181
-460.968018,758.148193,425.262451,0.147923
-461.608887,759.613037,429.656982,0.148663
-457.946777,764.739990,423.065186,0.149402
-456.390381,762.542725,425.994873,0.150151
-465.454102,759.887695,422.790527,0.150889
-464.263916,761.352539,420.227051,0.151627
-460.327148,755.493164,423.431396,0.152364
-465.820312,754.394531,420.684814,0.153116
-474.700928,749.542236,442.199707,0.153877
-467.559814,760.894775,423.797607,0.154649
-474.792480,756.500244,421.966553,0.155405
-475.708008,759.521484,419.769287,0.156176
-465.545654,760.070801,425.903320,0.156942
-472.595215,756.500244,421.051025,0.157721
-471.221924,755.310059,420.227051,0.158520
-471.313477,747.161865,420.135498,0.159267
-471.679688,757.690430,416.931152,0.160023
-471.588135,751.464844,415.466309,0.160765
-476.898193,753.204346,423.065186,0.161520
-470.855713,756.683350,426.544189,0.162298
-481.109619,757.324219,425.720215,0.163050
-477.081299,758.697510,421.417236,0.163846
-472.412109,761.718750,427.001953,0.164591
-470.397949,755.401611,423.522949,0.165346
-474.609375,755.584717,421.875000,0.166088
-472.595215,752.197266,421.051025,0.166843
-477.539062,758.239746,421.966553,0.167583
-469.024658,753.753662,424.621582,0.168322
-472.229004,762.451172,429.840088,0.169061
-473.602295,760.711670,429.748535,0.169716
-468.841553,753.936768,424.438477,0.170453
-472.595215,761.169434,420.776367,0.171189
-469.665527,757.598877,429.656982,0.171940
-473.602295,755.401611,422.332764,0.172694
-468.841553,758.789062,425.903320,0.173434
-473.327637,758.605957,425.720215,0.174174
-476.989746,763.366699,423.248291,0.174925
-477.264404,763.366699,419.952393,0.175701
-474.792480,755.126953,432.769775,0.176456
-478.363037,760.437012,429.840088,0.177202
-478.729248,759.155273,431.945801,0.177957
-477.172852,765.930176,421.234131,0.178730
-474.334717,767.578125,423.248291,0.179470
-480.560303,764.190674,428.558350,0.180207
-479.919434,760.162354,426.910400,0.180976
-474.792480,766.571045,437.805176,0.181716
-480.834961,768.310547,423.522949,0.182454
-480.468750,764.190674,432.495117,0.183190
-478.546143,761.260986,424.072266,0.183945
-482.208252,767.669678,421.325684,0.184687
-483.306885,769.042969,422.241211,0.185426
-482.574463,774.261475,421.783447,0.186165
-489.440918,763.824463,423.339844,0.186903
-483.215332,771.148682,427.459717,0.187640
-483.123779,771.606445,428.558350,0.188376
-484.497070,770.965576,432.403564,0.189113
-482.116699,764.739990,426.086426,0.189877
-479.187012,764.373779,423.248291,0.190618
-480.834961,767.486572,420.501709,0.191357
-472.503662,794.128418,417.755127,0.192095
-479.736328,770.965576,423.156738,0.192845
-481.384277,767.028809,429.748535,0.193585
-480.560303,768.127441,425.079346,0.194324
-482.025146,774.078369,427.276611,0.195074
-481.567383,764.190674,425.354004,0.195824
-485.412598,767.578125,429.382324,0.196577
-477.905273,765.014648,427.276611,0.197323
-481.567383,769.683838,425.079346,0.198094
-481.933594,765.747070,426.361084,0.198864
-480.926514,771.972656,427.459717,0.199608
-482.666016,764.465332,423.065186,0.200346
-478.637695,761.627197,431.762695,0.201083
-481.475830,766.662598,427.001953,0.201857
-477.905273,767.944336,426.452637,0.202606
-478.179932,764.007568,428.283691,0.203354
-482.849121,759.704590,425.628662,0.204102
-483.215332,758.880615,430.023193,0.204847
-480.102539,759.979248,432.128906,0.205591
-477.722168,753.112793,424.621582,0.206335
-477.081299,761.260986,426.818848,0.207079
-476.257324,759.338379,431.304932,0.207838
-478.179932,754.852295,426.269531,0.208583
-478.912354,750.274658,427.276611,0.209327
-479.187012,752.197266,424.621582,0.210072
-477.905273,753.295898,430.572510,0.210835
-475.433350,753.204346,428.192139,0.211575
-480.926514,756.408691,426.910400,0.212309
-478.271484,758.239746,419.128418,0.213042
-485.046387,759.613037,427.459717,0.213811
-477.996826,756.042480,421.508789,0.214706
-478.271484,754.119873,432.037354,0.215452
-484.405518,749.816895,423.431396,0.216200
-479.827881,759.613037,420.318604,0.216945
-478.546143,756.408691,415.191650,0.217706
-470.031738,757.141113,421.508789,0.218473
-474.884033,751.464844,422.424316,0.219239
-481.750488,753.845215,430.297852,0.219997
-477.722168,753.845215,431.488037,0.220744
-480.468750,756.774902,433.868408,0.221489
-472.045898,756.500244,428.466797,0.222249
-472.137451,760.437012,424.621582,0.222993
-475.708008,761.444092,424.255371,0.223736
-476.623535,751.281738,423.431396,0.224480
-478.729248,754.577637,421.966553,0.225235
-476.806641,758.789062,423.706055,0.225978
-476.074219,757.781982,428.833008,0.226722
-474.884033,759.429932,427.734375,0.227465
-471.862793,756.774902,428.100586,0.228210
-475.433350,756.134033,427.001953,0.228944
-480.926514,757.415771,419.952393,0.229677
-479.827881,754.486084,424.072266,0.230411
-478.820801,749.176025,425.994873,0.231171
-468.109131,751.007080,420.867920,0.231915
-474.975586,749.633789,420.776367,0.232659
-476.257324,754.119873,419.677734,0.233416
-479.187012,755.126953,422.241211,0.234190
-473.876953,755.676270,423.431396,0.234967
-472.412109,756.774902,421.142578,0.235791
-473.144531,759.521484,426.177979,0.236545
-475.708008,753.021240,424.713135,0.237318
-472.686768,758.789062,424.896240,0.238063
-470.489502,755.767822,419.860840,0.238807
-469.207764,751.190186,417.297363,0.239577
-479.370117,755.493164,422.607422,0.240359
-470.397949,756.134033,418.029785,0.241140
-471.405029,757.324219,421.783447,0.241911
-473.510742,758.697510,420.410156,0.242655
-477.630615,756.866455,425.354004,0.243399
-474.609375,765.197754,429.107666,0.244142
-473.510742,756.866455,427.734375,0.244899
-469.573975,750.915527,435.424805,0.245642
-472.686768,758.972168,431.396484,0.246385
-473.327637,755.035400,426.177979,0.247128
-476.623535,752.838135,418.395996,0.247869
-474.060059,758.056641,421.142578,0.248603
-472.137451,765.747070,429.931641,0.249336
-474.060059,768.402100,431.121826,0.250071
-473.602295,761.810303,429.840088,0.250836
-476.806641,760.437012,428.192139,0.251581
-472.045898,763.732910,423.339844,0.252325
-473.052979,762.725830,423.156738,0.253068
-476.715088,751.831055,424.163818,0.253822
-476.989746,761.810303,420.501709,0.254566
-476.531982,754.760742,423.065186,0.255309
-469.390869,761.810303,424.163818,0.256052
-477.264404,754.760742,421.234131,0.256806
-472.137451,757.415771,417.846680,0.257550
-474.884033,756.958008,423.797607,0.258294
-476.898193,752.197266,422.973633,0.259037
-476.806641,761.077881,426.177979,0.259781
-478.729248,756.500244,433.502197,0.260515
-473.968506,761.718750,428.741455,0.261248
-468.475342,755.950928,422.515869,0.261982
-474.334717,754.119873,426.727295,0.262756
-479.827881,749.176025,424.438477,0.263500
-485.046387,751.373291,424.896240,0.264244
-479.003906,748.626709,422.515869,0.264988
-477.722168,756.866455,425.720215,0.265731
-477.081299,754.486084,425.811768,0.266465
-479.461670,756.225586,429.382324,0.267198
-483.489990,756.225586,419.769287,0.267932
-484.954834,756.408691,422.058105,0.268695
-480.285645,751.556396,429.382324,0.269437
-481.750488,753.936768,420.593262,0.270179
-478.546143,756.774902,427.368164,0.270921
-479.461670,757.141113,424.072266,0.271663
-486.236572,755.493164,426.544189,0.272405
-484.039307,749.908447,422.698975,0.273147
-480.560303,748.352051,427.825928,0.273890
-484.222412,760.345459,419.860840,0.274633
-486.511230,752.471924,423.614502,0.275375
-482.299805,745.056152,428.283691,0.276117
-483.032227,744.598389,425.811768,0.276904
-479.553223,742.309570,423.431396,0.277679
-478.546143,752.288818,429.931641,0.278424
-473.419189,750.274658,432.312012,0.279167
-477.447510,753.204346,423.156738,0.279911
-481.018066,749.908447,426.177979,0.280685
-477.813721,747.070312,423.065186,0.281431
-481.567383,748.443604,427.459717,0.282214
-482.391357,751.556396,421.875000,0.282991
-482.757568,749.084473,425.811768,0.283750
-477.355957,755.218506,427.551270,0.284505
-476.348877,739.379883,419.586182,0.285289
-482.299805,746.154785,426.544189,0.286188
-482.849121,754.943848,424.530029,0.286939
-475.616455,751.373291,420.776367,0.287683
-482.482910,756.591797,421.783447,0.288426
-477.172852,755.493164,429.931641,0.289173
-482.025146,746.795654,430.114746,0.289907
-474.151611,751.373291,424.346924,0.290640
-474.060059,756.408691,425.537109,0.291373
-474.609375,750.823975,421.783447,0.292133
-479.553223,758.514404,444.305420,0.292877
-481.201172,753.662109,416.473389,0.293621
-477.905273,755.035400,422.149658,0.294365
-482.116699,749.267578,420.593262,0.295109
-475.891113,758.697510,422.790527,0.295853
-476.806641,759.704590,421.417236,0.296597
-477.813721,756.408691,421.417236,0.297340
-475.067139,761.627197,427.093506,0.298085
-477.630615,763.366699,425.994873,0.298828
-477.813721,757.598877,427.276611,0.299571
-471.405029,757.781982,423.706055,0.300315
-473.510742,762.084961,417.572021,0.301063
-473.876953,763.916016,424.713135,0.301796
-476.440430,761.627197,422.698975,0.302530
-474.334717,756.500244,425.903320,0.303263
-476.806641,766.113281,423.248291,0.304015
-472.961426,761.260986,425.811768,0.304757
-470.672607,765.930176,424.621582,0.305499
-469.482422,769.592285,433.593750,0.306244
-475.891113,760.986328,423.889160,0.306995
-476.257324,765.380859,425.262451,0.307773
-474.243164,770.416260,425.628662,0.308524
-474.517822,771.423340,424.530029,0.309267
-474.060059,769.592285,427.459717,0.310010
-476.348877,766.937256,426.177979,0.310797
-471.679688,766.662598,402.832031,0.311603
-474.700928,771.697998,427.825928,0.312357
-478.271484,767.395020,427.093506,0.313099
-475.982666,768.676758,418.029785,0.313841
-471.679688,778.289795,426.544189,0.314583
-475.708008,766.662598,425.903320,0.315339
-478.912354,759.063721,423.065186,0.316083
-475.616455,771.789551,420.959473,0.316826
-472.137451,765.838623,425.445557,0.317578
-475.250244,762.908936,424.438477,0.318312
-473.693848,765.930176,421.783447,0.319046
-472.412109,761.718750,419.311523,0.319779
-473.144531,765.838623,422.515869,0.320518
-476.257324,768.585205,432.769775,0.321263
-469.757080,766.937256,431.762695,0.322008
-470.397949,762.725830,424.346924,0.322754
-474.792480,771.789551,398.620605,0.323498
-472.778320,766.662598,415.740967,0.324241
-476.898193,765.380859,427.185059,0.324985
-476.257324,766.754150,420.227051,0.325729
-477.630615,769.134521,422.332764,0.326484
-475.524902,764.831543,425.903320,0.327229
-468.750000,767.303467,425.079346,0.327973
-470.947266,761.260986,429.473877,0.328717
-472.137451,759.246826,426.727295,0.329460
-471.038818,763.092041,430.664062,0.330203
-466.278076,763.549805,420.684814,0.330937
-468.658447,768.402100,419.952393,0.331670
-468.566895,767.303467,428.009033,0.332404
-474.517822,768.310547,424.713135,0.333177
-476.898193,760.803223,416.473389,0.333922
-477.813721,763.000488,420.318604,0.334666
-472.320557,762.451172,422.607422,0.335410
-471.221924,762.451172,423.065186,0.336165
-475.250244,752.471924,420.593262,0.336909
-469.573975,759.796143,431.304932,0.337653
-479.187012,760.620117,423.522949,0.338396
-476.623535,752.105713,424.530029,0.339139
-469.848633,758.605957,420.776367,0.339873
-477.813721,752.471924,426.818848,0.340606
-474.334717,753.845215,428.833008,0.341339
-475.433350,756.774902,427.917480,0.342092
-475.250244,754.394531,424.438477,0.342835
-477.264404,761.169434,419.128418,0.343577
-476.989746,757.049561,420.135498,0.344320
-479.644775,757.049561,425.720215,0.345072
-472.595215,756.774902,427.551270,0.345815
-468.383789,757.324219,417.114258,0.346557
-466.461182,751.007080,416.564941,0.347300
-479.827881,746.337891,421.325684,0.348047
-465.179443,753.662109,420.318604,0.348793
-472.778320,754.028320,424.072266,0.349537
-465.179443,755.493164,428.192139,0.350282
-473.327637,751.922607,423.522949,0.351038
-471.221924,747.161865,425.079346,0.351782
-469.573975,759.246826,419.769287,0.352526
-466.827393,752.655029,425.262451,0.353270
-473.602295,757.873535,425.170898,0.354024
-474.243164,757.598877,424.163818,0.354768
-474.151611,758.697510,419.128418,0.355512
-463.439941,755.859375,434.326172,0.356256
-470.397949,758.239746,423.797607,0.357091
-476.531982,753.662109,419.952393,0.357826
-465.728760,759.796143,428.924561,0.358560
-474.609375,757.690430,425.262451,0.359293
-467.193604,752.380371,419.677734,0.360053
-478.637695,761.993408,416.381836,0.360796
-473.052979,756.683350,420.684814,0.361539
-470.031738,760.070801,423.248291,0.362283
-478.729248,757.324219,424.621582,0.363037
-474.517822,760.711670,419.128418,0.363781
-472.595215,752.197266,419.494629,0.364526
-472.137451,758.514404,424.346924,0.365270
-473.693848,757.232666,419.403076,0.366026
-483.947754,759.704590,413.085938,0.366771
-483.123779,758.239746,423.065186,0.367514
-474.700928,762.908936,421.051025,0.368250
-480.010986,762.268066,423.889160,0.368998
-478.820801,762.084961,422.058105,0.369732
-474.151611,758.422852,421.966553,0.370465
-474.884033,763.183594,441.101074,0.371197
-469.390869,765.380859,429.199219,0.371964
-468.566895,764.373779,427.825928,0.372707
-473.236084,761.260986,420.501709,0.373449
-465.728760,763.641357,423.431396,0.374230
-477.355957,770.874023,424.163818,0.374976
-480.377197,763.458252,424.346924,0.375720
-474.334717,758.422852,420.227051,0.376464
-472.595215,768.585205,421.051025,0.377208
-474.243164,761.260986,422.424316,0.377952
-479.553223,762.084961,420.501709,0.378706
-482.574463,763.000488,431.854248,0.379456
-486.053467,764.465332,422.607422,0.380256
-482.666016,762.359619,418.762207,0.381004
-478.546143,772.613525,426.635742,0.381748
-483.947754,769.409180,430.023193,0.382491
-479.370117,772.247314,431.671143,0.383235
-479.095459,769.134521,418.853760,0.383979
-479.736328,759.613037,423.248291,0.384769
-482.574463,763.092041,428.924561,0.385577
-484.222412,764.831543,424.987793,0.386330
-481.842041,764.556885,427.093506,0.387072
-482.940674,765.380859,424.530029,0.387833
-483.215332,770.416260,424.987793,0.388575
-480.651855,771.148682,418.853760,0.389314
-487.060547,761.169434,441.467285,0.390055
-481.842041,773.071289,431.213379,0.390804
-483.947754,759.704590,422.241211,0.391555
-486.419678,761.169434,422.607422,0.392298
-482.757568,766.296387,427.459717,0.393042
-486.511230,768.310547,424.530029,0.393789
-487.701416,764.282227,417.938232,0.394522
-486.328125,765.472412,429.565430,0.395255
-486.145020,755.676270,429.016113,0.395989
-487.060547,758.514404,422.424316,0.396723
-484.680176,759.246826,419.036865,0.397634
-490.722656,758.331299,426.269531,0.398452
-478.546143,758.148193,424.621582,0.399277
-490.905762,761.535645,417.938232,0.400023
-486.511230,759.155273,415.832520,0.400766
-483.306885,755.859375,414.367676,0.401510
-490.173340,761.810303,415.649414,0.402266
-489.807129,758.697510,417.755127,0.403010
-488.342285,758.605957,419.219971,0.403755
-488.800049,761.810303,444.580078,0.404498
-486.877441,756.683350,428.100586,0.405240
-483.398438,754.486084,418.853760,0.405974
-483.489990,762.359619,430.938721,0.406707
-487.335205,757.507324,418.762207,0.407440
-482.482910,762.817383,420.410156,0.408175
-478.546143,756.134033,419.494629,0.408908
-482.482910,758.056641,426.452637,0.409641
-483.398438,767.852783,420.227051,0.410374
-484.680176,767.028809,418.853760,0.411120
-480.285645,757.415771,418.579102,0.411854
-476.989746,759.155273,411.804199,0.412587
-484.497070,763.732910,428.375244,0.413320
-484.130859,767.578125,422.698975,0.414060
-482.025146,760.070801,420.227051,0.414804
-477.722168,758.880615,423.339844,0.415548
-477.539062,758.056641,422.332764,0.416292
-472.869873,759.704590,419.219971,0.417036
-474.700928,763.824463,422.332764,0.417779
-478.912354,768.951416,425.445557,0.418523
-475.067139,763.549805,419.128418,0.419266
-479.278564,766.571045,421.051025,0.420033
-481.567383,763.824463,427.001953,0.420828
-482.849121,766.754150,421.691895,0.421573
-479.736328,761.901855,412.994385,0.422317
-482.299805,763.824463,417.480469,0.423074
-481.475830,759.887695,419.769287,0.423835
-478.179932,762.451172,423.156738,0.424586
-474.426270,758.880615,424.072266,0.425330
-474.792480,758.331299,423.797607,0.426085
-475.067139,767.669678,418.853760,0.426830
-484.954834,760.528564,419.219971,0.427573
-482.025146,762.451172,424.713135,0.428316
-474.792480,767.761230,425.903320,0.429161
-479.644775,762.451172,412.536621,0.429906
-474.334717,766.937256,415.466309,0.430650
-480.834961,758.331299,424.987793,0.431393
-475.982666,767.395020,422.790527,0.432137
-472.137451,765.197754,423.065186,0.432870
-481.201172,769.409180,425.170898,0.433603
-473.510742,763.366699,425.262451,0.434336
-473.510742,771.331787,429.748535,0.435094
-470.947266,763.641357,420.135498,0.435838
-469.573975,758.148193,419.219971,0.436582
-476.257324,761.901855,416.656494,0.437326
-474.609375,763.458252,422.698975,0.438081
-470.306396,770.141602,423.248291,0.438825
-477.264404,769.592285,422.973633,0.439568
-476.531982,773.254395,422.332764,0.440312
-469.116211,766.937256,410.247803,0.441065
-471.038818,769.134521,420.776367,0.441809
-468.933105,769.409180,421.142578,0.442552
-470.397949,768.127441,420.318604,0.443296
-470.855713,768.676758,422.698975,0.444039
-469.299316,770.233154,423.065186,0.444772
-468.566895,770.507812,399.444580,0.445506
-471.313477,768.585205,422.882080,0.446239
-476.165771,770.233154,431.030273,0.446993
-473.236084,765.106201,439.270020,0.447727
-468.475342,766.479492,430.114746,0.448471
-471.588135,766.754150,404.388428,0.449210
-477.905273,764.190674,430.023193,0.449988
-475.891113,763.458252,420.776367,0.450740
-477.081299,767.852783,420.318604,0.451484
-480.926514,762.084961,425.170898,0.452228
-475.067139,762.451172,422.973633,0.452984
-474.884033,761.901855,423.889160,0.453776
-472.778320,759.613037,421.875000,0.454564
-471.405029,755.767822,426.452637,0.455317
-478.820801,752.929688,426.910400,0.456059
-473.693848,759.979248,406.402588,0.456799
-474.334717,759.613037,420.135498,0.457540
-475.891113,754.760742,421.600342,0.458279
-474.700928,755.950928,415.740967,0.459019
-469.390869,761.260986,432.128906,0.459758
-476.440430,748.992920,425.720215,0.460497
-479.919434,755.035400,421.142578,0.461234
-476.715088,757.507324,428.741455,0.461981
-476.165771,750.274658,423.706055,0.462730
-478.912354,755.767822,422.515869,0.463568
-476.348877,754.760742,427.917480,0.464321
-482.482910,751.647949,425.903320,0.465074
-482.940674,757.965088,425.720215,0.465820
-476.348877,756.042480,424.987793,0.466594
-472.686768,754.302979,423.248291,0.467350
-477.905273,760.620117,431.671143,0.468097
-480.560303,756.683350,421.142578,0.468853
-479.553223,757.415771,423.706055,0.469637
-480.560303,756.591797,426.635742,0.470408
-478.179932,756.134033,427.917480,0.471156
-475.891113,747.711182,420.501709,0.471909
-475.067139,772.338867,426.452637,0.472688
-475.616455,750.183105,419.403076,0.473434
-479.553223,748.901367,430.297852,0.474185
-481.201172,753.112793,432.312012,0.474941
-480.834961,759.521484,420.135498,0.475682
-477.813721,752.838135,426.361084,0.476414
-473.144531,758.972168,426.269531,0.477145
-475.067139,751.190186,427.825928,0.477884
-469.207764,763.000488,425.262451,0.478618
-477.996826,770.050049,427.001953,0.479348
-472.778320,757.598877,425.720215,0.480079
-476.623535,753.936768,428.466797,0.480809
-475.524902,756.408691,426.177979,0.481600
-481.842041,755.126953,424.621582,0.482333
-469.573975,756.042480,420.501709,0.483064
-477.264404,754.852295,429.931641,0.483795
-476.623535,756.042480,435.150146,0.484538
-479.003906,750.823975,424.346924,0.485269
-472.503662,759.521484,430.297852,0.486000
-484.680176,756.042480,430.114746,0.486733
-482.482910,753.936768,421.051025,0.487479
-474.975586,753.753662,426.452637,0.488221
-485.046387,755.950928,432.128906,0.488954
-481.018066,752.838135,428.375244,0.489685
-479.461670,754.028320,424.804688,0.490290
-482.116699,756.591797,424.804688,0.491022
-480.834961,757.690430,427.734375,0.491752
-479.461670,755.126953,422.058105,0.492483
-480.468750,750.732422,422.515869,0.493141
-474.151611,760.162354,435.241699,0.493883
-478.271484,757.598877,422.424316,0.494625
-483.673096,774.078369,423.889160,0.495368
-476.806641,769.134521,420.227051,0.496121
-478.912354,762.451172,422.058105,0.496862
-480.651855,755.401611,430.023193,0.497603
-476.074219,767.852783,429.382324,0.498344
-477.081299,759.155273,423.156738,0.499099
-473.144531,754.577637,426.727295,0.499937
-476.074219,765.747070,426.910400,0.500678
-478.088379,754.943848,432.769775,0.501419
-479.278564,760.253906,433.319092,0.502171
-476.074219,753.479004,431.945801,0.502912
-472.137451,755.401611,423.797607,0.503653
-474.517822,759.887695,422.607422,0.504394
-471.496582,754.302979,444.030762,0.505146
-472.503662,760.620117,433.319092,0.505887
-472.137451,752.105713,428.741455,0.506628
-472.229004,757.141113,432.220459,0.507368
-473.052979,752.563477,433.227539,0.508119
-478.454590,752.929688,399.627686,0.508861
-473.236084,754.852295,425.537109,0.509602
-474.884033,756.683350,432.952881,0.510343
-476.257324,756.134033,420.867920,0.511094
-471.221924,754.028320,431.762695,0.511835
-475.616455,750.823975,418.762207,0.512576
-481.292725,744.598389,418.212891,0.513317
-481.384277,753.662109,422.058105,0.514070
-474.060059,755.859375,423.797607,0.514811
-474.792480,760.253906,432.312012,0.515552
-473.785400,754.028320,423.797607,0.516293
-475.708008,752.746582,423.797607,0.517044
-477.081299,752.929688,417.663574,0.517784
-470.764160,754.943848,425.811768,0.518525
-479.644775,749.542236,425.903320,0.519266
-477.172852,759.521484,424.896240,0.520018
-478.820801,756.591797,422.424316,0.520761
-477.264404,760.986328,435.150146,0.521507
-482.025146,756.042480,420.318604,0.522254
-473.602295,749.450684,423.522949,0.523027
-479.919434,753.936768,428.009033,0.523770
-483.123779,751.739502,425.262451,0.524511
-475.982666,758.239746,422.973633,0.525252
-475.341797,759.887695,421.508789,0.526003
-469.116211,763.732910,426.269531,0.526758
-475.524902,761.718750,426.452637,0.527505
-479.003906,767.211914,427.917480,0.528253
-473.693848,763.275146,428.283691,0.529024
-479.187012,763.549805,425.720215,0.529767
-483.215332,764.739990,431.396484,0.530509
-479.644775,758.514404,425.811768,0.531250
-479.827881,758.605957,427.642822,0.532000
-478.729248,757.507324,429.748535,0.532741
-477.264404,757.690430,427.917480,0.533482
-469.757080,759.246826,428.375244,0.534223
-470.489502,765.197754,429.199219,0.534973
-475.158691,760.803223,424.987793,0.535714
-478.363037,764.923096,434.692383,0.536455
-473.327637,767.944336,432.952881,0.537197
-472.503662,764.465332,418.762207,0.537950
-476.715088,758.331299,425.811768,0.538691
-484.497070,757.507324,428.100586,0.539433
-484.497070,754.211426,427.734375,0.540174
-479.919434,750.732422,424.346924,0.540928
-480.010986,755.310059,420.410156,0.541669
-477.172852,760.162354,424.255371,0.542410
-479.278564,756.317139,425.994873,0.543151
-476.074219,762.451172,425.720215,0.543902
-479.278564,756.225586,424.621582,0.544643
-478.729248,745.513916,424.896240,0.545384
-472.045898,755.676270,422.882080,0.546125
-481.201172,753.845215,422.424316,0.546877
-477.355957,754.577637,424.346924,0.547618
-476.623535,750.091553,426.086426,0.548359
-479.003906,744.415283,426.269531,0.549100
-481.201172,753.112793,421.051025,0.549850
-478.912354,748.168945,423.431396,0.550592
-477.630615,755.493164,421.966553,0.551332
-483.673096,756.958008,419.128418,0.552073
-478.729248,752.014160,422.241211,0.552823
-478.088379,746.520996,426.727295,0.553563
-476.806641,750.640869,428.466797,0.554308
-478.271484,762.725830,416.656494,0.555049
-477.996826,757.141113,415.924072,0.555799
-476.531982,764.190674,419.952393,0.556540
-476.715088,756.774902,427.001953,0.557281
-471.221924,752.563477,419.586182,0.558022
-471.496582,757.965088,426.818848,0.558772
-470.581055,752.014160,423.522949,0.559513
-469.848633,759.979248,421.966553,0.560254
-475.524902,756.958008,416.931152,0.560995
-468.109131,770.690918,420.867920,0.561746
-476.531982,758.422852,422.332764,0.562487
-478.179932,759.613037,412.994385,0.563228
-473.052979,759.613037,419.128418,0.563970
-475.067139,756.591797,415.374756,0.564720
-478.820801,757.598877,416.015625,0.565461
-469.573975,760.528564,418.395996,0.566202
-468.200684,763.092041,423.889160,0.566942
-474.517822,757.141113,421.325684,0.567693
-477.996826,761.627197,421.508789,0.568436
-484.680176,763.183594,414.367676,0.569177
-472.869873,772.613525,422.058105,0.569918
-467.376709,768.585205,427.459717,0.570755
-474.060059,762.359619,415.008545,0.571498
-468.383789,767.120361,419.494629,0.572239
-470.581055,765.380859,419.860840,0.572980
-484.039307,766.845703,421.508789,0.573731
-472.320557,773.437500,430.023193,0.574472
-480.560303,767.944336,421.234131,0.575212
-465.454102,767.211914,425.537109,0.575953
-468.566895,772.979736,421.691895,0.576704
-471.130371,775.268555,432.678223,0.577445
-473.327637,779.571533,424.530029,0.578186
-475.616455,772.979736,421.875000,0.578927
-479.095459,775.817871,428.100586,0.579678
-477.813721,767.761230,421.325684,0.580419
-474.517822,772.064209,416.839600,0.581160
-475.067139,770.690918,423.339844,0.581901
-476.440430,771.972656,434.143066,0.582651
-480.743408,776.458740,431.304932,0.583392
-474.975586,769.134521,427.093506,0.584134
-479.644775,772.155762,427.734375,0.584875
-481.658936,765.197754,424.987793,0.585625
-483.489990,755.950928,422.149658,0.586366
-477.081299,758.972168,429.382324,0.587107
-475.708008,765.014648,425.720215,0.587848
-482.025146,761.260986,422.058105,0.588599
-476.715088,766.021729,424.530029,0.589340
-475.616455,764.556885,422.241211,0.590081
-479.553223,752.746582,431.488037,0.590822
-474.243164,756.500244,426.727295,0.591574
-470.672607,751.190186,425.903320,0.592315
-479.095459,752.288818,422.424316,0.593060
-474.243164,750.183105,425.170898,0.593824
-479.278564,754.852295,423.522949,0.594591
-472.961426,762.817383,424.713135,0.595334
-485.046387,747.619629,419.952393,0.596075
-484.039307,752.471924,425.079346,0.596820
-482.849121,750.000000,431.762695,0.597569
-485.504150,747.253418,428.649902,0.598310
-482.849121,749.359131,427.368164,0.599051
-479.278564,741.668701,426.727295,0.599802
-471.679688,769.866943,420.318604,0.600546
-475.524902,752.288818,428.192139,0.601289
-481.567383,743.865967,416.656494,0.602037
-477.447510,750.274658,423.156738,0.602782
-481.842041,746.429443,428.283691,0.603522
-482.666016,746.154785,430.755615,0.604263
-477.539062,746.520996,428.924561,0.605003
-477.081299,749.359131,423.065186,0.605744
-477.813721,752.746582,423.431396,0.606485
-484.313965,750.823975,418.670654,0.607226
-474.975586,747.711182,419.586182,0.607968
-479.919434,745.330811,423.156738,0.608709
-474.700928,746.520996,430.114746,0.609450
-468.841553,767.395020,426.177979,0.610191
-470.947266,757.141113,422.149658,0.610932
-475.799561,760.437012,431.945801,0.611689
-476.074219,753.753662,425.903320,0.612434
-474.243164,750.457764,421.142578,0.613175
-473.968506,755.859375,424.438477,0.613916
-471.954346,760.253906,426.177979,0.614657
-470.672607,752.014160,423.614502,0.615398
-474.151611,755.584717,426.635742,0.616138
-466.369629,757.049561,428.833008,0.616877
-473.327637,760.070801,424.346924,0.617630
-472.503662,760.437012,420.776367,0.618371
-472.961426,758.880615,419.677734,0.619111
-470.031738,766.021729,417.297363,0.619851
-472.045898,762.084961,419.128418,0.620595
-467.742920,763.732910,427.276611,0.621341
-469.940186,762.268066,422.058105,0.622081
-477.172852,763.183594,423.706055,0.622828
-470.214844,766.296387,430.938721,0.623570
-464.172363,759.704590,424.072266,0.624312
-462.249756,766.845703,423.339844,0.625052
-464.538574,767.944336,422.607422,0.625793
-468.017578,766.845703,422.332764,0.626533
-466.827393,766.571045,413.726807,0.627273
-471.862793,768.493652,442.382812,0.628013
-473.693848,767.211914,422.515869,0.628753
-467.285156,770.599365,422.424316,0.629506
-468.933105,771.697998,425.170898,0.630253
-466.369629,767.028809,424.346924,0.630994
-476.715088,772.155762,431.671143,0.631734
-468.475342,769.958496,429.199219,0.632474
-464.996338,773.986816,416.381836,0.633214
-468.841553,773.986816,418.304443,0.633954
-469.665527,773.162842,418.121338,0.634694
-462.615967,775.543213,413.452148,0.635442
-467.010498,770.141602,415.100098,0.636184
-473.144531,769.317627,423.889160,0.636924
-468.841553,770.141602,426.452637,0.637673
-465.637207,771.514893,422.973633,0.638428
-467.010498,773.529053,420.959473,0.639188
-466.827393,772.796631,414.642334,0.639934
-471.771240,762.542725,418.579102,0.640674
-476.348877,762.176514,415.191650,0.641502
-474.975586,762.084961,411.712646,0.642243
-471.405029,771.697998,418.579102,0.642982
-473.236084,764.007568,421.691895,0.643722
-471.038818,761.444092,423.522949,0.644462
-472.686768,768.859863,415.100098,0.645202
-472.412109,759.246826,413.818359,0.645942
-466.094971,768.585205,414.916992,0.646682
-465.362549,766.021729,420.043945,0.647422
-474.884033,764.282227,420.043945,0.648162
-475.708008,766.113281,417.205811,0.648902
-470.947266,763.641357,415.832520,0.649641
-464.996338,761.901855,422.973633,0.650397
-469.390869,759.887695,418.945312,0.651137
-468.933105,759.429932,411.071777,0.651877
-468.383789,762.268066,412.811279,0.652618
-466.094971,758.880615,418.121338,0.653360
-467.926025,763.641357,420.593262,0.654100
-472.503662,754.943848,418.945312,0.654840
-476.623535,753.112793,414.916992,0.655580
-475.524902,753.112793,417.938232,0.656331
-474.060059,754.211426,417.572021,0.657072
-470.947266,754.760742,417.755127,0.657812
-470.947266,755.493164,412.536621,0.658552
-477.081299,765.289307,417.572021,0.659303
-469.299316,764.556885,422.058105,0.660044
-480.468750,756.225586,415.008545,0.660784
-470.489502,754.302979,410.980225,0.661525
-479.095459,760.437012,419.769287,0.662265
-473.510742,762.176514,424.346924,0.663005
-478.271484,754.577637,421.966553,0.663749
-466.644287,757.415771,421.691895,0.664495
-471.221924,760.894775,420.593262,0.665242
-475.433350,761.535645,421.325684,0.665988
-470.397949,760.803223,419.677734,0.666727
-475.067139,767.395020,421.234131,0.667467
-473.327637,755.401611,420.501709,0.668207
-482.025146,769.683838,422.973633,0.668959
-471.405029,761.169434,422.607422,0.669715
-473.602295,758.331299,422.515869,0.670459
-467.742920,766.204834,418.487549,0.671200
-476.257324,767.761230,425.537109,0.671939
-485.595703,761.993408,433.502197,0.672679
-478.546143,765.747070,428.009033,0.673419
-471.862793,765.655518,428.649902,0.674177
-474.243164,770.965576,399.536133,0.674919
-472.961426,763.916016,413.635254,0.675659
-470.123291,767.578125,417.022705,0.676399
-470.123291,775.451660,418.762207,0.677139
-478.729248,767.852783,430.206299,0.677879
-487.335205,770.507812,424.896240,0.678620
-480.102539,767.761230,426.269531,0.679361
-480.010986,768.402100,422.058105,0.680113
-479.095459,767.211914,419.128418,0.680854
-484.680176,768.493652,423.339844,0.681594
-486.328125,765.014648,425.262451,0.682333
-481.109619,773.986816,423.522949,0.683086
-483.489990,769.775391,426.269531,0.683826
-481.750488,769.317627,424.896240,0.684566
-486.053467,766.113281,419.036865,0.685306
-486.419678,773.895264,421.142578,0.686052
-480.834961,771.697998,417.663574,0.686793
-482.757568,773.254395,418.395996,0.687532
-483.398438,768.035889,442.016602,0.688272
-485.412598,769.134521,424.530029,0.689012
-481.933594,769.592285,420.593262,0.689752
-482.299805,772.796631,422.973633,0.690491
-478.820801,768.768311,419.311523,0.691231
-482.025146,778.564453,421.691895,0.691971
-486.053467,772.521973,420.684814,0.692711
-478.820801,769.317627,419.860840,0.693451
-484.588623,768.127441,421.051025,0.694191
-493.835449,766.204834,423.614502,0.694943
-487.426758,769.592285,421.783447,0.695684
-485.595703,771.057129,420.959473,0.696424
-479.187012,769.317627,423.065186,0.697164
-484.039307,765.380859,414.001465,0.697915
-486.602783,767.303467,421.966553,0.698655
-484.130859,764.739990,419.860840,0.699395
-481.201172,775.909424,425.720215,0.700135
-495.025635,765.472412,428.466797,0.700882
-487.518311,776.092529,404.846191,0.701623
-487.792969,772.979736,423.431396,0.702363
-487.060547,778.472900,415.557861,0.703102
-492.553711,774.261475,413.818359,0.703842
-489.715576,776.092529,418.670654,0.704582
-491.729736,770.782471,422.149658,0.705322
-487.335205,771.331787,419.219971,0.706062
-485.229492,774.261475,419.677734,0.706802
-489.166260,773.162842,417.205811,0.707542
-488.433838,772.338867,418.487549,0.708282
-485.595703,765.655518,414.276123,0.709022
-483.764648,770.416260,420.501709,0.709763
-496.490479,773.803711,423.614502,0.710503
-493.103027,764.099121,422.790527,0.711243
-486.877441,771.423340,422.241211,0.711983
-515.533447,772.705078,428.558350,0.712804
-483.215332,766.387939,423.248291,0.713545
-490.173340,767.395020,421.234131,0.714284
-485.870361,761.260986,423.706055,0.715024
-486.053467,770.874023,421.234131,0.715764
-486.968994,761.627197,415.191650,0.716504
-485.961914,759.246826,440.734863,0.717244
-490.905762,764.373779,418.487549,0.717984
-483.947754,767.120361,413.726807,0.718724
-487.426758,760.437012,418.304443,0.719464
-488.433838,760.894775,419.677734,0.720204
-494.018555,757.690430,423.156738,0.720944
-485.137939,758.697510,423.431396,0.721684
-487.060547,756.408691,414.184570,0.722423
-486.419678,756.134033,414.642334,0.723162
-481.933594,758.239746,425.354004,0.723903
-487.701416,758.697510,423.156738,0.724643
-483.398438,756.317139,412.628174,0.725383
-487.426758,750.732422,421.966553,0.726123
-486.328125,750.091553,430.114746,0.726863
-484.405518,752.838135,419.036865,0.727606
-478.912354,752.563477,415.649414,0.728352
-483.398438,747.344971,415.924072,0.729092
-480.468750,748.443604,423.980713,0.729834
-480.377197,749.450684,416.931152,0.730576
-477.630615,756.591797,419.769287,0.731316
-480.468750,751.281738,427.459717,0.732056
-478.637695,744.964600,418.121338,0.732797
-477.722168,756.225586,419.677734,0.733538
-482.299805,753.570557,418.121338,0.734278
-480.560303,751.922607,417.663574,0.735028
-482.299805,758.972168,420.959473,0.735773
-480.194092,755.767822,423.431396,0.736520
-483.673096,757.049561,420.593262,0.737260
-481.842041,751.739502,417.938232,0.738000
-471.862793,756.317139,418.853760,0.738740
-480.560303,758.239746,420.959473,0.739480
-484.313965,746.337891,421.875000,0.740219
-477.996826,755.584717,421.325684,0.740960
-472.595215,760.986328,415.832520,0.741699
-467.010498,763.641357,417.480469,0.742441
-472.686768,755.767822,430.297852,0.743185
-474.151611,755.126953,421.508789,0.743925
-474.426270,758.239746,424.621582,0.744665
-481.475830,751.098633,427.734375,0.745417
-480.010986,756.591797,420.135498,0.746160
-474.151611,757.781982,422.882080,0.746902
-485.137939,760.253906,427.276611,0.747642
-483.032227,758.422852,430.389404,0.748383
-476.806641,761.352539,427.459717,0.749122
-480.651855,752.929688,422.882080,0.749864
-480.834961,754.211426,422.790527,0.750605
-478.363037,762.268066,424.621582,0.751348
-479.919434,759.429932,419.494629,0.752089
-479.919434,757.324219,423.339844,0.752829
-477.081299,758.605957,419.494629,0.753569
-475.708008,761.169434,424.713135,0.754308
-482.940674,754.211426,419.677734,0.755064
-481.384277,753.479004,416.656494,0.755804
-479.644775,757.415771,418.853760,0.756544
-475.524902,759.429932,420.776367,0.757288
-471.130371,762.817383,426.727295,0.758034
-476.257324,757.690430,423.248291,0.758774
-473.236084,752.929688,423.065186,0.759514
-478.271484,750.823975,417.205811,0.760254
-476.531982,758.605957,424.804688,0.761003
-477.172852,756.774902,423.522949,0.761743
-476.715088,757.965088,419.494629,0.762483
-476.531982,757.965088,420.501709,0.763224
-472.320557,755.767822,418.670654,0.763970
-480.285645,757.049561,419.860840,0.764708
-469.116211,759.521484,425.354004,0.765453
-469.757080,757.049561,429.473877,0.766197
-467.926025,766.754150,423.614502,0.766938
-477.447510,758.056641,422.149658,0.767678
-478.729248,757.324219,426.452637,0.768420
-478.454590,745.513916,442.291260,0.769161
-468.841553,758.148193,424.346924,0.769902
-465.728760,754.486084,430.847168,0.770643
-467.285156,751.647949,428.649902,0.771383
-474.243164,761.718750,426.635742,0.772138
-477.905273,749.267578,425.079346,0.772880
-462.982178,753.112793,429.565430,0.773622
-490.356445,748.443604,422.424316,0.774363
-467.742920,758.056641,429.931641,0.775105
-474.334717,750.183105,426.452637,0.775845
-470.581055,758.056641,428.283691,0.776587
-469.482422,754.852295,426.269531,0.777328
-476.074219,753.479004,432.128906,0.778078
-479.003906,742.950439,425.079346,0.778820
-481.750488,744.506836,417.846680,0.779561
-479.553223,748.535156,429.382324,0.780301
-482.299805,741.302490,424.621582,0.781050
-471.405029,745.605469,426.544189,0.781792
-469.207764,746.246338,436.065674,0.782533
-470.489502,746.978760,432.586670,0.783357
-475.524902,749.450684,419.494629,0.784099
-467.559814,752.014160,430.389404,0.784840
-469.757080,754.028320,422.882080,0.785581
-490.905762,753.936768,426.452637,0.786322
-476.074219,746.795654,422.424316,0.787063
-478.088379,746.063232,424.713135,0.787804
-473.510742,754.028320,430.023193,0.788544
-476.440430,752.197266,431.671143,0.789285
-474.517822,744.232178,419.952393,0.790026
-475.067139,746.337891,425.994873,0.790767
-472.137451,750.549316,429.473877,0.791508
-477.264404,757.415771,427.459717,0.792248
-481.750488,746.887207,423.614502,0.792990
-477.081299,755.401611,428.283691,0.793731
-472.778320,755.950928,428.192139,0.794472
-469.757080,748.626709,433.685303,0.795213
-473.785400,745.330811,427.642822,0.795964
-476.623535,750.366211,426.086426,0.796706
-479.736328,743.041992,424.163818,0.797446
-468.933105,750.732422,430.480957,0.798187
-473.968506,761.444092,428.558350,0.798938
-469.848633,754.486084,433.959961,0.799681
-475.341797,744.323730,445.220947,0.800423
-480.560303,752.838135,425.994873,0.801164
-481.567383,753.570557,422.698975,0.801905
-479.827881,757.873535,416.198730,0.802650
-478.454590,759.063721,429.748535,0.803394
-476.257324,763.458252,422.698975,0.804135
-481.658936,751.831055,422.515869,0.804878
-481.292725,754.943848,424.072266,0.805628
-477.172852,763.366699,425.811768,0.806380
-476.806641,761.535645,427.917480,0.807131
-472.595215,757.232666,427.276611,0.807883
-483.764648,760.894775,424.713135,0.808628
-477.722168,762.084961,429.016113,0.809369
-474.243164,763.275146,426.361084,0.810111
-483.673096,761.718750,430.755615,0.810852
-473.876953,758.148193,420.959473,0.811593
-477.722168,768.585205,424.713135,0.812334
-481.475830,771.697998,430.847168,0.813077
-480.010986,764.556885,430.572510,0.813837
-482.940674,760.162354,423.889160,0.814579
-478.912354,763.366699,430.755615,0.815320
-473.876953,761.169434,436.065674,0.816060
-480.743408,757.141113,419.311523,0.816801
-472.137451,759.887695,422.241211,0.817542
-471.221924,765.563965,424.438477,0.818283
-469.757080,756.958008,424.621582,0.819023
-472.778320,747.985840,422.698975,0.819764
-474.792480,763.458252,422.241211,0.820506
-476.440430,764.465332,426.452637,0.821248
-470.581055,763.641357,426.727295,0.821989
-479.278564,762.359619,423.339844,0.822730
-471.588135,762.542725,424.804688,0.823471
-478.912354,758.239746,424.163818,0.824213
-473.327637,764.465332,425.262451,0.824956
-467.102051,765.289307,425.079346,0.825697
-474.151611,758.789062,425.903320,0.826438
-470.123291,755.584717,419.128418,0.827180
-473.144531,756.591797,417.205811,0.827922
-463.714600,758.605957,421.783447,0.828666
-466.827393,763.732910,427.642822,0.829417
-468.200684,753.753662,422.424316,0.830168
-461.975098,764.373779,422.058105,0.830913
-468.109131,756.774902,399.627686,0.831654
-468.475342,758.514404,418.395996,0.832395
-466.278076,761.718750,419.036865,0.833136
-464.630127,753.204346,419.952393,0.833877
-462.158203,751.464844,419.494629,0.834617
-457.580566,759.796143,423.431396,0.835359
-459.228516,761.077881,421.691895,0.836104
-462.432861,754.852295,423.980713,0.836848
-463.256836,756.591797,400.543213,0.837590
-467.559814,765.380859,430.206299,0.838331
-467.193604,760.986328,425.994873,0.839072
-465.545654,759.338379,424.072266,0.839813
-470.214844,754.577637,419.494629,0.840554
-464.904785,758.331299,432.403564,0.841295
-471.588135,760.711670,424.163818,0.842036
-457.946777,753.845215,426.269531,0.842777
-462.890625,751.464844,421.142578,0.843532
-467.376709,761.901855,427.917480,0.844275
-469.299316,759.429932,424.621582,0.845016
-470.947266,759.613037,418.395996,0.845758
-457.305908,761.718750,424.530029,0.846499
-463.623047,762.908936,424.621582,0.847240
-466.003418,755.493164,432.037354,0.847981
-459.869385,755.950928,422.332764,0.848722
-466.827393,761.535645,423.248291,0.849464
-463.348389,765.747070,417.755127,0.850206
-466.552734,763.641357,440.826416,0.850947
-469.757080,766.113281,425.811768,0.851687
-463.531494,765.563965,424.438477,0.852444
-462.615967,764.556885,426.177979,0.853186
-463.531494,758.880615,418.945312,0.854007
-464.996338,763.916016,428.558350,0.854755
-456.848145,772.247314,425.903320,0.855515
-467.010498,762.176514,424.072266,0.856266
-468.566895,765.472412,426.635742,0.857012
-462.615967,763.275146,421.142578,0.857756
-468.017578,768.951416,425.445557,0.858498
-461.791992,762.634277,421.966553,0.859239
-460.418701,768.585205,427.093506,0.859980
-468.292236,763.824463,423.797607,0.860721
-468.658447,761.901855,419.677734,0.861462
-468.658447,752.014160,422.698975,0.862203
-466.278076,761.169434,424.255371,0.862945
-473.510742,759.429932,422.058105,0.863686
-472.137451,758.789062,421.142578,0.864430
-470.397949,763.366699,427.276611,0.865172
-466.827393,756.866455,419.952393,0.865914
-469.390869,758.972168,427.734375,0.866655
-475.341797,760.528564,430.114746,0.867395
-472.320557,755.950928,427.917480,0.868135
-471.862793,756.500244,422.790527,0.868875
-472.869873,761.535645,423.156738,0.869615
-472.137451,761.260986,423.339844,0.870357
-466.278076,768.768311,427.551270,0.871097
-471.954346,764.739990,425.354004,0.871837
-471.588135,766.387939,422.424316,0.872577
-475.524902,764.007568,419.677734,0.873317
-467.834473,763.824463,424.530029,0.874059
-463.714600,761.444092,431.488037,0.874799
-471.771240,761.993408,425.079346,0.875540
-478.912354,763.000488,418.212891,0.876284
-483.032227,766.387939,419.311523,0.877031
-475.616455,769.134521,420.684814,0.877788
-473.785400,750.183105,418.670654,0.878538
-475.708008,766.937256,421.142578,0.879311
-475.158691,768.218994,421.600342,0.880054
-474.792480,766.754150,417.846680,0.880794
-475.433350,773.345947,427.459717,0.881534
-476.989746,763.183594,419.403076,0.882285
-483.947754,765.197754,410.339355,0.883025
-478.271484,767.028809,422.790527,0.883765
-473.052979,776.367188,421.966553,0.884505
-473.144531,774.444580,422.241211,0.885257
-477.355957,771.697998,422.149658,0.885998
-477.081299,768.402100,419.128418,0.886738
-478.179932,770.782471,417.846680,0.887477
-476.257324,768.859863,418.945312,0.888227
-477.447510,767.944336,420.867920,0.888967
-485.412598,771.423340,420.776367,0.889707
-480.285645,770.324707,418.945312,0.890447
-481.384277,768.493652,422.149658,0.891201
-483.215332,770.507812,420.043945,0.891942
-482.849121,765.106201,420.410156,0.892682
-481.384277,766.845703,418.121338,0.893422
-479.370117,756.866455,421.783447,0.894171
-474.700928,769.775391,417.022705,0.894912
-480.285645,759.155273,419.952393,0.895651
-483.673096,769.775391,417.205811,0.896391
-479.553223,769.134521,422.058105,0.897141
-479.003906,753.387451,416.107178,0.897881
-471.954346,765.838623,416.015625,0.898621
-476.806641,769.042969,415.466309,0.899360
-481.933594,772.430420,417.755127,0.900111
-475.982666,763.824463,409.698486,0.900853
-478.363037,767.303467,420.867920,0.901593
-483.764648,759.887695,417.297363,0.902332
-482.574463,768.951416,418.304443,0.903083
-483.764648,768.310547,416.381836,0.903823
-485.778809,763.000488,421.691895,0.904563
-483.581543,772.064209,420.867920,0.905304
-480.102539,768.676758,421.783447,0.906058
-476.623535,760.437012,422.332764,0.906799
-484.863281,759.887695,416.107178,0.907539
-480.834961,761.077881,410.247803,0.908279
-481.567383,767.486572,421.051025,0.909028
-481.475830,769.226074,444.213867,0.909769
-484.222412,768.218994,423.522949,0.910509
-483.123779,766.754150,414.733887,0.911249
-481.750488,765.380859,417.114258,0.911998
-486.145020,764.282227,420.776367,0.912738
-480.102539,765.380859,418.029785,0.913478
-480.377197,764.007568,419.219971,0.914217
-485.595703,762.176514,424.255371,0.914966
-482.208252,757.507324,420.227051,0.915707
-487.060547,758.514404,417.022705,0.916447
-485.870361,758.422852,421.508789,0.917187
-482.299805,766.296387,424.438477,0.917936
-481.567383,763.732910,421.417236,0.918677
-484.313965,759.155273,419.586182,0.919416
-483.673096,762.542725,418.487549,0.920156
-478.546143,765.197754,408.508301,0.920908
-483.764648,760.986328,410.614014,0.921648
-481.567383,763.641357,415.374756,0.922389
-484.497070,764.648438,415.283203,0.923129
-482.208252,762.176514,423.156738,0.923875
-484.771729,761.718750,414.550781,0.924697
-483.398438,765.106201,425.354004,0.925438
-485.595703,752.929688,418.853760,0.926178
-486.785889,759.887695,415.924072,0.926929
-486.694336,748.077393,412.261963,0.927670
-485.687256,758.331299,418.395996,0.928409
-482.574463,755.401611,423.980713,0.929149
-478.637695,754.943848,420.410156,0.929902
-485.412598,762.451172,415.283203,0.930642
-485.412598,764.282227,422.058105,0.931382
-493.560791,752.655029,416.473389,0.932122
-495.758057,757.965088,423.156738,0.932871
-484.130859,758.422852,411.437988,0.933611
-484.771729,761.718750,419.311523,0.934351
-484.863281,763.549805,413.635254,0.935091
-490.264893,760.345459,416.656494,0.935840
-484.222412,762.817383,415.649414,0.936581
-492.919922,759.613037,414.825439,0.937320
-488.708496,766.113281,422.607422,0.938060
-488.250732,767.028809,418.304443,0.938809
-487.792969,761.718750,422.332764,0.939550
-488.067627,763.824463,420.593262,0.940290
-486.145020,761.535645,419.677734,0.941030
-483.581543,775.634766,415.924072,0.941779
-484.954834,752.838135,416.107178,0.942519
-488.250732,764.923096,414.916992,0.943259
-481.933594,769.958496,423.706055,0.943999
-481.018066,777.282715,431.762695,0.944748
-482.482910,765.472412,422.515869,0.945489
-489.257812,760.528564,427.551270,0.946230
-485.321045,765.014648,423.706055,0.946974
-478.637695,770.416260,412.170410,0.947746
-477.539062,771.148682,415.283203,0.948497
-480.926514,770.233154,422.790527,0.949243
-486.511230,763.366699,420.410156,0.949982
-483.764648,770.874023,416.107178,0.950741
-478.729248,768.676758,418.853760,0.951482
-485.778809,768.493652,418.762207,0.952222
-485.137939,763.458252,417.480469,0.952962
-480.010986,763.824463,428.100586,0.953711
-486.328125,770.965576,425.170898,0.954451
-479.827881,764.648438,422.515869,0.955191
-479.187012,763.641357,416.381836,0.955932
-476.531982,764.739990,419.311523,0.956684
-484.588623,755.859375,423.797607,0.957426
-483.581543,751.739502,415.191650,0.958166
-480.560303,762.725830,417.205811,0.958907
-479.644775,756.408691,423.522949,0.959658
-476.165771,765.014648,401.458740,0.960398
-489.349365,762.908936,421.234131,0.961138
-487.243652,761.444092,418.395996,0.961878
-480.377197,765.380859,424.896240,0.962630
-494.476318,762.542725,420.318604,0.963371
-487.792969,766.937256,420.959473,0.964111
-490.447998,759.246826,421.417236,0.964850
-477.264404,757.049561,420.867920,0.965601
-488.800049,761.169434,423.706055,0.966341
-481.658936,762.725830,428.009033,0.967080
-485.870361,758.422852,428.924561,0.967820
-476.898193,758.697510,420.776367,0.968570
-481.933594,759.521484,423.980713,0.969310
-482.299805,758.789062,420.135498,0.970049
-476.623535,767.944336,432.220459,0.970789
-484.313965,762.725830,424.530029,0.971538
-491.546631,756.317139,419.677734,0.972278
-478.363037,759.796143,423.156738,0.973018
-483.581543,762.359619,420.227051,0.973758
-476.623535,764.923096,421.875000,0.974507
-476.165771,763.916016,425.903320,0.975247
-478.179932,754.852295,422.058105,0.975987
-484.863281,759.338379,424.346924,0.976727
-483.123779,753.295898,424.163818,0.977476
-486.145020,758.789062,422.424316,0.978216
-484.954834,757.965088,422.790527,0.978956
-480.834961,754.669189,414.916992,0.979696
-483.215332,748.992920,416.839600,0.980449
-477.355957,763.458252,422.149658,0.981196
-482.208252,760.162354,432.312012,0.981936
-483.398438,768.676758,430.847168,0.982675
-477.996826,760.070801,424.987793,0.983431
-483.123779,752.838135,423.248291,0.984171
-480.102539,754.302979,424.072266,0.984911
-476.806641,758.697510,428.741455,0.985651
-483.123779,758.880615,420.593262,0.986400
-480.651855,755.584717,431.121826,0.987141
-472.961426,761.077881,422.882080,0.987881
-478.088379,754.577637,422.973633,0.988621
-481.475830,754.211426,423.889160,0.989370
-477.630615,755.767822,429.473877,0.990110
-477.813721,750.000000,426.269531,0.990850
-477.630615,754.394531,429.565430,0.991590
-481.750488,752.929688,426.910400,0.992338
-480.926514,757.324219,421.966553,0.993079
-486.602783,750.091553,425.445557,0.993818
-486.236572,749.816895,429.473877,0.994558
-477.264404,746.978760,423.248291,0.995311
-480.560303,753.204346,426.544189,0.996138
-476.440430,756.317139,417.297363,0.996880
-473.052979,754.394531,423.248291,0.997620
-477.539062,753.479004,421.417236,0.998375
-470.672607,755.126953,424.987793,0.999116
-482.116699,751.007080,427.734375,0.999855
-476.074219,755.035400,418.945312,1.000594
-468.383789,755.401611,426.727295,1.001343
-472.320557,752.197266,427.642822,1.002083
-467.285156,751.556396,423.797607,1.002822
-474.334717,744.323730,416.748047,1.003561
-473.876953,753.112793,430.297852,1.004310
-470.214844,756.134033,428.741455,1.005051
-473.785400,749.084473,430.114746,1.005790
-466.369629,746.704102,430.389404,1.006530
-466.918945,750.183105,427.001953,1.007282
-472.503662,754.302979,429.199219,1.008023
-464.630127,753.662109,427.001953,1.008762
-473.144531,748.352051,421.508789,1.009502
-470.306396,752.563477,422.149658,1.010252
-470.397949,753.753662,430.206299,1.010992
-466.369629,748.809814,425.994873,1.011732
-464.630127,773.071289,431.213379,1.012471
-471.496582,752.471924,423.980713,1.013223
-467.102051,751.190186,429.931641,1.013962
-469.024658,752.929688,427.734375,1.014702
-476.898193,753.295898,427.551270,1.015441
-492.187500,748.901367,428.924561,1.016167
-467.102051,755.310059,432.678223,1.016909
-471.771240,753.936768,420.593262,1.017652
-477.996826,769.317627,433.227539,1.018398
-465.545654,743.499756,421.875000,1.019168
-466.186523,757.232666,425.720215,1.019916
-467.742920,751.922607,430.664062,1.020655
-469.848633,749.816895,425.170898,1.021395
-490.997314,746.887207,428.924561,1.022150
-473.785400,751.831055,431.762695,1.022890
-472.595215,755.859375,431.121826,1.023630
-479.736328,760.620117,424.438477,1.024369
-471.130371,750.732422,424.987793,1.025118
-466.644287,759.613037,419.403076,1.025858
-464.355469,756.317139,424.804688,1.026597
-473.419189,760.070801,426.269531,1.027336
-475.524902,759.338379,426.177979,1.028085
-471.038818,756.225586,420.776367,1.028824
-464.996338,761.627197,429.290771,1.029563
-466.186523,756.774902,427.459717,1.030302
-473.510742,765.197754,426.086426,1.031051
-470.489502,759.887695,427.642822,1.031790
-467.468262,758.514404,431.396484,1.032530
-471.771240,762.634277,430.847168,1.033269
-467.376709,762.359619,423.065186,1.034021
-467.376709,758.514404,420.959473,1.034761
-475.799561,759.887695,424.804688,1.035500
-478.088379,755.493164,423.980713,1.036239
-473.144531,755.126953,424.530029,1.036988
-473.327637,757.781982,419.677734,1.037728
-468.017578,759.429932,418.579102,1.038467
-471.130371,753.295898,426.269531,1.039207
-469.482422,757.598877,424.621582,1.039956
-469.940186,758.422852,426.361084,1.040696
-469.665527,767.852783,430.297852,1.041435
-474.884033,758.331299,420.501709,1.042175
-472.869873,748.077393,419.128418,1.042923
-471.679688,759.429932,423.248291,1.043662
-467.193604,765.106201,429.656982,1.044401
-490.722656,757.873535,426.727295,1.045141
-469.573975,763.916016,403.564453,1.045890
-476.348877,760.437012,427.001953,1.046629
-475.250244,759.521484,427.368164,1.047368
-464.080811,763.275146,424.987793,1.048107
-474.792480,764.831543,421.783447,1.048856
-471.405029,770.050049,404.205322,1.049596
-478.912354,756.683350,418.579102,1.050335
-480.194092,761.901855,424.255371,1.051074
-481.109619,760.070801,419.952393,1.051822
-474.792480,759.246826,422.698975,1.052562
-475.433350,764.007568,416.748047,1.053301
-473.144531,756.774902,419.219971,1.054040
-480.102539,758.239746,420.593262,1.054790
-479.827881,759.155273,422.058105,1.055530
-474.517822,764.831543,424.163818,1.056269
-475.158691,758.148193,419.769287,1.057009
-468.658447,759.338379,422.332764,1.057758
-477.264404,754.669189,423.797607,1.058497
-474.060059,757.415771,438.629150,1.059236
-483.489990,752.655029,428.283691,1.059975
-479.003906,751.922607,425.903320,1.060724
-476.074219,744.415283,424.438477,1.061464
-477.447510,759.429932,413.269043,1.062203
-475.341797,757.598877,411.437988,1.062942
-485.321045,758.239746,420.684814,1.063690
-480.743408,759.613037,423.797607,1.064429
-479.827881,752.929688,425.811768,1.065169
-479.003906,764.739990,424.713135,1.065908
-483.123779,759.429932,416.290283,1.066748
-474.151611,755.126953,416.198730,1.067488
-471.496582,759.429932,418.670654,1.068227
-481.292725,753.295898,422.973633,1.068967
-472.045898,756.134033,420.135498,1.069716
-474.517822,758.789062,418.579102,1.070455
-479.553223,764.099121,419.036865,1.071195
-484.680176,762.176514,416.748047,1.071934
-476.898193,761.718750,420.227051,1.072682
-475.616455,764.648438,422.058105,1.073421
-476.531982,770.782471,419.677734,1.074161
-479.095459,768.585205,445.220947,1.074900
-476.898193,768.310547,426.727295,1.075648
-481.658936,762.817383,420.135498,1.076388
-475.708008,766.479492,415.649414,1.077127
-473.876953,763.824463,421.966553,1.077866
-475.341797,764.099121,417.755127,1.078615
-474.975586,767.852783,419.036865,1.079354
-477.905273,762.908936,421.234131,1.080093
-475.250244,771.606445,431.030273,1.080832
-482.025146,762.084961,422.698975,1.081581
-481.567383,761.993408,430.389404,1.082321
-483.581543,771.240234,423.706055,1.083060
-488.433838,772.521973,422.607422,1.083801
-482.482910,769.317627,414.459229,1.084564
-479.187012,775.360107,426.452637,1.085309
-480.285645,776.916504,432.403564,1.086050
-482.940674,773.803711,426.269531,1.086789
-478.637695,768.768311,427.459717,1.087542
-478.271484,765.563965,424.255371,1.088282
-488.433838,768.585205,421.783447,1.089022
-482.849121,770.690918,423.980713,1.089771
-478.729248,773.620605,424.896240,1.090537
-479.827881,768.402100,428.009033,1.091289
-477.630615,761.810303,425.811768,1.092031
-481.384277,765.747070,424.255371,1.092770
-482.025146,768.768311,419.952393,1.093529
-477.081299,766.296387,428.741455,1.094269
-483.215332,770.050049,431.304932,1.095008
-480.834961,768.859863,433.868408,1.095747
-478.637695,772.705078,428.192139,1.096496
-486.328125,761.444092,426.361084,1.097235
-485.137939,756.866455,420.410156,1.097975
-478.820801,770.141602,418.945312,1.098713
-480.468750,768.218994,425.079346,1.099462
-478.729248,763.458252,421.691895,1.100202
-481.109619,760.437012,423.156738,1.100941
-480.926514,764.648438,420.043945,1.101680
-480.468750,760.345459,427.551270,1.102429
-480.377197,767.761230,435.516357,1.103169
-487.884521,758.880615,428.192139,1.103910
-489.257812,752.746582,425.903320,1.104651
-481.842041,751.098633,424.713135,1.105407
-476.715088,751.647949,429.107666,1.106148
-478.820801,760.986328,427.917480,1.106887
-476.715088,759.155273,430.023193,1.107627
-482.116699,754.302979,417.022705,1.108377
-481.292725,752.838135,421.142578,1.109116
-477.264404,750.640869,443.664551,1.109855
-472.045898,747.070312,426.269531,1.110594
-473.785400,746.154785,426.910400,1.111344
-475.616455,749.267578,422.882080,1.112083
-477.355957,751.464844,423.065186,1.112822
-477.172852,740.478516,427.459717,1.113561
-475.708008,752.105713,424.713135,1.114313
-472.045898,747.894287,421.783447,1.115053
-475.982666,742.858887,420.867920,1.115794
-473.785400,746.520996,420.867920,1.116534
-476.715088,753.204346,423.614502,1.117289
-478.912354,743.957520,431.671143,1.118029
-478.179932,747.802734,426.818848,1.118769
-473.602295,744.140625,441.650391,1.119509
-474.792480,750.366211,430.114746,1.120258
-471.038818,767.578125,419.036865,1.120998
-475.341797,743.499756,422.332764,1.121737
-471.038818,744.323730,422.332764,1.122476
-463.531494,752.655029,431.304932,1.123224
-468.658447,749.084473,425.903320,1.123964
-469.299316,750.549316,421.600342,1.124703
-464.721680,753.295898,422.698975,1.125442
-469.482422,754.669189,434.234619,1.126190
-463.714600,745.422363,431.030273,1.126929
-466.644287,756.500244,428.100586,1.127669
-464.996338,752.288818,425.811768,1.128408
-467.926025,751.190186,421.417236,1.129157
-469.482422,750.823975,423.889160,1.129896
-461.151123,754.394531,424.530029,1.130635
-463.256836,761.810303,429.382324,1.131374
-468.383789,759.155273,426.544189,1.132123
-463.806152,757.965088,429.565430,1.132863
-458.770752,760.070801,428.192139,1.133603
-468.383789,758.239746,426.269531,1.134342
-458.312988,760.803223,424.804688,1.135089
-463.806152,757.965088,418.853760,1.135826
-458.221436,757.781982,425.079346,1.136563
-467.651367,756.042480,420.227051,1.137398
-461.608887,754.852295,424.346924,1.138151
-458.862305,752.014160,423.889160,1.138893
-464.813232,757.690430,423.339844,1.139633
-462.249756,769.134521,420.043945,1.140374
-462.432861,766.113281,443.664551,1.141124
-467.559814,762.542725,426.361084,1.141867
-466.552734,767.028809,418.304443,1.142608
-459.960938,756.958008,415.191650,1.143348
-462.066650,758.422852,422.424316,1.144100
-465.087891,761.535645,427.185059,1.144841
-464.447021,759.429932,415.557861,1.145581
-461.791992,762.084961,422.149658,1.146321
-452.362061,770.416260,427.642822,1.147071
-455.474854,763.732910,425.445557,1.147812
-461.975098,764.465332,419.769287,1.148553
-459.869385,771.148682,431.579590,1.149293
-465.911865,771.789551,426.086426,1.150043
-459.686279,765.930176,444.763184,1.150784
-468.750000,772.979736,424.438477,1.151525
-468.566895,765.106201,425.628662,1.152265
-468.841553,763.458252,422.332764,1.153015
-470.672607,764.556885,419.860840,1.153756
-469.940186,760.620117,401.824951,1.154497
-467.285156,772.979736,424.987793,1.155238
-473.876953,763.641357,416.564941,1.155987
-469.207764,762.359619,425.354004,1.156728
-468.750000,764.007568,431.762695,1.157469
-473.144531,757.415771,423.706055,1.158209
-466.461182,754.943848,422.058105,1.158962
-470.306396,765.563965,419.586182,1.159711
-469.482422,760.253906,423.706055,1.160462
-467.193604,758.331299,417.755127,1.161209
-473.785400,762.451172,422.424316,1.161977
-469.940186,759.429932,424.713135,1.162720
-476.165771,767.120361,422.149658,1.163461
-472.412109,764.282227,430.297852,1.164201
-475.891113,753.112793,420.227051,1.164952
-476.898193,754.943848,421.875000,1.165693
-478.912354,763.092041,399.078369,1.166434
-478.179932,758.056641,423.614502,1.167174
-468.658447,763.183594,419.860840,1.167924
-471.771240,754.302979,414.825439,1.168666
-479.919434,755.584717,422.882080,1.169407
-478.179932,754.943848,441.925049,1.170148
-472.869873,757.049561,425.994873,1.170898
-472.595215,763.275146,428.833008,1.171639
-476.715088,758.239746,418.945312,1.172379
-474.517822,761.993408,419.219971,1.173120
-472.595215,758.789062,419.036865,1.173870
-480.285645,761.535645,423.431396,1.174613
-479.827881,758.972168,429.016113,1.175354
-479.919434,758.056641,424.072266,1.176098
-470.764160,760.162354,424.621582,1.176852
-482.299805,756.866455,418.395996,1.177592
-480.468750,761.169434,424.987793,1.178333
-475.341797,762.817383,415.649414,1.179074
-479.461670,760.437012,421.600342,1.179824
-486.968994,764.739990,418.762207,1.180565
-480.834961,753.753662,424.713135,1.181305
-478.363037,759.796143,423.797607,1.182046
-484.863281,763.824463,427.734375,1.182796
-481.109619,755.859375,414.733887,1.183537
-484.588623,753.753662,417.572021,1.184278
-478.454590,752.288818,420.684814,1.185019
-484.405518,754.943848,420.959473,1.185769
-488.159180,753.753662,419.952393,1.186510
-491.180420,765.930176,421.783447,1.187250
-483.947754,763.092041,427.459717,1.187991
-479.278564,759.429932,426.635742,1.188741
-486.877441,765.289307,422.149658,1.189482
-485.137939,768.127441,429.107666,1.190222
-480.285645,766.662598,424.255371,1.190963
-484.497070,764.556885,419.219971,1.191711
-482.025146,770.507812,420.867920,1.192452
-483.489990,768.218994,422.790527,1.193194
-487.518311,761.260986,422.332764,1.193935
-493.743896,768.310547,420.776367,1.194685
-494.476318,765.380859,441.650391,1.195426
-486.968994,764.007568,413.909912,1.196167
-487.060547,771.148682,420.318604,1.196907
-488.800049,773.071289,422.607422,1.197676
-490.905762,771.972656,418.029785,1.198417
-490.997314,770.416260,417.938232,1.199157
-491.180420,775.085449,420.318604,1.199898
-490.814209,776.824951,418.579102,1.200646
-493.194580,774.536133,424.255371,1.201387
-491.546631,775.177002,421.142578,1.202129
-487.243652,777.099609,425.170898,1.202871
-490.081787,781.951904,423.065186,1.203623
-494.567871,783.599854,427.551270,1.204364
-492.004395,777.557373,398.803711,1.205105
-486.877441,773.986816,422.241211,1.205845
-485.778809,775.543213,422.882080,1.206596
-489.349365,779.113770,419.403076,1.207337
-487.701416,776.733398,423.614502,1.208173
-486.053467,772.888184,417.205811,1.208914
-489.349365,779.663086,424.255371,1.209667
-494.842529,778.289795,431.030273,1.210407
-491.455078,775.634766,427.459717,1.211148
-489.715576,776.824951,425.811768,1.211888
-488.983154,765.106201,427.185059,1.212637
-494.476318,762.634277,427.093506,1.213378
-488.891602,769.958496,423.706055,1.214119
-491.088867,772.613525,424.530029,1.214859
-493.743896,762.542725,415.924072,1.215609
-515.350342,769.775391,419.311523,1.216350
-493.286133,766.937256,444.488525,1.217091
-489.624023,769.226074,417.297363,1.217832
-491.088867,764.465332,423.156738,1.218586
-489.440918,761.444092,423.889160,1.219353
-493.835449,764.007568,419.494629,1.220108
-499.145508,761.627197,417.480469,1.220863
-490.997314,766.479492,413.909912,1.221652
-490.814209,766.479492,424.163818,1.222416
-489.349365,769.134521,418.304443,1.223185
-486.236572,767.303467,426.635742,1.223946
-482.940674,766.113281,418.304443,1.224731
-482.574463,768.676758,425.445557,1.225497
-485.687256,763.275146,421.783447,1.226254
-489.990234,759.979248,420.684814,1.227029
-483.398438,762.542725,417.663574,1.227800
-485.687256,769.134521,420.684814,1.228569
-479.736328,773.529053,420.776367,1.229327
-487.518311,765.930176,421.417236,1.230169
-481.018066,767.578125,420.867920,1.230938
-474.517822,769.866943,418.304443,1.231706
-480.102539,768.585205,423.522949,1.232463
-475.982666,766.113281,421.875000,1.233207
-476.715088,760.803223,421.783447,1.233949
-477.172852,758.056641,421.875000,1.234689
-479.736328,757.690430,417.114258,1.235430
-481.933594,759.796143,416.656494,1.236171
-484.680176,762.542725,443.664551,1.236911
-471.588135,763.732910,424.987793,1.237652
-475.616455,763.183594,424.530029,1.238392
-477.264404,751.647949,422.515869,1.239133
-475.250244,759.338379,423.339844,1.239873
-482.666016,755.035400,422.058105,1.240613
-480.102539,753.021240,416.015625,1.241353
-481.018066,755.126953,415.649414,1.242110
-481.475830,752.838135,418.212891,1.242853
-476.440430,756.591797,424.163818,1.243594
-475.982666,751.098633,420.959473,1.244336
-482.666016,767.486572,419.128418,1.245087
-479.553223,757.690430,424.530029,1.245833
-479.095459,753.570557,422.149658,1.246576
-475.524902,760.162354,421.142578,1.247317
-474.975586,755.310059,421.691895,1.248058
-471.954346,759.429932,422.698975,1.248799
-475.067139,758.972168,429.290771,1.249539
-475.799561,758.148193,416.107178,1.250280
-477.539062,753.753662,417.297363,1.251020
-471.038818,762.084961,420.410156,1.251761
-468.566895,755.950928,420.227051,1.252502
-475.799561,755.584717,422.332764,1.253242
-474.975586,759.063721,419.952393,1.253984
-474.609375,752.838135,420.318604,1.254727
-468.200684,750.823975,429.382324,1.255468
-474.792480,752.838135,430.480957,1.256209
-474.334717,760.345459,419.769287,1.256962
-481.109619,751.831055,417.205811,1.257704
-470.855713,749.542236,420.684814,1.258444
-474.975586,754.211426,426.177979,1.259185
-468.475342,758.972168,421.783447,1.259935
-475.250244,749.359131,423.248291,1.260676
-472.412109,746.520996,428.649902,1.261417
-473.327637,750.274658,426.910400,1.262157
-476.898193,760.986328,423.889160,1.262908
-479.370117,751.464844,427.734375,1.263649
-470.214844,751.922607,422.698975,1.264390
-475.341797,759.704590,417.205811,1.265131
-466.735840,759.887695,422.149658,1.265875
-475.616455,758.331299,428.649902,1.266616
-471.221924,747.894287,425.628662,1.267356
-470.672607,755.767822,426.361084,1.268097
-473.602295,755.676270,420.135498,1.268838
-474.151611,746.337891,421.600342,1.269579
-479.187012,756.683350,427.001953,1.270319
-476.074219,754.211426,429.473877,1.271060
-476.257324,749.450684,429.382324,1.271812
-479.187012,755.676270,421.508789,1.272554
-477.813721,758.422852,422.058105,1.273294
-482.116699,752.105713,424.346924,1.274035
-488.159180,761.169434,427.185059,1.274784
-483.398438,758.056641,425.262451,1.275526
-479.461670,762.084961,428.649902,1.276267
-486.236572,757.232666,426.727295,1.277008
-482.757568,756.683350,432.678223,1.277758
-485.321045,749.725342,427.734375,1.278500
-485.137939,751.556396,420.776367,1.279240
-481.933594,755.310059,421.966553,1.280065
-479.095459,758.056641,424.987793,1.280818
-476.989746,750.183105,437.530518,1.281559
-484.954834,752.380371,427.642822,1.282299
-480.102539,752.471924,425.628662,1.283040
-482.849121,753.479004,423.980713,1.283791
-478.912354,750.000000,425.170898,1.284531
-475.433350,759.155273,425.537109,1.285272
-476.074219,757.690430,425.079346,1.286012
-477.447510,753.112793,420.867920,1.286764
-476.715088,753.295898,418.853760,1.287505
-480.010986,753.662109,422.332764,1.288253
-478.820801,756.500244,422.058105,1.289021
-487.518311,754.577637,428.741455,1.289789
-485.412598,754.943848,429.107666,1.290530
-484.680176,762.176514,427.917480,1.291270
-492.370605,752.197266,420.227051,1.292010
-483.489990,752.655029,415.649414,1.292757
-484.222412,726.837158,427.734375,1.293498
-484.680176,750.457764,423.156738,1.294239
-477.996826,752.929688,417.755127,1.294980
-476.715088,760.345459,419.677734,1.295730
-473.052979,752.655029,422.882080,1.296471
-474.609375,746.063232,418.304443,1.297212
-481.018066,747.344971,422.424316,1.297953
-472.320557,741.760254,428.283691,1.298703
-474.609375,749.725342,425.994873,1.299444
-478.271484,757.415771,423.522949,1.300185
-474.609375,758.239746,425.994873,1.300927
-470.214844,759.796143,429.016113,1.301697
-469.390869,759.338379,427.185059,1.302448
-474.243164,761.169434,422.790527,1.303196
-475.067139,763.183594,426.910400,1.303936
-477.630615,758.697510,429.931641,1.304698
-469.116211,762.817383,429.199219,1.305441
-472.137451,760.986328,425.994873,1.306181
-477.447510,770.233154,431.396484,1.306922
-477.996826,761.169434,435.791016,1.307672
-470.947266,772.064209,439.544678,1.308413
-474.884033,760.986328,431.762695,1.309154
-467.010498,755.584717,427.001953,1.309894
-475.891113,763.824463,427.001953,1.310644
-477.447510,761.352539,429.382324,1.311385
-479.278564,761.993408,422.149658,1.312126
-473.327637,760.253906,427.825928,1.312867
-473.693848,760.894775,421.508789,1.313617
-474.700928,764.007568,421.234131,1.314358
-472.137451,772.888184,424.896240,1.315098
-466.735840,770.599365,430.114746,1.315839
-476.898193,771.514893,425.354004,1.316589
-474.151611,765.380859,425.170898,1.317332
-468.933105,762.542725,428.100586,1.318074
-469.207764,769.042969,433.044434,1.318814
-475.616455,768.768311,428.009033,1.319568
-471.313477,760.894775,426.910400,1.320310
-472.045898,760.711670,422.607422,1.321052
-466.369629,768.951416,426.177979,1.321793
-468.841553,758.697510,424.621582,1.322544
-465.179443,771.972656,429.565430,1.323285
-475.982666,767.028809,427.093506,1.324025
-475.799561,760.894775,418.579102,1.324766
-469.299316,758.789062,426.727295,1.325515
-473.876953,758.056641,420.867920,1.326256
-469.940186,764.831543,416.015625,1.326997
-472.503662,766.021729,419.403076,1.327738
-467.193604,763.000488,428.741455,1.328488
-473.785400,763.916016,424.713135,1.329229
-476.257324,763.000488,418.487549,1.329970
-474.334717,757.781982,423.797607,1.330710
-474.609375,761.535645,422.882080,1.331460
-466.003418,763.732910,417.114258,1.332201
-468.109131,762.268066,419.403076,1.332942
-464.080811,762.725830,426.086426,1.333682
-464.904785,761.169434,421.508789,1.334432
-467.376709,763.183594,422.241211,1.335173
-475.158691,760.894775,422.607422,1.335914
-473.510742,758.148193,429.748535,1.336654
-470.581055,757.598877,417.572021,1.337405
-464.904785,759.338379,419.494629,1.338146
-478.454590,760.894775,422.607422,1.338887
-470.855713,757.324219,420.135498,1.339627
-473.968506,755.676270,416.931152,1.340378
-465.728760,762.359619,430.572510,1.341118
-471.130371,748.901367,418.945312,1.341859
-471.405029,760.345459,427.917480,1.342600
-469.665527,759.063721,423.431396,1.343350
-470.397949,758.148193,419.860840,1.344092
-479.003906,756.591797,421.691895,1.344832
-471.496582,759.155273,423.339844,1.345573
-473.785400,766.937256,427.734375,1.346323
-472.686768,755.859375,422.973633,1.347064
-477.630615,758.239746,427.001953,1.347805
-471.588135,756.408691,428.924561,1.348545
-467.010498,759.429932,424.896240,1.349296
-470.489502,753.204346,425.445557,1.350038
-471.588135,755.950928,422.149658,1.350864
-467.651367,754.302979,425.628662,1.351606
-469.940186,752.288818,438.354492,1.352363
-459.594727,754.577637,427.551270,1.353104
-470.306396,749.725342,423.431396,1.353845
-469.665527,756.225586,417.938232,1.354586
-469.390869,754.760742,422.058105,1.355336
-471.405029,758.331299,424.346924,1.356077
-468.933105,753.479004,421.325684,1.356817
-491.088867,755.126953,425.628662,1.357558
-469.940186,753.204346,426.086426,1.358306
-462.615967,758.972168,429.656982,1.359045
-458.221436,732.055664,426.544189,1.359784
-466.369629,749.359131,430.389404,1.360524
-465.087891,754.028320,424.621582,1.361273
-465.545654,750.366211,427.001953,1.362012
-466.827393,756.500244,428.649902,1.362752
-468.566895,755.584717,430.389404,1.363491
-465.545654,762.451172,429.290771,1.364240
-463.623047,755.126953,425.994873,1.364979
-459.136963,762.268066,425.170898,1.365718
-467.102051,760.620117,421.234131,1.366457
-489.440918,751.647949,424.163818,1.367206
-472.320557,753.845215,431.579590,1.367946
-466.003418,760.803223,417.205811,1.368685
-465.728760,760.986328,426.177979,1.369424
-463.989258,765.930176,418.579102,1.370172
-461.975098,766.479492,430.664062,1.370911
-464.813232,763.824463,401.458740,1.371651
-463.439941,762.084961,424.255371,1.372390
-465.270996,762.176514,421.783447,1.373145
-464.996338,767.486572,435.699463,1.373892
-464.355469,760.070801,423.889160,1.374639
-474.243164,757.507324,426.818848,1.375383
-469.024658,764.556885,425.354004,1.376144
-462.432861,760.070801,424.255371,1.376885
-470.214844,759.887695,422.882080,1.377624
-473.144531,763.641357,422.515869,1.378363
-468.841553,763.092041,422.790527,1.379111
-472.045898,762.817383,432.128906,1.379851
-462.799072,765.380859,427.185059,1.380591
-466.094971,770.874023,436.523438,1.381330
-468.109131,767.944336,422.882080,1.382082
-468.933105,766.387939,418.304443,1.382821
-471.038818,759.063721,420.135498,1.383560
-465.362549,767.761230,423.431396,1.384300
-474.334717,769.775391,420.227051,1.385045
-467.926025,761.718750,421.508789,1.385785
-468.933105,766.204834,421.051025,1.386524
-469.757080,763.366699,417.846680,1.387263
-473.876953,768.768311,426.086426,1.388014
-478.363037,769.134521,428.009033,1.388755
-475.982666,764.739990,423.431396,1.389494
-469.848633,772.155762,422.058105,1.390232
-475.250244,765.930176,444.030762,1.390984
-473.968506,770.233154,427.093506,1.391724
-476.074219,770.141602,417.755127,1.392463
-478.546143,761.901855,420.227051,1.393203
-470.947266,768.585205,423.614502,1.393951
-476.898193,775.360107,419.586182,1.394691
-478.271484,771.057129,425.720215,1.395431
-483.581543,768.218994,423.065186,1.396170
-470.489502,765.838623,419.586182,1.396926
-484.497070,769.042969,423.614502,1.397668
-481.842041,767.211914,418.487549,1.398407
-477.813721,769.317627,422.424316,1.399147
-481.475830,766.296387,417.022705,1.399903
-475.982666,766.296387,416.839600,1.400643
-485.412598,769.683838,417.388916,1.401382
-488.342285,771.881104,421.325684,1.402121
-485.046387,769.042969,417.938232,1.402873
-475.982666,766.662598,417.755127,1.403614
-478.820801,772.705078,414.459229,1.404353
-480.560303,761.901855,414.825439,1.405092
-477.172852,764.190674,420.318604,1.405842
-480.285645,766.387939,419.128418,1.406582
-489.166260,767.669678,420.593262,1.407321
-482.666016,762.542725,420.410156,1.408061
-487.426758,761.169434,417.297363,1.408812
-488.250732,753.112793,415.649414,1.409551
-481.750488,756.683350,403.106689,1.410290
-482.482910,766.937256,422.149658,1.411029
-482.940674,765.289307,420.318604,1.411779
-478.546143,764.099121,419.128418,1.412518
-489.257812,758.056641,425.262451,1.413257
-483.856201,752.929688,443.023682,1.413996
-487.426758,768.402100,423.431396,1.414745
-493.652344,767.028809,421.875000,1.415485
-494.567871,756.591797,419.036865,1.416238
-492.645264,761.901855,426.910400,1.416977
-487.792969,756.225586,416.381836,1.417726
-486.785889,760.803223,414.550781,1.418466
-486.419678,765.838623,418.487549,1.419205
-490.173340,763.824463,412.445068,1.419944
-489.166260,761.535645,419.769287,1.420692
-481.842041,761.169434,418.945312,1.421511
-490.264893,756.958008,414.642334,1.422252
-492.187500,755.950928,418.212891,1.422991
-483.673096,768.493652,417.022705,1.423740
-488.525391,762.908936,412.994385,1.424479
-485.687256,770.233154,416.473389,1.425219
-488.525391,760.162354,420.318604,1.425958
-481.842041,759.979248,420.501709,1.426706
-485.595703,763.275146,410.156250,1.427446
-481.018066,763.275146,417.205811,1.428186
-488.159180,762.908936,419.586182,1.428925
-492.279053,766.113281,412.994385,1.429697
-485.778809,754.211426,414.184570,1.430471
-486.236572,765.106201,420.227051,1.431229
-486.877441,764.099121,422.424316,1.431993
-481.384277,757.324219,416.107178,1.432661
-483.581543,760.345459,422.149658,1.433405
-484.130859,760.162354,421.142578,1.434144
-485.870361,771.697998,417.846680,1.434884
-487.976074,771.881104,422.241211,1.435634
-485.778809,766.937256,422.058105,1.436374
-481.750488,762.176514,421.234131,1.437113
-485.870361,762.634277,412.170410,1.437852
-482.299805,766.204834,425.262451,1.438601
-479.187012,769.134521,422.882080,1.439341
-484.222412,766.296387,421.508789,1.440080
-484.497070,768.951416,424.713135,1.440819
-478.363037,773.803711,404.754639,1.441567
-485.870361,763.641357,418.304443,1.442307
-490.631104,771.789551,422.607422,1.443057
-481.475830,770.599365,422.241211,1.443820
-485.687256,779.846191,422.241211,1.444607
-485.046387,763.916016,418.579102,1.445361
-482.208252,771.057129,419.219971,1.446106
-486.511230,771.514893,416.290283,1.446845
-486.602783,770.141602,416.656494,1.447603
-480.743408,768.676758,419.036865,1.448343
-480.285645,771.606445,423.339844,1.449086
-482.116699,767.395020,442.932129,1.449836
-474.426270,770.416260,416.015625,1.450628
-479.003906,767.028809,423.614502,1.451384
-486.236572,770.233154,442.932129,1.452176
-483.764648,762.359619,421.142578,1.452920
-482.849121,772.705078,424.346924,1.453679
-473.052979,773.254395,427.917480,1.454419
-479.553223,767.303467,422.149658,1.455158
-471.038818,766.937256,424.804688,1.455908
-476.715088,768.951416,427.093506,1.456683
-481.109619,767.578125,418.487549,1.457429
-477.630615,767.852783,417.388916,1.458178
-480.834961,766.204834,417.938232,1.458923
-480.743408,758.880615,416.381836,1.459687
-479.187012,764.007568,423.797607,1.460426
-490.356445,763.641357,423.706055,1.461166
-490.356445,760.162354,416.473389,1.461915
-482.940674,763.092041,424.896240,1.462655
-484.222412,760.162354,429.565430,1.463395
-475.433350,760.528564,406.585693,1.464134
-479.278564,763.000488,419.403076,1.464873
-479.370117,754.852295,421.691895,1.465624
-476.806641,751.464844,425.811768,1.466363
-477.905273,755.310059,414.550781,1.467102
-478.820801,750.549316,420.684814,1.467840
-486.053467,744.689941,414.367676,1.468589
-481.475830,752.471924,417.022705,1.469329
-479.644775,749.816895,423.248291,1.470068
-482.482910,755.310059,418.029785,1.470807
-481.842041,758.880615,424.255371,1.471555
-477.630615,754.577637,429.565430,1.472294
-480.834961,758.514404,412.719727,1.473033
-476.806641,757.232666,419.952393,1.473772
-480.834961,751.739502,423.980713,1.474528
-482.849121,743.225098,419.769287,1.475268
-475.982666,753.570557,418.487549,1.476007
-480.285645,751.281738,424.072266,1.476746
-480.285645,756.774902,443.847656,1.477492
-475.982666,752.838135,418.670654,1.478232
-470.947266,749.542236,431.762695,1.478971
-479.736328,744.598389,424.713135,1.479710
-473.327637,750.549316,427.093506,1.480459
-468.292236,748.992920,422.424316,1.481198
-482.391357,749.816895,428.283691,1.481937
-477.722168,751.464844,426.452637,1.482677
-468.750000,756.042480,426.910400,1.483425
-481.567383,747.894287,422.149658,1.484164
-482.208252,743.499756,416.839600,1.484903
-476.531982,754.669189,424.438477,1.485643
-482.482910,757.781982,434.692383,1.486391
-474.517822,761.993408,410.705566,1.487130
-480.468750,757.598877,428.283691,1.487870
-474.884033,766.113281,425.537109,1.488609
-475.341797,750.549316,419.677734,1.489357
-481.475830,757.324219,426.635742,1.490097
-482.208252,753.021240,416.839600,1.490836
-479.644775,747.528076,421.325684,1.491575
-484.130859,742.767334,420.776367,1.492417
-478.179932,753.570557,425.903320,1.493157
-481.384277,749.359131,424.896240,1.493896
-480.834961,754.119873,426.361084,1.494645
-474.060059,749.725342,427.276611,1.495385
-475.982666,756.225586,422.149658,1.496125
-476.440430,757.781982,432.403564,1.496864
-469.573975,758.789062,429.840088,1.497607
-473.510742,750.549316,423.797607,1.498352
-474.060059,752.838135,416.931152,1.499091
-470.947266,750.549316,421.417236,1.499830
-471.221924,754.211426,428.649902,1.500570
-471.771240,748.901367,424.987793,1.501319
-472.137451,761.901855,422.424316,1.502058
-472.320557,753.662109,443.206787,1.502797
-475.524902,760.253906,428.009033,1.503537
-472.778320,765.197754,426.269531,1.504285
-476.348877,757.781982,422.332764,1.505025
-469.940186,767.028809,422.515869,1.505764
-474.243164,762.268066,419.219971,1.506503
-472.320557,763.092041,416.473389,1.507249
-469.024658,762.451172,419.769287,1.507986
-464.447021,760.803223,420.867920,1.508722
-471.496582,761.535645,420.318604,1.509484
-468.475342,763.366699,424.072266,1.510226
-470.855713,764.739990,420.318604,1.510966
-468.017578,751.922607,425.170898,1.511707
-471.496582,756.500244,421.234131,1.512456
-476.531982,756.958008,424.713135,1.513197
-475.982666,761.077881,419.677734,1.513938
-472.595215,764.373779,422.149658,1.514687
-477.630615,763.458252,423.980713,1.515435
-476.257324,755.950928,421.325684,1.516187
-476.898193,757.415771,424.530029,1.516933
-482.757568,759.613037,418.945312,1.517673
-475.891113,761.901855,439.727783,1.518416
-472.229004,755.035400,422.515869,1.519158
-477.905273,754.486084,418.579102,1.519900
-475.799561,750.274658,420.227051,1.520655
-474.060059,760.803223,424.713135,1.521422
-477.905273,754.028320,429.748535,1.522172
-472.869873,764.373779,429.016113,1.522914
-482.666016,763.000488,426.177979,1.523654
-475.799561,766.113281,423.522949,1.524395
-475.616455,757.781982,429.016113,1.525136
-476.989746,762.084961,425.811768,1.525876
-477.355957,764.739990,432.495117,1.526617
-481.018066,756.683350,421.966553,1.527358
-474.609375,763.824463,421.051025,1.528099
-475.250244,763.000488,417.938232,1.528840
-474.334717,766.754150,426.910400,1.529583
-479.370117,755.493164,421.417236,1.530341
-475.891113,759.063721,421.966553,1.531083
-478.546143,767.852783,418.029785,1.531824
-475.524902,765.747070,424.163818,1.532564
-475.158691,756.683350,426.910400,1.533306
-470.764160,767.395020,421.234131,1.534046
-478.912354,751.098633,420.867920,1.534787
-476.440430,752.929688,424.438477,1.535527
-478.363037,750.274658,427.917480,1.536279
-476.623535,760.162354,424.438477,1.537020
-477.539062,757.965088,422.149658,1.537761
-479.187012,760.528564,420.959473,1.538502
-472.503662,752.838135,422.149658,1.539252
-475.891113,757.049561,419.219971,1.539992
-475.982666,754.394531,418.762207,1.540733
-472.686768,727.294922,421.600342,1.541473
-483.764648,749.908447,423.980713,1.542223
-487.701416,751.647949,424.163818,1.542964
-488.708496,751.007080,444.671631,1.543705
-486.968994,758.697510,424.346924,1.544445
-485.595703,760.162354,422.058105,1.545187
-481.842041,756.683350,417.938232,1.545931
-477.813721,759.887695,413.177490,1.546677
-476.348877,755.310059,431.488037,1.547418
-481.933594,758.148193,416.656494,1.548159
-481.658936,756.683350,421.051025,1.548900
-480.834961,762.908936,421.966553,1.549641
-484.039307,758.972168,422.058105,1.550382
-474.334717,767.486572,420.593262,1.551124
-481.658936,766.021729,421.325684,1.551865
-481.018066,766.662598,419.677734,1.552605
-480.560303,766.296387,427.642822,1.553345
-483.489990,759.246826,419.952393,1.554086
-472.320557,761.718750,421.966553,1.554826
-482.574463,772.521973,425.994873,1.555567
-479.553223,768.951416,419.952393,1.556307
-483.123779,770.690918,415.832520,1.557064
-479.644775,770.965576,418.212891,1.557808
-483.947754,764.831543,419.036865,1.558549
-486.694336,775.268555,421.875000,1.559289
-488.525391,764.648438,423.431396,1.560030
-477.722168,771.789551,423.065186,1.560770
-478.637695,763.092041,420.410156,1.561511
-475.891113,768.310547,418.945312,1.562251
-480.926514,767.120361,422.058105,1.563004
-490.722656,765.747070,427.459717,1.563828
-480.285645,767.944336,416.381836,1.564568
-476.806641,771.697998,430.755615,1.565309
-484.313965,774.353027,421.417236,1.566049
-488.159180,770.874023,419.952393,1.566789
-483.032227,768.402100,424.438477,1.567530
-481.842041,772.521973,424.896240,1.568271
-479.370117,774.993896,421.325684,1.569011
-484.497070,766.021729,419.219971,1.569752
-484.497070,765.289307,419.036865,1.570492
-483.581543,765.197754,427.917480,1.571233
-483.032227,762.817383,415.466309,1.571986
-484.863281,762.542725,416.473389,1.572730
-479.919434,760.803223,419.586182,1.573483
-475.067139,767.211914,418.029785,1.574226
-486.877441,761.627197,416.381836,1.574967
-482.482910,758.789062,416.748047,1.575707
-476.989746,768.402100,417.663574,1.576448
-481.201172,769.226074,424.346924,1.577188
-488.983154,761.077881,423.614502,1.577928
-484.222412,763.641357,442.749023,1.578669
-474.517822,764.831543,423.339844,1.579410
-478.729248,765.014648,422.607422,1.580150
-477.172852,767.486572,419.403076,1.580890
-480.010986,763.275146,418.670654,1.581632
-485.046387,775.360107,415.466309,1.582372
-476.531982,774.536133,417.480469,1.583113
-479.644775,769.500732,418.304443,1.583870
-486.419678,772.888184,409.240723,1.584613
-479.370117,768.035889,415.466309,1.585354
-480.560303,766.937256,421.875000,1.586101
-486.877441,765.014648,416.748047,1.586846
-485.687256,762.725830,423.522949,1.587584
-479.095459,759.246826,414.001465,1.588315
-477.447510,760.437012,410.797119,1.589045
-477.722168,767.486572,422.149658,1.589781
-482.574463,765.563965,416.107178,1.590528
-482.482910,763.183594,416.564941,1.591280
-487.792969,764.007568,416.290283,1.592027
-472.778320,767.211914,413.726807,1.592776
-473.785400,762.451172,421.966553,1.593520
-479.278564,765.289307,417.205811,1.594260
-481.201172,761.169434,414.184570,1.595001
-476.806641,764.373779,419.860840,1.595743
-476.348877,762.359619,418.029785,1.596485
-476.348877,762.908936,420.410156,1.597225
-481.567383,760.437012,412.261963,1.597965
-477.813721,766.021729,419.586182,1.598725
-481.018066,764.648438,411.712646,1.599467
-486.694336,759.521484,411.621094,1.600208
-479.187012,768.035889,420.867920,1.600957
-486.419678,765.838623,420.227051,1.601714
-482.025146,763.458252,419.311523,1.602477
-474.884033,762.359619,420.043945,1.603238
-477.722168,764.556885,419.952393,1.603997
-485.778809,764.556885,421.417236,1.604773
-478.271484,765.838623,419.586182,1.605526
-479.095459,759.521484,422.973633,1.606269
-477.355957,760.620117,427.276611,1.607009
-472.229004,768.493652,424.163818,1.607750
-476.348877,774.902344,426.727295,1.608504
-479.278564,765.197754,427.001953,1.609244
-474.243164,768.585205,423.614502,1.609985
-479.919434,764.190674,421.600342,1.610726
-475.433350,766.021729,417.938232,1.611466
-480.468750,766.937256,426.635742,1.612207
-478.454590,768.859863,426.361084,1.612948
-474.884033,766.113281,423.156738,1.613689
-479.278564,766.479492,428.466797,1.614430
-480.468750,764.465332,421.142578,1.615170
-480.010986,765.472412,425.262451,1.615910
-481.109619,767.669678,420.867920,1.616650
-482.849121,757.598877,427.093506,1.617391
-481.750488,757.690430,419.219971,1.618132
-477.630615,764.923096,424.346924,1.618873
-476.715088,766.113281,428.375244,1.619625
-481.933594,750.274658,424.713135,1.620369
-479.095459,758.972168,416.564941,1.621109
-482.849121,764.465332,440.734863,1.621850
-484.588623,759.246826,424.713135,1.622600
-487.701416,763.366699,416.656494,1.623340
-486.968994,758.422852,422.790527,1.624081
-480.468750,758.697510,423.797607,1.624822
-482.666016,755.859375,413.452148,1.625572
-484.954834,751.647949,425.537109,1.626314
-487.792969,756.042480,423.156738,1.627055
-475.708008,761.352539,430.847168,1.627795
-479.278564,759.979248,424.438477,1.628545
-479.370117,750.549316,421.234131,1.629287
-470.397949,756.134033,433.502197,1.630029
-478.729248,755.950928,426.269531,1.630769
-486.419678,749.450684,444.396973,1.631519
-479.827881,756.042480,425.537109,1.632260
-476.074219,748.718262,433.227539,1.633001
-477.264404,748.809814,428.558350,1.633741
-471.221924,750.732422,423.980713,1.634572
-475.524902,754.394531,418.395996,1.635314
-481.384277,749.816895,425.628662,1.636055
-478.729248,755.035400,419.036865,1.636795
-473.693848,748.809814,427.276611,1.637542
-476.898193,755.493164,424.713135,1.638283
-472.961426,745.239258,424.255371,1.639024
-471.496582,753.936768,423.431396,1.639765
-467.651367,754.760742,425.903320,1.640505
-466.644287,750.640869,422.973633,1.641246
-474.151611,755.584717,427.368164,1.641986
-472.778320,755.584717,428.009033,1.642727
-471.862793,757.141113,431.304932,1.643468
-476.898193,755.859375,428.924561,1.644209
-465.545654,759.429932,426.727295,1.644950
-475.616455,751.098633,421.417236,1.645690
-454.742432,754.211426,424.438477,1.646445
-468.017578,754.943848,427.825928,1.647187
-465.270996,751.922607,426.361084,1.647929
-471.954346,747.802734,421.234131,1.648672
-462.432861,748.809814,423.248291,1.649425
-458.312988,743.591309,436.889648,1.650166
-460.235596,744.689941,422.241211,1.650907
-466.827393,761.901855,425.720215,1.651648
-468.109131,750.915527,429.473877,1.652397
-467.102051,754.852295,431.121826,1.653139
-468.658447,745.422363,412.811279,1.653879
-464.538574,768.768311,417.663574,1.654620
-460.327148,752.105713,416.198730,1.655369
-459.411621,749.450684,429.382324,1.656111
-455.017090,756.042480,433.959961,1.656853
-461.059570,764.739990,429.199219,1.657594
-462.158203,752.838135,419.128418,1.658344
-456.939697,750.457764,421.966553,1.659091
-466.186523,750.640869,419.219971,1.659841
-462.158203,758.697510,420.593262,1.660588
-461.517334,755.310059,417.388916,1.661329
-468.109131,757.232666,426.635742,1.662070
-462.524414,757.781982,398.895264,1.662810
-465.454102,756.866455,420.867920,1.663551
-472.595215,755.401611,426.635742,1.664292
-463.439941,749.267578,434.600830,1.665037
-463.073730,758.697510,438.629150,1.665789
-468.383789,758.056641,430.847168,1.666536
-452.178955,760.253906,427.093506,1.667282
-458.221436,759.979248,431.213379,1.668023
-463.531494,761.993408,429.382324,1.668763
-460.693359,755.126953,427.001953,1.669504
-465.454102,755.584717,425.537109,1.670245
-465.545654,753.936768,427.185059,1.670987
-464.080811,753.845215,430.664062,1.671728
-466.369629,752.471924,430.023193,1.672469
-467.102051,754.486084,424.255371,1.673235
-468.475342,751.556396,422.424316,1.673990
-461.242676,760.253906,428.375244,1.674731
-461.975098,757.781982,430.572510,1.675472
-465.087891,744.964600,425.445557,1.676213
-466.827393,753.479004,428.924561,1.676954
-470.489502,757.324219,425.262451,1.677694
-465.911865,764.099121,421.966553,1.678435
-469.482422,759.246826,427.551270,1.679175
-469.299316,755.676270,423.522949,1.679916
-473.785400,762.359619,417.846680,1.680656
-473.968506,756.866455,418.579102,1.681397
-469.757080,759.155273,429.748535,1.682138
-471.771240,758.056641,431.030273,1.682879
-469.299316,761.444092,423.522949,1.683620
-464.996338,752.105713,423.431396,1.684360
-471.679688,760.162354,431.854248,1.685111
-471.679688,752.655029,426.361084,1.685853
-479.644775,753.112793,420.867920,1.686593
-469.024658,750.549316,418.487549,1.687333
-475.891113,752.838135,437.347412,1.688083
-473.144531,758.789062,427.642822,1.688824
-478.546143,753.662109,421.325684,1.689564
-473.144531,756.317139,422.698975,1.690305
-469.299316,761.352539,432.128906,1.691054
-469.665527,759.246826,428.924561,1.691796
-479.644775,752.380371,422.698975,1.692536
-479.827881,763.366699,426.818848,1.693277
-475.250244,759.887695,424.530029,1.694033
-475.891113,758.605957,419.586182,1.694775
-472.137451,758.605957,422.241211,1.695516
-475.524902,761.993408,420.227051,1.696256
-476.165771,762.268066,421.417236,1.696999
-474.884033,759.979248,444.030762,1.697739
-476.989746,766.296387,426.177979,1.698480
-478.729248,763.366699,424.987793,1.699220
-483.764648,755.401611,420.959473,1.699973
-478.820801,756.042480,423.889160,1.700714
-473.968506,760.345459,425.537109,1.701455
-476.074219,758.972168,425.811768,1.702196
-483.123779,763.824463,422.607422,1.702948
-480.651855,760.437012,419.128418,1.703689
-482.391357,761.169434,424.072266,1.704430
-477.539062,756.866455,430.480957,1.705251
-486.602783,753.845215,425.811768,1.706004
-481.384277,763.641357,421.508789,1.706745
-477.996826,754.852295,429.748535,1.707486
-478.454590,753.479004,419.311523,1.708227
-480.926514,752.655029,424.072266,1.708979
-479.370117,763.366699,427.093506,1.709720
-483.215332,761.810303,424.804688,1.710461
-478.912354,754.486084,426.544189,1.711202
-480.743408,750.366211,430.664062,1.711952
-477.630615,760.803223,430.664062,1.712693
-482.940674,758.789062,422.607422,1.713434
-487.426758,756.408691,422.332764,1.714174
-485.504150,757.598877,425.628662,1.714924
-484.954834,758.331299,420.684814,1.715665
-482.849121,760.620117,425.628662,1.716406
-481.842041,764.831543,423.522949,1.717146
-483.947754,760.620117,423.431396,1.717896
-479.553223,763.000488,426.177979,1.718637
-476.989746,764.648438,407.043457,1.719377
-490.447998,763.916016,430.572510,1.720118
-484.222412,756.774902,426.635742,1.720868
-489.257812,761.718750,426.910400,1.721609
-491.912842,756.774902,423.339844,1.722350
-489.440918,759.521484,442.474365,1.723090
-487.243652,756.774902,430.389404,1.723844
-487.426758,765.106201,430.206299,1.724585
-491.912842,756.408691,428.100586,1.725326
-485.412598,751.556396,431.396484,1.726067
-489.990234,757.781982,424.346924,1.726818
-496.856689,765.380859,436.614990,1.727562
-497.131348,764.373779,425.903320,1.728308
-490.905762,766.021729,426.361084,1.729059
-493.194580,762.084961,435.516357,1.729833
-486.694336,760.620117,427.001953,1.730575
-495.391846,757.781982,421.051025,1.731315
-490.905762,771.514893,429.748535,1.732054
-486.419678,772.338867,424.255371,1.732804
-491.363525,757.598877,428.009033,1.733544
-486.053467,758.880615,426.177979,1.734292
-486.145020,760.253906,402.923584,1.735039
-477.172852,765.838623,427.642822,1.735807
-480.285645,755.126953,431.579590,1.736553
-485.504150,760.803223,428.558350,1.737292
-487.335205,763.549805,424.438477,1.738032
-488.342285,756.774902,428.924561,1.738783
-477.447510,765.289307,426.269531,1.739523
-482.574463,762.359619,427.368164,1.740262
-487.060547,748.168945,444.854736,1.741001
-482.940674,762.634277,424.804688,1.741750
-482.208252,756.866455,425.628662,1.742491
-475.250244,759.521484,430.847168,1.743232
-485.595703,762.817383,432.312012,1.743971
-486.053467,762.908936,420.867920,1.744726
-480.194092,754.852295,418.762207,1.745468
-483.489990,753.570557,420.227051,1.746208
-476.989746,754.669189,420.867920,1.746948
-474.792480,756.958008,421.234131,1.747701
-476.623535,755.767822,427.459717,1.748441
-475.982666,759.613037,426.818848,1.749180
-482.757568,743.316650,428.283691,1.749919
-478.454590,748.626709,430.389404,1.750668
-474.151611,750.366211,422.973633,1.751407
-477.722168,750.732422,415.374756,1.752146
-475.524902,750.915527,419.494629,1.752885
-483.489990,758.880615,427.459717,1.753633
-481.933594,755.310059,420.776367,1.754373
-479.370117,751.098633,417.572021,1.755112
-473.785400,751.007080,424.804688,1.755852
-471.405029,754.943848,421.966553,1.756604
-475.341797,750.366211,428.009033,1.757343
-467.559814,752.288818,426.544189,1.758083
-470.306396,754.211426,432.037354,1.758822
-479.187012,758.514404,419.952393,1.759571
-479.003906,760.345459,444.122314,1.760314
-476.898193,744.781494,423.339844,1.761054
-479.553223,752.563477,428.649902,1.761793
-476.531982,748.535156,434.509277,1.762545
-473.785400,751.281738,428.283691,1.763285
-478.820801,751.556396,425.811768,1.764025
-473.510742,743.682861,431.488037,1.764764
-473.510742,741.577148,428.192139,1.765512
-479.736328,751.922607,431.579590,1.766252
-477.630615,757.232666,435.699463,1.766991
-475.891113,771.697998,434.875488,1.767730
-483.856201,743.041992,431.945801,1.768482
-474.609375,745.880127,430.938721,1.769222
-475.158691,741.027832,427.185059,1.769961
-480.285645,745.330811,430.847168,1.770700
-484.313965,742.309570,423.889160,1.771453
-476.348877,744.873047,437.255859,1.772194
-474.334717,735.260010,433.044434,1.772933
-476.989746,730.407715,431.854248,1.773672
-483.947754,739.196777,442.108154,1.774421
-486.877441,735.626221,436.614990,1.775160
-485.137939,739.013672,438.720703,1.775984
-482.940674,738.830566,429.016113,1.776725
-481.475830,734.985352,434.417725,1.777477
-484.680176,733.520508,431.579590,1.778216
-487.426758,728.576660,438.171387,1.778955
-490.631104,749.542236,431.121826,1.779695
-488.250732,727.752686,439.910889,1.780443
-486.236572,721.343994,433.502197,1.781183
-481.658936,726.470947,433.044434,1.781925
-496.765137,728.027344,428.558350,1.782665
-499.053955,720.886230,432.312012,1.783420
-492.004395,722.991943,429.565430,1.784161
-489.624023,715.667725,429.748535,1.784900
-486.602783,726.104736,432.495117,1.785639
-488.342285,716.766357,432.952881,1.786391
-491.180420,718.872070,427.551270,1.787130
-497.222900,713.470459,419.952393,1.787869
-494.750977,715.209961,427.917480,1.788609
-492.370605,713.104248,432.403564,1.789355
-491.912842,714.019775,432.769775,1.790094
-489.440918,719.604492,439.453125,1.790834
-488.983154,708.618164,435.424805,1.791573
-486.053467,713.378906,427.551270,1.792321
-487.884521,713.562012,434.143066,1.793061
-483.581543,718.780518,436.431885,1.793800
-483.947754,710.266113,427.734375,1.794539
-488.433838,721.252441,431.396484,1.795288
-484.130859,719.421387,431.854248,1.796027
-483.581543,720.977783,429.565430,1.796767
-479.736328,721.069336,439.361572,1.797506
-490.997314,722.259521,440.185547,1.798259
-484.954834,715.393066,430.847168,1.799005
-495.666504,719.604492,436.157227,1.799754
-487.609863,714.202881,425.445557,1.800499
-482.025146,724.090576,436.614990,1.801267
-487.243652,716.033936,432.495117,1.802012
-488.800049,724.273682,428.283691,1.802766
-489.349365,723.999023,422.515869,1.803522
-487.518311,710.998535,429.016113,1.804315
-483.581543,714.843750,426.635742,1.805073
-483.764648,713.378906,429.656982,1.805824
-487.884521,726.287842,424.255371,1.806582
-497.955322,715.576172,423.156738,1.807360
-490.539551,714.202881,415.924072,1.808102
-485.778809,702.026367,416.473389,1.808840
-482.391357,718.963623,417.480469,1.809579
-487.335205,715.667725,423.339844,1.810347
-480.194092,712.005615,425.354004,1.811096
-487.426758,711.456299,424.072266,1.811843
-479.827881,707.427979,418.212891,1.812586
-482.574463,712.829590,422.973633,1.813347
-482.757568,706.878662,416.107178,1.814089
-482.391357,709.442139,416.015625,1.814828
-486.053467,713.470459,415.832520,1.815567
-491.180420,712.371826,411.346436,1.816316
-485.137939,712.005615,415.557861,1.817054
-484.497070,714.019775,413.085938,1.817793
-486.328125,711.364746,409.240723,1.818531
-488.800049,717.498779,414.367676,1.819279
-480.010986,714.294434,411.254883,1.820018
-479.187012,717.315674,420.410156,1.820756
-479.919434,719.421387,400.726318,1.821495
-473.419189,720.886230,421.417236,1.822242
-478.363037,725.830078,417.388916,1.822981
-478.088379,722.808838,417.388916,1.823720
-473.785400,719.970703,412.994385,1.824458
-473.510742,724.639893,415.374756,1.825206
-471.496582,728.393555,422.241211,1.825945
-474.243164,723.175049,415.283203,1.826683
-479.644775,726.196289,416.381836,1.827422
-479.736328,722.717285,418.670654,1.828170
-478.729248,728.576660,419.677734,1.828910
-482.025146,732.330322,425.903320,1.829648
-481.842041,728.118896,427.276611,1.830387
-490.173340,726.196289,431.579590,1.831134
-490.814209,724.456787,439.819336,1.831873
-486.877441,726.745605,442.840576,1.832612
-491.363525,721.710205,438.537598,1.833350
-497.589111,717.864990,436.981201,1.834096
-494.934082,715.393066,436.523438,1.834835
-494.018555,731.964111,441.375732,1.835574
-488.525391,720.611572,449.981689,1.836312
-499.328613,719.604492,447.692871,1.837060
-493.652344,720.153809,446.868896,1.837798
-485.229492,715.576172,452.087402,1.838537
-492.095947,714.843750,454.650879,1.839276
-486.145020,718.048096,454.284668,1.840023
-479.553223,711.547852,457.672119,1.840762
-485.412598,704.040527,455.474854,1.841500
-479.370117,704.498291,453.186035,1.842239
-492.553711,707.519531,456.024170,1.842987
-494.018555,694.885254,456.024170,1.843726
-488.067627,694.976807,461.425781,1.844464
-498.687744,705.047607,456.024170,1.845203
-504.272461,694.335938,465.637207,1.845951
-500.610352,692.962646,464.538574,1.846690
-507.110596,678.588867,462.341309,1.847511
-507.659912,684.906006,470.581055,1.848250
-503.540039,686.462402,466.186523,1.849001
-494.750977,685.455322,467.285156,1.849740
-496.215820,685.546875,460.601807,1.850478
-491.912842,692.413330,462.524414,1.851217
-492.187500,693.328857,461.883545,1.851971
-493.560791,695.068359,469.299316,1.852712
-492.279053,715.209961,475.341797,1.853451
-465.454102,721.893311,484.405518,1.854190
-495.941162,748.626709,496.582031,1.854940
-507.934570,775.268555,487.609863,1.855680
-486.785889,778.564453,487.335205,1.856419
-519.561768,768.768311,502.624512,1.857158
-505.554199,759.979248,518.554688,1.857908
-505.279541,756.500244,509.033203,1.858648
-465.637207,746.978760,518.920898,1.859387
-466.918945,737.274170,549.957275,1.860126
-475.250244,705.413818,531.097412,1.860875
-460.144043,689.666748,527.160645,1.861615
-463.989258,683.532715,528.533936,1.862353
-473.693848,649.749756,527.343750,1.863092
-469.207764,649.749756,503.631592,1.863842
-473.785400,649.291992,501.434326,1.864585
-449.707031,623.931885,533.386230,1.865324
-494.842529,607.910156,540.893555,1.866063
-451.171875,633.453369,536.041260,1.866813
-427.001953,609.832764,549.041748,1.867553
-446.685791,622.192383,556.549072,1.868297
-393.127441,625.671387,552.429199,1.869042
-384.704590,622.283936,541.900635,1.869812
-391.113281,598.114014,537.872314,1.870562
-364.105225,579.071045,524.780273,1.871301
-372.528076,575.683594,506.744385,1.872040
-386.077881,561.676025,493.011475,1.872795
-390.472412,545.379639,499.237061,1.873535
-407.501221,538.787842,500.518799,1.874286
-395.050049,544.830322,500.610352,1.875032
-390.930176,546.112061,509.033203,1.875799
-416.839600,547.851562,517.730713,1.876544
-414.459229,545.379639,524.139404,1.877284
-421.234131,539.611816,524.597168,1.878023
-422.424316,515.350342,524.688721,1.878783
-416.381836,519.195557,523.864746,1.879521
-395.416260,513.885498,517.272949,1.880257
-375.000000,504.547119,510.681152,1.881010
-355.865479,496.215820,500.610352,1.881759
-356.964111,483.764648,508.941650,1.882499
-330.139160,483.489990,510.589600,1.883240
-353.118896,490.356445,514.343262,1.883981
-358.428955,491.088867,522.949219,1.884733
-354.583740,494.750977,532.653809,1.885474
-371.246338,503.631592,544.921875,1.886215
-367.401123,513.153076,546.936035,1.886955
-367.309570,522.308350,547.485352,1.887706
-366.577148,524.871826,546.569824,1.888447
-353.576660,536.865234,546.020508,1.889188
-313.293457,542.266846,550.781250,1.889931
-286.560059,554.443359,534.667969,1.890686
-243.621826,584.747314,505.737305,1.891430
-179.992676,596.649170,519.012451,1.892173
-186.035156,641.326904,531.372070,1.892913
-112.884521,646.911621,567.169189,1.893668
-230.438232,626.495361,590.972900,1.894410
-219.085693,611.389160,507.659912,1.895151
-227.508545,636.566162,511.322021,1.895891
-330.139160,641.326904,516.906738,1.896641
-261.840820,635.833740,506.469727,1.897382
-290.405273,656.616211,543.731689,1.898122
-279.327393,670.989990,605.895996,1.898863
-241.516113,693.969727,634.918213,1.899614
-265.319824,729.949951,674.926758,1.900355
-246.276855,745.147705,674.468994,1.901095
-187.408447,759.063721,669.433594,1.901836
-216.522217,735.351562,712.554932,1.902585
-211.486816,743.041992,707.519531,1.903326
-213.867188,850.341797,684.356689,1.904067
-175.872803,811.157227,729.400635,1.904808
-317.230225,762.268066,785.614014,1.905557
-437.988281,740.478516,832.122803,1.906298
-432.678223,758.789062,972.839355,1.907039
-65.093994,784.057617,1111.267090,1.907780
-408.874512,853.820801,1182.312012,1.908530
-50.811768,916.809082,1181.213379,1.909271
-90.179443,993.988037,1149.719238,1.910012
-100.524902,1020.721436,1126.007080,1.910753
-74.249268,1009.460449,1103.210449,1.911503
-66.741943,973.388672,993.072510,1.912245
-139.801025,930.175781,966.705322,1.912986
-283.721924,868.743896,901.702881,1.913727
-285.369873,835.510254,844.024658,1.914489
-359.619141,823.150635,830.566406,1.915230
-367.950439,855.834961,832.305908,1.915971
-313.293457,881.469727,861.328125,1.916711
-179.534912,908.843994,877.899170,1.917461
-150.787354,958.923340,942.901611,1.918296
-102.630615,977.783203,982.543945,1.919037
-57.403564,1020.996094,1018.981934,1.919777
-135.040283,994.262695,1087.738037,1.920529
-115.447998,1017.791748,1084.625244,1.921270
37.902832,1012.573242,1067.321777,1.922010
-41.290283,992.065430,1089.019775,1.922751
-260.650635,905.639648,1120.330811,1.923500
-266.784668,913.330078,1055.877686,1.924241
-330.963135,953.430176,927.978516,1.924982
-252.044678,970.184326,899.505615,1.925723
-525.146484,881.835938,891.265869,1.926473
-680.969238,915.527344,875.793457,1.927215
-90.362549,1042.236328,900.970459,1.927956
-141.082764,1031.982422,922.943115,1.928696
-170.837402,1005.615234,929.168701,1.929446
-453.002930,741.027832,927.886963,1.930188
-521.209717,944.000244,869.476318,1.930929
-55.297852,1257.202148,807.952881,1.931669
-265.777588,1048.553467,854.736328,1.932419
-99.243164,1452.667236,796.966553,1.933161
-1186.065674,-9.246826,993.347168,1.933901
-980.987549,64.270020,875.244141,1.934642
729.675293,1901.458740,678.863525,1.935391
-57.769775,-4.577637,1006.072998,1.936132
-1957.489014,-57.312012,972.747803,1.936872
249.298096,2102.874756,712.188721,1.937613
-204.345703,1586.425781,1030.242920,1.938363
-2575.836182,-532.562256,699.096680,1.939104
-603.515625,692.596436,606.719971,1.939844
-68.115234,788.452148,551.239014,1.940590
-368.041992,1113.647461,584.381104,1.941356
-699.645996,1122.985840,653.137207,1.942108
-591.430664,883.941650,677.856445,1.942855
-875.610352,601.409912,710.357666,1.943596
-637.664795,1039.215088,761.901855,1.944356
-557.739258,1353.057861,819.488525,1.945098
-298.278809,2058.197021,863.342285,1.945839
349.731445,2037.963867,869.750977,1.946580
-2056.091309,-347.167969,1058.990479,1.947331
-82.580566,2016.082764,794.586182,1.948075
488.891602,2999.908447,782.958984,1.948828
-779.296875,1416.229248,937.591553,1.949575
-870.849609,1846.984863,1001.403809,1.950323
-192.718506,461.151123,855.651855,1.951065
1118.225098,-3000.000000,1272.399902,1.951806
1449.737549,188.690186,965.698242,1.952547
-286.926270,934.661865,941.894531,1.953288
-762.634277,1466.766357,979.248047,1.954028
320.251465,451.538086,719.146729,1.954769
756.134033,1274.963379,304.412842,1.955511
759.613037,1324.951172,272.460938,1.956253
247.650146,1135.253906,291.046143,1.956994
-1315.246582,-718.048096,320.068359,1.957735
-3000.000000,1420.440674,427.825928,1.958476
-2237.182617,191.802979,587.219238,1.959217
170.928955,-66.558838,450.256348,1.959958
728.668213,1148.345947,467.285156,1.960698
1136.444092,1092.956543,485.046387,1.961440
1159.881592,906.921387,472.320557,1.962181
1051.757812,891.998291,462.066650,1.962922
877.441406,846.221924,486.968994,1.963663
266.052246,756.866455,499.877930,1.964408
-655.792236,334.350586,522.674561,1.965163
-2095.092773,-38.269043,456.573486,1.965903
-539.703369,431.762695,360.076904,1.966644
211.120605,812.347412,332.794189,1.967392
365.753174,717.498779,312.469482,1.968134
-358.612061,377.288818,257.171631,1.968874
-1085.266113,329.132080,215.789795,1.969615
-97.229004,528.167725,183.929443,1.970368
15.106201,183.380127,153.625488,1.971111
-644.897461,887.054443,264.770508,1.971852
172.485352,-81.390381,186.401367,1.972592
337.738037,431.121826,224.395752,1.973338
190.795898,165.893555,186.309814,1.974079
-100.433350,287.475586,151.885986,1.974819
-324.188232,368.408203,172.576904,1.975560
-278.686523,388.824463,171.386719,1.976326
-285.186768,507.110596,190.521240,1.977087
-250.946045,562.774658,191.436768,1.977844
-20.965576,250.762939,120.117188,1.978610
-56.213379,307.067871,9.521484,1.979406
-612.670898,660.644531,29.296875,1.980166
-726.013184,491.180420,-55.755615,1.980925
-573.120117,472.778320,-125.518799,1.981678
-596.191406,560.394287,-141.082764,1.982440
-94.390869,409.423828,-481.018066,1.983207
-195.098877,-8.239746,-1424.285889,1.983966
-1536.621094,1039.855957,-971.557617,1.984717
-567.169189,583.374023,-106.750488,1.985473
-288.116455,493.560791,109.497070,1.986234
-1345.001221,422.973633,21.240234,1.986989
-681.701660,450.073242,-322.082520,1.987745
-986.022949,227.050781,-267.974854,1.988610
-785.064697,446.228027,-237.579346,1.989370
-839.080811,206.726074,-182.739258,1.990115
-831.207275,238.037109,-162.048340,1.990860
-604.339600,328.674316,-141.723633,1.991641
-835.876465,130.828857,-169.006348,1.992400
-916.625977,96.679688,-157.379150,1.993160
-931.823730,265.411377,-173.858643,1.993915
-1042.602539,210.479736,-128.265381,1.994693
-898.223877,176.605225,-84.045410,1.995457
-929.443359,179.077148,-105.651855,1.996207
-868.103027,266.693115,-205.627441,1.996949
-737.091064,280.059814,-199.493408,1.997714
-684.906006,220.458984,-182.098389,1.998458
-665.039062,222.015381,-214.782715,1.999199
-638.305664,259.002686,-214.782715,1.999940
-559.844971,355.041504,-241.790771,2.000693
-554.534912,363.739014,-223.022461,2.001434
-485.504150,408.874512,-222.015381,2.002175
-441.925049,445.404053,-267.425537,2.002916
-543.182373,422.882080,-254.974365,2.003667
-416.839600,494.934082,-163.055420,2.004408
-351.104736,513.336182,-163.970947,2.005149
-434.692383,541.992188,-142.089844,2.005890
-415.924072,594.818115,-64.636230,2.006638
-388.275146,592.346191,-24.627686,2.007379
-380.767822,543.457031,40.191650,2.008119
-340.209961,486.602783,248.016357,2.008859
-221.923828,430.664062,298.004150,2.009609
-329.406738,460.968018,319.702148,2.010351
-366.485596,530.364990,303.222656,2.011091
-489.532471,694.061279,300.201416,2.011841
-546.936035,843.750000,318.695068,2.012611
-574.493408,801.177979,337.554932,2.013362
-431.304932,702.941895,413.818359,2.014105
-339.660645,659.362793,449.798584,2.014845
-184.295654,589.874268,424.163818,2.015600
-204.071045,531.646729,433.227539,2.016342
-188.598633,532.745361,457.214355,2.017093
-148.956299,531.097412,417.755127,2.017841
-154.998779,574.493408,367.401123,2.018610
-155.364990,571.105957,436.981201,2.019357
-75.439453,597.381592,520.477295,2.020098
-48.706055,521.301270,501.617432,2.020838
-134.674072,526.153564,565.795898,2.021590
-225.219727,486.511230,616.607666,2.022332
-229.339600,477.813721,566.253662,2.023081
-164.794922,480.560303,577.056885,2.023830
-183.471680,497.222900,594.726562,2.024584
-135.040283,511.322021,576.416016,2.025326
-144.836426,477.722168,610.382080,2.026068
159.027100,54.840088,419.403076,2.026809
1694.824219,663.482666,670.532227,2.027562
-1124.267578,527.984619,1113.281250,2.028304
-1227.447510,521.484375,1130.676270,2.029045
199.768066,495.574951,1074.096680,2.029785
511.962891,671.356201,1144.500732,2.030539
111.053467,718.414307,1149.261475,2.031280
-288.757324,633.911133,1169.494629,2.032021
-382.781982,618.621826,1174.896240,2.032762
-80.932617,700.286865,1158.325195,2.033509
-212.402344,898.864746,1100.463867,2.034250
105.010986,767.120361,1043.243408,2.034991
71.136475,696.716309,1084.899902,2.035731
13.916016,650.848389,1122.070312,2.036481
65.551758,591.613770,1107.238770,2.037222
176.330566,621.276855,1035.919189,2.037963
228.149414,623.016357,1008.178711,2.038704
295.898438,614.685059,1039.947510,2.039454
302.307129,613.403320,1064.025879,2.040195
351.562500,602.874756,1059.814453,2.040936
354.217529,604.888916,1052.032471,2.041677
342.224121,605.529785,1059.814453,2.042430
303.680420,625.030518,1062.286377,2.043172
133.209229,579.071045,1013.946533,2.043913
-139.526367,575.866699,1004.608154,2.044653
504.821777,640.869141,968.444824,2.045402
564.239502,667.694092,990.600586,2.046143
15.655518,655.883789,1005.432129,2.046884
237.304688,653.137207,1024.108887,2.047625
462.066650,658.172607,987.487793,2.048374
266.876221,634.368896,1005.340576,2.049114
85.052490,619.628906,1018.798828,2.049855
334.167480,642.059326,1022.186279,2.050603
401.641846,687.927246,990.692139,2.051358
221.466064,689.575195,966.888428,2.052100
256.439209,697.357178,958.282471,2.052841
376.647949,714.019775,939.605713,2.053581
326.660156,699.096680,922.943115,2.054332
202.331543,653.869629,910.766602,2.055073
308.074951,685.363770,911.499023,2.055814
354.949951,666.229248,900.329590,2.056554
255.706787,640.777588,881.469727,2.057306
261.383057,646.270752,852.722168,2.058047
346.160889,673.736572,856.750488,2.058787
311.920166,687.744141,843.841553,2.059527
380.859375,727.386475,623.840332,2.060357
150.146484,769.866943,577.056885,2.061099
-112.518311,726.104736,613.403320,2.061840
390.380859,716.400146,591.522217,2.062580
-21.881104,683.715820,568.084717,2.063331
-94.573975,710.632324,528.076172,2.064071
198.944092,748.992920,549.499512,2.064812
129.455566,716.033936,613.128662,2.065552
-39.184570,731.048584,604.339600,2.066301
0.091553,767.852783,666.961670,2.067050
-55.480957,756.134033,702.575684,2.067791
-108.947754,736.816406,709.991455,2.068532
-107.574463,741.210938,741.302490,2.069282
-97.686768,739.105225,705.596924,2.070023
-136.230469,744.232178,724.914551,2.070763
-140.808105,762.542725,723.541260,2.071504
-107.574463,771.789551,728.302002,2.072255
-147.308350,773.712158,751.281738,2.072996
-142.547607,776.916504,759.429932,2.073737
-137.603760,784.790039,771.240234,2.074477
-137.512207,798.797607,788.543701,2.075227
-149.139404,794.219971,791.198730,2.075968
-156.738281,800.537109,800.445557,2.076708
-165.893555,788.543701,816.284180,2.077449
-155.364990,803.833008,815.917969,2.078198
-181.915283,814.086914,821.319580,2.078939
-179.168701,806.213379,824.890137,2.079679
