ACC_X,ACC_Y,ACC_Z,Time
-510.681152,589.416504,670.532227,0.000283
-515.533447,583.740234,667.053223,0.001970
-520.843506,579.986572,665.588379,0.003688
-518.463135,577.423096,663.665771,0.005357
-510.681152,577.606201,663.208008,0.007042
-516.265869,577.880859,663.116455,0.008710
-511.047363,566.070557,667.144775,0.010403
-506.927490,569.091797,660.644531,0.012071
-511.138916,566.436768,657.257080,0.013739
-512.969971,562.316895,658.630371,0.015407
-503.082275,562.866211,656.890869,0.017075
-505.828857,563.690186,654.418945,0.018663
-510.589600,558.288574,658.996582,0.020309
-504.638672,560.211182,654.876709,0.022001
-499.237061,561.035156,633.544922,0.023666
-500.152588,561.309814,664.947510,0.025349
-498.779297,564.147949,656.341553,0.027012
-496.856689,554.351807,652.221680,0.028698
-499.053955,558.471680,661.010742,0.030362
-514.343262,552.520752,655.609131,0.032025
-487.243652,550.598145,655.792236,0.033713
-472.229004,557.189941,658.813477,0.035378
-489.898682,549.133301,654.418945,0.037060
-493.103027,547.576904,648.651123,0.038675
-496.307373,549.682617,653.594971,0.039914
-472.045898,542.358398,652.954102,0.041129
-491.271973,551.513672,650.024414,0.042348
-491.912842,544.097900,647.277832,0.043560
-478.271484,548.950195,655.792236,0.044770
-480.102539,548.217773,646.270752,0.045997
-481.842041,544.097900,640.594482,0.047207
-482.299805,549.865723,650.299072,0.048416
-481.018066,545.928955,647.735596,0.049626
-478.637695,546.386719,646.453857,0.050836
-481.018066,547.119141,634.277344,0.052064
-490.722656,547.485352,650.848389,0.053274
-470.489502,547.943115,657.806396,0.054484
-479.919434,550.140381,654.144287,0.055694
-476.074219,550.231934,651.397705,0.056902
-482.482910,547.119141,646.270752,0.058131
-480.194092,545.928955,654.693604,0.059341
-483.215332,550.415039,648.834229,0.060567
-476.074219,556.640625,648.468018,0.061784
-478.546143,550.140381,659.454346,0.062994
-479.003906,553.436279,653.503418,0.064220
-472.412109,553.527832,651.397705,0.065429
-485.229492,546.661377,649.475098,0.066639
-481.018066,556.823730,655.792236,0.067848
-481.384277,551.605225,651.855469,0.069058
-482.666016,550.689697,657.073975,0.070283
-479.736328,552.154541,659.088135,0.071493
-485.046387,557.006836,656.707764,0.072704
-480.926514,557.830811,651.123047,0.073914
-486.511230,558.288574,665.954590,0.075123
-482.940674,555.084229,652.313232,0.076351
-511.230469,550.506592,655.700684,0.077560
-486.602783,554.626465,658.721924,0.078770
-492.645264,554.901123,659.179688,0.079980
-495.941162,555.908203,661.193848,0.081195
-494.567871,560.577393,635.101318,0.082464
-492.828369,559.204102,656.707764,0.083696
-493.835449,559.387207,655.883789,0.084942
-502.441406,556.365967,661.010742,0.086153
-497.314453,553.802490,652.313232,0.087362
-496.124268,554.626465,653.778076,0.088587
-503.906250,563.049316,659.271240,0.089796
-508.758545,556.091309,655.792236,0.091020
-508.392334,551.239014,679.321289,0.092230
-506.011963,556.365967,658.355713,0.093439
-506.835938,553.710938,653.228760,0.094663
-506.835938,546.752930,659.271240,0.095874
-508.026123,556.732178,651.855469,0.097106
-510.406494,552.337646,650.573730,0.098316
-511.413574,549.499512,658.905029,0.099526
-507.202148,552.703857,651.123047,0.100736
-509.307861,548.309326,652.862549,0.101947
-506.286621,553.344727,655.883789,0.103173
-508.850098,552.520752,672.637939,0.104384
-536.041260,548.126221,661.193848,0.105593
-513.793945,548.217773,650.573730,0.106803
-519.653320,548.858643,661.468506,0.108012
-510.131836,549.865723,657.073975,0.109239
-515.350342,547.668457,656.799316,0.110448
-511.505127,548.950195,659.271240,0.111679
-514.251709,553.161621,654.876709,0.112887
-514.709473,548.400879,648.193359,0.114098
-513.336182,550.598145,657.989502,0.115035
-516.998291,548.126221,654.052734,0.115774
-522.857666,539.245605,658.813477,0.116513
-515.533447,545.837402,657.714844,0.117252
-534.118652,549.041748,656.524658,0.118001
-515.258789,545.379639,647.644043,0.118741
-521.392822,544.464111,648.101807,0.119480
-515.441895,555.267334,652.862549,0.120219
-514.892578,554.168701,647.735596,0.120968
-509.307861,548.217773,651.947021,0.121815
-518.554688,551.879883,662.017822,0.122554
-515.258789,548.950195,654.052734,0.123294
-505.737305,550.140381,660.644531,0.123922
-508.209229,552.795410,658.996582,0.124664
-508.850098,550.506592,660.278320,0.125403
-513.885498,554.534912,653.503418,0.126142
-512.603760,544.189453,652.679443,0.126894
-513.793945,550.598145,658.264160,0.127633
-512.878418,549.316406,648.742676,0.128372
-505.096436,555.267334,651.397705,0.129111
-508.666992,558.563232,650.482178,0.129859
-504.180908,554.626465,652.587891,0.130599
-508.300781,549.957275,651.672363,0.131338
-507.019043,553.344727,657.623291,0.132077
-507.202148,554.534912,661.193848,0.132825
-512.512207,552.703857,655.059814,0.133564
-514.617920,554.901123,652.404785,0.134304
-518.280029,551.879883,651.855469,0.135043
-511.596680,553.894043,659.088135,0.135792
-506.195068,551.513672,652.679443,0.136532
-512.512207,550.506592,657.623291,0.137271
-502.990723,552.337646,653.594971,0.138009
-508.026123,552.520752,653.228760,0.138757
-506.469727,554.077148,659.545898,0.139497
-506.103516,561.950684,655.059814,0.140236
-509.124756,562.133789,663.299561,0.140975
-504.913330,561.767578,657.073975,0.141723
-505.187988,559.753418,650.756836,0.142462
-507.202148,554.260254,658.538818,0.143201
-502.075195,556.823730,663.848877,0.143940
-501.617432,560.668945,668.518066,0.144688
-508.026123,562.591553,658.538818,0.145427
-499.969482,559.295654,657.073975,0.146166
-500.427246,564.514160,654.144287,0.146905
-499.145508,544.189453,663.024902,0.147653
-498.046875,556.549072,663.757324,0.148392
-506.011963,555.084229,648.010254,0.149131
-503.448486,554.168701,656.433105,0.149870
-508.758545,564.788818,653.320312,0.150618
-506.286621,558.013916,665.405273,0.151371
-503.814697,559.844971,664.398193,0.152115
-511.413574,554.260254,657.714844,0.152855
-510.498047,557.922363,656.158447,0.153614
-504.821777,566.070557,658.447266,0.154354
-503.723145,559.204102,658.081055,0.155093
-505.004883,557.830811,650.848389,0.155832
-496.765137,564.697266,662.384033,0.156579
-505.004883,552.886963,657.623291,0.157316
-508.392334,562.500000,662.567139,0.158055
-511.779785,559.387207,652.313232,0.158812
-509.307861,559.936523,654.876709,0.159572
-504.089355,558.837891,656.982422,0.160312
-506.378174,558.837891,654.876709,0.161051
-505.279541,562.866211,676.208496,0.161790
-505.462646,555.908203,655.517578,0.162539
-511.230469,561.218262,656.341553,0.163278
-511.688232,559.661865,661.102295,0.164017
-508.666992,556.732178,658.172607,0.164755
-507.202148,557.189941,656.616211,0.165503
-506.378174,559.478760,648.925781,0.166242
-505.828857,557.098389,652.862549,0.166980
-507.568359,558.929443,667.694092,0.167719
-505.920410,554.260254,658.355713,0.168467
-511.871338,555.816650,659.454346,0.169255
-506.195068,554.901123,635.559082,0.170029
-508.666992,559.570312,659.729004,0.170786
-503.723145,556.365967,656.433105,0.171528
-505.462646,555.725098,661.560059,0.172268
-507.568359,585.113525,656.982422,0.173037
-512.512207,561.035156,660.644531,0.173832
-510.955811,557.464600,655.242920,0.174643
-508.392334,559.661865,660.278320,0.175393
-506.469727,553.344727,655.517578,0.176134
-513.793945,555.816650,653.045654,0.176874
-509.399414,555.633545,639.495850,0.177626
-510.498047,559.204102,661.468506,0.178366
-516.082764,555.633545,658.905029,0.179107
-522.308350,552.795410,663.574219,0.179847
-517.089844,559.112549,660.461426,0.180599
-520.935059,556.732178,676.940918,0.181340
-520.843506,554.168701,658.264160,0.182080
-514.526367,552.978516,664.398193,0.182821
-513.610840,548.309326,653.411865,0.183571
-513.244629,554.809570,652.862549,0.184312
-507.659912,546.020508,647.369385,0.185053
-513.793945,555.084229,656.799316,0.185794
-517.730713,550.964355,663.940430,0.186547
-516.815186,552.154541,656.066895,0.187288
-513.244629,548.309326,660.186768,0.188029
-504.821777,550.781250,661.376953,0.188769
-511.322021,555.541992,664.306641,0.189517
-524.963379,548.126221,656.066895,0.190257
-520.477295,550.048828,634.826660,0.190998
-517.089844,544.921875,654.235840,0.191739
-517.181396,551.055908,655.975342,0.192589
-524.871826,546.478271,655.334473,0.193334
-519.561768,544.921875,654.785156,0.194074
-511.047363,548.950195,654.052734,0.194815
-512.145996,542.083740,653.228760,0.195565
-510.314941,545.379639,651.489258,0.196306
-518.646240,545.196533,657.989502,0.197046
-510.040283,544.189453,660.186768,0.197786
-514.160156,541.900635,662.750244,0.198536
-538.513184,550.598145,657.257080,0.199276
-517.730713,550.048828,655.883789,0.200017
-519.012451,550.048828,663.665771,0.200757
-516.174316,550.781250,654.418945,0.201497
-515.991211,542.816162,654.602051,0.202228
-517.547607,557.098389,654.144287,0.202959
-519.744873,550.048828,658.721924,0.203690
-522.583008,555.358887,659.729004,0.204481
-519.744873,547.027588,665.405273,0.205226
-513.519287,548.767090,661.285400,0.205975
-511.962891,557.189941,653.228760,0.206723
-508.392334,555.358887,649.108887,0.207498
-504.638672,550.964355,654.693604,0.208241
-512.878418,553.985596,659.179688,0.208981
-511.962891,547.393799,657.989502,0.209720
-508.300781,563.873291,656.524658,0.210475
-510.864258,547.393799,651.947021,0.211216
-517.181396,546.020508,654.602051,0.212003
-512.786865,553.985596,656.341553,0.212810
-508.666992,551.055908,659.454346,0.213565
-507.934570,546.936035,661.193848,0.214305
-511.047363,556.091309,635.375977,0.215045
-506.195068,546.752930,653.503418,0.215802
-510.040283,554.626465,658.996582,0.216541
-513.793945,554.443359,657.623291,0.217279
-506.469727,558.563232,655.059814,0.218019
-510.498047,551.605225,645.355225,0.218768
-502.258301,551.971436,656.250000,0.219547
-500.335693,542.175293,654.510498,0.220298
-496.765137,553.253174,654.327393,0.221045
-499.053955,546.478271,656.890869,0.221812
-497.497559,546.844482,658.447266,0.222553
-499.877930,545.745850,650.848389,0.223292
-490.447998,546.203613,662.475586,0.224032
-496.215820,551.788330,646.820068,0.224781
-497.406006,555.175781,650.848389,0.225520
-496.582031,544.372559,654.418945,0.226259
-497.589111,544.921875,654.052734,0.226998
-498.321533,539.337158,656.616211,0.227745
-490.722656,553.802490,652.221680,0.228501
-491.638184,545.837402,655.883789,0.229248
-499.053955,553.527832,657.623291,0.229989
-492.187500,550.048828,659.088135,0.230743
-493.743896,546.478271,655.792236,0.231485
-489.624023,547.119141,652.313232,0.232225
-495.391846,545.654297,674.102783,0.232965
-490.173340,548.126221,656.433105,0.233715
-497.589111,551.696777,653.320312,0.234455
-489.532471,552.520752,648.925781,0.235196
-494.018555,553.070068,658.081055,0.235936
-492.919922,543.457031,655.426025,0.236686
-486.236572,551.879883,661.743164,0.237426
-487.976074,547.393799,659.912109,0.238168
-486.145020,543.273926,659.088135,0.238910
-489.807129,544.738770,656.799316,0.239664
-482.208252,541.168213,655.517578,0.240405
-484.954834,541.900635,654.418945,0.241146
-493.560791,544.097900,655.151367,0.241887
-491.088867,541.534424,660.003662,0.242641
-485.961914,546.569824,660.644531,0.243382
-488.250732,544.464111,660.919189,0.244123
-494.934082,542.999268,664.031982,0.244863
-492.004395,542.266846,662.292480,0.245614
-492.187500,560.577393,655.242920,0.246355
-481.842041,543.548584,656.433105,0.247108
-483.856201,547.210693,660.644531,0.247850
-484.130859,546.752930,656.799316,0.248603
-475.616455,542.999268,661.560059,0.249345
-482.025146,544.738770,661.193848,0.250085
-485.870361,549.407959,663.848877,0.250826
-481.658936,545.928955,655.883789,0.251577
-490.173340,543.823242,656.524658,0.252319
-482.757568,555.816650,662.750244,0.253059
-474.243164,549.224854,655.151367,0.253800
-479.461670,545.837402,658.264160,0.254551
-476.531982,538.879395,654.418945,0.255292
-487.426758,561.767578,653.961182,0.256032
-488.159180,541.442871,659.271240,0.256773
-486.328125,546.936035,662.017822,0.257525
-482.849121,549.682617,661.926270,0.258266
-483.489990,542.175293,664.489746,0.259007
-482.116699,544.647217,663.482666,0.259752
-482.025146,538.513184,663.024902,0.260522
-486.602783,548.034668,668.060303,0.261276
-486.236572,542.358398,666.961670,0.262023
-482.208252,542.907715,661.010742,0.262764
-485.412598,541.259766,658.081055,0.263529
-485.046387,545.196533,663.757324,0.264368
-484.039307,546.661377,656.250000,0.265107
-485.778809,540.618896,660.095215,0.265864
-486.511230,538.696289,663.574219,0.266604
-484.222412,542.633057,634.918213,0.267344
-486.328125,549.316406,659.271240,0.268085
-483.947754,543.823242,656.433105,0.268836
-495.941162,540.893555,659.820557,0.269576
-489.440918,536.499023,661.926270,0.270316
-491.821289,538.604736,658.721924,0.271055
-478.454590,546.661377,657.897949,0.271805
-477.355957,537.689209,662.933350,0.272544
-492.279053,535.583496,657.623291,0.273292
-489.074707,540.618896,660.644531,0.274044
-487.792969,540.618896,655.883789,0.274786
-482.574463,539.245605,662.658691,0.275526
-485.137939,537.689209,658.630371,0.276265
-489.807129,543.731689,635.284424,0.277004
-485.687256,541.442871,653.228760,0.277761
-489.532471,547.668457,653.869629,0.278502
-490.997314,535.583496,654.876709,0.279243
-489.166260,544.921875,662.567139,0.280042
-494.750977,541.534424,663.574219,0.280838
-492.187500,541.625977,656.341553,0.281586
-489.074707,539.428711,651.031494,0.282326
-489.074707,548.126221,658.905029,0.283066
-492.462158,534.759521,662.475586,0.283845
-472.961426,543.090820,654.968262,0.284628
-487.518311,550.689697,654.418945,0.285379
-488.983154,540.344238,657.073975,0.286141
-488.342285,546.844482,660.644531,0.286881
-493.560791,549.499512,657.073975,0.287620
-498.229980,542.541504,653.045654,0.288360
-492.828369,542.083740,654.693604,0.289110
-503.723145,544.281006,663.391113,0.289849
-496.765137,546.936035,652.954102,0.290588
-489.990234,540.252686,651.031494,0.291327
-491.546631,547.668457,657.897949,0.292076
-493.743896,542.907715,651.947021,0.292816
-499.969482,545.471191,649.108887,0.293555
-505.554199,545.745850,652.221680,0.294295
-498.504639,550.231934,653.594971,0.295088
-494.018555,554.168701,659.820557,0.295844
-499.053955,544.189453,661.102295,0.296616
-500.610352,547.576904,660.552979,0.297365
-500.518799,558.288574,661.376953,0.298127
-500.518799,552.062988,654.602051,0.298865
-505.371094,546.386719,649.383545,0.299602
-504.821777,560.577393,657.806396,0.300360
-509.490967,555.541992,657.897949,0.301118
-512.512207,552.246094,658.264160,0.301860
-502.624512,563.415527,650.756836,0.302601
-504.455566,560.119629,661.926270,0.303342
-502.624512,558.929443,657.348633,0.304093
-501.983643,557.281494,669.342041,0.304834
-514.801025,561.401367,660.278320,0.305574
-507.934570,558.288574,659.545898,0.306315
-500.885010,560.394287,656.890869,0.307065
-511.322021,557.281494,659.088135,0.307806
-511.871338,559.204102,654.510498,0.308547
-503.997803,558.471680,679.046631,0.309291
-508.758545,557.739258,656.524658,0.310046
-507.568359,557.464600,659.454346,0.310788
-506.469727,562.133789,661.743164,0.311529
-506.103516,570.098877,661.651611,0.312270
-503.631592,565.521240,656.707764,0.313020
-508.026123,564.422607,663.482666,0.313761
-506.195068,563.140869,658.630371,0.314501
-509.765625,563.232422,663.116455,0.315242
-508.117676,564.422607,664.031982,0.315992
-508.392334,567.077637,665.222168,0.316733
-512.054443,566.253662,662.750244,0.317473
-505.737305,562.957764,666.778564,0.318214
-507.843018,564.605713,670.440674,0.318964
-503.906250,564.147949,665.954590,0.319705
-505.004883,576.599121,659.179688,0.320446
-505.371094,564.239502,657.989502,0.321186
-508.850098,567.077637,663.482666,0.321936
-508.575439,572.113037,658.813477,0.322678
-511.230469,562.408447,661.651611,0.323418
-508.209229,568.817139,665.588379,0.324159
-508.209229,562.774658,669.891357,0.324909
-508.941650,565.429688,665.130615,0.325650
-505.737305,565.429688,666.229248,0.326390
-503.631592,559.753418,663.574219,0.327131
-511.688232,561.218262,663.848877,0.327880
-511.230469,554.901123,655.517578,0.328621
-507.019043,557.647705,658.630371,0.329362
-503.997803,560.302734,656.524658,0.330103
-504.364014,558.471680,661.102295,0.330852
-502.807617,551.879883,659.545898,0.331593
-502.532959,549.133301,675.476074,0.332334
-509.399414,554.351807,664.306641,0.333075
-509.948730,553.070068,659.179688,0.333825
-501.892090,550.048828,657.165527,0.334566
-507.476807,554.443359,638.763428,0.335404
-507.110596,556.365967,654.968262,0.336156
-505.187988,544.464111,659.179688,0.336896
-508.941650,555.633545,662.841797,0.337635
-511.505127,552.886963,657.806396,0.338375
-508.666992,548.492432,660.278320,0.339124
-513.610840,549.041748,657.714844,0.339865
-512.420654,551.055908,660.736084,0.340619
-507.476807,555.633545,658.355713,0.341417
-505.828857,555.725098,663.116455,0.342174
-501.159668,554.718018,659.545898,0.342936
-508.117676,557.098389,662.384033,0.343693
-498.596191,553.619385,662.292480,0.344455
-499.328613,556.732178,661.102295,0.345224
-504.272461,555.267334,659.820557,0.345981
-502.258301,548.309326,665.679932,0.346740
-504.180908,552.886963,663.940430,0.347501
-502.716064,555.999756,659.545898,0.348282
-508.209229,555.816650,665.954590,0.349046
-506.469727,559.020996,666.320801,0.349806
-506.378174,560.943604,663.848877,0.350566
-502.258301,556.640625,669.342041,0.351350
-509.582520,549.316406,659.637451,0.352109
-505.920410,551.239014,663.940430,0.352872
-505.187988,551.605225,663.391113,0.353623
-499.511719,554.260254,665.405273,0.354389
-504.730225,555.633545,661.468506,0.355131
-506.195068,552.795410,665.405273,0.355870
-502.899170,551.696777,659.454346,0.356618
-501.983643,556.640625,658.721924,0.357384
-506.744385,555.541992,663.391113,0.358133
-502.166748,553.161621,665.130615,0.358877
-493.927002,552.429199,654.510498,0.359616
-499.603271,552.612305,658.630371,0.360371
-502.075195,554.168701,652.954102,0.361112
-504.364014,551.239014,663.024902,0.361852
-502.441406,553.894043,661.651611,0.362592
-506.011963,555.725098,660.644531,0.363343
-500.244141,546.203613,660.644531,0.364082
-502.441406,549.865723,661.102295,0.364822
-498.962402,548.492432,655.426025,0.365562
-503.265381,543.731689,654.876709,0.366394
-499.511719,549.224854,660.461426,0.367151
-504.089355,543.457031,657.073975,0.367913
-500.518799,546.752930,653.228760,0.368660
-503.631592,549.407959,649.108887,0.369425
-501.892090,546.020508,657.989502,0.370165
-499.053955,548.400879,662.109375,0.370904
-506.195068,552.154541,662.109375,0.371643
-502.899170,557.922363,655.609131,0.372410
-506.286621,550.415039,656.158447,0.373154
-505.737305,554.443359,662.750244,0.373895
-508.758545,548.034668,666.961670,0.374635
-502.716064,556.823730,660.186768,0.375389
-501.525879,556.640625,658.172607,0.376130
-505.371094,552.703857,655.975342,0.376870
-504.730225,546.478271,656.250000,0.377611
-500.976562,557.556152,663.574219,0.378362
-499.237061,552.062988,665.954590,0.379103
-498.962402,550.872803,664.581299,0.379844
-499.877930,553.436279,655.700684,0.380584
-507.385254,550.140381,665.954590,0.381337
-510.406494,558.471680,665.863037,0.382079
-512.420654,555.175781,664.306641,0.382819
-506.469727,558.288574,663.391113,0.383560
-505.462646,552.154541,662.200928,0.384312
-499.145508,554.809570,660.278320,0.385053
-506.469727,554.351807,659.912109,0.385794
-506.286621,550.872803,658.630371,0.386535
-502.807617,555.267334,656.982422,0.387285
-494.476318,549.407959,657.440186,0.388027
-496.856689,554.351807,660.736084,0.388768
-500.061035,556.549072,654.785156,0.389508
-499.877930,552.978516,661.010742,0.390259
-498.413086,556.091309,654.602051,0.391000
-496.398926,551.788330,658.721924,0.391741
-504.821777,549.682617,655.792236,0.392482
-499.694824,557.647705,659.729004,0.393231
-497.955322,551.696777,654.052734,0.393972
-501.434326,549.774170,652.313232,0.394715
-497.314453,547.760010,668.243408,0.395456
-500.061035,546.295166,659.820557,0.396208
-502.258301,551.696777,661.468506,0.396949
-499.145508,555.358887,655.517578,0.397690
-498.138428,549.407959,648.468018,0.398430
-501.068115,553.894043,651.672363,0.399181
-504.455566,547.393799,656.341553,0.399922
-502.899170,546.295166,653.869629,0.400663
-498.962402,552.154541,659.912109,0.401403
-498.321533,553.253174,668.243408,0.402155
-502.624512,552.886963,662.292480,0.402896
-498.138428,551.513672,664.123535,0.403637
-501.617432,549.133301,661.468506,0.404377
-494.293213,558.197021,667.144775,0.405128
-497.497559,553.253174,659.088135,0.405869
-495.025635,555.908203,662.750244,0.406703
-499.969482,555.541992,661.102295,0.407444
-504.913330,552.337646,657.714844,0.408184
-500.976562,554.351807,663.024902,0.408923
-501.800537,553.161621,665.588379,0.409662
-506.744385,553.802490,665.405273,0.410402
-507.568359,548.126221,663.208008,0.411141
-502.990723,554.992676,669.342041,0.411881
-504.180908,541.442871,675.384521,0.412621
-515.899658,555.541992,664.306641,0.413394
-501.342773,549.224854,659.454346,0.414134
-502.166748,542.999268,661.102295,0.414874
-499.053955,544.097900,674.652100,0.415613
-502.166748,550.506592,657.165527,0.416353
-497.131348,556.457520,661.651611,0.417092
-495.300293,548.126221,663.848877,0.417832
-491.638184,548.217773,662.841797,0.418572
-499.786377,544.189453,652.679443,0.419322
-502.441406,553.619385,655.883789,0.420062
-498.046875,549.774170,653.320312,0.420802
-503.540039,543.914795,656.524658,0.421541
-501.800537,542.083740,655.334473,0.422282
-502.716064,538.787842,656.158447,0.423022
-494.750977,542.724609,652.862549,0.423761
-498.046875,542.907715,654.785156,0.424500
-501.434326,542.907715,649.658203,0.425240
-498.138428,518.737793,651.123047,0.425979
-497.039795,534.576416,652.130127,0.426718
-496.490479,538.604736,649.200439,0.427458
-500.976562,534.942627,644.531250,0.428202
-498.962402,538.787842,648.834229,0.428953
-490.905762,532.470703,659.179688,0.429703
-494.842529,536.315918,661.834717,0.430450
-498.229980,542.083740,657.714844,0.431190
-494.018555,542.083740,650.848389,0.431929
-493.194580,540.069580,647.918701,0.432669
-498.229980,534.759521,656.707764,0.433409
-499.237061,540.252686,660.003662,0.434151
-500.244141,536.499023,652.679443,0.434892
-494.293213,542.083740,661.010742,0.435673
-499.420166,534.393311,648.651123,0.436423
-493.286133,546.844482,660.095215,0.437173
-490.539551,543.640137,652.221680,0.437919
-492.370605,538.879395,656.524658,0.438661
-500.518799,538.970947,656.799316,0.439400
-497.680664,543.640137,655.334473,0.440139
-495.025635,540.435791,655.883789,0.440878
-497.406006,538.787842,654.235840,0.441618
-506.103516,532.562256,657.440186,0.442357
-497.680664,544.738770,654.693604,0.443095
-497.131348,541.809082,656.158447,0.443854
-497.589111,543.273926,654.235840,0.444601
-498.870850,539.794922,651.214600,0.445341
-499.328613,537.139893,660.736084,0.446082
-496.124268,534.851074,658.081055,0.446823
-493.286133,540.985107,662.933350,0.447564
-502.258301,539.611816,659.912109,0.448305
-504.364014,544.647217,655.609131,0.449046
-495.758057,547.027588,660.186768,0.449786
-496.398926,543.182373,656.982422,0.450527
-490.356445,545.379639,657.623291,0.451268
-492.370605,553.894043,661.285400,0.452022
-493.560791,544.555664,654.235840,0.452763
-501.251221,542.175293,661.285400,0.453504
-494.476318,538.421631,652.496338,0.454245
-500.793457,541.351318,679.046631,0.455013
-500.335693,542.999268,656.616211,0.455757
-499.420166,542.816162,658.630371,0.456489
-495.117188,547.119141,648.925781,0.457220
-492.004395,532.745361,651.489258,0.457972
-493.560791,535.491943,654.418945,0.458703
-490.631104,547.027588,662.292480,0.459434
-499.786377,536.590576,668.151855,0.460165
-499.603271,538.238525,661.102295,0.460907
-494.476318,536.865234,649.658203,0.461638
-497.039795,544.281006,649.932861,0.462369
-495.758057,554.260254,661.468506,0.463099
-500.061035,549.774170,656.707764,0.463844
-497.497559,541.717529,660.278320,0.464575
-490.814209,546.752930,646.545410,0.465306
-494.934082,544.830322,657.073975,0.466037
-499.786377,546.203613,651.947021,0.466778
-501.342773,543.457031,653.228760,0.467509
-494.110107,548.767090,660.827637,0.468242
-495.941162,549.865723,654.968262,0.468972
-495.849609,552.886963,660.278320,0.469704
-500.610352,549.316406,656.158447,0.470435
-498.779297,550.598145,650.848389,0.471166
-499.694824,552.062988,662.933350,0.471897
-497.222900,548.400879,659.179688,0.472628
-500.244141,557.189941,660.827637,0.473359
-505.554199,556.732178,655.059814,0.474089
-497.406006,557.922363,657.806396,0.474820
-493.927002,548.583984,654.052734,0.475564
-515.625000,557.373047,653.686523,0.476305
-500.976562,557.098389,651.031494,0.477045
-497.314453,550.415039,659.179688,0.477878
-499.511719,551.055908,656.433105,0.478627
-502.349854,560.211182,655.059814,0.479367
-495.391846,560.119629,655.334473,0.480106
-491.638184,557.464600,658.905029,0.480846
-497.680664,539.154053,659.729004,0.481597
-492.095947,564.239502,661.376953,0.482337
-488.891602,563.964844,663.208008,0.483076
-496.673584,570.281982,676.757812,0.483817
-497.406006,560.577393,661.102295,0.484566
-497.039795,560.760498,659.545898,0.485306
-493.652344,565.704346,663.940430,0.486045
-487.152100,563.140869,665.313721,0.486785
-492.370605,571.655273,665.130615,0.487534
-487.243652,567.718506,658.355713,0.488274
-498.046875,571.838379,662.292480,0.489014
-494.659424,573.944092,663.848877,0.489753
-493.469238,573.120117,661.926270,0.490503
-494.018555,574.310303,670.349121,0.491243
-493.011475,571.380615,656.707764,0.491982
-497.589111,572.479248,669.067383,0.492721
-492.095947,577.606201,672.088623,0.493470
-498.687744,568.267822,668.060303,0.494210
-500.061035,568.084717,669.799805,0.494949
-497.680664,572.296143,658.905029,0.495688
-502.349854,570.098877,662.384033,0.496438
-495.666504,569.915771,663.116455,0.497177
-496.398926,566.986084,662.017822,0.497917
-502.075195,564.239502,666.503906,0.498656
-501.617432,563.415527,659.820557,0.499426
-497.222900,558.288574,655.242920,0.500182
-501.434326,563.964844,656.524658,0.500931
-502.990723,567.077637,663.848877,0.501678
-504.455566,573.394775,665.863037,0.502445
-497.131348,575.134277,659.912109,0.503186
-511.413574,577.148438,664.672852,0.503926
-510.314941,568.450928,657.806396,0.504701
-501.617432,566.253662,663.024902,0.505482
-503.173828,572.387695,663.482666,0.506244
-506.011963,574.035645,661.285400,0.506990
-507.293701,572.570801,668.426514,0.507729
-509.857178,571.014404,655.426025,0.508490
-509.674072,563.323975,658.081055,0.509230
-504.272461,565.246582,677.764893,0.509970
-510.498047,574.401855,663.482666,0.510709
-508.117676,568.450928,668.609619,0.511459
-509.857178,565.429688,666.961670,0.512198
-512.695312,572.937012,656.799316,0.512937
-511.871338,568.084717,657.257080,0.513677
-515.441895,573.852539,668.609619,0.514432
-514.068604,573.760986,660.369873,0.515183
-519.104004,573.760986,637.664795,0.515925
-510.223389,571.105957,652.496338,0.516666
-514.434814,567.901611,655.517578,0.517424
-515.808105,570.648193,662.933350,0.518166
-518.188477,569.366455,656.799316,0.518906
-522.857666,562.042236,656.799316,0.519647
-514.343262,564.514160,657.257080,0.520397
-516.357422,568.176270,659.362793,0.521138
-512.603760,568.359375,657.073975,0.521879
-517.913818,568.267822,661.285400,0.522620
-519.104004,575.500488,658.996582,0.523361
-521.667480,563.140869,657.073975,0.524092
-525.970459,562.866211,661.102295,0.524823
-524.230957,560.668945,655.792236,0.525554
-526.519775,569.915771,660.003662,0.526316
-521.667480,562.591553,662.384033,0.527059
-521.759033,562.408447,661.193848,0.527803
-514.709473,560.302734,653.778076,0.528546
-519.561768,562.683105,653.137207,0.529301
-521.209717,567.443848,661.834717,0.530043
-529.724121,563.598633,656.707764,0.530784
-513.702393,570.648193,654.876709,0.531524
-518.829346,564.056396,649.200439,0.532275
-517.730713,565.246582,659.454346,0.533017
-513.702393,559.478760,658.905029,0.533757
-514.434814,566.070557,649.932861,0.534498
-524.505615,563.323975,648.010254,0.535248
-515.350342,558.197021,659.088135,0.535989
-521.301270,562.591553,659.545898,0.536730
-525.604248,565.612793,655.334473,0.537471
-526.245117,564.971924,657.806396,0.538222
-527.069092,568.267822,659.729004,0.538963
-521.850586,565.246582,655.975342,0.539704
-522.399902,564.971924,659.454346,0.540445
-525.695801,555.633545,652.038574,0.541195
-527.893066,564.971924,661.193848,0.541937
-527.984619,569.549561,666.687012,0.542678
-518.280029,569.458008,659.088135,0.543420
-520.935059,565.521240,658.905029,0.544172
-522.583008,567.169189,660.736084,0.544913
-523.590088,560.668945,656.616211,0.545654
-525.787354,559.844971,658.172607,0.546394
-529.083252,560.668945,657.806396,0.547147
-517.913818,565.338135,659.637451,0.547887
-522.216797,560.119629,663.116455,0.548721
-516.357422,539.154053,670.623779,0.549463
-516.632080,559.204102,663.757324,0.550203
-516.540527,560.943604,664.306641,0.550942
-520.751953,563.598633,633.087158,0.551681
-517.822266,560.577393,660.278320,0.552420
-519.012451,564.239502,660.186768,0.553159
-511.230469,564.971924,652.862549,0.553899
-514.343262,562.042236,653.869629,0.554638
-506.744385,562.408447,659.088135,0.555379
-508.850098,555.267334,657.165527,0.556118
-503.082275,554.992676,658.630371,0.556857
-503.997803,557.647705,660.095215,0.557597
-506.011963,562.774658,662.200928,0.558336
-505.920410,560.668945,654.510498,0.559075
-504.180908,563.873291,655.059814,0.559814
-498.962402,566.162109,657.073975,0.560553
-495.208740,563.873291,662.475586,0.561292
-497.589111,566.619873,657.348633,0.562031
-490.814209,564.788818,660.461426,0.562771
-497.222900,566.436768,659.820557,0.563510
-496.856689,560.852051,663.024902,0.564263
-497.131348,559.844971,642.333984,0.565004
-498.779297,565.338135,663.208008,0.565744
-503.082275,567.260742,659.545898,0.566483
-496.765137,562.500000,659.545898,0.567222
-500.427246,560.119629,656.707764,0.567972
-494.293213,563.964844,662.658691,0.568711
-490.814209,563.140869,665.405273,0.569451
-485.504150,554.443359,657.165527,0.570190
-494.018555,558.929443,659.912109,0.570958
-491.638184,557.830811,656.250000,0.571709
-493.560791,560.760498,655.975342,0.572458
-493.469238,557.556152,658.813477,0.573202
-498.046875,554.260254,655.700684,0.573942
-495.391846,551.239014,657.348633,0.574682
-491.180420,560.668945,660.369873,0.575421
-511.779785,559.478760,649.841309,0.576186
-490.905762,556.365967,675.109863,0.576943
-492.370605,555.175781,653.320312,0.577715
-493.011475,553.070068,661.102295,0.578464
-489.440918,547.302246,653.320312,0.579204
-490.264893,548.400879,653.411865,0.579944
-485.687256,547.668457,651.672363,0.580684
-491.912842,549.316406,654.327393,0.581423
-489.166260,548.400879,655.792236,0.582187
-487.152100,552.886963,656.250000,0.582931
-492.095947,547.210693,659.179688,0.583670
-483.123779,554.077148,652.954102,0.584410
-489.715576,550.231934,671.997070,0.585155
-491.546631,542.083740,659.362793,0.585901
-469.024658,544.097900,658.905029,0.586643
-488.616943,544.189453,649.017334,0.587384
-492.553711,546.203613,650.024414,0.588139
-493.194580,540.710449,651.489258,0.588880
-500.976562,546.569824,651.580811,0.589621
-471.313477,544.647217,657.806396,0.590362
-486.511230,542.358398,677.124023,0.591102
-488.983154,539.978027,653.411865,0.591843
-488.616943,545.379639,651.489258,0.592583
-486.968994,543.182373,654.144287,0.593324
-483.032227,548.583984,652.770996,0.594065
-482.299805,552.062988,635.559082,0.594805
-488.342285,542.083740,653.686523,0.595546
-483.673096,541.992188,653.228760,0.596286
-482.299805,543.914795,652.770996,0.597036
-485.137939,541.076660,658.355713,0.597777
-488.616943,540.252686,652.130127,0.598518
-489.990234,550.872803,660.003662,0.599259
-484.771729,551.513672,651.580811,0.600010
-486.511230,546.569824,658.081055,0.600751
-484.497070,549.499512,660.003662,0.601492
-476.165771,555.084229,659.088135,0.602232
-486.053467,555.725098,652.862549,0.602982
-487.152100,548.217773,652.313232,0.603722
-491.638184,548.034668,658.355713,0.604463
-489.257812,543.548584,656.799316,0.605203
-485.412598,544.647217,649.200439,0.605944
-476.348877,546.295166,657.623291,0.606685
-477.447510,550.598145,657.989502,0.607425
-485.778809,548.034668,661.834717,0.608166
-489.074707,548.217773,657.989502,0.608907
-481.658936,543.640137,658.538818,0.609648
-489.440918,542.358398,651.306152,0.610388
-492.645264,545.562744,654.144287,0.611130
-490.264893,546.936035,658.355713,0.611880
-484.405518,545.471191,650.573730,0.612621
-484.680176,544.555664,657.257080,0.613362
-491.271973,545.562744,632.812500,0.614103
-487.335205,543.548584,649.566650,0.614854
-485.229492,551.513672,658.172607,0.615596
-493.194580,545.928955,652.496338,0.616337
-484.680176,538.696289,655.334473,0.617077
-494.934082,538.604736,649.108887,0.617827
-492.004395,538.238525,648.925781,0.618568
-490.081787,549.224854,650.207520,0.619401
-489.440918,544.464111,656.250000,0.620142
-491.821289,547.027588,677.490234,0.620895
-487.609863,542.816162,653.503418,0.621635
-480.834961,551.605225,649.658203,0.622375
-486.236572,545.654297,659.179688,0.623114
-485.137939,548.492432,656.250000,0.623864
-493.560791,546.752930,659.454346,0.624603
-484.863281,555.267334,664.855957,0.625342
-483.856201,557.922363,657.531738,0.626082
-488.067627,556.182861,657.440186,0.626831
-494.293213,555.267334,664.031982,0.627570
-487.518311,559.570312,661.651611,0.628310
-498.596191,556.274414,662.384033,0.629050
-470.031738,557.189941,663.940430,0.629798
-500.244141,559.661865,667.236328,0.630538
-494.750977,562.316895,656.616211,0.631281
-493.835449,552.520752,657.989502,0.632025
-498.321533,549.316406,661.102295,0.632784
-494.293213,556.823730,659.362793,0.633526
-497.222900,559.295654,661.743164,0.634265
-492.370605,563.140869,667.602539,0.635005
-498.229980,552.337646,659.820557,0.635754
-496.673584,561.767578,655.334473,0.636494
-501.983643,563.873291,660.919189,0.637233
-499.694824,565.521240,661.193848,0.637972
-496.948242,557.006836,658.905029,0.638726
-504.638672,561.676025,665.496826,0.639472
-505.279541,563.140869,662.017822,0.640222
-495.666504,554.077148,656.707764,0.640967
-497.131348,560.760498,657.989502,0.641767
-495.941162,562.042236,668.243408,0.642520
-497.589111,563.323975,659.362793,0.643299
-502.441406,563.873291,659.820557,0.644052
-497.131348,562.316895,660.644531,0.644811
-499.603271,564.056396,661.834717,0.645551
-500.701904,561.676025,654.693604,0.646291
-499.786377,556.640625,661.193848,0.647031
-495.208740,561.767578,657.989502,0.647782
-495.300293,557.922363,639.404297,0.648521
-504.730225,566.345215,663.848877,0.649261
-507.843018,563.781738,661.102295,0.650000
-499.053955,564.056396,656.433105,0.650750
-504.364014,565.612793,656.982422,0.651524
-501.525879,556.640625,657.440186,0.652276
-510.864258,562.957764,661.834717,0.653028
-501.983643,561.767578,654.876709,0.653798
-502.807617,553.161621,658.264160,0.654536
-499.145508,554.809570,654.602051,0.655274
-502.532959,552.978516,653.503418,0.656029
-500.885010,548.400879,661.834717,0.656787
-511.871338,558.013916,655.609131,0.657529
-507.476807,560.852051,664.306641,0.658270
-504.821777,566.253662,665.496826,0.659011
-511.596680,552.886963,665.222168,0.659761
-503.631592,582.916260,660.644531,0.660502
-509.399414,554.168701,656.616211,0.661243
-506.652832,555.816650,664.306641,0.661983
-507.293701,563.507080,660.919189,0.662733
-508.850098,566.894531,660.644531,0.663473
-509.307861,558.837891,654.418945,0.664214
-507.843018,558.929443,660.919189,0.664956
-504.364014,554.626465,655.609131,0.665713
-506.652832,559.936523,655.059814,0.666455
-508.117676,555.541992,663.482666,0.667199
-513.427734,551.239014,662.292480,0.667940
-505.828857,557.739258,661.102295,0.668690
-505.371094,563.232422,656.890869,0.669431
-508.758545,582.916260,654.876709,0.670172
-508.392334,557.556152,659.545898,0.670913
-510.589600,556.274414,665.679932,0.671664
-504.730225,558.746338,661.834717,0.672405
-503.631592,556.457520,660.552979,0.673146
-506.469727,547.760010,658.172607,0.673886
-502.349854,550.048828,656.524658,0.674636
-507.659912,555.633545,657.073975,0.675377
-505.462646,553.253174,657.348633,0.676118
-510.131836,554.626465,658.264160,0.676859
-512.786865,554.901123,663.665771,0.677609
-508.117676,545.379639,655.883789,0.678350
-508.666992,551.788330,658.813477,0.679091
-503.997803,555.633545,654.052734,0.679832
-509.216309,552.246094,655.700684,0.680582
-510.681152,552.795410,652.404785,0.681322
-508.300781,546.020508,652.130127,0.682063
-510.406494,542.816162,656.341553,0.682804
-505.828857,556.549072,653.503418,0.683554
-504.638672,553.985596,653.961182,0.684295
-508.483887,558.013916,658.264160,0.685035
-502.532959,555.450439,652.862549,0.685777
-507.568359,548.858643,664.764404,0.686527
-508.300781,551.422119,657.989502,0.687268
-511.322021,553.436279,655.883789,0.688009
-514.617920,549.865723,655.517578,0.688750
-515.625000,553.985596,664.398193,0.689500
-500.885010,548.858643,658.355713,0.690335
-506.744385,556.915283,658.538818,0.691076
-507.934570,556.457520,664.672852,0.691817
-512.512207,547.760010,652.679443,0.692557
-504.272461,545.562744,658.172607,0.693297
-510.589600,549.957275,658.630371,0.694036
-499.969482,545.745850,657.714844,0.694775
-501.983643,551.971436,656.707764,0.695514
-499.511719,560.211182,663.024902,0.696254
-501.617432,554.534912,662.658691,0.696993
-510.314941,554.443359,657.806396,0.697732
-506.744385,560.760498,657.440186,0.698487
-510.681152,555.633545,668.518066,0.699227
-509.948730,560.028076,660.003662,0.699966
-503.631592,560.119629,668.151855,0.700705
-505.279541,558.563232,661.285400,0.701457
-509.948730,563.049316,665.405273,0.702197
-509.307861,554.534912,661.926270,0.702936
-507.019043,557.006836,659.729004,0.703675
-504.364014,554.718018,661.560059,0.704425
-504.913330,547.302246,659.271240,0.705165
-504.180908,555.084229,667.236328,0.705904
-510.223389,556.823730,662.200928,0.706643
-507.751465,551.055908,661.468506,0.707392
-501.983643,552.886963,664.215088,0.708132
-509.399414,555.358887,657.531738,0.708872
-505.096436,539.154053,661.834717,0.709611
-503.906250,553.436279,661.102295,0.710360
-501.525879,555.541992,662.750244,0.711099
-510.772705,551.147461,660.461426,0.711839
-512.512207,557.922363,656.982422,0.712594
-512.786865,552.978516,663.574219,0.713359
-509.216309,555.267334,669.158936,0.714110
-509.307861,544.281006,663.208008,0.714852
-514.709473,550.689697,658.630371,0.715592
-509.582520,553.253174,661.651611,0.716352
-511.138916,551.055908,659.088135,0.717093
-506.927490,547.760010,658.630371,0.717832
-507.293701,552.246094,666.503906,0.718571
-506.195068,551.422119,656.433105,0.719320
-511.138916,542.358398,670.623779,0.720097
-511.047363,539.154053,656.982422,0.720859
-497.314453,548.858643,660.644531,0.721636
-506.744385,544.830322,656.433105,0.722418
-513.702393,544.006348,660.095215,0.723169
-512.512207,553.436279,666.595459,0.723909
-510.498047,543.823242,661.560059,0.724646
-506.561279,544.372559,637.207031,0.725384
-504.455566,543.273926,651.947021,0.726128
-500.152588,542.266846,653.411865,0.726897
-511.138916,551.605225,659.454346,0.727639
-509.216309,550.506592,660.369873,0.728379
-512.237549,541.992188,661.376953,0.729120
-513.336182,542.724609,654.693604,0.729871
-512.878418,542.358398,655.334473,0.730612
-515.167236,538.879395,656.799316,0.731353
-513.153076,541.168213,657.806396,0.732094
-509.582520,540.710449,661.376953,0.732843
-504.821777,537.963867,657.073975,0.733584
-508.758545,539.245605,654.968262,0.734325
-507.751465,542.907715,652.954102,0.735065
-510.131836,540.618896,657.073975,0.735807
-505.737305,545.104980,654.510498,0.736548
-507.843018,537.506104,658.264160,0.737288
-505.645752,545.379639,654.785156,0.738029
-504.821777,547.943115,658.721924,0.738770
-500.701904,542.907715,664.398193,0.739511
-497.863770,547.485352,661.193848,0.740251
-502.532959,541.992188,660.644531,0.740992
-502.349854,543.273926,656.158447,0.741734
-500.976562,546.936035,658.630371,0.742474
-505.920410,543.182373,659.454346,0.743215
-512.878418,549.224854,661.285400,0.743955
-509.582520,550.415039,657.257080,0.744704
-504.821777,544.555664,659.271240,0.745445
-504.913330,548.492432,662.200928,0.746185
-503.997803,542.266846,661.743164,0.746926
-502.899170,541.259766,663.299561,0.747676
-496.124268,542.083740,655.883789,0.748417
-500.976562,545.928955,661.285400,0.749157
-510.131836,543.548584,659.362793,0.749897
-504.913330,550.140381,660.919189,0.750637
-506.652832,548.858643,656.799316,0.751368
-511.230469,548.309326,659.179688,0.752099
-507.476807,542.266846,659.362793,0.752830
-501.892090,541.351318,660.644531,0.753563
-508.483887,538.055420,661.651611,0.754304
-501.342773,537.506104,663.574219,0.755045
-498.413086,519.287109,656.433105,0.755786
-502.624512,540.161133,653.869629,0.756527
-508.209229,538.604736,650.299072,0.757268
-501.983643,538.238525,674.011230,0.758008
-506.378174,534.393311,653.320312,0.758749
-504.821777,542.175293,650.390625,0.759490
-500.061035,542.266846,648.193359,0.760231
-504.638672,546.020508,653.137207,0.760971
-496.582031,537.689209,649.108887,0.761811
-502.807617,542.816162,650.390625,0.762564
-501.342773,542.083740,655.609131,0.763304
-500.885010,547.760010,656.341553,0.764043
-501.892090,542.633057,663.299561,0.764782
-500.244141,541.534424,658.355713,0.765522
-497.772217,540.985107,660.736084,0.766261
-505.279541,540.435791,662.933350,0.767000
-504.821777,541.168213,661.743164,0.767739
-496.582031,545.837402,660.278320,0.768479
-499.328613,546.112061,663.665771,0.769218
-501.434326,545.104980,662.567139,0.769958
-499.420166,548.217773,655.883789,0.770699
-506.195068,543.823242,659.088135,0.771451
-503.173828,543.273926,662.750244,0.772192
-498.504639,545.471191,668.701172,0.772933
-500.976562,539.520264,665.863037,0.773672
-502.990723,541.168213,634.735107,0.774423
-499.511719,543.090820,659.454346,0.775162
-503.082275,544.372559,664.031982,0.775902
-500.061035,548.858643,663.208008,0.776642
-504.180908,547.210693,664.581299,0.777390
-505.920410,543.640137,654.418945,0.778130
-502.166748,539.611816,656.890869,0.778869
-512.420654,542.358398,652.038574,0.779608
-507.934570,540.802002,651.397705,0.780347
-509.765625,544.738770,650.482178,0.781087
-504.913330,546.752930,648.834229,0.781827
-501.983643,545.104980,654.693604,0.782575
-501.800537,547.210693,653.869629,0.783341
-501.159668,553.253174,636.291504,0.784091
-508.209229,549.224854,653.503418,0.784836
-511.047363,547.393799,660.003662,0.785576
-507.476807,537.780762,659.454346,0.786315
-504.638672,537.048340,657.897949,0.787054
-511.138916,556.274414,654.785156,0.787832
-508.850098,535.583496,658.264160,0.788615
-502.807617,533.111572,656.250000,0.789355
-501.434326,550.048828,658.538818,0.790095
-500.152588,541.442871,634.368896,0.790834
-499.694824,542.633057,659.088135,0.791588
-505.187988,534.301758,658.721924,0.792327
-503.814697,539.794922,653.137207,0.793072
-508.850098,546.203613,659.729004,0.793812
-502.166748,542.266846,655.242920,0.794567
-505.279541,540.069580,655.700684,0.795307
-500.885010,539.245605,651.580811,0.796047
-501.251221,543.457031,657.165527,0.796786
-499.328613,541.625977,654.510498,0.797552
-500.885010,540.802002,652.313232,0.798299
-498.046875,538.696289,653.594971,0.799040
-503.997803,543.457031,657.531738,0.799781
-500.061035,561.676025,655.334473,0.800536
-500.518799,541.809082,657.897949,0.801277
-498.413086,540.344238,663.116455,0.802017
-502.532959,546.661377,654.968262,0.802758
-492.919922,553.710938,663.848877,0.803515
-490.905762,548.034668,662.567139,0.804255
-495.849609,542.175293,663.116455,0.804996
-499.969482,548.492432,659.545898,0.805737
-500.061035,552.612305,661.193848,0.806487
-503.814697,536.590576,660.461426,0.807228
-498.046875,549.133301,663.024902,0.807969
-498.779297,543.182373,656.890869,0.808709
-492.828369,548.217773,669.067383,0.809460
-490.356445,543.273926,656.433105,0.810200
-496.398926,548.950195,662.567139,0.810941
-496.398926,545.104980,661.285400,0.811682
-503.631592,545.196533,654.327393,0.812432
-500.427246,547.119141,658.996582,0.813174
-498.870850,541.259766,655.426025,0.813916
-493.652344,544.464111,658.447266,0.814657
-493.377686,548.126221,660.736084,0.815400
-497.406006,548.217773,661.651611,0.816132
-497.863770,545.471191,658.264160,0.816862
-499.877930,546.203613,661.926270,0.817593
-496.398926,547.851562,650.665283,0.818345
-489.898682,543.823242,657.531738,0.819087
-491.546631,548.858643,657.531738,0.819827
-490.539551,542.541504,649.841309,0.820568
-498.046875,541.168213,658.996582,0.821317
-493.103027,549.133301,657.897949,0.822058
-496.673584,538.970947,656.799316,0.822799
-500.152588,540.252686,655.242920,0.823540
-493.927002,538.146973,657.165527,0.824289
-489.624023,540.802002,657.257080,0.825030
-490.356445,542.816162,657.623291,0.825771
-497.497559,543.090820,661.193848,0.826512
-496.856689,542.266846,661.010742,0.827262
-494.567871,537.597656,650.939941,0.828004
-496.765137,538.513184,649.475098,0.828745
-496.398926,536.590576,657.257080,0.829486
-494.659424,541.534424,660.369873,0.830236
-490.814209,549.591064,656.982422,0.830977
-494.384766,548.767090,654.876709,0.831718
-487.152100,549.865723,661.834717,0.832554
-490.631104,550.323486,661.560059,0.833295
-494.384766,551.330566,660.736084,0.834034
-491.180420,555.633545,659.729004,0.834774
-492.279053,544.555664,657.531738,0.835514
-492.095947,555.175781,659.729004,0.836253
-496.673584,550.689697,657.073975,0.836995
-496.307373,557.739258,661.560059,0.837734
-491.088867,555.175781,662.292480,0.838476
-491.638184,551.971436,654.510498,0.839218
-496.490479,551.605225,665.588379,0.839959
-494.201660,545.288086,663.940430,0.840698
-494.567871,552.886963,653.961182,0.841438
-493.835449,550.506592,660.552979,0.842181
-493.469238,551.422119,656.616211,0.842920
-492.462158,550.415039,666.870117,0.843659
-499.603271,546.844482,659.179688,0.844398
-491.821289,556.182861,656.524658,0.845138
-498.687744,552.062988,679.138184,0.845877
-500.610352,551.147461,650.665283,0.846616
-494.384766,554.443359,662.475586,0.847356
-497.406006,559.295654,653.320312,0.848097
-491.638184,550.964355,654.876709,0.848835
-489.807129,543.182373,665.679932,0.849575
-501.800537,547.393799,656.250000,0.850314
-504.272461,554.077148,655.975342,0.851067
-503.448486,552.795410,664.031982,0.851807
-504.272461,551.239014,668.060303,0.852546
-498.321533,552.886963,664.489746,0.853286
-492.736816,554.901123,665.130615,0.854056
-493.927002,548.034668,662.475586,0.854806
-495.941162,544.464111,652.770996,0.855554
-506.652832,548.400879,654.510498,0.856294
-508.666992,556.091309,653.686523,0.857034
-505.279541,547.943115,660.003662,0.857774
-503.814697,558.654785,652.954102,0.858513
-499.053955,561.859131,656.250000,0.859272
-495.483398,550.231934,663.024902,0.860015
-502.532959,548.400879,655.334473,0.860754
-505.371094,554.626465,657.257080,0.861493
-501.708984,556.823730,660.278320,0.862279
-497.039795,557.189941,654.510498,0.863054
-502.441406,552.978516,651.397705,0.863804
-503.723145,563.964844,662.841797,0.864569
-501.983643,557.464600,659.637451,0.865308
-503.906250,551.513672,656.524658,0.866048
-503.906250,555.541992,654.602051,0.866787
-502.532959,562.774658,654.602051,0.867534
-505.096436,551.879883,653.961182,0.868290
-500.885010,556.457520,657.714844,0.869036
-499.053955,554.718018,650.482178,0.869776
-503.906250,558.471680,659.729004,0.870531
-506.195068,559.387207,652.404785,0.871273
-511.779785,562.316895,654.968262,0.872013
-507.843018,562.225342,657.531738,0.872754
-507.385254,560.485840,660.919189,0.873504
-507.476807,583.648682,655.975342,0.874245
-509.307861,563.964844,658.996582,0.874986
-509.857178,562.408447,664.581299,0.875727
-505.645752,569.000244,669.067383,0.876477
-503.997803,563.415527,669.799805,0.877218
-502.349854,564.147949,664.855957,0.877959
-508.117676,567.077637,663.024902,0.878700
-506.103516,557.189941,658.630371,0.879449
-507.843018,553.710938,660.003662,0.880190
-508.209229,551.696777,664.489746,0.880931
-506.195068,563.140869,659.179688,0.881671
-505.187988,557.922363,656.066895,0.882421
-506.195068,562.316895,659.362793,0.883162
-509.307861,540.618896,656.890869,0.883902
-506.103516,558.013916,655.883789,0.884643
-510.040283,567.718506,661.010742,0.885392
-513.610840,564.788818,664.489746,0.886133
-507.293701,560.119629,661.834717,0.886873
-508.850098,564.514160,660.644531,0.887614
-512.420654,565.063477,664.855957,0.888363
-505.371094,564.056396,658.447266,0.889104
-507.202148,567.626953,662.384033,0.889845
-505.279541,563.598633,663.391113,0.890586
-507.476807,565.338135,658.905029,0.891325
-510.131836,564.788818,657.348633,0.892057
-508.026123,565.155029,669.982910,0.892790
-511.596680,562.774658,655.334473,0.893522
-504.364014,572.021484,660.186768,0.894276
-503.631592,571.746826,659.637451,0.895017
-507.934570,570.831299,661.834717,0.895756
-514.160156,563.507080,664.123535,0.896495
-506.286621,565.338135,650.115967,0.897245
-514.434814,558.563232,657.257080,0.897984
-505.462646,561.126709,664.947510,0.898724
-507.843018,569.091797,661.743164,0.899463
-504.455566,562.866211,659.088135,0.900212
-503.997803,567.443848,656.616211,0.900952
-507.385254,567.718506,658.630371,0.901692
-505.645752,568.359375,660.827637,0.902431
-505.279541,564.880371,650.115967,0.903281
-503.997803,564.331055,655.334473,0.904022
-501.068115,563.232422,657.440186,0.904761
-509.399414,560.760498,657.989502,0.905501
-507.110596,560.119629,651.672363,0.906250
-503.448486,561.126709,657.073975,0.906990
-505.645752,565.704346,659.545898,0.907729
-504.821777,567.443848,659.271240,0.908469
-504.913330,557.922363,654.968262,0.909218
-501.892090,559.387207,664.123535,0.909959
-507.293701,566.619873,660.003662,0.910700
-503.906250,566.619873,654.235840,0.911440
-511.413574,562.133789,657.165527,0.912190
-506.103516,563.598633,657.073975,0.912930
-512.237549,567.901611,664.764404,0.913671
-507.202148,571.014404,668.792725,0.914412
-513.519287,565.063477,655.059814,0.915163
-506.561279,570.281982,658.355713,0.915903
-504.547119,569.641113,663.574219,0.916642
-507.019043,563.415527,654.052734,0.917382
-511.596680,568.450928,656.066895,0.918130
-505.279541,573.669434,657.989502,0.918870
-505.004883,571.105957,658.355713,0.919609
-508.575439,565.795898,655.883789,0.920349
-507.385254,570.648193,655.426025,0.921097
-506.286621,564.788818,656.066895,0.921837
-508.666992,575.958252,652.587891,0.922577
-514.068604,570.739746,651.855469,0.923316
-505.462646,571.014404,656.158447,0.924067
-503.265381,572.753906,658.447266,0.924822
-504.364014,571.838379,634.643555,0.925571
-509.216309,572.753906,654.052734,0.926318
-512.878418,566.345215,666.595459,0.927080
-508.483887,564.239502,662.200928,0.927822
-506.195068,561.492920,658.813477,0.928562
-510.772705,565.521240,653.320312,0.929301
-507.751465,572.113037,654.510498,0.930050
-507.019043,565.429688,656.066895,0.930789
-510.864258,566.253662,658.905029,0.931529
-508.300781,559.020996,652.770996,0.932268
-510.406494,583.923340,653.137207,0.933020
-513.702393,560.852051,661.743164,0.933760
-512.695312,562.774658,657.073975,0.934499
-508.666992,562.316895,652.862549,0.935239
-511.596680,562.500000,656.066895,0.936022
-511.230469,563.598633,657.714844,0.936797
-514.160156,560.119629,655.700684,0.937545
-511.138916,557.739258,664.581299,0.938283
-514.892578,562.225342,659.088135,0.939050
-516.815186,565.155029,662.292480,0.939825
-514.160156,565.612793,660.827637,0.940589
-513.061523,556.457520,655.334473,0.941330
-514.709473,552.337646,655.883789,0.942071
-509.674072,549.957275,653.228760,0.942813
-510.406494,557.830811,659.545898,0.943570
-516.448975,557.098389,634.368896,0.944313
-507.019043,559.753418,659.179688,0.945054
-512.237549,554.901123,656.982422,0.945793
-514.434814,558.471680,652.679443,0.946544
-509.674072,555.816650,661.468506,0.947285
-510.681152,560.119629,655.242920,0.948026
-512.420654,557.189941,659.179688,0.948766
-507.019043,553.344727,656.982422,0.949524
-509.674072,552.154541,660.827637,0.950266
-507.934570,549.316406,660.369873,0.951006
-507.934570,556.640625,650.848389,0.951747
-501.800537,550.598145,653.411865,0.952496
-500.244141,551.513672,654.144287,0.953237
-498.779297,549.041748,647.644043,0.953977
-511.322021,554.351807,653.594971,0.954719
-500.610352,548.492432,664.764404,0.955471
-499.145508,551.605225,660.003662,0.956212
-504.272461,548.217773,663.116455,0.956952
-502.075195,550.231934,652.862549,0.957692
-500.976562,546.112061,660.552979,0.958441
-501.708984,549.407959,657.257080,0.959182
-504.272461,544.006348,658.172607,0.959923
-496.490479,552.795410,658.721924,0.960663
-507.110596,551.879883,657.440186,0.961412
-494.293213,562.408447,648.834229,0.962153
-497.131348,550.964355,655.426025,0.962893
-494.934082,558.837891,660.278320,0.963633
-499.969482,550.781250,658.996582,0.964374
-494.750977,557.098389,660.278320,0.965105
-493.743896,545.562744,660.095215,0.965835
-495.483398,556.549072,657.348633,0.966566
-496.032715,551.422119,656.707764,0.967317
-489.624023,560.211182,654.235840,0.968057
-492.828369,548.950195,662.658691,0.968797
-485.229492,550.964355,661.560059,0.969536
-489.715576,557.464600,661.743164,0.970287
-486.602783,549.957275,662.200928,0.971027
-491.088867,555.267334,658.264160,0.971767
-474.426270,551.147461,663.299561,0.972506
-491.271973,554.534912,663.482666,0.973254
-489.166260,547.668457,664.306641,0.974090
-488.342285,551.971436,663.391113,0.974832
-469.665527,555.084229,665.771484,0.975572
-483.673096,543.182373,667.968750,0.976325
-486.236572,548.492432,658.813477,0.977064
-491.455078,548.767090,666.046143,0.977803
-490.081787,546.020508,659.179688,0.978542
-488.525391,545.928955,663.208008,0.979291
-480.377197,547.210693,660.827637,0.980030
-488.983154,549.224854,656.799316,0.980769
-485.321045,542.541504,658.264160,0.981508
-483.581543,539.337158,656.707764,0.982255
-480.194092,546.478271,652.862549,0.982995
-482.025146,548.034668,659.912109,0.983734
-486.419678,555.450439,662.017822,0.984474
-481.933594,545.104980,659.545898,0.985225
-480.468750,543.914795,656.158447,0.985966
-490.631104,545.288086,662.933350,0.986705
-484.405518,543.365479,661.010742,0.987444
-482.025146,541.625977,658.355713,0.988193
-485.870361,547.576904,656.982422,0.988933
-477.172852,542.724609,655.242920,0.989672
-485.961914,537.048340,647.644043,0.990412
-480.468750,560.485840,657.440186,0.991163
-488.342285,544.647217,657.897949,0.991902
-492.462158,547.760010,651.580811,0.992641
-487.792969,548.858643,654.510498,0.993380
-486.053467,547.485352,660.186768,0.994131
-484.405518,544.006348,657.897949,0.994872
-489.349365,549.407959,659.637451,0.995626
-486.785889,542.449951,657.989502,0.996377
-491.271973,542.266846,661.468506,0.997147
-486.511230,539.520264,657.257080,0.997918
-486.328125,547.576904,654.144287,0.998657
-483.581543,540.618896,655.334473,0.999439
-490.173340,537.872314,655.151367,1.000196
-491.546631,541.900635,654.052734,1.000951
-490.905762,539.978027,648.925781,1.001698
-489.166260,541.076660,656.707764,1.002460
-484.680176,535.217285,655.059814,1.003199
-484.497070,542.266846,650.573730,1.003938
-487.518311,531.555176,651.306152,1.004677
-486.968994,535.217285,655.151367,1.005427
-483.215332,538.055420,653.411865,1.006166
-492.187500,528.717041,654.876709,1.006904
-486.968994,535.858154,655.975342,1.007644
-486.602783,533.843994,650.939941,1.008385
-485.870361,532.012939,648.742676,1.009116
-492.095947,537.322998,643.066406,1.009846
-491.729736,536.407471,646.087646,1.010596
-493.103027,533.203125,648.376465,1.011366
-495.025635,524.414062,652.496338,1.012107
-485.321045,533.569336,647.918701,1.012848
-481.750488,540.710449,651.672363,1.013588
-491.363525,545.013428,655.059814,1.014339
-512.054443,537.322998,656.250000,1.015080
-492.919922,540.985107,651.306152,1.015822
-500.427246,540.252686,654.418945,1.016574
-490.356445,542.724609,655.517578,1.017339
-494.201660,543.914795,663.299561,1.018080
-490.264893,535.675049,655.151367,1.018820
-489.532471,536.315918,651.397705,1.019561
-490.081787,540.435791,641.052246,1.020333
-496.124268,544.189453,649.383545,1.021077
-490.539551,548.583984,656.250000,1.021818
-489.807129,543.090820,651.306152,1.022559
-484.405518,543.365479,657.257080,1.023312
-486.053467,548.950195,662.750244,1.024052
-487.152100,545.837402,657.714844,1.024792
-484.954834,562.042236,657.806396,1.025532
-482.116699,549.133301,660.461426,1.026271
-483.856201,554.443359,659.088135,1.027002
-486.511230,557.373047,653.594971,1.027732
-488.159180,556.365967,656.433105,1.028463
-493.652344,560.028076,667.236328,1.029207
-495.025635,556.182861,662.933350,1.029937
-491.088867,552.612305,655.334473,1.030668
-493.652344,551.513672,660.644531,1.031408
-492.553711,557.006836,658.447266,1.032161
-492.462158,553.619385,664.123535,1.032902
-499.694824,560.485840,665.679932,1.033642
-486.968994,550.781250,661.285400,1.034382
-493.835449,556.365967,662.292480,1.035133
-493.560791,569.000244,659.088135,1.035873
-501.251221,561.401367,665.405273,1.036614
-502.349854,571.105957,662.475586,1.037354
-495.941162,564.788818,662.200928,1.038094
-496.124268,559.570312,659.271240,1.038851
-507.659912,560.211182,667.602539,1.039591
-499.694824,565.704346,668.975830,1.040331
-496.673584,564.971924,664.398193,1.041096
-498.870850,562.133789,659.179688,1.041839
-502.532959,571.746826,661.193848,1.042579
-505.920410,557.373047,666.687012,1.043320
-504.730225,566.162109,664.215088,1.044073
-501.525879,565.521240,662.750244,1.044814
-504.913330,560.394287,657.623291,1.045649
-510.681152,561.492920,665.771484,1.046398
-510.131836,561.676025,664.031982,1.047139
-507.934570,561.218262,663.940430,1.047879
-513.702393,548.400879,660.003662,1.048619
-514.801025,549.407959,664.764404,1.049360
-512.969971,556.457520,664.581299,1.050100
-514.801025,555.633545,664.947510,1.050840
-509.216309,553.253174,663.574219,1.051581
-515.899658,548.126221,656.616211,1.052327
-514.251709,554.077148,661.651611,1.053065
-519.012451,546.203613,667.602539,1.053796
-519.653320,550.231934,656.341553,1.054527
-538.696289,549.041748,661.468506,1.055258
-514.434814,549.957275,638.397217,1.056016
-517.364502,557.373047,659.912109,1.056757
-516.174316,556.091309,660.369873,1.057514
-523.315430,551.239014,673.278809,1.058256
-526.702881,542.449951,663.757324,1.058997
-522.125244,551.971436,657.714844,1.059738
-518.371582,545.654297,662.109375,1.060478
-523.681641,549.957275,662.109375,1.061229
-521.759033,548.309326,656.524658,1.061970
-523.956299,546.295166,654.052734,1.062710
-521.301270,556.549072,660.736084,1.063451
-515.625000,553.802490,666.320801,1.064199
-516.174316,550.048828,664.672852,1.064930
-524.047852,547.393799,664.947510,1.065709
-518.920898,551.879883,661.376953,1.066447
-511.596680,551.422119,661.285400,1.067233
-520.751953,554.351807,654.785156,1.067981
-516.265869,552.978516,659.454346,1.068722
-519.744873,549.774170,662.841797,1.069462
-519.470215,549.041748,663.940430,1.070223
-517.822266,539.794922,660.186768,1.070981
-509.765625,548.126221,660.461426,1.071729
-512.329102,547.210693,656.616211,1.072485
-508.850098,548.950195,666.229248,1.073234
-507.843018,546.569824,660.552979,1.073975
-501.617432,542.358398,661.010742,1.074715
-504.180908,543.090820,662.200928,1.075455
-501.892090,546.478271,665.313721,1.076198
-502.716064,546.752930,640.136719,1.076949
-501.708984,542.541504,655.334473,1.077690
-501.251221,546.295166,656.341553,1.078430
-503.448486,544.830322,659.271240,1.079194
-503.540039,553.161621,657.623291,1.079935
-501.434326,547.851562,662.841797,1.080675
-499.969482,545.288086,662.750244,1.081416
-496.765137,549.041748,659.271240,1.082167
-496.398926,543.365479,677.581787,1.082912
-495.483398,544.647217,662.567139,1.083653
-496.215820,546.386719,662.750244,1.084393
-487.976074,550.048828,654.418945,1.085138
-495.849609,545.745850,657.440186,1.085869
-494.750977,548.492432,678.680420,1.086599
-498.504639,549.224854,656.982422,1.087330
-503.631592,548.034668,663.482666,1.088087
-499.786377,548.217773,666.046143,1.088824
-497.680664,548.767090,661.285400,1.089560
-494.567871,551.696777,663.757324,1.090311
-494.842529,553.253174,661.102295,1.091087
-484.680176,547.302246,666.687012,1.091836
-492.004395,555.358887,666.870117,1.092604
-494.750977,550.781250,665.588379,1.093355
-488.891602,542.907715,667.144775,1.094131
-490.997314,539.154053,663.940430,1.094892
-491.912842,538.055420,657.806396,1.095639
-490.997314,535.858154,650.756836,1.096411
-484.405518,534.576416,651.672363,1.097158
-489.990234,529.724121,646.911621,1.097920
-488.250732,528.167725,648.468018,1.098664
-487.426758,523.590088,649.017334,1.099445
-488.616943,527.984619,649.200439,1.100196
-489.807129,521.209717,643.432617,1.100972
-485.412598,518.371582,643.066406,1.101753
-488.159180,517.456055,639.587402,1.102571
-485.778809,513.702393,636.840820,1.103310
-487.976074,515.441895,637.939453,1.104059
-485.870361,506.744385,637.939453,1.104799
-482.666016,498.138428,632.812500,1.105531
-484.039307,503.814697,630.706787,1.106262
-488.342285,500.793457,633.728027,1.106992
-489.532471,493.286133,640.136719,1.107725
-497.406006,491.638184,631.347656,1.108456
-496.398926,494.750977,640.411377,1.109187
-490.905762,491.455078,635.467529,1.109918
-481.201172,490.997314,641.052246,1.110669
-486.602783,482.025146,641.601562,1.111412
-480.926514,487.792969,639.953613,1.112160
-482.482910,484.405518,631.439209,1.112893
-475.708008,477.355957,641.143799,1.113637
-478.912354,471.496582,640.502930,1.114368
-483.489990,467.834473,638.397217,1.115098
-480.651855,451.629639,639.129639,1.115829
-475.250244,464.630127,638.671875,1.116676
-470.489502,463.989258,644.805908,1.117419
-474.060059,459.136963,639.495850,1.118159
-475.616455,455.108643,636.566162,1.118899
-477.722168,459.045410,644.805908,1.119643
-476.806641,448.974609,630.798340,1.120373
-466.369629,441.558838,636.566162,1.121104
-469.207764,445.953369,641.052246,1.121834
-459.777832,446.044922,630.432129,1.122599
-467.926025,446.411133,632.720947,1.123339
-460.693359,438.812256,609.375000,1.124078
-464.813232,436.157227,619.720459,1.124817
-467.102051,440.734863,620.361328,1.125567
-466.186523,436.798096,619.720459,1.126306
-475.067139,438.171387,616.424561,1.127049
-475.341797,433.868408,613.677979,1.127791
-471.405029,428.375244,613.494873,1.128542
-477.447510,428.833008,605.987549,1.129279
-479.187012,428.741455,618.804932,1.130015
-482.482910,427.734375,617.065430,1.130763
-470.123291,433.685303,619.354248,1.131514
-469.207764,445.953369,629.608154,1.132245
-469.116211,445.678711,638.122559,1.132976
-465.454102,441.650391,643.798828,1.133707
-464.630127,452.636719,648.925781,1.134466
-470.489502,449.981689,639.953613,1.135200
-462.158203,456.390381,646.087646,1.135931
-464.721680,451.721191,646.636963,1.136677
-463.989258,449.798584,644.989014,1.137447
-471.313477,447.418213,647.094727,1.138186
-463.165283,445.129395,642.883301,1.138939
-465.087891,446.502686,634.826660,1.139678
-462.799072,438.720703,627.136230,1.140453
-471.771240,437.622070,624.755859,1.141194
-468.383789,444.488525,630.523682,1.141934
-460.144043,444.854736,624.114990,1.142674
-462.341309,445.861816,629.241943,1.143449
-454.101562,449.157715,637.207031,1.144204
-448.883057,444.580078,631.530762,1.144952
-446.319580,445.312500,609.466553,1.145727
-455.932617,437.896729,629.882812,1.146468
-449.523926,435.241699,635.375977,1.147208
-457.855225,427.917480,633.087158,1.147949
-463.165283,424.255371,626.861572,1.148689
-459.777832,427.459717,626.861572,1.149429
-457.855225,446.044922,634.277344,1.150169
-460.144043,444.305420,624.114990,1.150910
-453.460693,449.249268,630.706787,1.151660
-450.347900,447.692871,630.157471,1.152391
-452.453613,447.692871,635.284424,1.153123
-443.115234,457.122803,635.833740,1.153856
-449.157715,459.503174,639.953613,1.154586
-451.080322,463.256836,647.369385,1.155329
-440.917969,461.151123,652.130127,1.156069
-446.960449,468.658447,643.615723,1.156809
-447.875977,467.834473,653.869629,1.157550
-445.861816,466.094971,657.897949,1.158291
-453.094482,471.496582,667.785645,1.159031
-429.656982,467.559814,665.130615,1.159771
-432.403564,481.475830,662.475586,1.160522
-424.072266,490.264893,665.130615,1.161263
-420.776367,486.511230,673.553467,1.162043
-422.790527,485.687256,670.715332,1.162785
-433.959961,493.286133,674.377441,1.163539
-439.361572,497.772217,682.250977,1.164280
-441.650391,515.258789,674.743652,1.165020
-439.086914,527.435303,668.426514,1.165761
-429.931641,541.717529,673.187256,1.166502
-417.022705,553.619385,677.764893,1.167242
-419.128418,571.655273,686.004639,1.167960
-440.460205,568.817139,696.716309,1.168703
-442.108154,563.507080,721.252441,1.169454
-450.073242,561.676025,732.055664,1.170195
-452.453613,572.387695,740.478516,1.170936
-453.369141,587.860107,751.739502,1.171676
-445.404053,609.466553,769.775391,1.172419
-442.291260,614.318848,776.184082,1.173150
-429.016113,619.628906,790.557861,1.173881
-430.297852,632.629395,804.565430,1.174612
-415.649414,636.199951,821.319580,1.175352
-437.713623,640.045166,844.299316,1.176083
-430.297852,651.763916,856.018066,1.176814
-433.776855,663.757324,856.384277,1.177544
-439.910889,670.074463,844.299316,1.178278
-415.740967,677.215576,841.003418,1.179018
-423.889160,673.370361,806.121826,1.179759
-417.114258,666.503906,766.387939,1.180499
-402.099609,671.081543,763.000488,1.181239
-414.733887,671.173096,754.669189,1.181979
-405.761719,677.032471,770.874023,1.182717
-418.670654,690.216064,758.148193,1.183472
-421.966553,706.695557,787.353516,1.184213
-408.874512,724.090576,797.515869,1.184953
-386.993408,795.043945,824.249268,1.185693
-305.603027,818.023682,886.779785,1.186434
-274.383545,814.178467,967.071533,1.187259
-218.170166,819.030762,967.437744,1.188000
-303.955078,820.220947,942.901611,1.188740
-337.280273,780.029297,949.035645,1.189480
-456.024170,721.435547,926.696777,1.190213
-501.159668,708.618164,870.300293,1.190944
-563.323975,698.638916,857.208252,1.191675
-569.000244,693.878174,833.587646,1.192406
-640.502930,665.130615,834.503174,1.193142
-620.544434,600.585938,859.863281,1.193883
-653.686523,572.113037,866.271973,1.194624
-580.261230,548.675537,859.954834,1.195364
-548.217773,529.998779,856.475830,1.196104
-447.509766,535.491943,849.975586,1.196844
-384.155273,559.478760,825.714111,1.197620
-339.385986,575.317383,798.065186,1.198362
-344.879150,554.168701,748.443604,1.199116
-409.149170,512.145996,723.358154,1.199857
-452.911377,470.855713,669.891357,1.200597
-508.575439,452.453613,643.524170,1.201346
-554.168701,439.361572,606.628418,1.202099
-543.823242,433.776855,601.867676,1.202840
-563.598633,430.847168,605.529785,1.203581
-544.464111,436.065674,627.685547,1.204321
-522.216797,444.488525,679.595947,1.205062
-501.068115,452.911377,688.385010,1.205793
-452.545166,463.897705,723.083496,1.206523
-461.975098,451.812744,746.063232,1.207254
-438.629150,442.749023,793.304443,1.208000
-437.072754,462.158203,816.375732,1.208744
-447.692871,447.052002,813.537598,1.209485
-448.425293,462.524414,799.072266,1.210226
-457.397461,466.003418,768.127441,1.211001
-486.053467,461.517334,758.972168,1.211742
-508.850098,464.172363,734.161377,1.212482
-513.885498,462.615967,717.315674,1.213223
-487.518311,472.778320,722.900391,1.213973
-483.215332,483.581543,722.167969,1.214661
-460.784912,489.166260,727.935791,1.215417
-423.156738,502.441406,748.352051,1.216162
-419.311523,500.518799,776.824951,1.216942
-394.134521,503.723145,782.958984,1.217687
-389.190674,516.357422,783.874512,1.218427
-391.296387,526.062012,793.487549,1.219167
-385.253906,525.054932,785.156250,1.219918
-391.479492,536.041260,786.254883,1.220662
-400.085449,546.112061,775.451660,1.221404
-420.867920,554.901123,763.000488,1.222144
-431.945801,554.168701,763.549805,1.222896
-429.473877,557.189941,771.148682,1.223637
-444.213867,561.859131,771.148682,1.224380
-417.663574,580.718994,773.437500,1.225120
-401.550293,576.599121,794.952393,1.225890
-379.302979,582.916260,783.874512,1.226633
-371.063232,585.205078,778.656006,1.227374
-382.690430,582.550049,775.726318,1.228114
-383.697510,569.458008,763.183594,1.228865
-387.451172,568.084717,751.556396,1.229605
-404.113770,571.929932,740.020752,1.230346
-407.592773,567.535400,733.703613,1.231086
-409.149170,567.077637,729.949951,1.231836
-426.635742,563.964844,715.484619,1.232577
-431.671143,561.035156,709.808350,1.233318
-419.311523,566.345215,712.371826,1.234059
-424.438477,567.443848,703.491211,1.234799
-413.452148,573.028564,704.315186,1.235530
-391.387939,580.627441,718.139648,1.236261
-382.873535,592.254639,726.928711,1.236982
-371.612549,594.543457,730.316162,1.237735
-348.358154,609.466553,741.851807,1.238475
-352.661133,604.522705,747.253418,1.239215
-339.935303,603.607178,744.415283,1.239956
-336.914062,614.044189,735.626221,1.240705
-346.160889,611.663818,730.316162,1.241446
-333.709717,615.051270,733.703613,1.242186
-332.519531,622.924805,738.189697,1.242926
-345.336914,615.600586,730.590820,1.243667
-333.068848,627.685547,727.294922,1.244397
-332.794189,627.960205,749.450684,1.245128
-335.266113,636.932373,734.527588,1.245858
-332.153320,631.622314,754.211426,1.246621
-327.209473,639.953613,756.042480,1.247362
-318.969727,644.714355,774.536133,1.248103
-321.075439,657.440186,795.410156,1.248853
-324.920654,677.215576,806.671143,1.249607
-346.710205,689.392090,816.467285,1.250359
-354.217529,688.842773,837.982178,1.251100
-380.950928,697.540283,852.172852,1.251841
-388.732910,714.385986,887.237549,1.252581
-404.663086,723.632812,914.337158,1.253322
-395.690918,745.605469,924.041748,1.254062
-397.521973,759.429932,947.387695,1.254803
-382.507324,770.690918,946.197510,1.255543
-379.119873,784.057617,959.655762,1.256284
-375.823975,794.677734,974.395752,1.257024
-369.598389,801.910400,980.529785,1.257848
-366.760254,811.706543,973.205566,1.258580
-369.964600,821.777344,990.234375,1.259360
-366.119385,815.734863,991.882324,1.260103
-383.789062,809.326172,999.572754,1.260844
-383.331299,819.396973,1004.699707,1.261585
-373.901367,803.649902,1000.213623,1.262325
-354.949951,743.499756,1020.538330,1.263065
-360.626221,669.342041,1046.447754,1.263805
-423.156738,618.530273,1048.736572,1.264546
-368.225098,657.989502,930.816650,1.265286
-442.016602,661.743164,902.709961,1.266026
-375.457764,631.256104,858.032227,1.266761
-401.550293,595.001221,781.219482,1.267492
-471.130371,524.780273,760.070801,1.268223
-459.503174,470.947266,695.251465,1.268954
-446.594238,461.517334,667.236328,1.269691
-545.471191,437.805176,653.503418,1.270431
-512.237549,416.473389,636.474609,1.271171
-525.146484,403.381348,655.883789,1.271911
-527.160645,415.466309,650.573730,1.272652
-480.926514,425.354004,655.792236,1.273391
-447.143555,437.255859,662.658691,1.274130
-442.291260,416.748047,679.504395,1.274869
-410.888672,416.198730,673.278809,1.275609
-380.218506,407.958984,674.102783,1.276346
-416.748047,382.049561,678.222656,1.277083
-387.084961,355.224609,662.475586,1.277819
-413.818359,313.934326,656.616211,1.278583
-408.325195,295.257568,621.826172,1.279319
-424.713135,292.419434,607.269287,1.280059
-424.804688,269.531250,580.627441,1.280796
-419.494629,252.410889,558.013916,1.281573
-460.968018,264.495850,551.971436,1.282308
-454.284668,246.093750,530.639648,1.283038
-431.671143,238.037109,525.878906,1.283769
-446.136475,212.860107,535.217285,1.284532
-437.347412,199.493408,529.174805,1.285281
-438.446045,197.296143,524.688721,1.286042
-435.516357,196.105957,513.244629,1.286802
-413.452148,180.633545,493.927002,1.287560
-421.325684,173.126221,474.792480,1.288291
-396.514893,154.083252,481.475830,1.289022
-399.810791,153.076172,490.173340,1.289753
-366.119385,166.351318,486.236572,1.290496
-339.569092,206.817627,479.187012,1.291227
-333.892822,231.262207,499.053955,1.291966
-307.800293,231.811523,485.870361,1.292698
-300.933838,284.454346,480.926514,1.293455
-283.813477,272.735596,477.355957,1.294196
-259.094238,309.814453,450.164795,1.294939
-302.581787,336.181641,453.918457,1.295680
-279.876709,318.237305,453.002930,1.296438
-314.300537,313.842773,414.459229,1.297179
-307.525635,362.457275,414.916992,1.297919
-342.132568,354.949951,403.381348,1.298668
-320.983887,389.099121,392.852783,1.299420
-322.174072,397.338867,390.930176,1.300161
-317.230225,400.268555,395.782471,1.300901
-281.066895,404.205322,414.184570,1.301642
-273.010254,418.853760,423.248291,1.302392
-284.179688,422.515869,436.157227,1.303133
-199.218750,443.481445,433.776855,1.303873
-3.845215,451.171875,437.622070,1.304613
17.578125,441.375732,457.489014,1.305352
47.790527,448.516846,464.904785,1.306083
96.588135,447.601318,471.221924,1.306813
74.340820,464.263916,478.271484,1.307544
44.128418,472.778320,485.961914,1.308299
30.120850,499.053955,520.294189,1.309039
26.916504,511.413574,573.760986,1.309780
-21.148682,534.118652,606.994629,1.310520
-82.763672,550.598145,687.744141,1.311270
-131.195068,559.753418,744.689941,1.312012
-255.157471,534.576416,849.700928,1.312752
-280.059814,661.102295,1085.815430,1.313493
-2.380371,662.109375,1097.717285,1.314234
-170.104980,639.587402,1109.161377,1.314964
-279.968262,643.249512,1143.402100,1.315695
-171.569824,655.609131,1146.697998,1.316441
-199.035645,655.242920,1157.775879,1.317193
-262.664795,645.721436,1170.776367,1.317934
-208.465576,643.432617,1167.114258,1.318674
-196.472168,639.770508,1169.494629,1.319414
-250.488281,636.932373,1153.289795,1.320165
-206.085205,631.805420,1142.120361,1.320906
-194.000244,610.931396,1126.556396,1.321647
-200.866699,603.149414,1115.570068,1.322388
-156.097412,583.099365,1075.836182,1.323138
-153.167725,567.077637,1032.897949,1.323879
-123.779297,572.753906,1019.714355,1.324619
-119.567871,557.922363,973.388672,1.325360
-102.722168,552.429199,950.683594,1.326109
-113.067627,536.865234,915.985107,1.326850
-116.546631,526.153564,901.977539,1.327590
-118.469238,515.625000,896.850586,1.328331
-140.899658,506.286621,875.427246,1.329186
-119.018555,495.483398,881.103516,1.329928
-125.427246,493.743896,879.455566,1.330668
-127.807617,491.546631,880.096436,1.331409
-133.666992,472.137451,900.329590,1.332150
-99.426270,466.278076,908.386230,1.332891
-105.834961,462.799072,907.653809,1.333632
-107.391357,467.834473,900.329590,1.334373
-105.194092,474.243164,898.681641,1.335113
-118.194580,456.939697,870.849609,1.335854
-111.511230,441.467285,857.299805,1.336594
-121.673584,430.572510,835.144043,1.337345
-127.349854,426.910400,831.939697,1.338076
-144.927979,410.797119,808.319092,1.338806
-149.505615,377.288818,788.452148,1.339537
-138.427734,379.302979,780.487061,1.340283
-112.609863,354.034424,736.816406,1.340912
-115.264893,351.745605,778.472900,1.341653
-76.263428,326.568604,801.910400,1.342394
-44.128418,344.970703,781.402588,1.343134
-27.648926,362.365723,775.085449,1.343875
16.754150,353.485107,771.331787,1.344615
26.733398,347.625732,751.281738,1.345356
15.747070,339.569092,749.359131,1.346096
80.017090,350.738525,749.176025,1.346837
111.053467,364.105225,765.655518,1.347578
105.651855,364.379883,769.775391,1.348318
74.523926,361.450195,766.113281,1.349068
98.785400,376.190186,747.894287,1.349800
99.700928,355.957031,749.176025,1.350541
69.488525,346.435547,744.873047,1.351279
74.707031,352.020264,707.427979,1.352039
29.022217,338.745117,705.413818,1.352782
17.395020,334.075928,691.497803,1.353522
27.465820,324.188232,676.208496,1.354187
15.197754,323.181152,687.286377,1.354926
10.437012,338.836670,685.089111,1.355687
14.190674,351.837158,691.314697,1.356437
12.634277,373.077393,699.554443,1.357197
30.578613,381.500244,706.970215,1.357945
41.656494,386.718750,711.181641,1.358685
48.339844,416.015625,741.668701,1.359425
46.508789,408.416748,731.323242,1.360165
26.092529,430.755615,733.795166,1.360905
39.276123,425.994873,727.478027,1.361645
36.621094,415.557861,723.083496,1.362384
28.656006,399.810791,712.005615,1.363125
5.676270,430.938721,702.758789,1.363860
0.183105,424.163818,687.835693,1.364590
-2.471924,442.199707,659.454346,1.365322
-17.578125,417.297363,670.623779,1.366054
-17.486572,409.057617,656.250000,1.366799
-16.479492,440.917969,651.672363,1.367541
-15.930176,445.312500,635.467529,1.368281
-18.585205,453.460693,633.270264,1.369022
-16.937256,460.784912,634.277344,1.369762
-45.867920,466.461182,623.107910,1.370502
-29.937744,465.911865,627.044678,1.371243
-45.593262,446.411133,627.685547,1.371984
-52.459717,443.572998,629.333496,1.372724
-72.692871,433.410645,617.523193,1.373465
-105.560303,458.679199,622.741699,1.374205
-98.968506,459.136963,618.072510,1.374945
-115.997314,476.715088,609.191895,1.375693
-126.800537,504.272461,613.861084,1.376425
-101.898193,518.280029,616.241455,1.377155
-85.052490,525.329590,619.171143,1.377886
-90.728760,532.745361,626.403809,1.378621
-99.792480,535.583496,627.502441,1.379363
-110.504150,535.491943,602.691650,1.380104
-153.259277,546.386719,597.290039,1.380844
-171.936035,553.985596,573.944092,1.381586
-183.746338,551.879883,548.767090,1.382326
-225.769043,559.112549,545.471191,1.383067
-244.903564,575.775146,519.012451,1.383807
-274.566650,583.648682,511.047363,1.384545
-315.124512,589.050293,497.863770,1.385277
-314.300537,595.367432,494.567871,1.386007
-352.752686,601.684570,488.800049,1.386738
-362.640381,615.509033,495.391846,1.387470
-364.654541,617.431641,486.145020,1.388209
-377.838135,631.622314,481.018066,1.388949
-376.464844,641.601562,485.504150,1.389688
-361.267090,673.370361,489.257812,1.390428
-371.246338,674.652100,513.153076,1.391168
-342.132568,680.419922,526.245117,1.391907
-307.434082,681.793213,564.697266,1.392647
-291.687012,712.554932,598.205566,1.393388
-268.066406,720.794678,614.044189,1.394128
-251.129150,745.147705,635.192871,1.394867
-254.425049,747.161865,636.383057,1.395606
-265.045166,771.606445,643.707275,1.396345
-276.947021,766.021729,647.644043,1.397096
-310.821533,760.894775,648.284912,1.397835
-337.005615,751.556396,635.925293,1.398575
-358.428955,739.654541,624.755859,1.399314
-359.069824,749.542236,615.783691,1.400063
-373.352051,768.951416,595.458984,1.400886
-355.773926,776.092529,593.444824,1.401627
-335.998535,785.430908,598.571777,1.402366
-321.166992,798.706055,622.100830,1.403106
-301.300049,798.522949,628.601074,1.403845
-279.052734,816.192627,646.270752,1.404584
-268.615723,820.312500,663.024902,1.405334
-262.298584,827.270508,660.461426,1.406074
-270.080566,842.468262,669.708252,1.406813
-294.525146,839.080811,663.391113,1.407552
-315.032959,839.538574,676.757812,1.408292
-333.526611,838.256836,669.067383,1.409031
-350.006104,827.911377,667.144775,1.409771
-352.020264,823.883057,677.215576,1.410510
-359.436035,817.932129,678.131104,1.411250
-356.414795,804.473877,672.637939,1.411990
-357.971191,774.993896,674.926758,1.412729
-339.935303,802.459717,682.708740,1.413468
-323.822021,794.952393,681.335449,1.414209
-316.223145,782.592773,699.462891,1.414948
-306.976318,772.979736,671.081543,1.415688
-306.243896,763.092041,667.053223,1.416427
-302.307129,748.626709,656.707764,1.417166
-316.864014,730.590820,644.805908,1.417915
-308.349609,716.033936,641.967773,1.418654
-331.512451,710.266113,628.234863,1.419394
-330.871582,707.153320,599.945068,1.420133
-344.879150,696.990967,590.881348,1.420881
-364.471436,684.814453,581.909180,1.421622
-367.218018,666.229248,574.218750,1.422373
-375.000000,672.088623,571.655273,1.423120
-375.183105,648.376465,558.013916,1.423903
-369.232178,641.418457,543.823242,1.424643
-369.873047,638.397217,543.090820,1.425383
-357.421875,635.467529,533.569336,1.426148
-347.900391,624.755859,532.653809,1.426882
-347.259521,620.819092,495.758057,1.427613
-337.188721,614.227295,509.674072,1.428344
-344.512939,600.036621,505.279541,1.429077
-344.421387,590.972900,498.779297,1.429808
-346.984863,590.972900,501.708984,1.430539
-341.949463,588.500977,472.412109,1.431270
-342.956543,587.036133,485.870361,1.432001
-344.696045,565.246582,479.187012,1.432732
-344.329834,584.930420,479.187012,1.433463
-340.026855,582.550049,474.334717,1.434193
-339.569092,578.521729,467.010498,1.434925
-334.167480,575.500488,469.390869,1.435656
-329.315186,574.035645,459.869385,1.436387
-313.568115,576.599121,456.024170,1.437117
-314.483643,578.613281,442.840576,1.437851
-312.286377,582.183838,448.150635,1.438583
-298.278809,578.887939,428.924561,1.439313
-300.292969,606.262207,412.353516,1.440044
-300.933838,594.543457,409.057617,1.440776
-295.074463,607.269287,399.719238,1.441508
-287.292480,618.804932,392.669678,1.442239
-295.166016,631.896973,381.683350,1.442970
-282.073975,634.094238,364.746094,1.443702
-277.130127,656.066895,357.971191,1.444434
-279.144287,666.961670,343.139648,1.445164
-267.059326,668.426514,335.174561,1.445896
-267.883301,688.201904,325.195312,1.446627
-275.756836,703.308105,333.984375,1.447384
-269.805908,718.688965,337.738037,1.448145
-273.834229,734.802246,351.470947,1.448938
-259.643555,741.027832,358.062744,1.449712
-264.221191,763.275146,374.176025,1.450452
-262.481689,783.142090,385.711670,1.451228
-266.052246,792.572021,396.697998,1.451984
-268.890381,816.833496,432.678223,1.452752
-267.242432,839.080811,460.418701,1.453510
-273.193359,846.496582,477.355957,1.454251
-278.778076,865.631104,511.688232,1.454992
-280.883789,873.046875,540.069580,1.455750
-305.053711,867.645264,563.415527,1.456491
-305.328369,895.477295,661.560059,1.457231
-288.848877,912.780762,770.233154,1.457971
-273.101807,943.817139,787.628174,1.458721
-285.003662,972.930908,810.791016,1.459461
-278.320312,981.903076,802.825928,1.460201
-320.617676,975.860596,764.007568,1.460942
-337.554932,974.945068,710.449219,1.461681
-360.717773,966.705322,679.321289,1.462412
-384.704590,944.641113,620.178223,1.463143
-426.818848,934.661865,596.008301,1.463874
-420.593262,908.294678,532.928467,1.464631
-427.276611,896.575928,497.222900,1.465388
-398.162842,894.470215,475.799561,1.466131
-362.915039,901.702881,453.918457,1.466887
-340.942383,896.301270,447.784424,1.467647
-310.180664,901.245117,449.340820,1.468388
-286.743164,898.681641,461.700439,1.469128
-274.566650,907.287598,477.630615,1.469868
-260.650635,908.843994,491.180420,1.470618
-262.664795,911.590576,514.160156,1.471443
-272.918701,907.653809,531.555176,1.472184
-305.786133,910.583496,531.555176,1.472924
-348.266602,909.576416,536.224365,1.473666
-354.858398,906.555176,548.492432,1.474398
-377.380371,898.590088,544.647217,1.475128
-376.190186,898.040771,539.794922,1.475858
-374.816895,891.815186,545.562744,1.476603
-371.429443,894.195557,548.126221,1.477334
-347.442627,891.357422,543.548584,1.478064
-307.891846,891.632080,540.985107,1.478795
-285.644531,883.941650,534.393311,1.479546
-244.720459,878.997803,530.639648,1.480287
-230.804443,877.258301,523.590088,1.481027
-206.176758,875.976562,524.047852,1.481767
-201.416016,875.427246,515.716553,1.482515
-201.416016,848.785400,510.589600,1.483255
-204.254150,853.637695,521.301270,1.483996
-193.725586,857.116699,507.019043,1.484736
-193.359375,858.764648,504.821777,1.485475
-186.126709,861.145020,505.371094,1.486206
-175.964355,858.764648,516.540527,1.486936
-168.457031,865.539551,516.357422,1.487667
-138.519287,878.814697,527.435303,1.488419
-130.828857,874.877930,556.823730,1.489158
-112.701416,878.997803,558.197021,1.489897
-91.278076,895.935059,572.845459,1.490636
-70.770264,903.350830,581.726074,1.491384
-56.121826,913.146973,583.831787,1.492124
-45.776367,921.661377,589.050293,1.492863
-32.867432,924.316406,591.705322,1.493615
-27.374268,920.654297,596.374512,1.494408
-17.944336,897.308350,599.029541,1.495176
-19.958496,910.858154,588.958740,1.495919
-14.831543,915.069580,585.388184,1.496659
-5.218506,908.935547,581.909180,1.497418
-9.796143,909.851074,573.852539,1.498158
-7.965088,912.139893,573.486328,1.498898
-3.295898,914.337158,570.373535,1.499637
6.958008,914.337158,562.316895,1.500386
21.423340,935.943604,562.133789,1.501126
24.444580,920.837402,573.577881,1.501867
25.360107,920.837402,560.668945,1.502607
45.684814,923.675537,564.880371,1.503347
51.361084,933.746338,567.810059,1.504078
56.213379,923.950195,565.612793,1.504809
61.706543,931.823730,561.950684,1.505540
63.812256,939.147949,564.788818,1.506293
68.756104,945.007324,541.625977,1.507034
61.340332,947.570801,558.837891,1.507774
65.368652,956.634521,549.957275,1.508560
63.720703,946.563721,543.090820,1.509312
64.178467,948.577881,545.471191,1.510054
67.199707,961.578369,542.449951,1.510794
66.741943,960.296631,545.928955,1.511534
55.847168,965.332031,552.612305,1.512284
48.339844,964.874268,554.351807,1.513024
46.691895,961.944580,556.823730,1.513764
43.121338,963.958740,560.211182,1.514505
39.276123,974.212646,568.450928,1.515244
39.825439,982.727051,581.451416,1.515975
37.170410,983.459473,589.416504,1.516719
28.839111,981.445312,594.635010,1.517461
21.331787,984.924316,592.254639,1.518201
17.303467,981.445312,597.656250,1.518941
9.704590,980.621338,601.776123,1.519682
14.373779,985.290527,605.895996,1.520422
6.317139,985.015869,612.030029,1.521162
9.063721,983.001709,604.339600,1.521902
4.119873,982.543945,597.930908,1.522642
2.929688,977.325439,597.747803,1.523392
6.774902,966.339111,599.945068,1.524123
7.690430,969.268799,596.374512,1.524853
8.697510,963.043213,579.803467,1.525583
8.239746,962.860107,565.521240,1.526313
12.817383,961.578369,558.746338,1.527066
13.092041,968.902588,548.675537,1.527806
5.767822,960.479736,543.273926,1.528546
9.063721,956.268311,548.675537,1.529286
4.302979,966.613770,561.676025,1.530034
-2.105713,965.606689,566.711426,1.530774
-3.936768,962.493896,570.831299,1.531513
-6.225586,970.092773,575.775146,1.532253
-21.789551,970.275879,577.880859,1.533003
-28.656006,970.458984,580.627441,1.533744
-25.909424,963.867188,585.479736,1.534485
-30.761719,962.402344,580.810547,1.535225
-32.318115,960.479736,567.352295,1.535962
-27.099609,953.887939,551.696777,1.536693
-21.789551,960.662842,557.556152,1.537424
-14.923096,959.106445,543.365479,1.538155
-12.908936,950.683594,542.175293,1.538907
-11.627197,945.190430,539.703369,1.539646
-8.697510,940.795898,529.998779,1.540385
-8.331299,945.465088,538.146973,1.541124
-20.233154,945.281982,531.555176,1.541872
-24.902344,952.880859,531.921387,1.542611
-24.536133,961.029053,532.379150,1.543351
-26.184082,966.339111,546.020508,1.544171
-41.015625,974.029541,558.746338,1.544884
-68.847656,970.184326,572.296143,1.545629
-61.523438,963.684082,568.359375,1.546369
-62.072754,993.530273,582.183838,1.547125
-57.769775,1003.967285,594.726562,1.547891
-51.635742,1011.566162,611.114502,1.548640
-58.410645,1016.601562,624.572754,1.549382
-59.051514,1022.918701,628.234863,1.550123
-54.656982,1026.123047,627.960205,1.550891
-53.833008,1025.024414,632.629395,1.551650
-53.833008,1022.186279,637.664795,1.552395
-61.614990,1020.629883,630.889893,1.553177
-62.805176,1015.045166,628.967285,1.553921
-65.002441,1013.488770,622.192383,1.554661
-65.826416,1013.031006,625.762939,1.555402
-83.953857,1001.953125,614.135742,1.556151
-75.347900,985.107422,609.832764,1.556892
-78.735352,982.910156,603.973389,1.557633
-69.030762,979.339600,595.092773,1.558373
-69.671631,964.691162,591.064453,1.559113
-61.706543,965.881348,585.845947,1.559844
-52.917480,957.275391,568.725586,1.560575
-53.466797,954.071045,563.781738,1.561305
-43.029785,937.957764,559.295654,1.562061
-35.705566,917.175293,551.055908,1.562801
-43.579102,946.929932,546.569824,1.563542
-39.550781,940.887451,533.843994,1.564292
-36.987305,934.020996,530.456543,1.565057
-51.635742,910.766602,528.808594,1.565816
-53.100586,901.062012,529.632568,1.566561
-55.755615,901.245117,525.970459,1.567299
-57.220459,886.871338,517.364502,1.568084
-48.614502,880.279541,518.188477,1.568843
-54.473877,870.208740,500.518799,1.569607
-40.924072,863.525391,497.039795,1.570393
-30.395508,858.581543,494.659424,1.571139
-36.529541,856.567383,483.489990,1.571897
-32.684326,848.693848,478.363037,1.572641
-32.409668,848.785400,472.045898,1.573396
-30.578613,849.609375,477.539062,1.574148
-39.825439,834.136963,480.285645,1.574882
-47.058105,823.059082,481.201172,1.575628
-48.156738,821.136475,488.616943,1.576384
-45.227051,813.446045,475.616455,1.577116
-36.987305,820.129395,476.440430,1.577847
-40.191650,816.741943,471.496582,1.578577
-54.748535,818.298340,472.045898,1.579319
-44.403076,818.298340,461.700439,1.580051
-59.143066,821.868896,450.073242,1.580783
-65.460205,805.755615,425.903320,1.581514
-80.566406,799.072266,438.537598,1.582264
-83.862305,792.938232,428.558350,1.582995
-80.200195,798.522949,419.219971,1.583726
-76.629639,799.713135,415.100098,1.584457
-80.657959,786.987305,403.839111,1.585186
-63.354492,787.536621,394.592285,1.585917
-65.734863,777.282715,388.183594,1.586648
-62.622070,778.656006,379.028320,1.587379
-52.734375,766.113281,380.126953,1.588110
-54.016113,752.655029,378.479004,1.588841
-49.255371,742.492676,376.831055,1.589571
-37.628174,740.020752,379.669189,1.590309
-30.487061,740.386963,392.395020,1.591059
-17.028809,755.310059,389.465332,1.591791
-9.429932,754.760742,393.768311,1.592521
-7.598877,750.732422,394.409180,1.593252
-17.486572,744.873047,403.564453,1.593993
-14.190674,738.464355,410.430908,1.594733
-23.803711,723.449707,401.000977,1.595473
-25.177002,726.013184,408.325195,1.596213
-30.487061,725.463867,409.790039,1.596954
-31.036377,716.033936,414.184570,1.597694
-28.747559,711.914062,420.776367,1.598434
-26.550293,713.562012,412.628174,1.599174
-25.634766,710.998535,409.423828,1.599907
-25.177002,707.519531,403.106689,1.600637
-28.015137,700.927734,398.071289,1.601367
-28.656006,697.448730,383.148193,1.602098
-29.022217,696.533203,375.091553,1.602830
-26.641846,694.427490,373.901367,1.603561
-22.155762,686.004639,373.443604,1.604292
-9.338379,694.244385,363.739014,1.605022
-4.760742,695.892334,340.850830,1.605758
-5.126953,696.624756,329.406738,1.606497
5.310059,711.364746,332.244873,1.607236
9.429932,713.653564,318.969727,1.607975
3.936768,715.209961,315.399170,1.608723
10.528564,716.857910,303.039551,1.609461
19.683838,718.322754,295.989990,1.610200
13.458252,744.049072,300.109863,1.610939
13.732910,770.690918,287.841797,1.611678
33.508301,796.600342,283.355713,1.612416
40.100098,782.958984,299.194336,1.613156
17.486572,786.346436,306.060791,1.613894
34.881592,807.312012,311.645508,1.614634
39.459229,820.220947,347.625732,1.615373
27.099609,818.572998,354.125977,1.616111
41.656494,797.515869,376.556396,1.616935
42.022705,802.734375,416.381836,1.617676
35.980225,808.227539,413.452148,1.618416
46.142578,816.375732,433.685303,1.619155
64.636230,819.030762,440.002441,1.619894
66.650391,838.348389,447.784424,1.620634
71.502686,839.630127,457.946777,1.621374
69.580078,827.270508,462.432861,1.622113
53.649902,832.946777,454.193115,1.622852
61.706543,832.489014,453.735352,1.623604
60.882568,828.369141,451.171875,1.624344
59.143066,818.847656,447.784424,1.625083
67.108154,834.869385,446.411133,1.625822
68.298340,863.159180,435.791016,1.626562
62.347412,859.954834,425.354004,1.627302
83.129883,884.490967,418.121338,1.628041
78.643799,898.315430,414.276123,1.628780
82.031250,897.399902,419.952393,1.629519
85.693359,939.514160,396.697998,1.630259
76.629639,958.007812,391.662598,1.630998
64.270020,1003.875732,390.747070,1.631737
81.115723,1012.207031,390.014648,1.632476
68.023682,1003.143311,386.718750,1.633216
71.868896,998.657227,381.591797,1.633955
89.630127,981.628418,392.028809,1.634695
71.044922,959.930420,390.014648,1.635435
64.453125,643.341064,452.178955,1.636178
-121.398926,740.112305,500.610352,1.636925
229.064941,943.359375,351.379395,1.637687
155.456543,1065.307617,394.226074,1.638436
-27.099609,1012.481689,404.388428,1.639176
206.634521,1040.405273,405.120850,1.639917
194.274902,1036.376953,408.782959,1.640657
-4.394531,1027.038574,414.184570,1.641410
117.919922,1053.497314,375.000000,1.642188
48.156738,1087.005615,369.232178,1.642930
6.866455,1074.554443,377.014160,1.643670
52.734375,1066.131592,379.852295,1.644441
21.881104,1082.885742,528.991699,1.645199
149.871826,1150.909424,725.738525,1.645970
234.008789,1159.057617,748.443604,1.646725
66.101074,1161.346436,791.198730,1.647500
102.081299,1195.587158,830.841064,1.648248
140.258789,1205.841064,861.145020,1.649008
69.854736,1195.312500,885.864258,1.649755
71.868896,1170.776367,907.104492,1.650496
114.807129,1164.550781,917.083740,1.651237
45.410156,1127.838135,928.070068,1.651978
61.889648,1105.957031,912.872314,1.652737
68.023682,1103.118896,903.350830,1.653480
-18.218994,1108.886719,862.426758,1.654223
-38.269043,1109.252930,821.594238,1.654964
-77.270508,1087.280273,797.515869,1.655702
-138.244629,1021.362305,745.513916,1.656433
-158.569336,1000.579834,713.653564,1.657164
-131.835938,967.346191,688.293457,1.657895
-102.539062,963.317871,645.629883,1.658630
-121.765137,941.253662,634.460449,1.659371
-80.291748,895.202637,618.804932,1.660117
-83.862305,886.413574,586.395264,1.660857
-72.967529,875.976562,558.013916,1.661597
-53.283691,886.047363,512.329102,1.662338
-49.804688,899.322510,481.842041,1.663079
-58.410645,915.618896,410.797119,1.663820
-58.227539,925.140381,371.887207,1.664570
-12.634277,933.105469,342.590332,1.665311
-22.979736,948.577881,279.968262,1.666052
-38.635254,963.684082,234.466553,1.666792
-7.873535,967.346191,223.937988,1.667540
-3.753662,973.297119,214.050293,1.668271
-12.634277,977.600098,192.077637,1.669001
-20.965576,984.100342,191.986084,1.669732
-9.155273,984.375000,229.431152,1.670474
-23.254395,963.775635,217.803955,1.671215
-25.543213,955.718994,232.727051,1.671955
-26.916504,947.021484,237.396240,1.672696
-36.346436,946.655273,258.361816,1.673445
-36.254883,935.302734,267.517090,1.674186
13.641357,918.457031,259.002686,1.674926
-223.754883,888.519287,271.453857,1.675667
-312.927246,874.237061,273.834229,1.676407
-381.317139,866.546631,264.587402,1.677147
-412.353516,853.637695,261.657715,1.677878
-374.359131,846.771240,273.559570,1.678609
-355.682373,818.298340,280.517578,1.679339
-340.667725,816.741943,268.981934,1.680090
-395.324707,820.220947,248.748779,1.680829
-379.669189,787.719727,245.635986,1.681569
-359.527588,793.029785,257.720947,1.682308
-361.816406,781.036377,243.621826,1.683056
-361.083984,784.973145,250.305176,1.683795
-334.442139,802.551270,258.087158,1.684534
-338.195801,904.357910,229.705811,1.685273
-277.770996,924.407959,229.705811,1.686020
-250.030518,868.194580,283.264160,1.686759
-207.000732,850.341797,230.987549,1.687499
-78.552246,863.708496,210.754395,1.688238
58.044434,885.589600,187.500000,1.689071
70.678711,885.589600,170.745850,1.689812
-44.036865,853.179932,179.718018,1.690551
-15.106201,840.087891,198.028564,1.691290
38.818359,830.657959,198.120117,1.692038
-21.423340,817.840576,196.838379,1.692778
-30.670166,816.925049,197.296143,1.693517
18.035889,814.453125,191.802979,1.694257
-8.605957,816.284180,187.774658,1.695005
-17.395020,822.509766,179.718018,1.695744
2.288818,845.031738,175.964355,1.696483
5.035400,845.123291,166.168213,1.697221
2.746582,866.546631,156.463623,1.697969
-1.098633,883.117676,159.027100,1.698708
12.268066,880.187988,181.915283,1.699446
2.105713,860.137939,169.189453,1.700185
10.162354,863.342285,176.696777,1.700931
19.409180,873.321533,179.534912,1.701683
20.141602,883.117676,179.809570,1.702423
30.303955,923.583984,181.732178,1.703162
35.156250,949.768066,197.479248,1.703907
28.381348,965.606689,204.895020,1.704647
34.790039,970.184326,212.951660,1.705386
36.621094,986.755371,227.142334,1.706126
48.065186,981.445312,242.889404,1.706866
61.706543,989.410400,251.586914,1.707605
74.798584,997.558594,273.468018,1.708345
69.305420,1013.854980,264.953613,1.709094
93.841553,1031.158447,269.348145,1.709851
109.039307,1016.052246,302.398682,1.710598
91.644287,1027.587891,313.934326,1.711365
108.032227,1018.157959,323.547363,1.712110
140.075684,1022.094727,340.576172,1.712851
111.968994,1024.200439,369.873047,1.713591
125.701904,1013.122559,385.711670,1.714332
134.582520,1021.545410,420.410156,1.715072
143.463135,1030.609131,421.875000,1.715813
138.702393,1050.109863,403.381348,1.716555
129.638672,1048.828125,373.168945,1.717295
126.525879,1033.264160,384.521484,1.718053
125.427246,1037.841797,388.183594,1.718784
107.208252,1041.229248,373.626709,1.719515
72.784424,1044.158936,366.302490,1.720246
66.833496,1032.623291,371.704102,1.720982
21.697998,998.474121,355.773926,1.721738
12.359619,987.579346,347.625732,1.722476
-2.746582,996.185303,347.259521,1.723207
16.204834,983.184814,337.097168,1.723965
21.240234,967.895508,309.265137,1.724696
8.605957,990.325928,290.313721,1.725427
36.987305,990.600586,238.952637,1.726159
33.782959,986.480713,207.275391,1.726906
48.248291,971.466064,154.907227,1.727637
53.741455,961.120605,96.679688,1.728367
18.035889,952.880859,92.102051,1.729098
17.303467,962.310791,60.333252,1.729839
21.240234,957.458496,53.009033,1.730570
-8.514404,967.895508,63.629150,1.731300
3.936768,967.163086,62.713623,1.732030
12.359619,965.148926,55.023193,1.732790
-6.134033,974.487305,67.382812,1.733531
13.000488,974.853516,66.925049,1.734270
26.092529,993.164062,80.200195,1.735009
14.282227,976.959229,122.680664,1.735758
-27.191162,1054.412842,153.442383,1.736499
144.653320,1057.250977,102.722168,1.737239
176.239014,936.218262,100.067139,1.738004
63.812256,873.596191,99.517822,1.738757
-34.515381,974.761963,31.402588,1.739498
-352.203369,883.300781,18.035889,1.740259
-129.455566,940.246582,-17.669678,1.741014
-291.595459,976.684570,-26.550293,1.741782
-372.161865,979.705811,-56.121826,1.742541
-165.710449,997.558594,-69.580078,1.743319
-219.635010,1000.946045,-78.826904,1.744064
-115.539551,1007.263184,-136.138916,1.744804
-95.672607,1014.770508,-196.105957,1.745592
-53.924561,1019.165039,-241.607666,1.746334
-57.861328,1008.087158,-241.882324,1.747092
-98.693848,993.438721,-263.031006,1.747834
-109.222412,996.276855,-311.096191,1.748574
-72.784424,991.607666,-321.990967,1.749316
-82.489014,1028.045654,-344.970703,1.750071
-8.239746,1047.180176,-360.534668,1.750813
98.693848,1094.146729,-383.697510,1.751555
74.707031,1074.645996,-346.710205,1.752311
30.670166,1067.504883,-357.330322,1.753066
-96.038818,1043.609619,-343.780518,1.753797
-104.461670,1045.532227,-313.293457,1.754528
-207.916260,1063.568115,-286.560059,1.755287
-524.688721,1084.808350,-230.438232,1.756042
-408.142090,1072.082520,-136.505127,1.756783
-113.891602,1146.240234,-90.728760,1.757524
95.947266,765.197754,8.697510,1.758265
129.638672,1007.629395,140.808105,1.759016
-3.845215,1039.489746,308.532715,1.759757
300.384521,1134.063721,347.625732,1.760497
170.471191,1247.039795,376.281738,1.761238
24.993896,1048.553467,456.848145,1.762059
333.618164,1255.920410,435.241699,1.762791
135.131836,1182.861328,432.128906,1.763550
324.462891,1141.845703,411.254883,1.764308
337.371826,1160.614014,398.895264,1.765097
204.162598,1186.248779,391.937256,1.765858
561.035156,1451.385498,577.606201,1.766616
926.605225,1718.719482,754.394531,1.767370
1071.624756,1734.649658,788.177490,1.768157
1347.839355,1629.730225,830.749512,1.768914
1095.794678,1516.021729,851.348877,1.769669
339.385986,1140.930176,860.046387,1.770429
-158.477783,1033.813477,784.881592,1.771208
-70.037842,1014.770508,662.841797,1.771945
-416.198730,925.689697,597.015381,1.772676
-599.121094,943.725586,488.067627,1.773407
-288.665771,1037.567139,437.164307,1.774175
-263.031006,1160.339355,373.992920,1.774916
-295.989990,1299.224854,335.357666,1.775657
65.460205,1350.585938,297.546387,1.776398
-106.109619,1190.643311,361.267090,1.777149
-620.452881,1148.345947,971.923828,1.777890
633.178711,1127.471924,627.685547,1.778646
-250.213623,1203.735352,209.106445,1.779388
-203.613281,1202.545166,303.955078,1.780129
-29.388428,1108.337402,344.055176,1.780871
311.920166,1110.626221,119.842529,1.781623
-538.055420,1057.525635,-5.218506,1.782371
131.103516,1090.942383,-39.825439,1.783131
-38.452148,995.361328,-52.001953,1.783873
-172.851562,1026.306152,-169.464111,1.784614
37.628174,1082.794189,-164.611816,1.785367
-12.084961,1055.328369,-133.850098,1.786108
-61.889648,1003.601074,-170.013428,1.786849
-188.690186,1030.975342,-233.642578,1.787589
-188.232422,1039.855957,-263.305664,1.788341
-162.689209,996.551514,-339.019775,1.789081
-170.654297,928.619385,-382.507324,1.789822
-352.935791,916.168213,-413.818359,1.790563
-430.114746,751.464844,-426.269531,1.791309
-807.403564,931.640625,-276.214600,1.792057
-1329.528809,940.246582,-268.798828,1.792799
-1207.397461,782.775879,-274.383545,1.793540
98.968506,1030.883789,-248.931885,1.794291
2999.908447,1256.011963,-116.271973,1.795033
2999.908447,1037.017822,-226.684570,1.795774
-1042.877197,913.879395,-169.189453,1.796514
-1827.575684,1023.010254,-222.198486,1.797264
-2251.556396,969.635010,-91.735840,1.798005
-523.590088,916.992188,-47.882080,1.798746
1128.570557,1249.328613,-161.041260,1.799491
1575.714111,1230.285645,-179.626465,1.800239
-213.684082,1077.941895,-210.296631,1.800970
-679.504395,979.064941,-314.758301,1.801701
-312.194824,959.014893,-403.015137,1.802432
64.727783,1014.404297,-519.927979,1.803181
328.308105,987.396240,-544.097900,1.803921
-164.611816,937.591553,-613.586426,1.804661
-357.788086,921.203613,-685.272217,1.805400
-280.609131,982.269287,-713.836670,1.806149
-31.127930,933.654785,-307.250977,1.806886
-303.039551,984.558105,-102.996826,1.807623
-923.492432,1050.750732,-66.009521,1.808360
-8.605957,1162.994385,-171.752930,1.809149
825.164795,1133.697510,-330.596924,1.809899
756.958008,1068.145752,-392.486572,1.810640
51.177979,860.687256,-399.627686,1.811381
-517.181396,932.464600,-263.488770,1.812125
-919.189453,1065.765381,-250.671387,1.812856
661.193848,1549.163818,-451.629639,1.813586
2374.420166,1363.677979,-8.789062,1.814318
673.828125,1040.039062,65.460205,1.815072
-458.312988,1108.428955,97.595215,1.815812
-931.549072,1119.415283,54.748535,1.816552
58.044434,1192.108154,-119.750977,1.817292
647.277832,1149.078369,-327.758789,1.818041
577.514648,1188.537598,-390.197754,1.818781
206.268311,1036.468506,-429.840088,1.819521
-319.427490,1051.666260,-497.589111,1.820261
-448.883057,1161.437988,-644.622803,1.821010
-511.962891,1171.600342,-500.701904,1.821750
-471.862793,884.582520,-142.913818,1.822490
-969.909668,1034.179688,207.000732,1.823229
-1081.420898,1229.095459,267.059326,1.823979
-595.733643,1426.300049,238.128662,1.824739
-96.038818,1207.305908,-178.894043,1.825481
15.289307,1308.288574,-382.415771,1.826236
2999.908447,1047.637939,-236.389160,1.826988
2685.882568,1310.577393,-425.628662,1.827729
1591.094971,795.867920,-111.145020,1.828470
-2273.437500,861.328125,125.335693,1.829212
-2888.397217,1209.594727,329.315186,1.829962
-1963.439941,1290.435791,295.989990,1.830703
-1424.652100,1338.134766,61.065674,1.831532
-1231.933594,1231.842041,-73.791504,1.832275
-180.999756,1102.569580,-146.301270,1.833019
1495.880127,1090.209961,-332.244873,1.833750
1948.333740,1180.755615,-369.415283,1.834481
-116.821289,1364.593506,3.387451,1.835212
-1484.252930,1573.150635,701.477051,1.835967
-853.088379,1685.577393,776.458740,1.836709
1067.596436,1778.961182,569.458008,1.837450
1537.353516,1633.026123,527.618408,1.838191
1995.025635,1438.568115,962.127686,1.838941
847.869873,1811.920166,2219.879150,1.839692
234.375000,2068.176270,2023.406982,1.840450
-856.018066,1800.384521,1279.815674,1.841212
-840.728760,1283.203125,-90.728760,1.842005
-928.253174,1051.666260,-495.208740,1.842788
-606.170654,1030.426025,-270.629883,1.843580
586.120605,1140.563965,-110.321045,1.844363
981.536865,1202.270508,25.268555,1.845132
609.008789,1085.906982,-154.541016,1.845949
281.707764,936.218262,-374.359131,1.846741
-436.614990,896.850586,-412.994385,1.847528
-363.372803,932.647705,-249.206543,1.848299
29.937744,1025.115967,-158.203125,1.849062
350.463867,1022.094727,-181.457520,1.849814
343.139648,1009.277344,-314.392090,1.850591
175.231934,966.339111,-354.125977,1.851337
-47.424316,942.260742,-365.295410,1.852086
-83.587646,950.866699,-342.864990,1.852824
-51.544189,980.712891,-264.495850,1.853584
53.924561,1009.185791,-248.016357,1.854347
130.554199,1012.847900,-258.911133,1.855091
83.862305,987.396240,-300.750732,1.855862
49.530029,930.999756,-344.970703,1.856600
161.041260,946.105957,-417.755127,1.857331
156.097412,964.141846,-432.861328,1.858062
144.836426,992.431641,-373.260498,1.858873
112.518311,1013.031006,-337.829590,1.859614
62.988281,1016.143799,-344.787598,1.860355
43.212891,985.565186,-343.139648,1.861090
44.403076,946.655273,-368.865967,1.861841
30.120850,944.641113,-384.155273,1.862574
46.142578,984.832764,-414.093018,1.863304
53.375244,1026.214600,-385.986328,1.864035
46.234131,1038.299561,-370.697021,1.864815
-2.288818,1047.363281,-381.042480,1.865546
-5.401611,1042.419434,-389.099121,1.866276
13.275146,1044.616699,-368.774414,1.867007
43.395996,1038.116455,-364.562988,1.867759
69.671631,1036.193848,-377.380371,1.868492
92.193604,1054.779053,-354.400635,1.869224
79.010010,1052.764893,-329.498291,1.869955
36.712646,1071.533203,-361.999512,1.870702
-1.373291,1088.378906,-360.168457,1.871433
-17.578125,1103.759766,-360.717773,1.872164
-19.592285,1108.245850,-370.147705,1.872895
-8.789062,1101.379395,-377.471924,1.873641
20.233154,1100.646973,-378.845215,1.874371
47.424316,1110.992432,-360.626221,1.875102
58.868408,1123.718262,-352.569580,1.875836
51.910400,1158.233643,-347.351074,1.876603
42.663574,1172.790527,-344.879150,1.877355
-22.521973,1179.473877,-343.780518,1.878103
-30.487061,1169.677734,-354.125977,1.878856
-43.304443,1157.135010,-369.781494,1.879626
-76.995850,1141.021729,-369.964600,1.880376
-113.800049,1133.789062,-355.682373,1.881113
-210.845947,1141.937256,-324.005127,1.881845
-237.030029,1167.297363,-288.940430,1.882616
-227.691650,1176.177979,-306.152344,1.883358
-205.444336,1160.156250,-308.532715,1.884098
-97.045898,1122.985840,-337.829590,1.884839
-24.719238,1103.302002,-363.372803,1.885598
61.889648,1123.352051,-386.993408,1.886339
53.100586,1116.943359,-386.260986,1.887079
-34.515381,1123.718262,-371.429443,1.887819
-123.046875,1101.287842,-353.118896,1.888566
-136.871338,1097.717285,-364.105225,1.889306
-101.257324,1075.561523,-365.386963,1.890046
-86.151123,1070.983887,-383.972168,1.890786
-55.847168,1059.173584,-379.760742,1.891536
-29.937744,1041.412354,-372.161865,1.892277
-29.663086,1029.602051,-404.846191,1.893017
-42.938232,1016.510010,-406.494141,1.893775
-50.537109,996.734619,-408.142090,1.894529
-47.607422,989.959717,-353.485107,1.895270
-34.698486,1013.854980,-357.696533,1.896010
-43.304443,1034.820557,-332.794189,1.896750
-59.051514,1018.981934,-353.210449,1.897500
-54.016113,1009.735107,-331.970215,1.898240
-42.114258,1003.051758,-312.744141,1.898980
-65.277100,999.023438,-318.237305,1.899720
-48.797607,995.086670,-333.068848,1.900469
-24.261475,998.382568,-314.117432,1.901210
13.366699,1000.030518,-331.237793,1.902048
-12.451172,1012.847900,-287.384033,1.902790
-88.165283,1008.728027,-287.841797,1.903543
-209.930420,981.353760,-325.927734,1.904283
-218.444824,938.507080,-318.603516,1.905023
-151.062012,943.725586,-320.892334,1.905762
-99.884033,964.691162,-328.125000,1.906512
-132.568359,979.797363,-371.520996,1.907252
-135.589600,960.845947,-361.267090,1.907992
-148.223877,904.907227,-385.253906,1.908732
-130.187988,889.068604,-396.697998,1.909481
-106.018066,896.392822,-409.881592,1.910221
-118.194580,913.970947,-445.312500,1.910961
-174.774170,924.407959,-444.305420,1.911701
-172.210693,914.062500,-417.846680,1.912450
-157.104492,903.808594,-414.001465,1.913190
-124.511719,923.034668,-458.862305,1.913930
-117.187500,969.909668,-441.833496,1.914669
-164.520264,973.388672,-427.276611,1.915419
-139.709473,939.605713,-439.270020,1.916159
-101.074219,919.189453,-526.153564,1.916898
-24.902344,888.336182,-541.992188,1.917639
-27.282715,926.971436,-458.404541,1.918388
2.288818,973.663330,-373.535156,1.919127
-48.980713,1031.982422,-365.386963,1.919867
-112.884521,1024.108887,-415.740967,1.920606
-196.014404,975.402832,-416.931152,1.921355
-191.528320,990.417480,-354.858398,1.922095
-180.175781,998.931885,-381.683350,1.922835
-211.303711,1017.517090,-318.237305,1.923575
-220.458984,996.643066,-321.533203,1.924351
-109.588623,995.544434,-358.245850,1.925112
37.902832,1032.073975,-347.534180,1.925865
20.050049,1071.624756,-340.209961,1.926607
-97.869873,1063.751221,-316.497803,1.927370
-119.934082,1069.793701,-263.763428,1.928111
-122.497559,1074.096680,-263.488770,1.928851
-151.062012,1088.104248,-290.130615,1.929592
-140.350342,1109.161377,-234.191895,1.930342
-90.362549,1106.048584,-239.044189,1.931082
-53.924561,1104.766846,-275.024414,1.931821
-51.177979,1100.738525,-267.791748,1.932561
-34.698486,1092.773438,-257.720947,1.933312
-24.536133,1099.090576,-275.390625,1.934051
-39.916992,1125.640869,-259.094238,1.934791
-103.637695,1183.685303,-233.093262,1.935530
-140.991211,1173.339844,-227.966309,1.936280
-141.174316,1135.986328,-248.657227,1.937019
-10.345459,1092.956543,-295.989990,1.937759
23.254395,1087.280273,-356.964111,1.938499
24.902344,1085.357666,-350.555420,1.939252
0.549316,1139.282227,-308.715820,1.939994
-86.791992,1159.881592,-311.096191,1.940734
-137.420654,1155.029297,-255.798340,1.941474
-108.123779,1136.901855,-270.904541,1.942225
-9.521484,1097.259521,-305.786133,1.942965
23.803711,1062.469482,-350.738525,1.943705
17.395020,1067.047119,-331.237793,1.944445
-47.332764,1125.274658,-273.834229,1.945195
-98.602295,1135.803223,-270.446777,1.945934
-137.695312,1107.147217,-283.905029,1.946674
-39.916992,1066.772461,-308.074951,1.947414
15.380859,1052.673340,-364.746094,1.948163
3.936768,1026.214600,-370.605469,1.948903
-20.874023,1019.805908,-361.083984,1.949642
-59.509277,1043.792725,-339.294434,1.950382
-89.172363,1073.364258,-309.631348,1.951132
-102.264404,1076.019287,-319.610596,1.951872
-94.207764,1049.377441,-338.745117,1.952611
-68.023682,1007.171631,-389.373779,1.953351
-36.071777,988.769531,-399.902344,1.954100
-54.840088,973.571777,-407.043457,1.954840
-66.284180,971.099854,-398.071289,1.955579
-56.671143,981.170654,-395.874023,1.956319
-56.945801,983.184814,-375.915527,1.957068
-55.847168,989.868164,-373.352051,1.957807
-70.678711,993.347168,-372.528076,1.958547
-85.510254,987.579346,-365.753174,1.959288
-108.123779,1007.171631,-334.167480,1.960037
-117.095947,1015.686035,-323.364258,1.960777
-111.877441,993.530273,-378.662109,1.961517
-95.489502,960.205078,-408.233643,1.962257
-87.066650,939.056396,-438.262939,1.963010
-84.777832,947.845459,-437.072754,1.963751
-104.370117,952.423096,-438.354492,1.964493
-119.842529,948.211670,-436.065674,1.965234
-126.068115,958.282471,-445.037842,1.965988
-130.096436,959.289551,-434.051514,1.966730
-130.920410,952.606201,-431.762695,1.967489
-134.948730,943.084717,-425.903320,1.968234
-141.082764,955.261230,-431.488037,1.969005
-150.604248,945.098877,-437.622070,1.969747
-157.104492,950.866699,-442.657471,1.970484
-155.639648,945.556641,-429.748535,1.971241
-162.139893,953.338623,-431.121826,1.972086
-150.238037,944.183350,-437.347412,1.972828
-169.281006,945.922852,-446.960449,1.973568
-184.844971,957.733154,-451.446533,1.974307
-241.516113,954.711914,-464.263916,1.975058
-261.749268,948.944092,-417.480469,1.975798
-235.839844,959.197998,-386.260986,1.976538
-199.401855,950.775146,-419.677734,1.977279
-170.928955,935.668945,-450.714111,1.978032
-201.507568,911.224365,-482.025146,1.978771
-211.029053,921.203613,-474.884033,1.979512
-213.867188,943.359375,-452.636719,1.980252
-219.360352,960.021973,-437.988281,1.981001
-230.255127,952.056885,-457.763672,1.981742
-208.099365,950.958252,-451.538086,1.982482
-196.746826,948.394775,-445.678711,1.983222
-173.675537,947.296143,-442.291260,1.983972
-209.564209,936.309814,-471.588135,1.984712
-224.853516,934.295654,-471.954346,1.985452
-206.085205,932.556152,-460.876465,1.986192
-159.301758,931.457520,-462.524414,1.986941
-122.680664,940.795898,-472.137451,1.987681
-59.783936,918.823242,-501.617432,1.988422
-75.988770,908.752441,-547.485352,1.989161
-213.867188,882.202148,-561.126709,1.989911
-250.854492,884.124756,-547.851562,1.990665
-202.789307,892.364502,-454.101562,1.991411
-56.762695,914.245605,-432.403564,1.992152
-67.108154,884.033203,-553.802490,1.992909
-80.108643,870.574951,-531.646729,1.993651
-99.884033,860.687256,-579.254150,1.994391
-106.292725,837.249756,-748.260498,1.995139
-117.370605,782.501221,-816.467285,1.995911
38.726807,783.874512,-740.112305,1.996664
107.666016,801.544189,-643.341064,1.997410
110.504150,803.833008,-653.320312,1.998151
153.259277,811.248779,-595.275879,1.998909
74.798584,813.079834,-629.150391,1.999650
-198.944092,738.281250,-752.655029,2.000390
-271.087646,713.745117,-661.743164,2.001131
-80.474854,722.259521,-596.466064,2.001881
7.507324,770.324707,-515.716553,2.002622
-146.484375,781.768799,-463.897705,2.003361
-490.722656,760.986328,-507.568359,2.004101
-484.130859,745.513916,-701.019287,2.004851
-284.729004,717.498779,-755.126953,2.005591
-397.613525,620.910645,-772.338867,2.006331
-467.651367,576.965332,-803.558350,2.007071
-384.613037,587.585449,-784.515381,2.007820
-308.166504,579.620361,-681.060791,2.008561
-305.694580,565.979004,-659.729004,2.009304
-451.446533,589.599609,-648.742676,2.010046
-498.504639,587.402344,-532.928467,2.010798
-449.798584,657.257080,-526.062012,2.011539
-445.587158,665.863037,-597.106934,2.012279
-361.907959,601.959229,-764.648438,2.013019
101.257324,547.393799,-753.387451,2.013769
221.832275,567.352295,-546.569824,2.014510
102.539062,617.614746,-379.577637,2.015250
-63.903809,742.584229,-365.753174,2.015990
-126.251221,765.106201,-862.609863,2.016740
-192.443848,639.953613,-1155.670166,2.017480
-289.215088,510.864258,-1404.602051,2.018221
-510.223389,472.503662,-1348.754883,2.018961
-520.385742,446.960449,-1090.118408,2.019713
-422.515869,534.759521,-706.970215,2.020453
-413.269043,598.022461,-512.786865,2.021193
-459.136963,706.420898,-365.570068,2.021933
-434.875488,692.779541,-508.666992,2.022684
596.466064,950.866699,323.822021,2.023424
1725.036621,1038.024902,-85.235596,2.024164
2153.137207,688.385010,-1126.647949,2.024904
551.971436,437.072754,-1952.178955,2.025655
655.975342,536.041260,-1758.819580,2.026395
590.606689,742.309570,-1424.377441,2.027136
-459.320068,715.209961,-1114.654541,2.027876
-1766.601562,728.668213,-890.350342,2.028627
-2252.746582,770.233154,-519.470215,2.029368
-2990.386963,643.249512,93.841553,2.030109
-3000.000000,448.699951,153.625488,2.030849
1785.552979,763.458252,-332.519531,2.031599
2900.024414,841.461182,469.207764,2.032340
-21.148682,751.739502,505.279541,2.033080
-446.411133,769.226074,151.702881,2.033820
1064.208984,999.572754,-120.208740,2.034569
444.213867,1035.186768,-336.822510,2.035309
253.051758,978.881836,-609.741211,2.036048
765.930176,802.185059,-608.551025,2.036788
678.314209,756.042480,-517.547607,2.037537
718.505859,841.552734,-546.478271,2.038277
1090.759277,867.553711,-606.628418,2.039017
1098.541260,882.110596,-779.479980,2.039757
1293.640137,829.376221,-889.984131,2.040509
1527.282715,751.556396,-899.047852,2.041330
1335.937500,742.675781,-633.361816,2.042070
1000.762939,854.095459,-555.084229,2.042810
686.920166,891.357422,-421.691895,2.043561
643.157959,900.695801,-355.407715,2.044301
644.805908,929.718018,-311.370850,2.045040
741.760254,973.022461,-322.357178,2.045780
811.157227,980.438232,-378.387451,2.046528
747.528076,922.119141,-490.539551,2.047280
711.181641,890.899658,-544.281006,2.048023
664.581299,834.503174,-574.493408,2.048763
718.597412,920.928955,-555.725098,2.049513
535.858154,982.543945,-407.135010,2.050254
-79.925537,1049.102783,-212.219238,2.050993
77.911377,1103.942871,-166.259766,2.051733
175.964355,1102.935791,-167.541504,2.052482
55.206299,1062.927246,-191.711426,2.053222
12.634277,983.367920,-120.208740,2.053961
-314.117432,1054.229736,-77.087402,2.054700
-471.221924,1091.583252,-92.926025,2.055450
-720.245361,1093.231201,-105.010986,2.056190
-1101.928711,1234.954834,-119.659424,2.056930
-1298.492432,1330.718994,-28.381348,2.057670
-2145.263672,1431.060791,161.315918,2.058419
-2969.055176,1297.943115,618.621826,2.059160
-3000.000000,1336.395264,604.980469,2.059900
-2770.111084,1364.318848,455.749512,2.060641
-2098.754883,1354.156494,136.962891,2.061389
124.511719,1310.852051,-57.769775,2.062130
1188.079834,1046.539307,-45.959473,2.062870
835.601807,958.190918,142.639160,2.063610
365.844727,1146.881104,106.658936,2.064360
237.304688,1386.932373,118.835449,2.065105
155.456543,1440.124512,127.166748,2.065858
329.681396,1455.322266,83.221436,2.066611
545.013428,1364.776611,62.622070,2.067389
1536.163330,1387.115479,68.389893,2.068148
1357.727051,1196.228027,43.853760,2.068893
534.301758,1046.905518,-256.988525,2.069667
-498.596191,817.932129,-320.343018,2.070415
-480.102539,709.808350,-477.081299,2.071158
-587.493896,692.962646,-597.106934,2.071899
-541.168213,711.639404,-646.270752,2.072642
-480.010986,729.034424,-561.309814,2.073400
-408.966064,772.064209,-531.555176,2.074146
-311.462402,826.263428,-464.172363,2.074893
-284.637451,824.157715,-421.325684,2.075658
-297.088623,822.143555,-416.931152,2.076400
-313.476562,821.777344,-462.158203,2.077139
-350.006104,828.369141,-458.587646,2.077880
-386.444092,804.382324,-460.327148,2.078629
-403.930664,815.643311,-466.369629,2.079375
-439.544678,798.980713,-495.849609,2.080115
-409.240723,792.755127,-548.400879,2.080855
-363.098145,779.846191,-557.556152,2.081595
-283.172607,775.268555,-541.625977,2.082335
-263.671875,760.803223,-515.258789,2.083074
-252.685547,767.852783,-509.490967,2.083814
-224.945068,771.057129,-512.237549,2.084555
-219.726562,777.832031,-519.927979,2.085295
-242.340088,760.620117,-534.851074,2.086035
-265.869141,748.901367,-528.625488,2.086775
-281.341553,745.971680,-519.744873,2.087517
-265.045166,751.190186,-520.477295,2.088259
-247.283936,755.859375,-518.920898,2.088999
-194.000244,766.571045,-513.977051,2.089739
-145.751953,764.007568,-507.110596,2.090479
-142.181396,765.380859,-505.828857,2.091219
-137.786865,748.535156,-519.927979,2.091959
-164.062500,735.076904,-530.181885,2.092699
-190.521240,719.055176,-526.794434,2.093441
-196.197510,713.653564,-526.519775,2.094184
-199.676514,717.407227,-523.315430,2.094925
-218.902588,721.069336,-520.385742,2.095664
-199.584961,707.702637,-523.223877,2.096405
-92.742920,701.019287,-520.477295,2.097145
-52.551270,691.864014,-527.893066,2.097885
-62.072754,691.589355,-514.160156,2.098625
-54.016113,692.321777,-511.596680,2.099365
-79.559326,688.934326,-529.083252,2.100116
-100.067139,680.511475,-529.907227,2.100856
-145.660400,679.962158,-535.308838,2.101596
-165.985107,676.940918,-518.096924,2.102336
-163.696289,663.208008,-509.948730,2.103085
-116.821289,674.560547,-499.053955,2.103825
-102.905273,675.659180,-515.075684,2.104564
-51.727295,678.588867,-499.786377,2.105304
-32.226562,660.369873,-518.188477,2.106052
-33.599854,645.263672,-536.315918,2.106792
-58.868408,629.699707,-554.809570,2.107532
-87.799072,624.938965,-555.267334,2.108273
-114.624023,631.164551,-553.253174,2.109022
-124.786377,636.291504,-538.330078,2.109763
-134.765625,648.925781,-535.400391,2.110502
-113.342285,661.468506,-528.808594,2.111338
-97.320557,675.384521,-518.096924,2.112079
-73.150635,674.926758,-523.406982,2.112819
-56.854248,678.405762,-535.034180,2.113559
-62.896729,682.617188,-547.851562,2.114308
-100.982666,671.630859,-552.520752,2.115048
-128.540039,687.835693,-542.724609,2.115788
-155.731201,704.315186,-512.969971,2.116528
-191.070557,730.224609,-494.110107,2.117267
-202.148438,741.851807,-481.201172,2.118007
-207.733154,753.204346,-487.426758,2.118747
-188.232422,751.831055,-509.216309,2.119486
-186.767578,745.697021,-518.463135,2.120226
-175.872803,734.893799,-553.253174,2.120965
-166.076660,726.745605,-563.140869,2.121705
-186.035156,713.745117,-566.802979,2.122445
-216.064453,729.675293,-553.253174,2.123185
-226.043701,738.372803,-549.591064,2.123925
-258.361816,741.577148,-539.611816,2.124665
-267.791748,757.507324,-532.104492,2.125404
-275.482178,760.620117,-529.174805,2.126145
-273.376465,766.754150,-534.118652,2.126899
-270.904541,772.796631,-552.703857,2.127639
-265.411377,756.317139,-566.894531,2.128380
-266.143799,756.591797,-580.169678,2.129119
-282.531738,753.387451,-581.909180,2.129868
-290.496826,772.064209,-575.775146,2.130608
