ACC_X,ACC_Y,ACC_Z,Time
-455.474854,883.209229,72.052002,0.000135
-451.080322,878.265381,65.734863,0.000898
-451.904297,883.026123,73.699951,0.001708
-457.763672,881.011963,70.495605,0.002455
-450.164795,884.124756,69.763184,0.003200
-447.143555,883.666992,71.319580,0.003947
-446.960449,883.026123,75.347900,0.004706
-452.911377,880.462646,62.805176,0.005450
-447.509766,884.857178,74.523926,0.006195
-444.946289,877.807617,65.643311,0.006940
-450.256348,884.216309,69.396973,0.007684
-454.833984,885.681152,91.461182,0.008446
-450.897217,882.843018,75.347900,0.009191
-449.432373,878.448486,73.883057,0.009938
-455.932617,879.913330,75.897217,0.010682
-456.115723,884.674072,74.615479,0.011424
-454.467773,882.019043,66.558838,0.012169
-453.277588,872.314453,68.206787,0.012913
-451.995850,874.328613,67.108154,0.013657
-448.974609,867.919922,66.284180,0.014399
-448.059082,872.955322,62.438965,0.015133
-437.438965,866.912842,66.558838,0.015867
-445.220947,859.771729,59.143066,0.016658
-445.861816,866.455078,62.530518,0.017448
-449.981689,860.961914,72.052002,0.018196
-442.016602,860.687256,62.805176,0.018940
-445.129395,862.243652,71.502686,0.019684
-443.847656,863.800049,60.974121,0.020442
-438.629150,865.173340,68.206787,0.021188
-443.115234,853.820801,64.544678,0.021932
-438.079834,852.539062,61.614990,0.022676
-444.946289,859.130859,68.756104,0.023424
-440.277100,862.152100,71.319580,0.024158
-437.622070,857.849121,72.052002,0.024892
-446.411133,855.743408,70.953369,0.025626
-435.424805,856.018066,61.065674,0.026363
-447.875977,853.546143,64.910889,0.027107
-449.340820,858.123779,67.474365,0.027851
-445.220947,856.292725,69.763184,0.028594
-450.622559,865.264893,75.531006,0.029334
-451.812744,863.250732,76.904297,0.030068
-450.714111,870.849609,77.911377,0.030801
-457.122803,871.765137,47.515869,0.031534
-450.714111,868.103027,68.298340,0.032270
-450.073242,868.194580,72.601318,0.033004
-450.073242,872.589111,75.988770,0.033737
-450.073242,873.413086,74.981689,0.034488
-445.861816,873.138428,65.277100,0.035260
-446.136475,870.666504,76.171875,0.035997
-449.432373,881.835938,76.629639,0.036731
-446.685791,874.237061,76.080322,0.037464
-453.277588,873.687744,74.432373,0.038212
-459.228516,871.124268,72.692871,0.038955
-457.031250,875.335693,70.678711,0.039698
-452.911377,870.117188,71.685791,0.040441
-445.587158,876.159668,70.037842,0.041184
-445.129395,881.286621,68.298340,0.041927
-448.883057,875.244141,77.636719,0.042669
-450.531006,875.244141,75.073242,0.043412
-448.516846,872.314453,76.812744,0.044155
-446.777344,874.053955,77.819824,0.044908
-454.193115,873.504639,64.178467,0.045651
-456.298828,876.251221,70.678711,0.046445
-453.918457,879.364014,71.502686,0.047189
-448.608398,873.870850,74.890137,0.047931
-448.059082,888.153076,75.531006,0.048673
-456.024170,881.652832,69.763184,0.049416
-423.248291,877.532959,72.601318,0.050158
-443.023682,877.807617,76.354980,0.050901
-453.277588,872.772217,70.312500,0.051644
-449.249268,871.124268,69.030762,0.052386
-449.798584,879.272461,73.791504,0.053129
-456.298828,879.089355,74.432373,0.053933
-450.347900,882.659912,70.220947,0.054676
-451.629639,878.540039,65.093994,0.055418
-447.875977,883.758545,73.333740,0.056162
-446.411133,882.568359,73.608398,0.056904
-441.375732,878.448486,77.362061,0.057647
-441.375732,884.399414,71.228027,0.058390
-447.601318,876.708984,72.692871,0.059133
-424.255371,877.624512,68.023682,0.059898
-448.791504,873.321533,69.213867,0.060668
-449.615479,877.807617,74.066162,0.061425
-451.354980,868.835449,76.171875,0.062185
-456.848145,875.885010,80.657959,0.062921
-452.545166,872.589111,75.622559,0.063654
-453.369141,875.244141,76.354980,0.064387
-448.150635,872.955322,63.262939,0.065146
-449.432373,874.053955,68.389893,0.065890
-448.883057,879.730225,69.946289,0.066633
-451.171875,874.053955,67.565918,0.067376
-453.460693,876.068115,66.009521,0.068126
-464.447021,874.511719,74.249268,0.068869
-452.911377,876.251221,78.002930,0.069611
-449.890137,874.603271,77.178955,0.070354
-450.622559,867.462158,71.594238,0.071097
-457.489014,860.778809,57.037354,0.071840
-461.059570,870.483398,61.431885,0.072696
-451.629639,864.990234,71.594238,0.073440
-452.270508,871.948242,70.220947,0.074197
-452.453613,871.398926,69.213867,0.074940
-449.890137,869.293213,73.059082,0.075683
-451.171875,868.286133,63.171387,0.076425
-446.960449,871.856689,72.143555,0.077191
-451.354980,866.912842,72.418213,0.077934
-443.847656,870.758057,68.206787,0.078677
-450.622559,866.363525,68.206787,0.079419
-454.742432,868.835449,65.551758,0.080172
-449.432373,870.391846,64.178467,0.080914
-453.735352,871.032715,78.186035,0.081656
-459.136963,875.976562,68.481445,0.082399
-451.080322,873.779297,73.608398,0.083149
-443.023682,876.892090,69.580078,0.083889
-449.340820,866.821289,73.059082,0.084629
-456.207275,868.743896,63.537598,0.085403
-450.439453,876.068115,64.178467,0.086193
-446.319580,866.363525,61.157227,0.086940
-441.650391,860.229492,67.932129,0.087684
-448.974609,860.137939,67.657471,0.088429
-450.531006,865.539551,65.002441,0.089162
-454.010010,868.743896,67.382812,0.089896
-448.425293,851.623535,60.241699,0.090629
-445.678711,870.666504,65.643311,0.091362
-467.376709,864.257812,65.643311,0.092122
-450.439453,865.814209,64.270020,0.092865
-450.164795,870.666504,58.776855,0.093608
-446.502686,847.595215,55.297852,0.094350
-443.572998,864.074707,67.382812,0.094965
-441.284180,867.095947,65.002441,0.095707
-445.953369,861.511230,60.424805,0.096449
-447.509766,868.743896,60.241699,0.097192
-452.270508,870.300293,60.058594,0.097944
-450.805664,868.103027,60.333252,0.098687
-451.354980,862.884521,62.988281,0.099429
-446.502686,861.145020,60.882568,0.100172
-448.425293,865.814209,62.164307,0.100839
-446.136475,871.582031,60.516357,0.101582
-448.059082,862.243652,59.967041,0.102324
-453.002930,868.835449,55.847168,0.103202
-449.340820,870.758057,60.150146,0.103970
-443.481445,871.032715,56.671143,0.104715
-450.164795,862.426758,53.924561,0.105457
-448.516846,862.152100,54.931641,0.106200
-450.897217,870.483398,61.798096,0.106951
-446.044922,873.229980,59.692383,0.107691
-451.354980,869.018555,53.192139,0.108432
-450.073242,872.680664,59.692383,0.109186
-446.228027,875.518799,59.783936,0.109933
-442.291260,870.391846,58.410645,0.110677
-450.714111,876.800537,51.269531,0.111419
-450.347900,877.166748,53.283691,0.112179
-448.059082,872.406006,56.304932,0.112924
-448.608398,876.983643,58.776855,0.113667
-448.425293,883.117676,58.319092,0.114418
-452.087402,867.919922,57.128906,0.115193
-454.010010,875.152588,55.114746,0.115937
-455.841064,868.011475,52.368164,0.116680
-460.784912,879.821777,62.530518,0.117422
-458.587646,879.730225,60.516357,0.118165
-453.918457,882.751465,63.171387,0.118908
-450.256348,881.286621,61.981201,0.119650
-451.721191,885.772705,60.333252,0.120393
-460.510254,879.089355,62.347412,0.121135
-455.108643,878.356934,54.565430,0.121878
-451.080322,878.997803,55.572510,0.122620
-458.770752,878.814697,63.262939,0.123362
-461.700439,882.202148,63.995361,0.124104
-454.925537,882.385254,59.326172,0.124847
-458.404541,877.807617,59.692383,0.125593
-460.052490,882.934570,60.516357,0.126404
-468.109131,877.807617,59.600830,0.127212
-463.165283,873.138428,59.417725,0.127958
-459.503174,869.842529,60.424805,0.128701
-456.207275,881.469727,64.178467,0.129443
-455.841064,874.877930,53.466797,0.130199
-460.235596,884.307861,58.959961,0.130943
-452.178955,878.173828,52.642822,0.131685
-458.770752,887.969971,58.319092,0.132428
-462.615967,877.349854,51.269531,0.133257
-463.439941,882.293701,61.889648,0.134000
-470.123291,883.483887,59.600830,0.134742
-469.940186,887.420654,59.600830,0.135483
-461.242676,889.984131,58.044434,0.136277
-462.799072,883.209229,53.649902,0.137021
-464.172363,889.251709,60.333252,0.137763
-465.911865,881.561279,58.776855,0.138505
-468.566895,889.251709,62.622070,0.139258
-466.918945,890.075684,52.276611,0.140000
-471.038818,884.857178,48.980713,0.140742
-464.080811,892.364502,56.762695,0.141485
-465.362549,889.617920,59.692383,0.142098
-469.848633,888.061523,58.776855,0.142841
-476.074219,886.779785,58.502197,0.143584
-469.848633,885.131836,50.445557,0.144327
-468.658447,881.195068,52.001953,0.145079
-457.763672,890.991211,52.825928,0.145923
-461.242676,875.610352,49.255371,0.146667
-469.573975,892.181396,49.621582,0.147422
-462.524414,887.786865,54.016113,0.148204
-461.608887,910.217285,58.410645,0.148948
-462.707520,895.751953,56.213379,0.149691
-447.784424,892.456055,58.685303,0.150434
-465.179443,893.280029,64.178467,0.151177
-461.151123,889.617920,61.248779,0.151920
-459.869385,913.055420,51.818848,0.152663
-472.412109,894.561768,55.572510,0.153415
-475.158691,891.906738,59.051514,0.154158
-470.764160,881.561279,55.114746,0.154927
-463.165283,887.145996,60.791016,0.155670
-466.186523,884.674072,57.769775,0.156425
-461.700439,893.188477,54.290771,0.157168
-460.052490,884.307861,51.269531,0.157910
-461.425781,913.879395,49.346924,0.158654
-463.714600,884.490967,51.910400,0.159397
-460.235596,895.019531,50.079346,0.160141
-463.714600,886.505127,52.001953,0.160892
-460.968018,889.160156,59.417725,0.161635
-466.644287,884.582520,57.952881,0.162386
-462.066650,886.138916,59.692383,0.163120
-466.094971,880.004883,59.417725,0.163853
-465.179443,882.019043,56.488037,0.164605
-459.503174,882.019043,57.861328,0.165386
-456.756592,885.955811,58.135986,0.166155
-461.883545,886.871338,59.875488,0.166905
-466.918945,885.955811,58.502197,0.167652
-463.623047,878.814697,56.945801,0.168414
-463.806152,882.385254,54.931641,0.169157
-463.073730,876.708984,61.248779,0.169900
-461.151123,879.364014,59.600830,0.170642
-460.418701,880.645752,57.952881,0.171395
-462.615967,877.716064,54.840088,0.172138
-462.158203,882.019043,54.473877,0.172880
-458.221436,884.124756,48.797607,0.173691
-467.102051,882.385254,55.206299,0.174445
-466.369629,878.906250,59.783936,0.175188
-468.566895,875.152588,57.586670,0.175931
-462.524414,884.033203,52.185059,0.176673
-466.003418,881.652832,58.502197,0.177499
-461.700439,875.701904,62.072754,0.178243
-463.348389,877.258301,57.220459,0.178985
-462.249756,882.476807,58.776855,0.179727
-459.045410,882.476807,57.952881,0.180423
-464.263916,873.229980,54.382324,0.181163
-458.221436,879.272461,52.917480,0.181903
-458.496094,873.046875,62.713623,0.182735
-462.707520,877.166748,56.396484,0.183498
-463.073730,875.793457,58.410645,0.184241
-456.665039,877.532959,59.600830,0.184984
-457.122803,872.314453,59.234619,0.185726
-453.918457,876.892090,55.664062,0.186479
-458.129883,876.800537,55.023193,0.187222
-458.862305,880.645752,60.974121,0.187964
-459.228516,882.843018,64.178467,0.188707
-458.862305,876.892090,57.403564,0.189350
-464.080811,877.532959,60.607910,0.190094
-455.657959,876.434326,58.319092,0.190836
-456.481934,883.209229,57.037354,0.191579
-462.982178,884.765625,60.150146,0.192331
-461.700439,879.272461,53.466797,0.193074
-462.615967,885.040283,53.192139,0.193816
-468.292236,887.878418,53.192139,0.194608
-460.418701,894.287109,54.656982,0.195417
-467.285156,884.765625,63.629150,0.196175
-470.306396,884.582520,56.671143,0.196938
-461.059570,888.610840,55.572510,0.197771
-460.876465,890.991211,51.727295,0.198527
-462.249756,892.089844,55.297852,0.199311
-464.263916,889.434814,53.100586,0.200065
-465.637207,888.153076,49.072266,0.200810
-461.700439,895.019531,54.290771,0.201553
-470.214844,897.033691,52.551270,0.202296
-466.186523,869.201660,54.931641,0.203042
-463.806152,889.709473,56.213379,0.203900
-468.017578,891.632080,50.994873,0.204645
-464.447021,896.392822,52.917480,0.205387
-464.447021,887.420654,54.473877,0.206130
-461.791992,884.490967,49.987793,0.206873
-463.348389,890.533447,52.001953,0.207616
-453.369141,884.857178,54.931641,0.208359
-463.256836,878.540039,57.678223,0.209101
-450.622559,882.751465,52.276611,0.209844
-455.383301,885.589600,52.917480,0.210586
-457.397461,882.659912,53.192139,0.211329
-454.376221,881.927490,51.269531,0.212071
-456.573486,881.927490,48.706055,0.212813
-450.897217,878.356934,61.798096,0.213556
-460.784912,880.279541,58.959961,0.214348
-461.883545,880.279541,55.572510,0.215093
-458.404541,886.688232,56.304932,0.215850
-456.298828,880.279541,57.403564,0.216593
-457.946777,884.674072,55.755615,0.217335
-457.122803,880.004883,55.114746,0.218078
-448.883057,882.385254,58.685303,0.218821
-454.193115,880.554199,56.579590,0.219663
-454.467773,874.694824,57.678223,0.220407
-463.348389,871.215820,54.290771,0.221149
-458.038330,875.793457,53.833008,0.221859
-459.045410,872.589111,53.192139,0.222602
-457.855225,880.096436,53.833008,0.223344
-461.608887,871.215820,56.030273,0.224087
-453.277588,871.307373,57.586670,0.224839
-462.158203,875.793457,60.607910,0.225581
-463.439941,866.638184,54.016113,0.226324
-456.024170,876.800537,54.382324,0.227066
-460.052490,875.976562,55.389404,0.227816
-458.221436,873.321533,57.220459,0.228550
-457.397461,871.398926,52.368164,0.229283
-459.320068,871.032715,56.121826,0.230016
-460.968018,880.737305,57.678223,0.230771
-457.489014,875.427246,56.762695,0.231514
-455.291748,878.906250,57.495117,0.232257
-456.390381,883.209229,54.016113,0.233000
-452.178955,881.378174,55.572510,0.233743
-453.552246,877.899170,58.502197,0.234486
-454.559326,881.011963,57.220459,0.235228
-455.932617,885.406494,56.762695,0.235970
-457.580566,884.216309,52.917480,0.236765
-457.031250,880.645752,55.664062,0.237505
-457.763672,877.716064,59.143066,0.238244
-459.869385,883.575439,64.910889,0.239058
-458.038330,877.532959,71.777344,0.239840
-459.594727,876.251221,64.453125,0.240583
-459.228516,886.322021,63.171387,0.241325
-462.982178,878.356934,60.241699,0.242068
-451.995850,881.103516,54.931641,0.242820
-451.629639,875.793457,58.319092,0.243563
-456.573486,879.455566,62.255859,0.244305
-452.270508,875.427246,57.312012,0.245047
-460.052490,872.497559,57.952881,0.245800
-450.714111,878.173828,63.262939,0.246542
-457.855225,872.406006,60.974121,0.247284
-456.115723,869.110107,54.382324,0.248027
-455.383301,871.948242,56.030273,0.248778
-457.397461,875.244141,61.248779,0.249521
-453.918457,861.145020,60.241699,0.250263
-448.883057,872.039795,62.530518,0.251006
-454.193115,858.398438,56.121826,0.251759
-448.059082,864.532471,53.100586,0.252502
-451.629639,873.138428,64.453125,0.253244
-455.474854,869.659424,61.248779,0.253986
-457.672119,861.511230,61.065674,0.254736
-446.868896,862.152100,60.150146,0.255476
-458.862305,868.835449,60.699463,0.256216
-454.833984,858.123779,67.840576,0.256978
-458.404541,867.828369,60.699463,0.257737
-455.291748,871.856689,63.995361,0.258480
-446.960449,870.574951,62.164307,0.259223
-442.932129,868.927002,59.967041,0.259965
-446.411133,871.856689,65.185547,0.260727
-452.819824,872.314453,65.368652,0.261470
-450.439453,869.201660,70.770264,0.262213
-448.425293,867.736816,65.093994,0.262956
-456.939697,873.413086,68.206787,0.263638
-459.960938,869.110107,66.375732,0.264381
-458.587646,870.941162,69.763184,0.265123
-465.270996,862.701416,64.544678,0.265866
-459.686279,873.779297,64.453125,0.266618
-456.298828,863.342285,65.368652,0.267361
-447.967529,871.032715,65.002441,0.268104
-448.150635,874.053955,60.333252,0.268847
-451.538086,864.074707,71.136475,0.269598
-448.425293,867.095947,66.467285,0.270341
-455.566406,871.582031,65.917969,0.271083
-446.411133,870.391846,69.671631,0.271826
-448.059082,869.293213,69.854736,0.272578
-449.066162,865.447998,68.115234,0.273321
-449.432373,889.526367,70.312500,0.274063
-449.615479,877.532959,75.988770,0.274806
-452.636719,864.898682,69.122314,0.275558
-443.389893,871.765137,93.109131,0.276301
-443.939209,869.934082,61.798096,0.277043
-448.516846,872.314453,68.939209,0.277785
-450.988770,863.159180,63.262939,0.278530
-448.516846,866.180420,66.925049,0.279272
-446.960449,865.631104,90.087891,0.280015
-443.298340,868.377686,70.129395,0.280758
-446.685791,876.251221,66.833496,0.281501
-446.868896,867.004395,61.340332,0.282243
-450.988770,869.567871,70.312500,0.282986
-455.657959,859.130859,68.939209,0.283729
-448.059082,866.088867,70.037842,0.284481
-450.714111,862.060547,69.305420,0.285224
-450.073242,859.680176,68.115234,0.285967
-446.319580,862.884521,72.143555,0.286710
-441.284180,860.046387,71.228027,0.287461
-447.418213,865.905762,64.270020,0.288204
-446.777344,890.441895,67.840576,0.288947
-442.749023,868.103027,74.890137,0.289689
-449.432373,866.271973,62.438965,0.290432
-453.735352,858.764648,60.974121,0.291175
-450.439453,844.757080,69.122314,0.292011
-445.587158,870.208740,70.770264,0.292755
-446.044922,864.166260,70.587158,0.293590
-439.086914,866.638184,73.608398,0.294337
-444.488525,858.947754,70.495605,0.295079
-440.917969,859.954834,70.312500,0.295822
-440.826416,863.342285,72.418213,0.296572
-443.389893,864.074707,70.953369,0.297315
-442.108154,858.764648,68.115234,0.298134
-441.375732,863.250732,72.601318,0.298889
-442.657471,850.708008,67.291260,0.299555
-445.220947,856.475830,68.389893,0.300326
-445.861816,859.497070,69.763184,0.301071
-441.925049,861.145020,64.910889,0.301813
-438.171387,857.849121,79.742432,0.302576
-444.396973,853.729248,79.925537,0.303319
-446.319580,855.560303,72.875977,0.304061
-438.995361,862.884521,82.122803,0.304804
-437.805176,851.989746,77.087402,0.305556
-439.361572,856.842041,78.643799,0.306299
-446.594238,860.412598,72.326660,0.307042
-447.326660,854.278564,77.819824,0.307786
-444.946289,852.630615,72.784424,0.308547
-437.530518,856.750488,82.031250,0.309290
-438.903809,855.926514,78.002930,0.310032
-433.044434,847.412109,77.362061,0.310775
-435.333252,855.468750,72.143555,0.311521
-440.185547,860.321045,73.791504,0.312255
-431.579590,859.588623,76.721191,0.313022
-433.685303,863.800049,74.432373,0.313769
-434.967041,850.524902,72.418213,0.314567
-438.354492,858.398438,70.312500,0.315316
-438.262939,860.687256,79.101562,0.316060
-437.713623,860.229492,76.904297,0.316830
-443.939209,859.863281,74.707031,0.317467
-445.220947,867.187500,75.073242,0.318226
-440.734863,857.391357,76.354980,0.318968
-438.171387,866.088867,76.995850,0.319731
-438.995361,864.807129,78.826904,0.320533
-441.741943,859.497070,84.686279,0.321278
-437.438965,864.715576,74.523926,0.322022
-436.248779,862.884521,79.284668,0.322765
-443.389893,868.103027,79.650879,0.323509
-445.587158,869.659424,72.143555,0.324243
-439.819336,865.264893,76.446533,0.324976
-437.530518,867.828369,79.010010,0.325709
-434.967041,868.927002,73.516846,0.326468
-438.903809,873.413086,76.721191,0.327209
-436.981201,875.335693,85.418701,0.327949
-443.847656,872.955322,82.580566,0.328703
-442.199707,875.427246,80.657959,0.329449
-436.798096,868.835449,73.974609,0.330191
-436.157227,865.905762,76.263428,0.330934
-444.763184,871.582031,79.925537,0.331677
-439.361572,872.680664,73.150635,0.332421
-439.086914,872.589111,73.150635,0.333154
-438.812256,878.082275,80.383301,0.333887
-437.805176,880.828857,51.269531,0.334620
-435.699463,873.962402,73.059082,0.335378
-444.671631,871.582031,75.164795,0.336121
-439.636230,876.434326,81.481934,0.336863
-437.713623,874.328613,58.868408,0.337605
-443.389893,863.067627,68.481445,0.338217
-441.925049,878.723145,71.228027,0.338960
-442.749023,877.716064,69.305420,0.339702
-443.115234,890.991211,62.530518,0.340444
-445.220947,884.033203,71.594238,0.341207
-445.404053,880.004883,74.249268,0.341950
-439.086914,886.230469,75.347900,0.342692
-442.382812,884.216309,73.242188,0.343434
-451.995850,881.744385,70.587158,0.344187
-444.671631,875.427246,72.052002,0.344929
-443.572998,889.251709,73.608398,0.345671
-449.249268,881.011963,75.164795,0.346413
-449.890137,881.103516,67.932129,0.347225
-447.052002,880.645752,71.685791,0.347972
-448.883057,888.702393,63.079834,0.348716
-456.024170,885.955811,69.122314,0.349460
-454.193115,883.300781,67.932129,0.350212
-460.235596,873.962402,69.030762,0.350945
-449.157715,888.061523,65.551758,0.351679
-453.735352,884.582520,58.044434,0.352412
-448.150635,887.786865,64.544678,0.353195
-444.763184,887.329102,63.812256,0.353941
-450.988770,887.420654,67.199707,0.354685
-446.044922,882.476807,66.101074,0.355429
-453.735352,881.469727,66.925049,0.356185
-450.805664,885.314941,67.108154,0.356928
-457.305908,881.011963,62.713623,0.357670
-452.911377,888.702393,60.791016,0.358412
-451.995850,884.948730,61.614990,0.359164
-452.362061,880.828857,66.558838,0.359906
-454.742432,879.455566,69.671631,0.360648
-458.221436,882.293701,66.009521,0.361390
-451.629639,881.195068,61.340332,0.362063
-454.010010,887.237549,61.889648,0.362805
-455.383301,884.399414,58.593750,0.363624
-458.587646,888.153076,65.185547,0.364367
-455.474854,886.962891,58.959961,0.365215
-453.918457,889.343262,66.650391,0.365958
-455.291748,884.765625,62.347412,0.366700
-458.038330,878.173828,54.382324,0.367446
-458.587646,882.751465,58.319092,0.368196
-459.320068,885.681152,63.537598,0.368939
-452.819824,886.871338,58.685303,0.369681
-455.749512,888.885498,56.121826,0.370424
-461.425781,891.815186,58.410645,0.371028
-461.151123,891.357422,56.945801,0.371771
-460.784912,891.448975,60.150146,0.372513
-462.615967,886.779785,55.480957,0.373255
-464.721680,889.801025,62.896729,0.374007
-468.292236,886.230469,59.783936,0.374749
-470.489502,876.434326,60.424805,0.375492
-467.468262,884.582520,61.614990,0.376234
-477.539062,886.413574,63.812256,0.377042
-462.341309,888.427734,55.847168,0.377784
-468.658447,885.681152,55.664062,0.378526
-470.489502,879.821777,59.143066,0.379268
-475.616455,889.892578,63.903809,0.380021
-470.031738,886.871338,62.255859,0.380763
-473.602295,886.779785,51.452637,0.381506
-474.243164,888.793945,61.431885,0.382248
-471.771240,881.011963,56.488037,0.382997
-481.842041,882.843018,57.586670,0.383737
-474.792480,887.878418,64.270020,0.384477
-478.179932,876.892090,59.783936,0.385254
-476.257324,880.279541,62.347412,0.386010
-471.496582,875.610352,62.988281,0.386785
-474.334717,871.215820,52.825928,0.387528
-479.461670,878.448486,59.234619,0.388272
-474.060059,880.920410,61.889648,0.389016
-476.257324,878.997803,58.319092,0.389759
-482.391357,881.103516,57.128906,0.390501
-479.736328,884.307861,57.312012,0.391256
-475.158691,884.399414,59.783936,0.391999
-477.813721,883.666992,53.558350,0.392741
-480.377197,877.899170,69.122314,0.393545
-476.623535,880.554199,46.783447,0.394291
-475.616455,880.462646,55.023193,0.395034
-482.849121,879.547119,52.642822,0.395776
-483.947754,880.737305,57.861328,0.396518
-477.539062,884.033203,59.143066,0.397261
-477.264404,880.187988,60.791016,0.398003
-486.419678,882.476807,51.910400,0.398745
-483.032227,882.568359,53.741455,0.399488
-480.651855,881.744385,54.290771,0.400230
-473.419189,881.561279,55.206299,0.400998
-474.151611,876.342773,51.818848,0.401742
-476.989746,880.554199,59.143066,0.402485
-477.630615,881.469727,58.593750,0.403228
-480.285645,878.448486,53.375244,0.403971
-479.553223,880.828857,54.931641,0.404713
-473.602295,879.730225,59.783936,0.405456
-473.968506,880.554199,48.614502,0.406199
-476.623535,883.666992,56.671143,0.406968
-470.123291,883.117676,60.150146,0.407712
-475.982666,880.279541,58.227539,0.408454
-480.010986,879.272461,61.706543,0.409263
-478.912354,885.681152,54.565430,0.410006
-473.419189,883.483887,54.565430,0.410748
-477.539062,878.723145,61.157227,0.411546
-472.778320,882.751465,60.699463,0.412310
-447.875977,891.448975,49.621582,0.413085
-477.996826,890.258789,57.128906,0.413830
-478.912354,883.026123,55.389404,0.414573
-474.700928,888.885498,55.664062,0.415316
-467.926025,885.406494,61.248779,0.416058
-472.961426,887.420654,58.044434,0.416801
-465.179443,891.174316,57.403564,0.417543
-473.419189,884.399414,54.840088,0.418287
-474.426270,890.258789,59.692383,0.419029
-470.764160,884.033203,56.396484,0.419772
-476.531982,886.962891,58.319092,0.420514
-466.003418,890.808105,54.199219,0.421257
-473.602295,892.089844,60.424805,0.422043
-472.778320,883.300781,59.143066,0.422787
-464.538574,886.138916,56.488037,0.423529
-464.813232,885.498047,57.952881,0.424276
-469.390869,888.336182,59.326172,0.425020
-470.397949,885.131836,52.001953,0.425764
-471.954346,896.118164,61.798096,0.426508
-466.369629,893.737793,59.234619,0.427245
-467.926025,889.892578,58.410645,0.427978
-462.524414,887.786865,63.537598,0.428712
-465.270996,899.505615,62.988281,0.429445
-467.010498,896.575928,59.692383,0.430180
-476.257324,884.674072,63.537598,0.430923
-461.608887,881.286621,62.072754,0.431666
-464.904785,887.603760,63.537598,0.432404
-461.700439,893.463135,62.347412,0.433141
-471.313477,877.258301,59.875488,0.433884
-461.791992,886.138916,61.798096,0.434626
-459.136963,889.343262,61.431885,0.435369
-462.615967,893.463135,58.685303,0.436112
-458.404541,881.286621,67.016602,0.436856
-455.749512,887.603760,58.502197,0.437696
-457.214355,880.828857,59.875488,0.438440
-458.038330,876.434326,54.656982,0.439184
-460.693359,881.103516,61.157227,0.439926
-453.735352,878.631592,69.671631,0.440669
-456.024170,880.645752,67.565918,0.441412
-452.911377,877.807617,60.333252,0.442155
-450.347900,880.462646,68.298340,0.442899
-449.615479,880.828857,60.607910,0.443641
-447.509766,874.145508,59.417725,0.444383
-453.460693,872.863770,59.692383,0.445136
-449.981689,877.258301,57.312012,0.445879
-450.805664,871.490479,60.333252,0.446622
-452.087402,873.962402,59.417725,0.447364
-450.714111,880.920410,59.326172,0.448116
-446.960449,877.441406,60.974121,0.448859
-468.750000,877.532959,61.981201,0.449601
-453.002930,877.624512,63.812256,0.450344
-444.305420,878.631592,63.812256,0.451087
-450.805664,872.314453,59.509277,0.451829
-449.890137,880.554199,57.586670,0.452572
-453.552246,870.483398,65.368652,0.453315
-453.277588,874.237061,68.023682,0.454059
-446.868896,879.180908,68.206787,0.454801
-445.770264,880.187988,68.023682,0.455544
-443.023682,878.814697,63.354492,0.456286
-445.312500,920.837402,85.968018,0.457043
-464.904785,909.851074,127.075195,0.457787
-402.008057,917.266846,105.743408,0.458537
-467.559814,889.343262,94.116211,0.459332
-435.699463,866.180420,65.917969,0.460081
-448.608398,841.094971,7.873535,0.460814
-451.629639,853.363037,-46.325684,0.461547
-434.692383,852.813721,-2.929688,0.462281
-408.142090,855.285645,67.932129,0.463012
-427.734375,869.659424,86.151123,0.463757
-443.298340,881.011963,102.722168,0.464499
-442.291260,875.427246,94.207764,0.465242
-448.974609,879.547119,52.551270,0.465988
-483.673096,859.039307,34.423828,0.466736
-468.658447,848.236084,26.916504,0.467479
-450.805664,847.686768,61.248779,0.468221
-448.333740,855.285645,62.896729,0.468964
-406.127930,875.061035,75.256348,0.469714
-408.142090,867.919922,78.826904,0.470455
-409.973145,883.758545,84.686279,0.471219
-416.198730,877.807617,75.714111,0.471965
-425.079346,862.976074,56.030273,0.472707
-448.883057,857.482910,46.691895,0.473450
-466.461182,848.602295,41.015625,0.474192
-464.904785,849.426270,43.853760,0.474937
-468.658447,859.313965,59.326172,0.475680
-470.123291,870.483398,90.911865,0.476423
-434.417725,891.448975,102.722168,0.477165
-432.678223,887.786865,100.341797,0.477907
-416.107178,869.110107,71.044922,0.478723
-415.649414,869.567871,51.818848,0.479466
-425.262451,848.602295,28.381348,0.480209
-434.143066,850.891113,37.170410,0.480952
-444.580078,852.630615,41.381836,0.481696
-431.121826,863.983154,66.375732,0.482453
-447.601318,874.786377,72.052002,0.483211
-439.910889,887.237549,98.968506,0.484067
-455.841064,887.054443,86.883545,0.484839
-445.220947,876.434326,81.207275,0.485642
-454.650879,857.849121,52.642822,0.486418
-425.994873,848.876953,32.135010,0.487264
-439.270020,854.736328,40.008545,0.488032
-430.480957,865.356445,59.783936,0.488781
-434.234619,873.779297,91.827393,0.489673
-430.023193,877.624512,96.496582,0.490540
-452.087402,868.011475,79.925537,0.491409
-462.341309,866.546631,59.875488,0.492306
-457.214355,852.630615,57.403564,0.493069
-454.010010,858.032227,53.741455,0.493874
-446.868896,868.652344,67.565918,0.494633
-430.938721,873.504639,80.474854,0.495379
-435.607910,872.772217,76.538086,0.496127
-433.776855,874.053955,74.157715,0.496943
-439.361572,848.602295,59.600830,0.497816
-454.284668,863.250732,58.410645,0.498619
-466.461182,862.426758,56.304932,0.499385
-463.623047,864.624023,54.840088,0.500119
-458.953857,871.398926,63.812256,0.500870
-443.298340,883.758545,76.354980,0.501683
-436.889648,881.561279,79.559326,0.502428
-435.882568,880.920410,82.214355,0.503168
-432.952881,872.314453,63.079834,0.503901
-437.530518,878.631592,54.016113,0.504635
-443.115234,859.588623,43.212891,0.505368
-451.629639,865.264893,45.959473,0.506101
-466.918945,860.961914,49.530029,0.506846
-457.855225,866.546631,60.791016,0.507590
-456.481934,871.765137,73.333740,0.508333
-455.566406,873.138428,77.270508,0.509085
-455.017090,885.223389,79.742432,0.509819
-454.010010,880.737305,76.263428,0.510552
-449.249268,875.244141,62.347412,0.511286
-442.840576,863.891602,46.142578,0.512171
-453.918457,864.440918,49.896240,0.512916
-450.073242,862.426758,50.720215,0.513660
-446.136475,869.110107,56.030273,0.514403
-448.883057,872.131348,86.517334,0.515140
-451.446533,882.476807,74.432373,0.515873
-453.735352,881.744385,72.784424,0.516607
-458.770752,884.307861,70.312500,0.517339
-458.770752,878.997803,60.424805,0.518077
-461.242676,876.983643,53.833008,0.518820
-460.968018,864.898682,54.199219,0.519563
-455.566406,875.885010,49.621582,0.520306
-445.037842,860.961914,57.037354,0.521048
-439.270020,870.666504,72.875977,0.521791
-443.023682,871.856689,71.136475,0.522534
-450.622559,884.857178,69.396973,0.523277
-448.699951,877.349854,63.262939,0.524031
-456.848145,874.694824,59.783936,0.524774
-486.785889,875.610352,55.664062,0.525517
-468.658447,870.574951,56.121826,0.526259
-473.968506,863.433838,49.072266,0.527002
-466.827393,868.286133,63.720703,0.527735
-456.024170,874.603271,70.678711,0.528469
-454.010010,878.173828,72.601318,0.529203
-449.066162,875.152588,73.425293,0.529947
-443.298340,877.075195,74.890137,0.530709
-446.960449,878.173828,64.086914,0.531477
-452.728271,869.201660,52.459717,0.532220
-453.552246,871.398926,53.192139,0.532981
-465.270996,867.736816,58.502197,0.533725
-466.461182,881.744385,68.664551,0.534467
-457.031250,881.744385,77.911377,0.535210
-451.446533,888.977051,82.672119,0.535953
-458.770752,876.892090,75.988770,0.536695
-449.066162,882.751465,75.347900,0.537438
-453.826904,878.997803,64.086914,0.538180
-453.369141,871.490479,57.403564,0.538923
-454.193115,858.398438,46.600342,0.539684
-447.235107,870.941162,61.065674,0.540427
-449.066162,871.124268,63.262939,0.541169
-456.939697,872.131348,65.185547,0.541911
-457.214355,879.821777,84.045410,0.542664
-455.474854,888.061523,84.136963,0.543407
-459.777832,875.701904,69.213867,0.544149
-458.404541,876.159668,70.037842,0.544891
-457.946777,869.567871,60.699463,0.545644
-459.503174,863.983154,54.931641,0.546386
-459.136963,863.983154,54.656982,0.547128
-444.030762,872.314453,55.938721,0.547870
-446.411133,864.898682,60.699463,0.548491
-444.122314,868.560791,62.896729,0.549234
-442.108154,871.673584,71.960449,0.549977
-449.890137,871.673584,76.629639,0.550719
-449.157715,868.011475,66.467285,0.551473
-455.932617,864.807129,59.417725,0.552216
-461.700439,862.518311,59.509277,0.552958
-464.172363,855.743408,57.403564,0.553700
-460.418701,863.891602,64.086914,0.554455
-458.862305,865.814209,72.235107,0.555197
-455.108643,874.786377,74.615479,0.555939
-449.523926,873.413086,67.749023,0.556682
-442.657471,879.089355,65.093994,0.557434
-444.488525,868.011475,62.713623,0.558176
-450.256348,869.018555,49.713135,0.558919
-449.066162,874.420166,51.177979,0.559660
-454.833984,869.750977,56.488037,0.560349
-455.749512,864.898682,64.270020,0.561092
-464.172363,868.194580,60.333252,0.561834
-462.066650,881.195068,71.685791,0.562576
-454.376221,883.300781,75.347900,0.563328
-454.650879,876.800537,72.509766,0.564070
-454.010010,874.053955,61.706543,0.564812
-457.031250,872.314453,59.509277,0.565554
-450.439453,869.750977,47.882080,0.566306
-449.066162,863.433838,53.833008,0.567053
-450.439453,868.835449,51.361084,0.567795
-464.538574,869.384766,56.304932,0.568537
-456.298828,874.511719,62.530518,0.569289
-455.383301,872.497559,66.284180,0.570032
-464.813232,882.659912,65.643311,0.570774
-464.996338,877.716064,65.368652,0.571516
-465.179443,868.377686,64.361572,0.572258
-464.080811,869.750977,60.607910,0.573000
-457.763672,889.526367,59.326172,0.573742
-454.467773,870.483398,52.825928,0.574485
-451.721191,868.652344,58.959961,0.575237
-454.284668,865.631104,60.516357,0.575979
-449.615479,881.103516,62.713623,0.576721
-451.263428,889.617920,59.051514,0.577463
-462.707520,872.772217,65.185547,0.578217
-489.807129,868.560791,54.840088,0.578959
-474.609375,863.067627,47.882080,0.579701
-465.454102,868.743896,56.671143,0.580443
-465.545654,867.187500,56.671143,0.581184
-462.432861,873.321533,52.001953,0.581941
-467.193604,872.314453,59.967041,0.582687
-458.312988,874.328613,56.304932,0.583430
-457.946777,874.877930,52.551270,0.584279
-459.228516,871.673584,50.262451,0.585024
-460.876465,868.927002,51.177979,0.585767
-472.869873,872.314453,54.931641,0.586511
-471.862793,878.723145,54.748535,0.587265
-470.672607,867.279053,52.551270,0.588069
-469.024658,878.356934,56.945801,0.588813
-472.320557,878.082275,56.396484,0.589556
-468.658447,887.145996,60.791016,0.590310
-470.489502,880.920410,57.037354,0.591054
-471.038818,879.730225,46.691895,0.591797
-472.869873,870.117188,40.008545,0.592541
-470.031738,881.195068,42.480469,0.593294
-475.250244,880.920410,44.952393,0.594038
-468.658447,880.737305,45.135498,0.594781
-476.440430,882.934570,44.769287,0.595524
-470.489502,883.483887,47.790527,0.596219
-473.602295,881.652832,53.558350,0.596963
-473.785400,885.955811,54.016113,0.597718
-479.095459,889.251709,51.177979,0.598477
-486.785889,883.758545,47.332764,0.599253
-485.595703,888.336182,45.410156,0.600002
-479.553223,887.969971,48.248291,0.600745
-485.321045,886.322021,42.846680,0.601488
-476.257324,886.962891,40.283203,0.602198
-471.496582,892.547607,48.522949,0.602942
-473.876953,892.822266,53.924561,0.603686
-479.644775,889.801025,50.445557,0.604431
-480.651855,884.307861,40.008545,0.605193
-485.321045,885.955811,52.825928,0.605951
-478.271484,881.286621,51.818848,0.606701
-484.222412,872.680664,47.332764,0.607520
-483.123779,886.138916,47.424316,0.608282
-484.954834,888.061523,58.227539,0.609021
-482.299805,886.688232,48.339844,0.609790
-471.771240,883.666992,47.973633,0.610524
-475.067139,889.526367,48.156738,0.611284
-478.088379,882.293701,43.121338,0.612028
-476.257324,885.131836,44.494629,0.612771
-480.194092,889.709473,35.980225,0.613514
-485.778809,879.364014,44.952393,0.614364
-487.335205,875.976562,46.051025,0.615110
-481.475830,884.765625,58.135986,0.615962
-483.032227,888.610840,48.889160,0.616708
-483.123779,889.434814,65.277100,0.617451
-480.651855,888.702393,55.664062,0.618195
-480.926514,893.188477,45.135498,0.618939
-470.306396,888.519287,44.769287,0.619689
-481.750488,876.617432,45.684814,0.620448
-482.116699,886.138916,43.853760,0.621222
-472.229004,894.287109,52.001953,0.621972
-473.144531,885.406494,55.572510,0.622715
-476.074219,888.610840,57.403564,0.623458
-485.321045,890.625000,56.579590,0.624202
-478.179932,890.533447,53.649902,0.624945
-481.933594,890.350342,48.614502,0.625689
-478.912354,895.843506,54.290771,0.626433
-478.088379,888.610840,52.551270,0.627176
-469.940186,888.885498,46.508789,0.627949
-470.855713,888.153076,50.903320,0.628689
-468.658447,890.258789,48.431396,0.629434
-470.581055,897.583008,51.177979,0.630177
-472.869873,892.822266,52.917480,0.630921
-475.524902,885.864258,54.199219,0.631672
-479.827881,894.470215,51.544189,0.632405
-476.715088,892.456055,53.466797,0.633138
-477.539062,892.089844,57.769775,0.633871
-471.862793,887.695312,53.649902,0.634603
-473.419189,887.237549,53.466797,0.635347
-464.630127,888.427734,61.065674,0.636090
-461.517334,888.702393,55.847168,0.636834
-465.820312,890.716553,53.649902,0.637577
-469.390869,868.194580,59.326172,0.638328
-466.644287,895.660400,58.135986,0.639072
-463.348389,883.117676,58.593750,0.639815
-464.447021,887.329102,62.072754,0.640558
-469.024658,880.828857,50.994873,0.641373
-468.017578,885.040283,61.340332,0.642117
-463.073730,888.336182,62.164307,0.642860
-461.791992,889.984131,56.396484,0.643605
-464.263916,887.878418,61.706543,0.644348
-457.031250,892.822266,63.354492,0.645092
-457.946777,887.969971,54.748535,0.645844
-458.221436,888.977051,65.551758,0.646589
-451.538086,886.962891,59.143066,0.647332
-459.686279,886.596680,61.706543,0.648134
-462.615967,883.209229,57.769775,0.648878
-449.432373,887.512207,67.932129,0.649649
-455.474854,891.357422,60.150146,0.650394
-452.819824,885.681152,60.058594,0.651137
-450.073242,892.913818,60.791016,0.651880
-455.657959,886.505127,57.586670,0.652633
-453.369141,886.138916,54.656982,0.653377
-454.559326,885.314941,59.234619,0.654121
-452.636719,884.216309,54.199219,0.654864
-447.143555,885.406494,62.164307,0.655608
-449.707031,884.033203,66.375732,0.656351
-449.798584,887.878418,64.361572,0.657095
-453.643799,886.962891,61.523438,0.657931
-449.066162,887.145996,64.270020,0.658689
-454.650879,884.857178,65.093994,0.659433
-457.214355,880.371094,62.347412,0.660176
-450.439453,889.709473,61.798096,0.660919
-451.446533,889.434814,47.607422,0.661687
-453.094482,884.307861,71.228027,0.662437
-445.129395,885.955811,66.192627,0.663180
-446.411133,887.512207,58.868408,0.663924
-447.509766,881.378174,66.650391,0.664681
-448.699951,883.209229,62.988281,0.665425
-442.565918,880.004883,57.037354,0.666168
-449.798584,881.286621,72.967529,0.666912
-446.502686,878.356934,66.558838,0.667656
-442.657471,879.547119,72.692871,0.668412
-446.411133,875.885010,66.650391,0.669170
-444.946289,889.617920,66.009521,0.669914
-434.692383,883.758545,63.354492,0.670665
-442.932129,884.307861,65.093994,0.671408
-448.883057,885.589600,69.305420,0.672152
-439.819336,883.026123,65.185547,0.672895
-441.284180,875.335693,68.298340,0.673648
-445.587158,868.469238,60.424805,0.674392
-444.580078,874.969482,68.847656,0.675135
-439.361572,877.624512,66.284180,0.675878
-444.030762,878.997803,71.502686,0.676632
-439.819336,885.040283,74.157715,0.677379
-441.650391,888.977051,70.770264,0.678130
-442.840576,885.772705,63.354492,0.678883
-435.424805,878.814697,69.396973,0.679634
-441.650391,871.582031,66.284180,0.680378
-437.988281,875.518799,61.340332,0.681122
-436.889648,877.807617,60.607910,0.681865
-430.480957,876.251221,69.122314,0.682617
-430.114746,874.145508,67.840576,0.683361
-432.037354,875.701904,70.129395,0.684105
-436.523438,880.554199,81.207275,0.684848
-443.572998,873.504639,67.108154,0.685592
-441.101074,871.673584,60.241699,0.686391
-432.312012,868.286133,66.925049,0.687138
-432.037354,867.919922,66.650391,0.687882
-441.375732,870.208740,66.741943,0.688638
-437.164307,874.420166,68.572998,0.689439
-435.974121,866.363525,65.643311,0.690248
-433.959961,867.645264,61.248779,0.690994
-435.333252,869.201660,65.643311,0.691756
-437.530518,868.286133,68.481445,0.692500
-438.446045,868.286133,62.622070,0.693243
-437.255859,871.856689,70.129395,0.693986
-441.284180,862.243652,62.072754,0.694745
-436.248779,849.517822,62.713623,0.695490
-446.319580,867.370605,60.791016,0.696233
-445.220947,867.828369,74.340820,0.697036
-438.537598,869.201660,67.657471,0.697791
-443.206787,865.264893,72.235107,0.698535
-442.565918,864.257812,73.150635,0.699278
-443.847656,867.004395,71.777344,0.700021
-439.086914,870.300293,65.734863,0.700671
-439.178467,866.821289,67.382812,0.701415
-432.861328,866.271973,65.643311,0.702159
-436.798096,873.504639,69.854736,0.702902
-445.404053,873.504639,78.826904,0.703645
-445.861816,868.103027,73.059082,0.704409
-440.002441,876.708984,73.059082,0.705196
-443.389893,877.624512,75.073242,0.705930
-436.340332,870.025635,62.164307,0.706692
-445.312500,870.300293,68.206787,0.707436
-438.354492,870.758057,67.749023,0.708179
-442.565918,864.624023,73.242188,0.708922
-435.150146,868.377686,67.657471,0.709575
-442.749023,869.384766,70.953369,0.710319
-440.917969,872.680664,66.558838,0.711062
-447.784424,866.180420,66.192627,0.711806
-446.594238,869.476318,69.305420,0.712559
-446.960449,871.765137,68.756104,0.713302
-437.805176,870.758057,68.023682,0.714045
-439.086914,873.229980,67.474365,0.714789
-435.882568,863.708496,69.213867,0.715541
-443.298340,871.765137,64.727783,0.716285
-444.580078,875.427246,60.424805,0.717028
-444.213867,883.941650,69.580078,0.717772
-445.495605,875.152588,63.262939,0.718475
-444.763184,867.279053,63.446045,0.719219
-445.587158,867.736816,67.199707,0.719962
-453.552246,868.286133,62.438965,0.720705
-449.981689,872.772217,64.819336,0.721490
-442.291260,875.976562,71.502686,0.722235
-449.615479,872.680664,60.699463,0.722978
-439.910889,871.673584,66.375732,0.723721
-443.481445,874.694824,64.819336,0.724432
-443.023682,878.723145,74.249268,0.725175
-448.699951,874.969482,63.812256,0.725919
-438.446045,875.152588,69.122314,0.726662
-447.052002,866.363525,62.988281,0.727415
-456.207275,871.032715,67.382812,0.728259
-443.756104,869.201660,62.530518,0.729005
-448.791504,876.892090,70.129395,0.729771
-449.249268,868.560791,68.939209,0.730606
-422.241211,873.870850,68.664551,0.731352
-448.150635,870.391846,67.016602,0.732095
-447.692871,868.377686,68.206787,0.732839
-446.685791,846.405029,66.558838,0.733583
-447.784424,872.955322,64.819336,0.734326
-447.143555,869.750977,64.178467,0.735069
-449.615479,865.722656,61.889648,0.735817
-449.066162,868.377686,69.488525,0.736567
-448.425293,866.455078,75.256348,0.737367
-443.023682,867.645264,92.010498,0.738112
-455.474854,867.553711,65.643311,0.738866
-450.164795,867.919922,64.819336,0.739664
-451.171875,867.828369,92.193604,0.740409
-450.988770,865.264893,70.220947,0.741153
-450.347900,864.349365,73.242188,0.741897
-449.707031,871.673584,68.847656,0.742640
-447.052002,865.631104,68.939209,0.743384
-446.594238,869.750977,88.531494,0.744128
-452.178955,864.074707,74.066162,0.744881
-449.523926,869.110107,73.242188,0.745625
-450.988770,869.384766,74.890137,0.746369
-445.037842,861.785889,65.002441,0.747112
-450.714111,863.891602,89.813232,0.747856
-449.066162,862.426758,67.108154,0.748599
-452.087402,857.482910,71.319580,0.749343
-443.572998,866.363525,72.967529,0.750086
-449.981689,859.588623,73.516846,0.750831
-453.735352,867.736816,70.953369,0.751585
-446.502686,861.877441,70.678711,0.752336
-465.362549,868.652344,61.798096,0.753108
-446.319580,866.821289,60.699463,0.753851
-441.192627,860.595703,58.502197,0.754595
-440.917969,857.482910,65.551758,0.755412
-449.981689,858.856201,47.058105,0.756156
-451.446533,853.546143,67.749023,0.756894
-446.960449,860.778809,65.368652,0.757627
-451.354980,866.363525,68.298340,0.758360
-450.805664,862.609863,68.115234,0.759094
-444.671631,870.666504,62.438965,0.759829
-454.467773,870.300293,65.826416,0.760574
-453.643799,871.032715,66.192627,0.761317
-448.791504,868.377686,67.382812,0.762061
-448.425293,865.356445,69.488525,0.762814
-448.425293,860.778809,60.791016,0.763557
-451.812744,864.624023,63.079834,0.764301
-452.911377,890.258789,71.868896,0.765044
-455.566406,874.511719,69.305420,0.765788
-452.453613,869.110107,66.558838,0.766531
-454.284668,867.370605,62.347412,0.767275
-451.354980,869.934082,65.734863,0.768019
-451.812744,866.912842,68.115234,0.768763
-454.376221,864.166260,64.270020,0.769534
-451.354980,865.356445,67.565918,0.770290
-452.728271,887.603760,71.594238,0.771034
-446.136475,863.800049,68.847656,0.771788
-450.073242,869.659424,67.932129,0.772531
-451.354980,860.504150,66.375732,0.773275
-452.728271,859.039307,61.157227,0.774018
-456.756592,867.553711,65.093994,0.774762
-453.918457,864.532471,66.101074,0.775505
-453.918457,867.645264,65.643311,0.776249
-447.509766,875.793457,67.565918,0.776992
-451.812744,874.877930,63.995361,0.777736
-447.967529,854.736328,65.551758,0.778479
-446.594238,869.659424,65.734863,0.779222
-449.707031,878.997803,65.368652,0.779965
-456.573486,880.737305,60.241699,0.780708
-449.615479,876.708984,71.319580,0.781463
-449.890137,887.054443,61.340332,0.782206
-447.967529,885.406494,73.883057,0.782949
-448.608398,884.216309,65.002441,0.783692
-450.347900,880.462646,67.474365,0.784297
-450.805664,887.695312,65.826416,0.785040
-450.439453,888.610840,64.727783,0.785783
-447.418213,885.223389,67.382812,0.786527
-454.101562,879.730225,62.255859,0.787279
-455.841064,874.328613,61.889648,0.788023
-450.897217,883.575439,63.079834,0.788766
-454.010010,886.230469,67.016602,0.789509
-451.354980,881.011963,63.720703,0.790261
-457.672119,881.103516,62.164307,0.791004
-453.643799,883.026123,65.093994,0.791747
-454.833984,885.406494,68.756104,0.792491
-454.284668,892.272949,64.727783,0.793251
-454.193115,880.004883,63.354492,0.793994
-456.298828,890.167236,60.516357,0.794737
-451.354980,886.688232,68.206787,0.795480
-459.686279,885.864258,59.143066,0.796233
-451.538086,883.209229,60.791016,0.796976
-454.467773,884.216309,67.749023,0.797719
-452.087402,867.279053,66.925049,0.798462
-453.735352,891.632080,68.389893,0.799215
-451.538086,881.652832,69.671631,0.799958
-454.284668,881.744385,67.291260,0.800702
-452.819824,883.941650,68.847656,0.801445
-454.376221,890.991211,63.995361,0.802197
-452.362061,881.835938,64.361572,0.802941
-454.193115,884.307861,66.833496,0.803775
-454.376221,889.343262,63.537598,0.804520
-448.974609,893.829346,62.255859,0.805277
-452.819824,875.061035,64.086914,0.806021
-454.467773,880.920410,67.932129,0.806763
-452.636719,882.568359,58.868408,0.807506
-447.509766,878.631592,68.847656,0.808260
-452.270508,880.554199,63.629150,0.809003
-460.418701,877.075195,65.368652,0.809746
-454.559326,875.244141,64.270020,0.810489
-457.763672,878.265381,60.607910,0.811242
-459.320068,872.955322,63.354492,0.811985
-457.946777,873.138428,60.424805,0.812728
-455.841064,876.159668,63.720703,0.813472
-465.270996,873.870850,61.157227,0.814128
-453.918457,867.095947,59.234619,0.814872
-461.517334,870.117188,58.227539,0.815615
-455.932617,874.603271,60.058594,0.816370
-454.101562,872.589111,61.340332,0.817284
-452.270508,872.039795,59.051514,0.818053
-456.390381,880.004883,67.932129,0.818790
-453.369141,873.138428,55.755615,0.819530
-459.594727,875.335693,55.847168,0.820274
-456.024170,874.603271,58.959961,0.821017
-458.221436,873.687744,56.762695,0.821761
-465.270996,876.342773,58.502197,0.822511
-463.073730,877.716064,61.523438,0.823244
-463.073730,877.075195,57.952881,0.823984
-456.207275,879.272461,61.065674,0.824724
-456.939697,876.617432,59.509277,0.825510
-456.481934,871.215820,58.319092,0.826263
-459.594727,878.173828,59.692383,0.827006
-463.348389,882.019043,60.058594,0.827750
-459.686279,878.173828,64.086914,0.828499
-460.418701,878.540039,64.727783,0.829257
-464.721680,882.385254,61.340332,0.830004
-467.559814,880.187988,59.509277,0.830801
-466.735840,875.335693,59.326172,0.831547
-457.122803,886.505127,60.882568,0.832290
-460.601807,886.413574,59.692383,0.833033
-462.432861,887.969971,62.347412,0.833776
-460.784912,884.948730,63.446045,0.834513
-461.608887,889.617920,66.101074,0.835245
-467.102051,881.561279,63.354492,0.835978
-470.672607,884.124756,64.453125,0.836711
-469.940186,880.371094,63.903809,0.837446
-464.630127,885.589600,60.058594,0.838191
-464.538574,883.209229,59.692383,0.838934
-459.045410,884.033203,64.178467,0.839677
-459.411621,878.173828,66.741943,0.840429
-459.320068,878.723145,58.319092,0.841174
-454.467773,880.096436,63.903809,0.841981
-464.538574,878.997803,66.009521,0.842739
-461.151123,873.596191,58.410645,0.843489
-461.608887,872.772217,60.607910,0.844312
-458.404541,876.892090,51.544189,0.845072
-460.144043,873.413086,66.741943,0.845819
-455.383301,871.948242,66.741943,0.846591
-460.235596,886.230469,63.446045,0.847336
-458.862305,883.392334,63.629150,0.848079
-458.312988,875.610352,57.403564,0.848823
-461.608887,869.476318,60.058594,0.849576
-458.221436,872.497559,55.938721,0.850320
-464.721680,867.919922,59.600830,0.851064
-462.524414,864.990234,58.685303,0.851807
-457.672119,873.229980,63.354492,0.852551
-458.679199,874.053955,64.636230,0.853294
-459.411621,872.131348,69.396973,0.854038
-458.770752,869.659424,62.713623,0.854781
-459.686279,868.835449,56.945801,0.855525
-446.960449,876.983643,65.917969,0.856268
-446.777344,863.159180,56.030273,0.857012
-454.742432,864.990234,56.488037,0.857756
-450.439453,871.856689,53.100586,0.858511
-453.002930,869.659424,58.227539,0.859255
-454.650879,863.800049,58.776855,0.859998
-461.791992,869.567871,58.227539,0.860742
-451.904297,870.483398,60.699463,0.861485
-458.679199,873.138428,59.234619,0.862229
-448.883057,874.786377,62.255859,0.862972
-459.136963,874.053955,63.995361,0.863715
-451.812744,873.229980,58.502197,0.864523
-451.538086,873.138428,59.234619,0.865268
-455.108643,883.026123,60.607910,0.866011
-461.791992,874.053955,61.431885,0.866754
-453.735352,874.145508,56.396484,0.867498
-455.749512,876.251221,57.769775,0.868241
-453.918457,881.652832,56.579590,0.868984
-454.284668,877.990723,59.509277,0.869727
-455.474854,875.335693,62.988281,0.870480
-460.510254,870.208740,56.762695,0.871224
-457.672119,880.096436,58.868408,0.871968
-457.580566,887.603760,61.523438,0.872712
-454.101562,884.399414,64.178467,0.873456
-451.446533,885.040283,63.079834,0.874199
-456.665039,878.082275,65.826416,0.874943
-453.826904,881.103516,60.882568,0.875686
-462.341309,879.272461,59.051514,0.876542
-455.200195,885.589600,62.622070,0.877287
-450.622559,882.385254,66.833496,0.878030
-456.481934,887.237549,58.410645,0.878774
-461.425781,880.371094,61.798096,0.879527
-463.806152,884.033203,56.304932,0.880271
-463.348389,891.906738,62.164307,0.881014
-456.298828,888.427734,64.453125,0.881758
-464.630127,887.878418,61.523438,0.882510
-468.658447,888.519287,61.889648,0.883254
-464.813232,887.786865,60.516357,0.883997
-461.700439,894.470215,60.882568,0.884740
-456.573486,895.111084,64.178467,0.885489
-457.855225,895.294189,60.058594,0.886232
-459.228516,893.920898,54.199219,0.886976
-463.439941,882.110596,58.135986,0.887790
-458.404541,888.061523,58.776855,0.888544
-460.968018,910.217285,57.495117,0.889287
-464.538574,883.666992,63.262939,0.890031
-464.813232,886.230469,57.952881,0.890774
-465.545654,883.483887,54.931641,0.891527
-460.876465,886.596680,58.227539,0.892271
-457.031250,912.597656,58.868408,0.893015
-464.447021,882.385254,51.544189,0.893758
-464.721680,880.828857,56.396484,0.894511
-451.721191,878.906250,58.044434,0.895255
-457.214355,881.744385,62.622070,0.895998
-461.975098,880.279541,59.783936,0.896742
-459.136963,875.885010,57.403564,0.897505
-457.763672,878.356934,56.396484,0.898256
-459.594727,878.356934,48.797607,0.899029
-458.038330,876.617432,57.769775,0.899773
-460.876465,872.772217,48.614502,0.900527
-463.348389,870.208740,54.840088,0.901282
-457.214355,870.849609,56.121826,0.902077
-455.383301,866.729736,59.143066,0.902894
-455.841064,890.167236,59.600830,0.903658
-452.911377,868.194580,58.959961,0.904403
-459.777832,876.892090,55.938721,0.905147
-458.587646,873.596191,57.952881,0.905890
-461.151123,876.251221,57.952881,0.906571
-459.228516,879.455566,65.093994,0.907315
-452.636719,880.096436,62.988281,0.908058
-462.249756,871.307373,60.974121,0.908802
-457.305908,872.589111,65.826416,0.909556
-455.841064,872.314453,58.959961,0.910302
-452.087402,883.392334,63.537598,0.911045
-453.186035,880.554199,68.115234,0.911788
-453.186035,875.976562,61.340332,0.912541
-450.988770,881.103516,64.910889,0.913305
-457.397461,875.885010,63.171387,0.914055
-457.031250,874.694824,61.798096,0.914798
-454.925537,874.511719,59.875488,0.915553
-458.221436,870.574951,64.270020,0.916295
-457.122803,877.075195,63.720703,0.917028
-455.474854,878.265381,55.206299,0.917761
-453.918457,878.265381,62.164307,0.918519
-451.721191,880.462646,61.431885,0.919263
-455.566406,873.046875,58.776855,0.920006
-454.559326,876.068115,53.924561,0.920749
-453.277588,875.518799,60.333252,0.921509
-453.186035,873.229980,59.783936,0.922253
-454.010010,873.504639,56.396484,0.922996
-462.890625,872.222900,57.037354,0.923740
-453.460693,868.286133,59.600830,0.924492
-454.559326,874.237061,61.889648,0.925236
-458.862305,874.420166,60.974121,0.925979
-454.559326,876.708984,61.065674,0.926723
-460.144043,876.800537,63.171387,0.927475
-459.411621,871.215820,60.791016,0.928219
-450.897217,873.138428,66.284180,0.928962
-451.904297,878.540039,68.481445,0.929706
-454.467773,876.892090,60.058594,0.930461
-451.995850,867.645264,59.600830,0.931299
-449.432373,871.032715,58.776855,0.932046
-454.376221,877.075195,67.291260,0.932790
-458.312988,862.060547,54.016113,0.933570
-454.193115,874.969482,61.248779,0.934317
-453.918457,871.490479,65.917969,0.935061
-456.756592,877.166748,61.523438,0.935805
-458.496094,876.251221,65.551758,0.936561
-452.178955,882.843018,65.460205,0.937305
-450.714111,871.856689,65.277100,0.938048
-451.812744,877.441406,54.656982,0.938792
-460.968018,880.371094,56.854248,0.939544
-457.305908,881.927490,61.523438,0.940288
-458.404541,879.089355,59.509277,0.941031
-459.503174,879.272461,61.248779,0.941774
-457.305908,875.885010,65.368652,0.942527
-458.862305,879.821777,66.741943,0.943271
-460.876465,878.173828,68.572998,0.944014
-456.848145,884.765625,60.882568,0.944758
-446.136475,887.603760,58.868408,0.945511
-454.833984,884.124756,58.593750,0.946254
-448.425293,875.976562,65.185547,0.946998
-455.932617,877.807617,54.565430,0.947741
-461.151123,878.265381,61.706543,0.948494
-454.925537,878.723145,65.368652,0.949238
-461.517334,883.026123,57.495117,0.950076
-457.763672,880.737305,61.523438,0.950820
-457.672119,879.547119,57.220459,0.951576
-452.728271,877.258301,57.403564,0.952319
-456.939697,885.314941,62.713623,0.953063
-448.333740,882.202148,65.368652,0.953806
-447.784424,879.821777,70.861816,0.954559
-457.397461,879.272461,59.875488,0.955303
-452.453613,882.568359,53.283691,0.956046
-449.432373,873.504639,59.692383,0.956789
-446.685791,880.737305,57.403564,0.957552
-452.636719,886.138916,56.396484,0.958296
-453.277588,878.723145,58.593750,0.959039
-448.791504,885.772705,71.044922,0.959783
-449.890137,873.596191,57.495117,0.960536
-446.228027,873.870850,63.812256,0.961280
-447.418213,881.103516,63.262939,0.962024
-447.235107,878.723145,57.769775,0.962767
-450.439453,873.046875,63.995361,0.963520
-458.038330,870.117188,59.692383,0.964263
-448.333740,876.800537,55.847168,0.965007
-448.516846,864.532471,58.410645,0.965750
-447.235107,872.680664,58.319092,0.966503
-446.136475,872.772217,64.086914,0.967247
-447.418213,871.765137,61.798096,0.967990
-440.917969,869.659424,64.178467,0.968733
-449.432373,874.511719,62.622070,0.969486
-456.573486,874.877930,62.438965,0.970241
-456.298828,868.103027,65.734863,0.970990
-452.911377,871.582031,65.643311,0.971778
-454.101562,874.877930,66.375732,0.972548
-452.545166,879.089355,65.917969,0.973293
-450.897217,878.540039,72.875977,0.974036
-449.157715,873.321533,64.178467,0.974779
-449.981689,870.483398,69.763184,0.975532
-458.496094,870.117188,64.361572,0.976276
-463.989258,878.448486,71.594238,0.977020
-458.312988,878.448486,64.453125,0.977763
-460.052490,871.307373,65.917969,0.978515
-449.249268,871.215820,68.756104,0.979259
-447.692871,879.272461,74.798584,0.980002
-456.298828,866.912842,60.607910,0.980746
-446.777344,870.574951,64.727783,0.981498
-453.002930,869.567871,65.460205,0.982241
-454.833984,868.286133,67.932129,0.982985
-458.038330,875.061035,70.037842,0.983728
-449.615479,875.335693,64.636230,0.984480
-452.636719,874.786377,65.277100,0.985224
-454.650879,871.398926,65.002441,0.985967
-453.369141,867.736816,59.051514,0.986710
-458.404541,871.215820,59.051514,0.987466
-459.869385,867.828369,68.572998,0.988210
-456.115723,852.539062,60.974121,0.988954
-457.397461,873.413086,68.572998,0.989698
-456.848145,872.497559,64.086914,0.990451
-450.714111,867.004395,62.896729,0.991195
-456.024170,877.807617,67.840576,0.991938
-455.108643,880.279541,67.565918,0.992682
-455.474854,871.490479,69.030762,0.993443
-454.742432,876.708984,58.135986,0.994186
-458.770752,875.701904,60.424805,0.994929
-453.094482,877.807617,65.368652,0.995673
-457.489014,874.603271,63.537598,0.996425
-461.700439,878.265381,67.108154,0.997169
-457.672119,871.215820,59.692383,0.997913
-453.002930,879.730225,62.072754,0.998656
-460.144043,876.983643,65.093994,0.999404
-469.024658,876.983643,61.157227,1.000148
-454.467773,878.265381,61.798096,1.000890
-463.256836,876.892090,64.819336,1.001634
-462.066650,876.251221,66.101074,1.002377
-463.714600,874.603271,55.755615,1.003120
-456.207275,886.505127,61.523438,1.003863
-461.151123,876.068115,61.706543,1.004606
-462.982178,877.807617,61.889648,1.005349
-465.637207,879.638672,63.537598,1.006093
-461.791992,875.885010,58.959961,1.006836
-457.946777,885.040283,61.157227,1.007581
-454.559326,883.026123,66.009521,1.008337
-453.826904,882.843018,57.312012,1.009152
-457.946777,878.356934,53.009033,1.009896
-458.221436,879.638672,62.164307,1.010639
-464.721680,880.828857,60.882568,1.011382
-463.623047,875.701904,56.945801,1.012125
-465.087891,881.469727,66.192627,1.012868
-460.327148,872.131348,65.093994,1.013612
-457.946777,884.857178,62.255859,1.014356
-460.601807,879.089355,71.044922,1.015099
-459.594727,872.314453,60.058594,1.015842
-458.496094,882.293701,67.108154,1.016585
-456.390381,876.983643,65.917969,1.017328
-456.024170,882.659912,70.312500,1.018072
-457.031250,881.561279,67.108154,1.018823
-454.376221,867.919922,68.939209,1.019589
-455.200195,880.462646,67.749023,1.020348
-455.017090,877.624512,71.319580,1.021092
-455.841064,887.603760,62.988281,1.021917
-458.587646,876.617432,69.122314,1.022753
-454.925537,871.673584,63.171387,1.023413
-453.369141,880.737305,66.650391,1.024157
-456.848145,880.645752,62.896729,1.024901
-459.594727,881.286621,63.812256,1.025645
-450.073242,875.518799,63.903809,1.026502
-457.031250,876.251221,67.749023,1.027246
-455.749512,867.004395,61.340332,1.027990
-458.129883,872.222900,61.706543,1.028733
-455.749512,875.335693,67.108154,1.029358
-453.826904,871.032715,66.101074,1.030102
-449.340820,880.920410,61.706543,1.030845
-454.742432,878.540039,55.847168,1.031589
-452.545166,875.793457,65.734863,1.032341
-447.601318,874.511719,65.917969,1.033085
-456.939697,867.828369,60.974121,1.033828
-453.918457,868.652344,67.382812,1.034571
-454.376221,866.180420,61.798096,1.035324
-455.749512,869.110107,58.410645,1.036068
-460.327148,865.264893,56.030273,1.036811
-453.002930,866.180420,66.009521,1.037554
-451.995850,871.124268,90.545654,1.038234
-453.826904,867.828369,71.136475,1.038978
-454.559326,860.595703,69.580078,1.039722
-457.214355,862.152100,71.777344,1.040465
-456.207275,868.377686,70.312500,1.041217
-455.200195,876.068115,48.706055,1.041960
-455.474854,864.624023,64.270020,1.042703
-452.728271,867.462158,63.720703,1.043448
-455.841064,864.624023,63.720703,1.044222
-457.305908,868.194580,71.960449,1.044975
-450.256348,847.961426,65.002441,1.045745
-458.496094,866.455078,66.741943,1.046489
-451.629639,863.800049,65.643311,1.047251
-457.672119,863.342285,66.284180,1.047995
-451.171875,859.954834,66.192627,1.048738
-448.150635,861.877441,71.136475,1.049481
-449.523926,864.257812,69.396973,1.050234
-451.354980,859.130859,67.108154,1.050993
-449.798584,859.313965,64.819336,1.051749
-451.080322,861.053467,63.995361,1.052493
-455.108643,865.722656,64.910889,1.053251
-459.411621,861.968994,59.692383,1.053996
-452.270508,864.440918,65.002441,1.054739
-457.489014,861.511230,63.262939,1.055482
-455.932617,861.785889,65.917969,1.056235
-458.679199,857.574463,61.157227,1.056988
-456.848145,855.651855,57.220459,1.057732
-457.672119,861.511230,65.826416,1.058476
-455.200195,863.067627,62.164307,1.059231
-459.228516,854.278564,67.016602,1.059976
-451.721191,867.279053,60.333252,1.060720
-454.925537,863.250732,63.903809,1.061463
-452.453613,864.257812,68.572998,1.062218
-453.002930,860.137939,75.073242,1.062961
-447.326660,865.997314,68.389893,1.063704
-454.010010,864.807129,69.854736,1.064447
-445.953369,869.384766,71.594238,1.065201
-448.608398,872.955322,71.228027,1.065944
-454.101562,864.074707,69.763184,1.066687
-450.714111,863.159180,67.932129,1.067430
-446.136475,865.722656,65.277100,1.068182
-452.087402,889.343262,63.446045,1.068925
-448.608398,872.497559,66.558838,1.069668
-447.418213,868.560791,74.432373,1.070412
-450.714111,862.335205,65.460205,1.071164
-450.347900,871.490479,67.474365,1.071908
-448.333740,875.885010,68.389893,1.072706
-454.559326,873.229980,69.580078,1.073450
-444.580078,867.370605,70.861816,1.074203
-443.664551,867.828369,75.439453,1.074947
-456.207275,862.976074,69.763184,1.075690
-449.249268,872.222900,69.122314,1.076434
-445.404053,870.391846,57.312012,1.077186
-455.566406,868.469238,65.093994,1.077930
-448.516846,870.574951,65.551758,1.078673
-448.242188,872.222900,64.544678,1.079416
-449.340820,871.948242,71.228027,1.080136
-445.404053,876.342773,64.361572,1.080880
-447.052002,876.434326,69.580078,1.081623
-451.721191,872.955322,64.910889,1.082366
-446.868896,875.244141,63.262939,1.083102
-468.200684,872.222900,67.108154,1.083845
-450.897217,875.244141,70.220947,1.084589
-453.552246,876.708984,67.108154,1.085332
-447.509766,876.983643,72.509766,1.086074
-454.284668,877.899170,68.847656,1.086808
-446.319580,881.744385,64.636230,1.087541
-448.699951,883.209229,65.460205,1.088274
-449.890137,873.504639,64.636230,1.089015
-444.763184,869.201660,66.833496,1.089760
-439.910889,880.004883,64.910889,1.090503
-438.903809,877.716064,66.558838,1.091246
-449.523926,879.180908,68.389893,1.091990
-445.495605,874.877930,62.530518,1.092733
-446.960449,872.222900,63.720703,1.093476
-454.925537,870.849609,67.199707,1.094220
-450.805664,872.497559,66.741943,1.094968
-451.995850,877.349854,65.917969,1.095803
-449.707031,878.448486,65.185547,1.096547
-454.284668,886.505127,70.495605,1.097291
-459.686279,880.737305,63.262939,1.098046
-454.284668,881.652832,65.917969,1.098790
-454.376221,881.103516,57.678223,1.099533
-450.897217,877.899170,58.410645,1.100275
-452.636719,882.659912,67.474365,1.101028
-454.559326,879.180908,66.833496,1.101771
-449.798584,876.800537,65.460205,1.102514
-453.277588,874.237061,60.424805,1.103257
-452.453613,876.251221,59.967041,1.104010
-450.256348,880.187988,64.636230,1.104754
-451.995850,881.103516,60.882568,1.105497
-449.615479,873.687744,54.840088,1.106240
-449.615479,878.448486,64.086914,1.106992
-449.707031,877.166748,68.572998,1.107736
-452.362061,874.237061,65.093994,1.108479
-452.362061,879.547119,59.692383,1.109222
-450.531006,876.068115,62.713623,1.109965
-451.721191,870.391846,60.516357,1.110709
-454.925537,877.899170,61.706543,1.111452
-461.791992,874.694824,61.248779,1.112195
-456.756592,866.821289,62.255859,1.112947
-457.946777,864.715576,57.678223,1.113691
-451.995850,877.899170,54.656982,1.114433
-453.918457,878.540039,60.333252,1.115176
-454.010010,879.364014,62.347412,1.115928
-449.798584,871.307373,61.614990,1.116681
-449.157715,871.032715,56.945801,1.117432
-444.671631,868.377686,57.861328,1.118218
-451.263428,874.420166,56.945801,1.118960
-449.066162,880.371094,63.171387,1.119693
-450.622559,876.983643,58.685303,1.120455
-454.467773,875.793457,66.375732,1.121203
-457.946777,871.948242,59.326172,1.121978
-450.073242,874.511719,62.622070,1.122722
-449.066162,876.708984,58.044434,1.123466
-456.939697,871.124268,59.234619,1.124278
-455.657959,874.145508,57.037354,1.125032
-452.453613,879.364014,64.453125,1.125775
-449.981689,882.019043,62.896729,1.126519
-453.460693,882.659912,64.086914,1.127262
-445.404053,878.723145,60.882568,1.128014
-452.178955,877.532959,60.974121,1.128758
-450.622559,883.758545,71.868896,1.129500
-461.242676,880.187988,64.819336,1.130243
-459.411621,882.385254,58.319092,1.130966
-449.890137,881.469727,65.002441,1.131709
-461.975098,882.934570,60.058594,1.132453
-455.566406,885.498047,59.692383,1.133197
-452.819824,882.934570,61.981201,1.133968
-462.249756,879.913330,63.079834,1.134713
-458.496094,884.033203,63.354492,1.135456
-453.735352,884.857178,55.938721,1.136199
-454.650879,887.969971,62.988281,1.136926
-454.101562,882.843018,59.051514,1.137670
-456.024170,892.456055,73.974609,1.138413
-456.024170,888.610840,58.868408,1.139157
-460.601807,879.180908,60.607910,1.139909
-466.918945,882.110596,61.889648,1.140652
-460.693359,885.589600,72.235107,1.141395
-463.714600,876.434326,62.988281,1.142138
-466.461182,882.751465,60.699463,1.142891
-465.362549,882.751465,59.600830,1.143635
-460.784912,882.110596,56.762695,1.144379
-456.298828,886.779785,62.255859,1.145122
-456.207275,884.857178,60.882568,1.145865
-458.129883,875.885010,57.861328,1.146608
-461.883545,884.307861,68.206787,1.147351
-473.876953,870.574951,68.847656,1.148095
-459.686279,879.364014,71.136475,1.148838
-452.636719,878.082275,71.777344,1.149635
-456.665039,879.913330,66.741943,1.150379
-466.644287,872.406006,64.544678,1.151122
-464.447021,881.835938,55.114746,1.151876
-457.946777,879.089355,57.495117,1.152620
-458.679199,882.659912,59.234619,1.153363
-459.503174,866.729736,58.776855,1.154106
-458.862305,872.589111,55.664062,1.154850
-461.883545,875.793457,55.664062,1.155593
-457.031250,876.342773,58.502197,1.156337
-456.665039,876.708984,57.678223,1.157080
-458.404541,865.264893,55.664062,1.157830
-460.784912,878.631592,55.755615,1.158573
-461.791992,868.560791,56.030273,1.159317
-462.799072,868.743896,56.854248,1.160060
-461.425781,884.765625,60.241699,1.160803
-460.235596,870.208740,51.727295,1.161545
-461.425781,880.920410,50.720215,1.162288
-465.087891,877.258301,57.861328,1.163031
-463.073730,877.624512,58.776855,1.163774
-462.799072,881.195068,57.495117,1.164517
-458.679199,879.821777,65.368652,1.165260
-457.763672,879.638672,64.361572,1.166004
-466.278076,877.441406,59.967041,1.166748
-465.728760,887.145996,60.607910,1.167491
-466.003418,881.652832,58.502197,1.168323
-460.327148,884.216309,58.776855,1.169068
-460.601807,883.392334,62.988281,1.169823
-460.876465,876.617432,58.319092,1.170566
-456.207275,884.765625,61.340332,1.171309
-457.305908,878.906250,65.460205,1.172051
-455.017090,886.230469,60.974121,1.172813
-455.017090,880.828857,51.544189,1.173556
-454.559326,880.462646,52.368164,1.174299
-456.298828,878.814697,58.959961,1.175042
-453.552246,877.441406,69.854736,1.175786
-453.826904,872.772217,62.255859,1.176528
-455.932617,873.687744,60.058594,1.177271
-446.777344,877.166748,55.572510,1.178014
-455.291748,876.708984,61.431885,1.178766
-454.742432,866.455078,62.347412,1.179509
-447.784424,877.807617,62.072754,1.180252
-450.531006,878.723145,63.079834,1.180995
-448.150635,885.406494,62.530518,1.181739
-462.524414,872.497559,52.368164,1.182483
-450.439453,882.293701,59.234619,1.183226
-451.904297,878.631592,56.304932,1.183969
-453.369141,873.321533,54.016113,1.184712
-457.855225,882.019043,56.762695,1.185455
-453.002930,880.187988,64.086914,1.186198
-450.805664,877.624512,60.882568,1.186941
-455.841064,869.659424,63.446045,1.187684
-454.742432,878.906250,60.699463,1.188428
-458.129883,881.652832,59.143066,1.189199
-449.066162,872.863770,60.607910,1.190024
-451.080322,877.807617,60.516357,1.190786
-456.024170,877.166748,60.150146,1.191547
-450.073242,883.209229,57.220459,1.192335
-451.080322,877.807617,50.811768,1.193155
-450.256348,883.392334,63.354492,1.193986
-445.037842,880.187988,55.206299,1.194855
-455.291748,873.321533,51.086426,1.195674
-445.220947,876.342773,61.798096,1.196468
-452.178955,882.019043,59.967041,1.197263
-450.988770,878.448486,60.607910,1.198055
-445.220947,873.046875,52.917480,1.198872
-454.010010,879.089355,47.790527,1.199664
-447.509766,878.631592,50.170898,1.200452
-451.354980,872.955322,58.685303,1.201234
-455.474854,878.265381,56.304932,1.202104
-450.531006,867.919922,63.720703,1.202893
-451.995850,874.145508,60.058594,1.203673
-450.622559,875.885010,56.030273,1.204536
-453.735352,875.610352,61.431885,1.205334
-443.939209,883.941650,54.748535,1.206123
-453.094482,874.511719,58.044434,1.206914
-454.376221,882.293701,59.875488,1.207689
-453.918457,881.469727,59.051514,1.208477
-447.601318,885.406494,59.417725,1.209265
-446.228027,876.251221,60.791016,1.210072
-454.467773,874.328613,55.755615,1.210828
-452.362061,878.997803,56.488037,1.211587
-450.073242,877.899170,56.762695,1.212339
-449.615479,875.610352,62.896729,1.213085
-453.186035,875.885010,49.072266,1.213852
-450.347900,880.737305,54.290771,1.214616
-452.911377,883.850098,53.741455,1.215352
-452.178955,874.053955,46.691895,1.216105
-450.897217,881.835938,60.882568,1.216836
-455.474854,875.335693,56.121826,1.217567
-456.573486,876.068115,59.783936,1.218297
-454.833984,881.286621,48.889160,1.219041
-448.150635,876.525879,50.079346,1.219771
-459.228516,880.920410,60.882568,1.220502
-458.404541,876.159668,61.157227,1.221232
-454.650879,883.941650,57.037354,1.221972
-453.369141,876.708984,57.220459,1.222703
-455.657959,879.272461,58.410645,1.223433
-456.115723,880.187988,53.283691,1.224164
-450.714111,878.723145,52.917480,1.224905
-458.587646,875.152588,52.642822,1.225635
-451.171875,873.779297,58.044434,1.226365
-456.207275,874.053955,50.537109,1.227095
-460.052490,876.251221,58.868408,1.227830
-460.235596,874.603271,54.473877,1.228560
-456.573486,878.814697,62.530518,1.229290
-452.087402,871.307373,59.600830,1.230020
-459.869385,871.765137,57.037354,1.230751
-455.200195,871.948242,57.952881,1.231481
-459.228516,870.849609,54.656982,1.232211
-456.756592,864.807129,56.854248,1.232941
-456.024170,874.420166,53.558350,1.233683
-463.439941,873.779297,53.924561,1.234414
-459.960938,869.659424,61.981201,1.235144
-459.228516,869.659424,60.699463,1.235875
-466.552734,865.631104,56.488037,1.236616
-468.750000,889.434814,61.340332,1.237356
-457.580566,875.610352,59.143066,1.238095
-460.601807,871.307373,64.361572,1.238854
-463.073730,877.258301,59.875488,1.239637
-463.348389,874.603271,51.361084,1.240408
-460.052490,860.412598,56.854248,1.241161
-462.799072,869.384766,60.150146,1.241939
-465.362549,872.314453,59.143066,1.242805
-462.615967,871.124268,62.805176,1.243559
-469.299316,867.736816,58.410645,1.244323
-462.341309,867.187500,60.333252,1.245106
-462.432861,869.293213,60.150146,1.245861
-463.531494,866.363525,61.523438,1.246605
-470.306396,875.701904,53.100586,1.247381
-461.883545,875.335693,59.234619,1.248134
-470.855713,873.870850,66.467285,1.248916
-464.355469,874.786377,58.410645,1.249684
-464.355469,871.856689,61.248779,1.250434
-462.249756,878.356934,63.446045,1.251177
-472.320557,878.906250,55.664062,1.251920
-466.094971,881.835938,49.530029,1.252661
-470.947266,876.800537,54.016113,1.253426
-468.292236,872.222900,57.861328,1.254168
-467.559814,871.307373,53.833008,1.254927
-469.848633,874.877930,60.974121,1.255668
-466.735840,880.004883,58.410645,1.256408
-469.207764,876.434326,58.685303,1.257165
-469.665527,878.448486,58.776855,1.257935
-468.017578,878.631592,54.199219,1.258687
-461.059570,875.244141,56.762695,1.259435
-464.904785,876.892090,56.396484,1.260175
-458.679199,872.222900,54.016113,1.260936
-461.883545,871.490479,54.382324,1.261676
-460.968018,874.237061,56.488037,1.262423
-459.686279,877.075195,60.241699,1.263165
-463.989258,876.342773,56.945801,1.263920
-464.080811,866.821289,56.762695,1.264660
-458.129883,873.870850,59.326172,1.265399
-458.496094,881.103516,58.044434,1.266139
-461.700439,882.751465,61.614990,1.266893
-457.580566,875.701904,56.671143,1.267679
-456.390381,878.173828,63.629150,1.268426
-457.031250,872.406006,58.135986,1.269218
-452.911377,871.490479,62.805176,1.269957
-455.841064,875.610352,64.544678,1.270690
-453.002930,870.666504,59.509277,1.271422
-448.333740,871.582031,55.206299,1.272186
-455.383301,869.293213,56.213379,1.272919
-452.178955,871.582031,60.516357,1.273651
-454.376221,878.723145,60.974121,1.274384
-451.904297,870.666504,63.720703,1.275134
-441.650391,886.505127,64.819336,1.275867
-447.143555,882.385254,63.079834,1.276600
-437.530518,879.455566,60.699463,1.277332
-445.495605,885.498047,65.643311,1.278090
-443.481445,883.392334,67.108154,1.278849
-439.361572,872.406006,57.403564,1.279595
-444.854736,872.589111,62.255859,1.280338
-440.917969,877.075195,57.952881,1.281095
-445.220947,879.821777,58.593750,1.281839
-447.784424,875.976562,58.135986,1.282583
-442.108154,879.180908,62.988281,1.283326
-443.481445,874.603271,52.917480,1.284069
-440.643311,882.751465,67.749023,1.284802
-437.255859,882.568359,59.600830,1.285535
-440.368652,884.948730,65.002441,1.286268
-441.741943,880.279541,55.206299,1.287031
-444.030762,880.187988,87.249756,1.287771
-435.424805,883.575439,66.925049,1.288514
-438.720703,884.765625,64.453125,1.289256
-447.875977,884.582520,59.417725,1.290010
-446.411133,892.639160,65.185547,1.290752
-442.749023,887.695312,65.734863,1.291494
-443.023682,883.117676,62.072754,1.292237
-460.601807,884.765625,64.178467,1.292989
-442.016602,878.448486,61.889648,1.293732
-440.917969,883.209229,71.777344,1.294474
-442.016602,874.603271,56.945801,1.295217
-437.072754,878.631592,61.614990,1.295967
-439.086914,882.293701,62.530518,1.296709
-433.044434,881.835938,64.636230,1.297451
-447.875977,879.638672,64.453125,1.298193
-446.319580,875.335693,62.713623,1.298933
-438.903809,878.356934,66.192627,1.299672
-443.298340,882.110596,60.516357,1.300419
-451.080322,879.272461,59.326172,1.301163
-442.932129,881.744385,59.417725,1.301914
-433.135986,881.744385,57.586670,1.302664
-444.946289,876.617432,63.171387,1.303409
-447.601318,877.899170,70.953369,1.304152
-443.206787,882.019043,65.826416,1.304895
-440.551758,882.751465,65.917969,1.305637
-437.896729,877.716064,63.262939,1.306379
-435.882568,884.582520,58.319092,1.307121
-438.629150,874.237061,61.248779,1.307863
-443.481445,885.772705,59.967041,1.308605
-443.939209,885.406494,69.305420,1.309347
-441.925049,887.603760,65.734863,1.310089
-443.481445,883.666992,65.643311,1.310844
-436.798096,883.209229,60.974121,1.311598
-446.228027,885.406494,60.607910,1.312375
-444.488525,882.019043,57.403564,1.313118
-437.805176,879.547119,55.389404,1.313853
-433.868408,885.040283,60.791016,1.314586
-434.967041,886.596680,60.150146,1.315416
-444.854736,884.033203,62.805176,1.316177
-443.847656,887.512207,65.734863,1.316919
-446.228027,890.075684,62.622070,1.317661
-440.277100,881.195068,58.593750,1.318403
-441.467285,890.716553,61.706543,1.319145
-436.798096,886.688232,63.629150,1.319888
-440.277100,889.434814,61.798096,1.320630
-439.361572,888.519287,62.072754,1.321372
-441.284180,890.075684,58.227539,1.322114
-440.917969,883.209229,59.692383,1.322856
-437.896729,886.779785,52.368164,1.323598
-441.284180,881.195068,58.959961,1.324339
-435.516357,887.237549,59.600830,1.325082
-440.826416,882.659912,63.171387,1.325824
-443.572998,880.187988,61.431885,1.326565
-447.235107,881.469727,58.685303,1.327307
-445.587158,881.378174,58.776855,1.328050
-438.629150,880.187988,64.910889,1.328791
-437.988281,882.568359,60.699463,1.329533
-442.382812,877.441406,51.635742,1.330275
-445.129395,883.392334,62.805176,1.331088
-450.256348,879.272461,56.671143,1.331833
-455.291748,882.843018,55.023193,1.332575
-449.981689,884.765625,54.290771,1.333333
-445.953369,877.716064,58.135986,1.334134
-445.495605,877.716064,58.868408,1.334876
-448.425293,884.124756,58.135986,1.335616
-444.122314,872.406006,56.396484,1.336371
-448.791504,880.737305,52.368164,1.337144
-449.707031,882.751465,54.107666,1.337913
-443.572998,882.476807,56.121826,1.338664
-440.551758,880.645752,58.685303,1.339436
-449.340820,880.004883,60.150146,1.340255
-446.228027,877.532959,61.798096,1.340997
-439.636230,873.687744,61.248779,1.341751
-443.756104,875.885010,53.649902,1.342493
-425.079346,872.955322,64.361572,1.343233
-441.009521,871.215820,64.453125,1.343972
-446.411133,869.567871,63.537598,1.344727
-440.826416,879.821777,64.453125,1.345487
-446.960449,874.603271,60.882568,1.346230
-446.044922,867.279053,59.875488,1.346972
-448.699951,872.131348,56.213379,1.347715
-449.432373,871.032715,60.058594,1.348455
-450.988770,868.835449,54.840088,1.349194
-450.897217,868.194580,65.277100,1.349945
-457.672119,847.595215,57.769775,1.350697
-455.108643,872.131348,59.875488,1.351449
-451.995850,863.616943,61.889648,1.352192
-454.467773,868.011475,64.270020,1.352934
-449.157715,867.095947,62.072754,1.353676
-458.862305,847.137451,56.579590,1.354432
-447.692871,862.792969,64.453125,1.355174
-456.298828,861.419678,57.861328,1.355916
-466.644287,863.525391,59.051514,1.356764
-481.109619,853.363037,56.121826,1.357513
-482.025146,858.489990,57.312012,1.358255
-473.327637,866.455078,61.798096,1.358997
-472.045898,864.532471,57.586670,1.359739
-462.341309,851.257324,64.361572,1.360481
-458.953857,872.039795,60.607910,1.361223
-458.312988,870.208740,57.861328,1.361964
-464.630127,868.560791,58.593750,1.362707
-465.545654,866.729736,61.248779,1.363449
-467.193604,887.145996,61.798096,1.364191
-448.791504,876.708984,62.622070,1.364934
-424.438477,878.997803,57.403564,1.365689
-439.819336,880.462646,59.417725,1.366431
-443.847656,871.948242,56.396484,1.367223
-453.277588,859.680176,46.051025,1.367983
-457.214355,869.567871,53.466797,1.368741
-448.059082,867.004395,57.861328,1.369483
-438.995361,865.722656,56.121826,1.370225
-451.171875,870.208740,58.044434,1.370967
-446.411133,872.406006,61.248779,1.371720
-448.333740,867.828369,71.228027,1.372462
-449.066162,862.518311,58.776855,1.373204
-447.967529,868.469238,66.284180,1.373945
-455.200195,854.461670,56.121826,1.374697
-454.376221,856.201172,56.671143,1.375444
-454.833984,861.694336,59.967041,1.376186
-447.418213,865.356445,64.910889,1.376927
-449.523926,858.673096,61.889648,1.377679
-447.784424,862.792969,62.805176,1.378421
-448.150635,888.702393,60.607910,1.379163
-449.981689,864.074707,59.326172,1.379904
-447.692871,871.948242,53.558350,1.380657
-442.474365,867.370605,49.896240,1.381398
-439.636230,878.082275,54.107666,1.382140
-446.136475,872.497559,57.037354,1.382908
-441.101074,873.229980,62.622070,1.383663
-441.925049,869.384766,62.713623,1.384402
-431.945801,878.631592,59.967041,1.385196
-429.565430,880.187988,55.664062,1.385940
-431.762695,877.899170,47.973633,1.386691
-436.340332,877.899170,46.417236,1.387431
-437.072754,882.751465,46.691895,1.388172
-444.213867,889.068604,55.572510,1.389007
-441.101074,882.293701,55.206299,1.389741
-435.791016,887.878418,64.819336,1.390474
-435.241699,888.610840,62.530518,1.391207
-439.544678,891.540527,70.129395,1.391941
-442.199707,877.990723,58.044434,1.392684
-439.086914,879.455566,57.128906,1.393426
-432.861328,869.567871,62.713623,1.394168
-433.319092,879.547119,59.143066,1.394910
-434.143066,879.730225,62.622070,1.395652
-433.502197,877.532959,65.917969,1.396395
-425.445557,876.708984,56.671143,1.397137
-428.100586,872.955322,55.023193,1.397880
-430.114746,865.081787,69.946289,1.398622
-427.551270,880.737305,68.023682,1.399364
-422.332764,877.075195,74.523926,1.400106
-432.220459,870.483398,66.284180,1.400848
-427.917480,871.215820,61.706543,1.401597
-427.001953,869.476318,71.044922,1.402339
-433.685303,871.765137,70.404053,1.403081
-428.192139,879.089355,68.298340,1.403823
-431.030273,881.469727,68.847656,1.404574
-426.910400,876.892090,61.340332,1.405319
-424.255371,871.307373,70.129395,1.406062
-430.572510,875.885010,66.833496,1.406806
-443.481445,875.885010,70.312500,1.407588
-439.361572,881.378174,67.382812,1.408345
-429.382324,886.413574,62.530518,1.409117
-433.776855,882.843018,65.277100,1.409860
-433.502197,876.708984,60.058594,1.410603
-432.861328,883.941650,64.819336,1.411405
-436.798096,889.892578,57.128906,1.412149
-426.269531,898.132324,66.192627,1.412893
-435.699463,890.350342,58.959961,1.413664
-435.791016,889.160156,59.509277,1.414407
-435.699463,887.145996,57.952881,1.415149
-435.791016,891.723633,60.241699,1.415900
-437.622070,892.730713,60.699463,1.416642
-433.776855,895.019531,66.192627,1.417384
-431.121826,894.653320,65.093994,1.418126
-440.643311,890.899658,59.143066,1.418878
-435.791016,891.723633,63.262939,1.419620
-434.051514,894.195557,67.749023,1.420362
-434.875488,889.892578,63.903809,1.421104
-437.713623,894.287109,64.178467,1.421847
-446.411133,888.793945,63.171387,1.422589
-444.763184,889.526367,59.600830,1.423330
-443.572998,891.723633,62.255859,1.424072
-446.411133,886.871338,63.262939,1.424814
-444.030762,881.286621,61.523438,1.425557
-445.129395,878.631592,58.502197,1.426300
-446.868896,875.885010,64.544678,1.427043
-446.136475,880.828857,60.516357,1.427785
-451.263428,872.131348,63.537598,1.428540
-453.735352,882.385254,67.565918,1.429353
-454.193115,880.920410,65.093994,1.430097
-457.397461,876.342773,62.622070,1.430851
-461.151123,877.075195,57.403564,1.431595
-457.946777,875.335693,65.185547,1.432338
-456.665039,874.145508,66.101074,1.433080
-455.566406,873.870850,63.903809,1.433834
-458.679199,864.898682,64.270020,1.434577
-457.031250,865.997314,64.544678,1.435319
-454.650879,865.905762,65.734863,1.436060
-458.129883,875.885010,59.509277,1.436813
-458.770752,865.814209,57.678223,1.437555
-463.256836,869.201660,58.959961,1.438297
-462.066650,874.511719,64.819336,1.439039
-464.447021,864.624023,69.213867,1.439792
-464.447021,889.801025,68.115234,1.440534
-459.594727,868.927002,63.903809,1.441276
-456.115723,871.582031,46.875000,1.442018
-462.341309,870.666504,56.854248,1.442757
-464.996338,865.539551,51.452637,1.443497
-464.447021,874.969482,61.523438,1.444237
-465.545654,877.258301,61.248779,1.444982
-482.116699,883.575439,63.903809,1.445788
-484.863281,889.801025,60.333252,1.446531
-486.328125,887.420654,57.128906,1.447273
-490.997314,888.519287,66.467285,1.448015
-495.849609,886.138916,60.974121,1.448767
-492.095947,886.779785,60.333252,1.449509
-493.286133,878.173828,55.023193,1.450251
-494.201660,892.547607,60.333252,1.450993
-494.842529,884.582520,54.931641,1.451745
-488.983154,894.378662,52.001953,1.452487
-487.701416,887.969971,52.093506,1.453229
-497.955322,883.026123,52.551270,1.453971
-498.321533,880.828857,45.227051,1.454721
-492.462158,880.920410,50.628662,1.455460
-496.032715,876.342773,54.290771,1.456199
-504.089355,878.082275,56.579590,1.456950
-493.103027,884.765625,59.509277,1.457707
-497.863770,881.469727,44.677734,1.458452
-495.483398,882.934570,42.938232,1.459196
-494.842529,878.540039,44.403076,1.459940
-491.455078,880.371094,44.036865,1.460685
-497.222900,871.948242,59.417725,1.461512
-499.328613,869.567871,56.213379,1.462247
-500.427246,871.032715,51.269531,1.462980
-503.997803,874.694824,52.368164,1.463646
-505.187988,871.948242,50.170898,1.464389
-504.913330,864.898682,56.762695,1.465130
-510.040283,876.434326,61.614990,1.465872
-510.314941,847.778320,48.065186,1.466634
-508.209229,868.011475,48.522949,1.467376
-508.483887,867.004395,55.847168,1.468118
-509.765625,868.652344,56.945801,1.468860
-510.772705,859.588623,45.501709,1.469553
-512.420654,855.194092,56.304932,1.470295
-506.286621,862.426758,55.847168,1.471037
-504.180908,859.405518,60.699463,1.471778
-501.892090,863.250732,69.122314,1.472530
-505.279541,856.750488,56.579590,1.473272
-506.378174,851.348877,49.346924,1.474014
-500.885010,853.820801,53.466797,1.474755
-503.356934,848.968506,54.565430,1.475507
-502.258301,830.017090,47.515869,1.476249
-481.384277,839.355469,61.065674,1.476991
-488.525391,852.264404,49.713135,1.477733
-487.152100,858.123779,54.565430,1.478485
-489.349365,861.053467,51.452637,1.479227
-521.484375,855.743408,56.488037,1.479969
-523.864746,849.517822,59.600830,1.480711
-531.921387,846.679688,58.502197,1.481463
-521.759033,856.933594,60.150146,1.482217
-508.117676,856.658936,64.178467,1.483060
-488.708496,860.595703,67.108154,1.483826
-496.307373,855.010986,56.396484,1.484594
-502.441406,849.060059,52.368164,1.485337
-519.287109,834.503174,50.354004,1.486079
-524.688721,850.708008,50.354004,1.486881
-506.469727,859.039307,57.312012,1.487661
-510.406494,853.088379,58.593750,1.488412
-512.603760,848.236084,61.065674,1.489182
-511.505127,850.067139,56.945801,1.489944
-515.350342,847.869873,54.748535,1.490687
-515.533447,847.137451,54.016113,1.491430
-513.153076,843.566895,52.093506,1.492172
-504.089355,850.433350,61.981201,1.492916
-491.271973,865.173340,60.516357,1.493671
-482.757568,851.715088,51.635742,1.494414
-484.405518,853.088379,34.606934,1.495155
-501.617432,844.848633,39.276123,1.495897
-515.625000,839.538574,41.564941,1.496651
-516.815186,842.834473,36.712646,1.497393
-513.427734,857.757568,42.755127,1.498135
-511.871338,848.785400,55.206299,1.498878
-508.758545,850.799561,54.473877,1.499634
-502.899170,859.039307,59.326172,1.500376
-506.744385,856.933594,59.417725,1.501118
-494.293213,847.229004,43.945312,1.501860
-496.307373,851.806641,44.128418,1.502610
-503.997803,847.137451,47.241211,1.503353
-504.913330,861.236572,47.332764,1.504095
-505.737305,860.504150,58.227539,1.504836
-503.814697,861.877441,61.065674,1.505589
-506.744385,860.229492,70.312500,1.506332
-506.561279,863.616943,68.847656,1.507074
-505.004883,856.842041,53.192139,1.507815
-518.737793,862.243652,54.565430,1.508566
-513.793945,859.313965,58.410645,1.509309
-518.096924,861.694336,64.544678,1.510051
-515.899658,861.236572,59.600830,1.510793
-519.561768,864.166260,60.699463,1.511553
-514.801025,863.800049,60.241699,1.512296
-506.469727,864.166260,66.375732,1.513038
-503.173828,887.329102,59.692383,1.513779
-508.758545,862.243652,59.509277,1.514530
-518.280029,859.863281,60.424805,1.515272
-514.343262,861.602783,56.396484,1.516007
-513.793945,867.279053,58.044434,1.516741
-518.554688,872.131348,61.523438,1.517496
-512.603760,875.152588,60.882568,1.518238
-511.596680,873.596191,62.988281,1.518980
-514.251709,877.716064,57.312012,1.519722
-520.843506,887.786865,53.924561,1.520550
-530.822754,891.265869,57.678223,1.521297
-533.111572,888.977051,58.685303,1.522039
-535.308838,907.104492,56.579590,1.522857
-543.457031,929.077148,70.587158,1.523631
-548.858643,932.189941,81.390381,1.524374
-545.288086,950.225830,89.904785,1.525115
-542.175293,951.873779,84.960938,1.525866
-547.302246,951.416016,85.693359,1.526619
-541.534424,964.141846,82.122803,1.527363
-554.351807,961.761475,85.968018,1.528105
-560.394287,964.782715,73.974609,1.528857
-569.183350,956.909180,76.171875,1.529600
-572.296143,964.874268,62.255859,1.530342
-574.127197,967.895508,62.988281,1.531084
-570.922852,975.585938,72.784424,1.531836
-569.274902,981.719971,71.319580,1.532578
-557.098389,984.558105,72.052002,1.533320
-555.908203,977.783203,66.467285,1.534063
-565.155029,966.430664,55.480957,1.534910
-566.894531,958.465576,24.444580,1.535652
-567.443848,959.564209,45.135498,1.536394
-567.077637,962.402344,46.051025,1.537136
-565.338135,964.416504,57.678223,1.537888
-550.231934,960.571289,60.882568,1.538630
-558.380127,962.585449,58.227539,1.539373
-576.141357,951.232910,44.952393,1.540115
-583.465576,931.365967,32.958984,1.540866
-596.923828,929.443359,30.578613,1.541608
-604.248047,921.844482,34.606934,1.542350
-594.360352,925.506592,39.825439,1.543092
-586.761475,919.097900,33.966064,1.543844
-590.881348,919.281006,38.269043,1.544586
-573.211670,918.640137,37.902832,1.545328
-578.979492,912.872314,40.283203,1.546070
-570.373535,905.639648,38.635254,1.546831
-578.247070,898.223877,38.452148,1.547573
-574.035645,908.386230,42.846680,1.548314
-589.141846,904.449463,44.494629,1.549056
-598.663330,907.928467,51.361084,1.549808
-605.438232,915.161133,52.093506,1.550550
-606.536865,910.766602,62.347412,1.551292
-602.874756,920.837402,77.545166,1.552034
-606.262207,922.027588,72.692871,1.552785
-603.332520,930.450439,82.946777,1.553527
-594.360352,944.091797,106.842041,1.554273
-588.592529,957.458496,123.229980,1.555021
-587.127686,971.832275,143.829346,1.555744
-586.853027,981.536865,159.759521,1.556491
-589.782715,982.086182,158.477783,1.557247
-596.282959,976.318359,139.251709,1.558003
-577.606201,982.727051,137.969971,1.558767
-602.050781,963.775635,152.709961,1.559511
-543.731689,968.994141,123.596191,1.560315
-585.571289,978.057861,158.020020,1.561070
-588.867188,970.275879,163.696289,1.561821
-587.402344,981.353760,208.374023,1.562593
-592.620850,994.171143,221.008301,1.563337
-600.677490,1026.397705,258.911133,1.564081
-573.486328,1032.348633,309.173584,1.564825
-569.458008,1045.074463,324.188232,1.565569
-551.330566,1030.517578,358.337402,1.566313
-531.646729,1023.834229,328.948975,1.567095
-524.688721,1022.094727,321.624756,1.567849
-533.569336,1019.531250,334.625244,1.568593
-517.913818,1013.214111,340.759277,1.569336
-551.879883,1014.495850,332.244873,1.570080
-544.372559,1015.594482,310.180664,1.570824
-541.809082,998.107910,311.187744,1.571567
-537.780762,985.839844,312.744141,1.572312
-527.618408,980.438232,305.603027,1.573073
-511.138916,986.755371,311.279297,1.573820
-493.011475,995.819092,301.300049,1.574563
-487.335205,1000.671387,298.828125,1.575307
-483.123779,1008.544922,290.954590,1.576051
-488.159180,1008.453369,258.361816,1.576795
-482.574463,1009.826660,269.256592,1.577539
-479.827881,1031.066895,292.236328,1.578282
-484.039307,1016.510010,312.377930,1.579026
-481.933594,1026.672363,332.061768,1.579774
-484.863281,1032.989502,365.844727,1.580507
-495.208740,1044.250488,366.668701,1.581240
-482.116699,1047.363281,373.626709,1.581974
-478.271484,1062.103271,390.289307,1.582617
-477.172852,1075.836182,441.101074,1.583360
-456.390381,1077.301025,461.975098,1.584103
-455.657959,1084.259033,496.032715,1.584845
-450.714111,1096.801758,508.117676,1.585608
-434.326172,1095.886230,498.779297,1.586351
-426.086426,1105.316162,543.548584,1.587094
-442.565918,1100.646973,575.317383,1.587836
-421.051025,1110.900879,601.867676,1.588586
-423.980713,1133.422852,610.839844,1.589338
-431.213379,1166.656494,601.593018,1.590093
-423.980713,1149.902344,598.937988,1.590846
-415.557861,1147.888184,594.360352,1.591588
-448.242188,1131.774902,627.319336,1.592331
-424.713135,1122.436523,637.664795,1.593073
-420.867920,1139.007568,605.072021,1.593815
-364.379883,1132.781982,581.542969,1.594615
-338.104248,1141.754150,583.007812,1.595361
-364.471436,1139.099121,586.212158,1.596103
-331.420898,1126.098633,588.500977,1.596869
-364.105225,1119.873047,581.634521,1.597643
-363.922119,1128.936768,593.261719,1.598430
-352.386475,1134.613037,635.101318,1.599174
-364.929199,1140.197754,634.185791,1.599917
-373.626709,1104.492188,613.128662,1.600659
-440.093994,1123.626709,633.453369,1.601401
-365.570068,1153.472900,657.348633,1.602180
-498.413086,1154.205322,463.897705,1.602922
-1431.243896,1602.630615,-47.607422,1.603664
-707.519531,1493.591309,131.835938,1.604407
144.927979,1197.326660,554.718018,1.605151
-440.734863,1120.880127,617.156982,1.605985
-866.271973,1106.964111,686.553955,1.606728
-140.258789,1050.842285,587.219238,1.607470
-36.529541,1255.096436,333.984375,1.608222
-720.336914,1015.869141,453.643799,1.608965
-522.674561,628.234863,528.991699,1.609708
-524.963379,461.975098,476.348877,1.610450
-414.459229,464.355469,393.585205,1.611202
-300.659180,541.534424,195.465088,1.611945
-215.332031,609.832764,-1.007080,1.612687
-154.174805,691.772461,-117.187500,1.613428
-250.030518,713.836670,-349.456787,1.614227
-335.998535,727.478027,-388.366699,1.614971
-389.282227,683.349609,-364.471436,1.615714
-352.844238,638.305664,-286.468506,1.616467
-258.453369,624.023438,-234.466553,1.617209
-266.784668,663.024902,-139.892578,1.617952
-239.318848,624.664307,-70.037842,1.618693
-269.805908,638.854980,44.311523,1.619436
-293.884277,654.693604,129.821777,1.620179
-289.855957,688.751221,136.596680,1.620921
-185.760498,556.549072,159.027100,1.621664
-111.785889,500.335693,161.315918,1.622406
-306.793213,599.212646,164.520264,1.623148
-505.187988,601.318359,196.838379,1.623890
-598.388672,760.345459,215.148926,1.624632
-588.409424,876.434326,341.125488,1.625375
-555.633545,950.134277,398.162842,1.626127
-779.846191,1147.521973,551.605225,1.626877
-699.737549,1229.919434,622.650146,1.627625
684.173584,482.116699,769.500732,1.628387
-1624.786377,528.717041,612.487793,1.629160
-1265.991211,982.177734,513.702393,1.629904
-494.293213,1032.531738,589.324951,1.630646
-683.349609,1348.571777,632.629395,1.631388
-732.879639,1364.044189,711.090088,1.632143
410.430908,386.993408,869.018555,1.632948
-253.326416,645.904541,766.937256,1.633701
-585.754395,902.160645,628.051758,1.634466
-262.115479,1010.192871,561.401367,1.635215
164.611816,1194.946289,563.690186,1.635957
-48.614502,1078.674316,595.550537,1.636700
-508.941650,1043.426514,678.680420,1.637548
-216.156006,1285.949707,716.491699,1.638297
-738.281250,252.593994,1048.370361,1.639154
-1370.269775,1340.332031,627.777100,1.639904
-813.079834,920.288086,682.525635,1.640647
-609.741211,1341.156006,680.603027,1.641400
-308.349609,1197.509766,762.725830,1.642143
-233.459473,1109.252930,783.508301,1.642886
-389.099121,1215.454102,843.017578,1.643628
-364.288330,1320.648193,860.046387,1.644369
-420.318604,1466.400146,884.765625,1.645112
-743.774414,504.730225,923.767090,1.645871
-587.219238,1281.372070,832.489014,1.646614
147.216797,986.663818,945.739746,1.647356
645.172119,487.884521,1046.722412,1.648099
-771.148682,2110.656738,882.202148,1.648856
-1438.385010,-218.353271,1038.482666,1.649597
-299.652100,1591.003418,797.424316,1.650343
642.425537,384.796143,922.393799,1.651087
-136.962891,1029.693604,704.406738,1.651830
-526.611328,1998.870850,618.347168,1.652572
1689.514160,730.773926,680.694580,1.653314
2444.824219,-1714.324951,804.840088,1.654056
-1406.250000,1112.731934,443.481445,1.654810
-643.615723,2902.496338,463.714600,1.655553
479.095459,849.792480,437.805176,1.656295
-698.272705,1983.581543,359.710693,1.657037
-380.493164,649.475098,457.031250,1.657789
516.998291,-260.833740,457.763672,1.658532
106.933594,793.212891,286.285400,1.659273
-1478.302002,1619.934082,203.063965,1.660015
-1072.357178,2034.759521,183.746338,1.660779
524.505615,-320.526123,250.396729,1.661522
749.359131,346.527100,185.211182,1.662268
904.357910,1180.297852,-402.191162,1.663076
1087.463379,1394.256592,-369.689941,1.663820
-75.073242,1042.510986,35.614014,1.664563
-528.808594,1034.545898,189.422607,1.665305
29.205322,1035.095215,118.927002,1.666057
-116.638184,1030.334473,202.697754,1.666800
-1415.130615,612.213135,313.568115,1.667546
-3000.000000,716.125488,384.521484,1.668323
-1969.665527,747.711182,277.954102,1.669073
233.184814,817.657471,312.561035,1.669814
438.079834,756.683350,272.094727,1.670431
31.768799,763.549805,296.813965,1.671185
-420.867920,705.139160,310.089111,1.671937
-472.229004,708.892822,294.433594,1.672680
-455.566406,752.929688,278.961182,1.673422
-626.861572,638.763428,273.468018,1.674165
-527.252197,654.968262,276.763916,1.674923
-411.346436,677.307129,263.305664,1.675666
-384.613037,690.948486,245.727539,1.676503
-523.406982,588.592529,237.762451,1.677245
-447.418213,600.860596,218.261719,1.677998
-346.710205,586.578369,218.719482,1.678740
-314.300537,541.992188,212.310791,1.679483
-322.174072,553.894043,226.593018,1.680225
-399.353027,538.055420,213.958740,1.680986
-355.590820,578.613281,226.959229,1.681747
-333.709717,555.267334,256.988525,1.682490
-295.074463,529.632568,251.770020,1.683245
-275.573730,470.672607,249.114990,1.683988
-232.635498,397.430420,246.093750,1.684730
-32.043457,351.654053,273.559570,1.685472
-376.556396,254.608154,255.432129,1.686269
-578.613281,383.697510,229.431152,1.687013
-801.086426,445.312500,255.432129,1.687756
-757.873535,393.218994,286.743164,1.688498
-708.435059,334.808350,272.552490,1.689251
-667.602539,418.487549,194.366455,1.689993
144.653320,339.477539,-956.726074,1.690735
-1670.562744,603.057861,-826.538086,1.691477
-615.783691,550.964355,223.297119,1.692230
-573.760986,285.095215,649.108887,1.692973
-885.772705,213.226318,321.899414,1.693765
-350.280762,390.106201,56.396484,1.694508
-849.517822,393.493652,-122.314453,1.695250
-733.520508,400.634766,52.276611,1.695993
-605.712891,244.171143,353.942871,1.696747
-707.153320,172.210693,250.762939,1.697496
-482.574463,302.490234,129.455566,1.698284
-545.379639,332.702637,86.517334,1.699032
-525.787354,279.785156,167.175293,1.699774
-518.280029,272.369385,173.675537,1.700535
-470.947266,287.109375,69.396973,1.701307
-435.974121,304.229736,74.707031,1.702062
-412.170410,283.172607,97.137451,1.702810
-421.325684,284.088135,85.510254,1.703582
-391.204834,301.757812,78.460693,1.704329
-370.605469,322.082520,53.100586,1.705070
-337.005615,306.884766,53.283691,1.705812
-311.462402,308.166504,43.670654,1.706552
-274.017334,319.610596,50.354004,1.707309
-260.925293,329.406738,47.058105,1.708050
-274.475098,333.343506,43.945312,1.708782
-279.876709,324.005127,67.291260,1.709547
-248.199463,322.540283,127.990723,1.710295
-273.376465,334.991455,122.222900,1.711038
-298.278809,359.344482,142.089844,1.711780
-287.750244,380.310059,147.216797,1.712524
-288.116455,389.556885,146.392822,1.713265
-250.305176,417.846680,179.992676,1.714007
-246.551514,423.156738,204.895020,1.714750
-221.282959,447.784424,221.923828,1.715492
-204.345703,436.157227,232.086182,1.716234
-170.196533,452.087402,233.551025,1.716975
-147.399902,455.017090,240.509033,1.717727
-168.365479,465.545654,260.284424,1.718469
-158.569336,493.469238,273.284912,1.719210
-174.041748,497.955322,276.123047,1.719952
-190.246582,510.131836,285.461426,1.720693
-194.641113,498.504639,289.306641,1.721435
-184.661865,507.019043,302.124023,1.722176
-178.161621,518.920898,305.786133,1.722917
-184.478760,517.822266,321.441650,1.723659
-170.013428,534.851074,341.766357,1.724412
-322.998047,423.339844,433.227539,1.725154
-242.340088,499.511719,475.341797,1.725895
-192.352295,478.546143,415.191650,1.726637
-171.478271,497.131348,423.156738,1.727388
-112.701416,526.611328,454.376221,1.728130
-181.457520,529.724121,466.094971,1.728871
-162.689209,568.908691,458.404541,1.729613
-183.471680,573.669434,485.412598,1.730364
-179.168701,572.387695,531.829834,1.731106
-149.597168,575.225830,535.491943,1.731847
-117.370605,565.795898,530.548096,1.732588
-51.544189,473.327637,543.731689,1.733349
1333.557129,614.318848,596.649170,1.734090
315.124512,651.580811,1000.396729,1.734832
-885.955811,561.767578,1020.904541,1.735573
710.449219,721.435547,866.363525,1.736325
622.283936,827.087402,922.576904,1.737067
-778.564453,610.382080,1079.589844,1.737808
86.517334,678.131104,1054.138184,1.738646
363.098145,780.944824,1067.047119,1.739393
22.613525,755.035400,1127.197266,1.740136
-313.018799,671.173096,1146.057129,1.740880
-266.235352,692.413330,1143.585205,1.741623
-177.062988,737.365723,1096.160889,1.742225
102.996826,773.803711,1114.105225,1.743020
-95.672607,732.330322,1142.669678,1.743764
-59.875488,674.835205,1135.253906,1.744557
42.205811,694.152832,1067.871094,1.745301
61.798096,689.941406,1045.806885,1.746045
27.648926,654.876709,971.008301,1.746788
101.257324,630.798340,899.505615,1.747627
66.467285,602.508545,887.603760,1.748374
-32.501221,575.775146,851.074219,1.749118
-69.213867,587.768555,797.058105,1.749861
65.368652,621.093750,797.515869,1.750606
156.005859,566.436768,810.882568,1.751349
231.170654,538.696289,813.262939,1.752093
302.490234,500.244141,780.395508,1.752836
236.297607,505.187988,728.118896,1.753592
218.994141,507.293701,703.857422,1.754335
274.475098,516.632080,668.151855,1.755079
262.664795,479.370117,653.228760,1.755822
193.084717,475.341797,624.572754,1.756566
236.206055,427.459717,559.387207,1.757309
173.767090,428.009033,532.196045,1.758053
96.954346,387.451172,463.989258,1.758796
114.257812,387.725830,400.177002,1.759600
93.292236,386.444092,377.929688,1.760345
71.044922,375.183105,343.872070,1.761088
78.002930,367.858887,310.546875,1.761832
89.996338,371.795654,323.272705,1.762576
87.799072,385.528564,299.011230,1.763320
75.347900,396.240234,287.200928,1.764064
90.820312,401.916504,266.052246,1.764808
90.637207,417.480469,266.326904,1.765552
82.672119,403.289795,257.904053,1.766295
98.602295,410.064697,249.938965,1.767039
80.657959,404.296875,248.016357,1.767782
76.812744,398.345947,251.770020,1.768552
82.580566,400.177002,265.960693,1.769302
77.911377,394.866943,263.214111,1.770077
65.460205,402.465820,286.102295,1.770825
66.375732,407.409668,292.327881,1.771569
46.234131,420.410156,333.526611,1.772313
31.036377,432.037354,380.584717,1.773056
-5.584717,447.235107,401.092529,1.773850
-20.050049,464.355469,457.397461,1.774609
-38.452148,508.026123,501.800537,1.775359
-44.586182,519.012451,519.104004,1.776131
-34.973145,531.463623,549.591064,1.776876
-40.740967,548.217773,582.366943,1.777620
-55.389404,562.500000,576.416016,1.778364
-51.727295,560.211182,582.275391,1.779108
-54.107666,563.598633,588.500977,1.779852
-46.417236,576.965332,585.296631,1.780616
-51.086426,573.303223,577.056885,1.781361
-58.959961,578.613281,582.000732,1.782104
-51.086426,614.501953,709.167480,1.782848
-45.867920,616.790771,770.965576,1.783601
39.642334,634.002686,819.396973,1.784345
25.268555,661.926270,833.953857,1.785090
17.028809,680.053711,828.918457,1.785834
46.600342,693.786621,826.080322,1.786578
21.331787,701.385498,826.080322,1.787323
16.479492,703.216553,811.157227,1.788066
23.895264,694.244385,823.516846,1.788810
6.042480,692.504883,816.558838,1.789551
4.119873,673.736572,803.100586,1.790295
6.042480,670.074463,812.072754,1.791038
-7.690430,644.622803,799.346924,1.791781
-7.965088,646.911621,768.035889,1.792523
-6.408691,647.552490,761.901855,1.793256
-7.965088,650.939941,744.598389,1.793989
-7.049561,649.566650,733.154297,1.794721
1.190186,661.193848,728.118896,1.795452
12.634277,662.841797,733.154297,1.796198
5.676270,652.313232,742.950439,1.796941
17.028809,655.517578,753.570557,1.797684
21.423340,651.580811,763.732910,1.798431
37.719727,644.348145,769.592285,1.799191
49.896240,640.228271,768.951416,1.799935
49.713135,636.383057,768.768311,1.800680
56.304932,627.502441,745.147705,1.801423
49.896240,628.875732,742.401123,1.802177
37.994385,620.452881,721.069336,1.802921
31.219482,619.079590,704.589844,1.803664
5.126953,614.135742,696.990967,1.804408
-0.366211,611.022949,690.582275,1.805017
-2.746582,608.917236,687.744141,1.805762
-14.465332,625.854492,679.687500,1.806506
-16.754150,628.326416,675.476074,1.807249
-31.494141,624.572754,687.469482,1.808002
-49.530029,626.861572,687.469482,1.808736
-47.790527,639.770508,687.286377,1.809469
-57.220459,647.094727,690.307617,1.810201
-41.015625,633.544922,685.546875,1.810965
-61.798096,647.644043,695.709229,1.811709
9.613037,674.011230,671.722412,1.812452
-98.144531,679.595947,695.617676,1.813260
-23.712158,646.362305,714.111328,1.814016
-54.931641,642.608643,693.695068,1.814760
-108.856201,653.869629,695.709229,1.815503
-59.326172,673.736572,684.356689,1.816247
-89.447021,670.898438,681.976318,1.817000
-91.094971,657.165527,671.173096,1.817744
-71.868896,659.729004,670.440674,1.818488
-110.046387,661.468506,668.792725,1.819231
-132.568359,671.356201,660.095215,1.819984
-99.426270,654.785156,655.517578,1.820728
-159.942627,644.989014,652.862549,1.821560
-98.236084,674.285889,625.305176,1.822316
-141.632080,643.798828,632.080078,1.823061
-151.062012,636.383057,642.150879,1.823805
-149.780273,628.509521,623.382568,1.824549
-178.527832,626.495361,621.093750,1.825292
-146.301270,642.242432,627.319336,1.826047
-164.886475,642.333984,618.164062,1.826791
-181.182861,637.207031,621.551514,1.827535
-172.393799,641.235352,627.868652,1.828279
-173.492432,648.559570,624.938965,1.829032
-186.035156,644.165039,620.635986,1.829776
-193.725586,644.805908,616.973877,1.830519
-190.155029,630.157471,614.135742,1.831263
-207.641602,632.080078,610.931396,1.832015
-176.696777,658.355713,586.303711,1.832759
-221.191406,660.919189,602.142334,1.833503
-222.198486,638.214111,602.142334,1.834247
-179.992676,633.544922,605.895996,1.835009
-224.304199,639.221191,600.585938,1.835753
-207.000732,649.200439,596.466064,1.836497
-205.902100,661.010742,599.853516,1.837240
-222.839355,658.905029,590.881348,1.837984
-205.352783,661.560059,587.860107,1.838717
-220.458984,682.250977,599.304199,1.839450
-221.008301,686.096191,591.156006,1.840183
-220.092773,692.687988,597.106934,1.840943
-213.684082,711.181641,598.388672,1.841697
-216.522217,730.133057,608.001709,1.842447
-211.303711,745.330811,596.282959,1.843232
-248.931885,752.929688,603.332520,1.843998
-285.644531,763.916016,607.635498,1.844741
-315.032959,759.796143,605.529785,1.845483
-339.111328,760.620117,614.227295,1.846226
-355.865479,765.930176,636.383057,1.846867
-350.097656,778.564453,675.842285,1.847609
-365.570068,782.958984,682.891846,1.848351
-355.590820,828.460693,722.351074,1.849094
-299.560547,843.841553,753.112793,1.849929
-297.912598,836.059570,752.746582,1.850681
-258.636475,845.031738,772.338867,1.851428
-273.010254,835.601807,768.127441,1.852197
-246.185303,853.546143,765.838623,1.852962
-225.860596,860.870361,740.936279,1.853705
-220.367432,854.827881,722.808838,1.854448
-202.514648,841.278076,690.399170,1.855191
-198.577881,832.031250,642.517090,1.855943
-190.612793,831.573486,627.868652,1.856686
-188.964844,824.432373,596.191406,1.857428
-189.239502,819.396973,582.641602,1.858170
-198.394775,806.762695,566.894531,1.858924
-195.373535,802.001953,568.908691,1.859669
-203.063965,819.305420,569.915771,1.860411
-205.169678,823.699951,594.635010,1.861153
-199.584961,829.650879,613.037109,1.861906
-192.077637,834.777832,635.284424,1.862648
-190.155029,832.031250,672.637939,1.863391
-196.197510,838.989258,676.116943,1.864133
-192.626953,840.179443,704.315186,1.864798
-190.887451,835.968018,709.808350,1.865541
-195.281982,834.869385,709.075928,1.866284
-207.183838,823.791504,691.131592,1.867027
-204.162598,820.404053,671.081543,1.867779
-212.768555,803.924561,640.228271,1.868522
-202.972412,795.501709,616.516113,1.869264
-196.197510,797.058105,592.529297,1.870007
-193.267822,788.635254,574.859619,1.870759
-177.978516,784.149170,565.155029,1.871501
-171.661377,779.388428,557.373047,1.872244
-165.435791,788.635254,563.415527,1.872986
-152.252197,793.670654,587.493896,1.873748
-144.012451,800.720215,591.888428,1.874491
-152.618408,808.959961,618.255615,1.875233
-156.738281,823.059082,652.313232,1.875976
-169.372559,840.728760,663.665771,1.876728
-176.055908,850.524902,702.575684,1.877470
-184.020996,859.771729,706.970215,1.878212
-203.521729,867.919922,734.344482,1.878955
-204.620361,872.222900,748.535156,1.879706
-203.155518,877.532959,750.091553,1.880449
-197.387695,873.046875,747.619629,1.881192
-187.591553,871.490479,742.309570,1.881935
-177.795410,874.877930,726.470947,1.882674
-173.858643,845.764160,689.941406,1.883417
-150.238037,870.574951,680.786133,1.884159
-148.590088,862.792969,658.721924,1.884901
-141.082764,862.701416,649.291992,1.885655
-119.110107,856.292725,647.277832,1.886398
-115.631104,855.468750,646.362305,1.887141
-114.532471,847.595215,646.453857,1.887883
-107.208252,865.997314,657.165527,1.888626
-118.469238,868.011475,669.525146,1.889368
-119.934082,865.997314,682.983398,1.890111
-123.962402,874.511719,715.118408,1.890853
-133.850098,885.955811,725.555420,1.891596
-117.553711,892.913818,738.098145,1.892340
-162.872314,901.428223,748.809814,1.893175
-137.695312,909.576416,773.254395,1.893918
-132.751465,901.702881,751.373291,1.894711
-118.286133,905.548096,746.154785,1.895455
-111.145020,913.055420,745.239258,1.896197
-109.497070,899.139404,743.041992,1.896940
-103.271484,894.836426,736.450195,1.897631
-95.214844,895.294189,728.576660,1.898374
-90.637207,889.984131,719.238281,1.899117
-90.454102,884.674072,715.942383,1.899859
-87.707520,890.167236,704.589844,1.900611
-84.960938,880.187988,703.125000,1.901354
-95.855713,868.103027,705.871582,1.902096
-75.897217,857.849121,714.752197,1.902839
-78.186035,850.067139,708.160400,1.903591
-88.439941,834.960938,702.301025,1.904333
-79.467773,828.277588,682.891846,1.905076
-57.312012,829.193115,666.320801,1.905818
-51.361084,817.382812,650.939941,1.906569
-46.691895,814.270020,647.644043,1.907312
-35.339355,789.550781,635.284424,1.908054
-35.156250,769.592285,627.593994,1.908796
-13.275146,747.619629,626.220703,1.909548
18.859863,734.893799,612.854004,1.910290
-1.647949,730.682373,598.663330,1.911033
16.204834,715.484619,596.649170,1.911775
17.486572,712.463379,603.424072,1.912518
23.437500,705.230713,595.550537,1.913260
27.008057,691.589355,590.515137,1.914002
28.381348,690.490723,584.564209,1.914739
31.311035,686.096191,573.760986,1.915515
37.719727,690.490723,564.605713,1.916264
37.261963,671.447754,562.408447,1.917038
42.663574,662.384033,557.098389,1.917783
52.825928,666.870117,545.196533,1.918527
62.255859,666.595459,544.921875,1.919269
65.002441,668.975830,545.654297,1.920012
65.826416,662.841797,537.963867,1.920817
77.087402,674.102783,534.301758,1.921591
77.728271,682.891846,534.027100,1.922344
82.031250,684.082031,532.012939,1.923091
89.355469,694.427490,543.365479,1.923833
89.904785,700.195312,557.647705,1.924587
82.489014,706.695557,567.993164,1.925330
82.489014,721.618652,574.584961,1.926073
79.467773,725.738525,572.204590,1.926814
63.537598,744.506836,592.437744,1.927656
38.726807,766.571045,605.529785,1.928419
33.416748,768.127441,622.375488,1.929162
28.564453,776.184082,627.410889,1.929904
0.091553,790.374756,643.524170,1.930664
14.739990,804.016113,646.270752,1.931409
18.768311,809.967041,655.426025,1.932152
26.092529,819.488525,664.489746,1.932894
31.036377,829.467773,668.701172,1.933647
37.719727,833.404541,666.503906,1.934389
37.353516,831.207275,665.954590,1.935131
40.100098,837.890625,657.348633,1.935873
52.001953,836.975098,657.257080,1.936624
52.185059,837.249756,647.094727,1.937368
59.051514,844.299316,640.686035,1.938110
49.072266,850.341797,635.101318,1.938852
33.782959,853.637695,630.340576,1.939606
30.487061,872.222900,637.481689,1.940348
18.493652,882.202148,634.368896,1.941090
21.514893,888.885498,652.404785,1.941832
7.415771,901.062012,648.742676,1.942586
10.253906,914.978027,659.179688,1.943328
15.472412,954.711914,672.271729,1.944070
4.669189,942.443848,679.687500,1.944812
2.288818,957.733154,690.399170,1.945564
-8.056641,967.620850,695.434570,1.946307
-16.204834,978.790283,699.920654,1.947050
-14.648438,1006.072998,715.576172,1.947792
-26.733398,991.607666,711.456299,1.948546
-28.106689,1003.051758,725.372314,1.949289
-33.508301,1000.762939,714.752197,1.950031
-46.234131,1004.699707,726.104736,1.950773
-48.339844,1028.503418,717.773438,1.951526
-55.297852,1008.636475,731.689453,1.952269
-56.488037,1004.608154,720.703125,1.953011
-58.868408,996.826172,713.195801,1.953754
-59.234619,1004.058838,713.745117,1.954496
-58.044434,995.178223,698.455811,1.955238
-69.396973,984.832764,692.138672,1.955980
-66.375732,983.917236,680.786133,1.956722
-55.938721,981.536865,687.835693,1.957465
-54.931641,972.839355,673.736572,1.958208
-48.889160,971.649170,662.567139,1.958950
-50.994873,968.078613,658.721924,1.959693
-57.128906,965.423584,649.749756,1.960490
-52.551270,965.881348,642.791748,1.961318
-45.227051,963.592529,646.087646,1.962065
-47.424316,968.536377,641.601562,1.962808
-50.628662,960.296631,648.010254,1.963568
-51.269531,960.662842,648.559570,1.964311
-53.192139,945.007324,650.482178,1.965061
-46.966553,940.429688,656.066895,1.965804
-49.346924,915.252686,650.939941,1.966651
-48.065186,927.246094,646.087646,1.967395
-39.001465,926.330566,653.503418,1.968137
-26.000977,923.583984,649.291992,1.968879
-16.754150,932.464600,653.137207,1.969631
-18.402100,924.591064,653.411865,1.970373
-15.655518,919.647217,649.749756,1.971116
-6.958008,904.541016,645.904541,1.971987
-1.373291,896.759033,631.896973,1.972733
4.760742,884.765625,633.819580,1.973475
0.457764,864.715576,624.481201,1.974217
4.394531,869.659424,617.431641,1.974960
8.331299,861.694336,607.818604,1.975713
4.943848,845.764160,591.156006,1.976455
14.007568,845.214844,576.690674,1.977196
10.620117,844.299316,575.134277,1.977939
14.282227,837.341309,557.189941,1.978549
38.818359,836.059570,560.485840,1.979292
41.839600,821.502686,568.450928,1.980033
48.614502,819.030762,562.042236,1.980776
46.508789,803.558350,552.429199,1.981527
59.234619,802.185059,544.097900,1.982270
63.262939,805.114746,542.541504,1.983012
56.488037,800.079346,534.210205,1.983755
55.664062,804.107666,538.970947,1.984507
52.276611,808.959961,540.252686,1.985265
49.896240,807.128906,539.978027,1.986009
51.177979,809.600830,554.901123,1.986774
53.466797,810.607910,560.119629,1.987432
54.840088,816.467285,576.416016,1.988205
47.973633,819.854736,596.191406,1.988964
49.621582,825.256348,596.740723,1.989712
50.903320,831.390381,597.656250,1.990464
50.537109,834.411621,593.627930,1.991288
51.635742,838.897705,594.818115,1.992052
50.445557,842.559814,595.184326,1.992831
46.875000,834.869385,584.564209,1.993615
44.403076,834.228516,584.838867,1.994411
49.346924,823.883057,560.668945,1.995169
49.896240,820.678711,547.210693,1.995931
50.537109,816.284180,526.153564,1.996741
53.283691,807.952881,525.329590,1.997501
54.016113,805.755615,512.969971,1.998332
55.389404,797.973633,502.532959,1.999106
48.156738,789.367676,490.356445,1.999853
62.072754,780.853271,489.440918,2.000676
46.875000,774.627686,477.996826,2.001531
48.797607,782.958984,476.531982,2.002285
48.156738,782.135010,469.024658,2.003025
50.537109,783.050537,474.517822,2.003817
53.192139,782.318115,448.242188,2.004641
47.424316,780.853271,469.116211,2.005377
34.149170,777.191162,464.630127,2.006175
32.135010,767.303467,452.453613,2.006909
39.550781,771.514893,464.538574,2.007661
35.522461,771.057129,456.390381,2.008396
30.487061,784.606934,455.749512,2.009128
40.924072,792.022705,451.721191,2.009860
29.388428,794.677734,451.263428,2.010604
29.937744,802.368164,461.700439,2.011337
39.367676,779.388428,469.390869,2.012069
27.557373,797.241211,467.010498,2.012802
3.112793,793.853760,464.813232,2.013562
20.782471,774.810791,471.862793,2.014365
19.592285,792.938232,475.433350,2.015111
13.000488,790.740967,484.405518,2.015855
25.085449,792.297363,479.736328,2.016612
19.042969,802.276611,479.187012,2.017355
27.099609,818.756104,474.334717,2.018099
35.156250,823.059082,469.390869,2.018842
24.444580,833.221436,488.159180,2.019594
19.134521,831.665039,489.440918,2.020338
18.310547,846.588135,496.215820,2.021081
17.120361,889.801025,503.723145,2.021825
5.218506,897.125244,501.617432,2.022578
8.331299,913.330078,512.237549,2.023366
-1.831055,920.471191,511.322021,2.024111
-13.092041,948.486328,516.082764,2.024855
-14.282227,964.324951,546.569824,2.025610
-19.317627,978.790283,639.221191,2.026353
-22.064209,1016.784668,703.033447,2.027097
-21.514893,1041.137695,781.585693,2.027855
-11.169434,1051.483154,840.728760,2.028626
-14.099121,1077.026367,835.784912,2.029370
-38.635254,1099.182129,831.939697,2.030114
-45.135498,1086.914062,823.333740,2.030858
-36.712646,1088.928223,809.417725,2.031613
-38.269043,1089.752197,811.706543,2.032357
-32.318115,1084.167480,795.776367,2.033100
-28.289795,1067.321777,780.670166,2.033844
-29.754639,1059.082031,766.662598,2.034598
-14.556885,1053.588867,740.844727,2.035342
-10.162354,1028.228760,709.350586,2.036206
-8.880615,1027.221680,681.884766,2.036953
-11.810303,1005.157471,668.701172,2.037710
-6.683350,988.494873,637.207031,2.038455
-19.500732,979.156494,617.248535,2.039198
-28.472900,957.458496,587.585449,2.039942
-36.895752,952.697754,552.612305,2.040696
-55.755615,906.463623,530.548096,2.041579
-100.891113,881.378174,522.674561,2.042325
-105.926514,867.095947,496.948242,2.043070
-123.870850,857.116699,467.285156,2.043813
-75.256348,854.095459,469.390869,2.044557
-60.058594,841.003418,474.426270,2.045301
-13.275146,837.524414,481.475830,2.046045
19.683838,828.369141,496.215820,2.046789
39.367676,822.601318,502.899170,2.047532
63.720703,850.341797,513.336182,2.048276
70.953369,959.930420,487.152100,2.049031
90.728760,969.177246,460.784912,2.049775
-0.549316,897.399902,464.630127,2.050518
34.423828,859.680176,455.841064,2.051263
-3.753662,767.028809,450.988770,2.052007
-15.838623,764.282227,410.339355,2.052751
69.763184,755.126953,384.338379,2.053496
18.585205,752.014160,398.986816,2.054258
41.015625,756.042480,399.444580,2.055011
51.361084,756.866455,412.261963,2.055755
13.183594,742.218018,445.220947,2.056498
-2.471924,687.103271,495.941162,2.057422
29.754639,645.355225,491.088867,2.058200
38.909912,647.369385,481.384277,2.058964
90.637207,640.960693,474.334717,2.059734
113.891602,649.566650,442.749023,2.060486
130.828857,746.795654,416.473389,2.061254
117.095947,851.623535,340.850830,2.061998
120.758057,838.165283,317.962646,2.062745
40.374756,663.757324,343.688965,2.063565
54.656982,598.480225,314.575195,2.064348
-17.120361,630.615234,238.769531,2.065102
-11.810303,623.657227,233.367920,2.065876
19.317627,548.309326,226.043701,2.066625
10.437012,508.850098,250.305176,2.067390
-4.669189,522.766113,245.727539,2.068134
-21.331787,651.397705,220.001221,2.068877
-10.253906,666.137695,207.275391,2.069620
12.268066,621.917725,245.635986,2.070374
43.304443,557.189941,256.072998,2.071183
31.311035,547.119141,218.353271,2.071930
85.968018,580.352783,204.345703,2.072673
53.924561,594.726562,187.133789,2.073431
53.924561,622.924805,168.823242,2.074180
84.869385,682.525635,140.716553,2.074924
89.721680,713.378906,119.110107,2.075668
-19.958496,254.974365,200.775146,2.076421
18.035889,259.094238,361.816406,2.077172
230.346680,259.185791,105.560303,2.077941
-21.697998,506.469727,65.551758,2.078687
-137.145996,466.918945,200.408936,2.079432
36.437988,403.564453,214.141846,2.080176
194.549561,495.666504,69.122314,2.080920
93.017578,508.941650,111.145020,2.081664
-94.665527,486.419678,119.018555,2.082422
108.398438,444.488525,123.413086,2.083166
195.373535,502.807617,111.785889,2.083909
-8.697510,441.101074,21.423340,2.084653
-51.361084,446.502686,61.431885,2.085406
-51.177979,427.368164,57.220459,2.086152
117.645264,367.492676,42.755127,2.086895
122.039795,339.935303,61.157227,2.087639
191.070557,442.657471,12.817383,2.088390
157.287598,492.736816,-33.691406,2.089123
87.982178,519.378662,-45.684814,2.089856
98.327637,596.282959,-82.305908,2.090589
98.785400,703.674316,-203.521729,2.091354
102.722168,952.239990,-257.904053,2.092098
72.326660,972.290039,-300.384521,2.092842
46.234131,899.230957,-239.318848,2.093585
20.507812,731.140137,-74.066162,2.094359
-19.409180,848.419189,-97.412109,2.095141
37.353516,958.648682,-160.858154,2.095887
111.968994,976.684570,-135.772705,2.096631
78.094482,971.557617,33.599854,2.097386
4.760742,937.042236,44.219971,2.098130
40.832520,990.142822,10.437012,2.098873
90.454102,1004.699707,9.704590,2.099616
-5.950928,936.492920,53.192139,2.100368
30.853271,955.078125,49.163818,2.101112
95.031738,994.354248,41.290283,2.101855
-24.719238,1186.431885,77.545166,2.102599
-60.333252,1170.684814,28.656006,2.103353
85.418701,1155.212402,167.175293,2.104096
-42.114258,1061.920166,284.362793,2.104840
-132.934570,1189.086914,209.106445,2.105583
-78.735352,1296.936035,126.800537,2.106336
-122.039795,1263.885498,173.675537,2.107079
-148.590088,1272.216797,173.217773,2.107823
-178.710938,1296.752930,136.505127,2.108567
-203.521729,1349.487305,111.236572,2.109320
-208.282471,1369.628906,124.511719,2.110064
-228.698730,1329.803467,169.372559,2.110822
-242.706299,1573.791504,381.958008,2.111601
-161.132812,1574.798584,367.767334,2.112213
-246.459961,1365.325928,366.577148,2.112957
-56.121826,1369.262695,276.031494,2.113700
-233.734131,1634.948730,262.481689,2.114444
-671.997070,1533.050537,268.798828,2.115280
-216.247559,1562.805176,195.831299,2.116025
-509.399414,1537.811279,193.359375,2.116848
-545.654297,1471.618652,198.669434,2.117594
-454.742432,1531.494141,204.711914,2.118339
-490.997314,1451.385498,250.579834,2.119083
-513.977051,1450.195312,240.142822,2.119826
-321.807861,1457.702637,164.978027,2.120571
-388.641357,1446.258545,152.069092,2.121314
-401.824951,1457.794189,148.773193,2.122058
-390.563965,1451.202393,179.443359,2.122802
-472.320557,1503.479004,187.042236,2.123559
-425.445557,1465.026855,198.028564,2.124303
-742.858887,1431.335449,250.671387,2.125046
-999.114990,1363.311768,249.755859,2.125789
-558.105469,1447.540283,205.078125,2.126533
-254.058838,1354.614258,177.886963,2.127277
-99.060059,1196.044922,300.476074,2.128021
-342.041016,1473.815918,373.809814,2.128764
56.854248,1154.754639,372.619629,2.129508
193.267822,1486.907959,359.252930,2.130252
-302.764893,1215.637207,379.119873,2.130996
-52.642822,1169.952393,321.716309,2.131741
3.112793,1331.085205,279.235840,2.132484
-288.665771,1203.735352,250.396729,2.133238
-112.976074,1318.634033,199.035645,2.133982
-131.195068,1408.447266,169.372559,2.134728
