ACC_X,ACC_Y,ACC_Z,Time
-553.710938,593.627930,569.274902,0.000141
-546.020508,589.874268,566.070557,0.000899
-550.781250,588.500977,563.873291,0.001645
-546.936035,587.585449,569.915771,0.002390
-551.422119,585.479736,564.514160,0.003134
-562.225342,581.542969,570.648193,0.003878
-566.345215,590.881348,572.937012,0.004643
-567.352295,588.775635,573.486328,0.005387
-567.352295,591.430664,571.746826,0.006131
-565.979004,582.733154,569.732666,0.006875
-566.162109,579.345703,565.063477,0.007620
-561.767578,590.789795,541.992188,0.008354
-557.739258,587.768555,564.056396,0.009088
-563.232422,589.141846,559.387207,0.009823
-563.964844,589.965820,568.450928,0.010581
-573.760986,583.923340,564.605713,0.011326
-575.866699,579.895020,540.161133,0.012070
-571.380615,587.310791,567.352295,0.012814
-569.458008,585.571289,571.105957,0.013565
-574.127197,589.782715,571.014404,0.014300
-569.641113,586.578369,570.556641,0.015035
-569.732666,585.296631,574.127197,0.015769
-570.281982,589.050293,572.479248,0.016525
-568.084717,564.239502,565.979004,0.017269
-567.077637,587.493896,561.859131,0.018013
-571.014404,591.247559,568.359375,0.018757
-570.648193,584.838867,566.345215,0.019501
-575.134277,584.930420,569.732666,0.020236
-584.014893,581.542969,568.542480,0.020970
-574.768066,590.148926,573.577881,0.021825
-575.408936,587.219238,559.478760,0.022576
-579.162598,597.290039,565.155029,0.023321
-570.648193,588.226318,566.070557,0.024064
-580.902100,590.057373,569.915771,0.024809
-582.733154,589.874268,571.380615,0.025553
-579.711914,581.817627,580.627441,0.026297
-571.289062,595.825195,578.704834,0.027040
-581.268311,592.987061,569.641113,0.027780
-576.232910,585.845947,570.281982,0.028514
-579.895020,586.944580,572.387695,0.029248
-581.359863,593.078613,564.239502,0.029983
-583.374023,589.874268,560.668945,0.030737
-576.049805,592.071533,563.690186,0.031481
-578.063965,582.366943,563.598633,0.032225
-576.049805,589.691162,571.380615,0.032970
-575.592041,593.627930,569.366455,0.033715
-575.134277,590.057373,572.387695,0.034459
-583.831787,589.141846,579.437256,0.035202
-584.930420,592.346191,572.479248,0.035952
-582.458496,588.775635,581.176758,0.036697
-582.824707,584.838867,562.774658,0.037441
-581.176758,587.677002,574.035645,0.038186
-574.401855,586.486816,577.880859,0.038929
-579.162598,591.339111,563.690186,0.039682
-581.085205,590.423584,565.979004,0.040471
-578.521729,585.021973,563.323975,0.041217
-578.063965,589.691162,565.155029,0.041961
-579.711914,586.212158,569.915771,0.042761
-580.902100,590.789795,573.120117,0.043506
-578.247070,591.705322,564.880371,0.044249
-583.282471,586.486816,571.105957,0.044993
-579.620361,589.416504,571.838379,0.045746
-582.733154,586.944580,570.556641,0.046490
-573.486328,587.127686,567.169189,0.047233
-571.105957,581.085205,570.739746,0.047976
-574.584961,585.021973,560.577393,0.048720
-578.063965,580.993652,579.895020,0.049454
-581.634521,581.634521,563.507080,0.050188
-575.592041,608.459473,580.261230,0.050922
-580.261230,585.021973,576.965332,0.051679
-581.634521,588.409424,575.042725,0.052422
-570.556641,587.402344,571.197510,0.053166
-574.859619,584.930420,569.183350,0.053909
-571.838379,585.113525,569.274902,0.054663
-574.218750,578.247070,571.380615,0.055407
-576.507568,582.824707,563.690186,0.056150
-574.035645,584.747314,566.436768,0.056893
-574.768066,582.000732,567.169189,0.057648
-567.626953,564.422607,570.281982,0.058392
-572.570801,581.817627,575.500488,0.059143
-570.098877,582.458496,564.971924,0.059916
-571.838379,579.895020,557.098389,0.060689
-570.007324,584.289551,563.232422,0.061431
-565.887451,582.916260,564.697266,0.062164
-561.584473,579.620361,568.450928,0.062898
-573.944092,585.845947,579.711914,0.063673
-570.098877,584.655762,571.014404,0.064417
-573.211670,581.726074,562.316895,0.065160
-568.817139,581.817627,570.831299,0.065904
-560.211182,586.853027,573.852539,0.066657
-562.133789,586.853027,567.901611,0.067401
-563.781738,576.690674,564.056396,0.068144
-562.591553,576.965332,564.697266,0.068887
-568.634033,581.176758,564.514160,0.069641
-568.267822,582.275391,561.859131,0.070384
-563.049316,578.796387,567.626953,0.071236
-557.556152,585.937500,568.450928,0.071980
-562.225342,579.528809,563.873291,0.072736
-564.056396,574.127197,565.704346,0.073480
-559.020996,576.599121,570.465088,0.074257
-558.105469,578.704834,563.507080,0.075023
-560.668945,582.824707,568.359375,0.075766
-559.844971,579.345703,566.711426,0.076510
-558.563232,581.542969,564.788818,0.077253
-556.091309,574.127197,565.612793,0.078008
-561.584473,572.479248,563.323975,0.078753
-557.281494,578.796387,561.309814,0.079496
-560.394287,576.232910,562.683105,0.080240
-555.450439,579.345703,569.824219,0.080984
-553.985596,577.423096,566.802979,0.081726
-549.407959,578.887939,570.281982,0.082460
-552.886963,568.817139,567.535400,0.083193
-555.633545,581.359863,562.866211,0.083927
-556.091309,587.768555,557.647705,0.084684
-559.112549,584.014893,567.260742,0.085427
-556.182861,579.528809,563.781738,0.086171
-554.718018,574.584961,567.535400,0.086914
-555.816650,583.923340,568.176270,0.087666
-559.478760,578.887939,566.528320,0.088410
-560.394287,570.098877,584.838867,0.089153
-552.886963,580.261230,570.281982,0.089896
-560.943604,584.747314,571.746826,0.090649
-551.696777,587.860107,584.014893,0.091393
-557.098389,584.472656,577.789307,0.092136
-555.450439,584.197998,570.831299,0.092880
-557.830811,590.057373,569.366455,0.093623
-556.274414,588.867188,571.838379,0.094357
-562.500000,586.578369,568.725586,0.095091
-563.140869,583.740234,573.120117,0.095824
-559.753418,585.754395,568.176270,0.096588
-561.676025,581.817627,562.408447,0.097332
-562.408447,589.508057,574.676514,0.098075
-558.746338,590.606689,575.225830,0.098818
-555.633545,587.860107,572.479248,0.099571
-557.006836,585.571289,574.310303,0.100315
-560.943604,591.888428,572.387695,0.101059
-562.316895,587.768555,576.141357,0.101802
-555.450439,592.254639,571.929932,0.102555
-565.521240,585.479736,572.570801,0.103298
-560.943604,588.592529,570.281982,0.104042
-562.225342,586.578369,568.450928,0.104786
-562.133789,582.550049,569.732666,0.105544
-557.098389,582.641602,574.768066,0.106289
-556.091309,588.592529,571.472168,0.107032
-559.387207,588.684082,571.197510,0.107777
-560.119629,591.705322,576.782227,0.108538
-544.281006,589.508057,574.859619,0.109283
-562.408447,591.705322,570.373535,0.110027
-557.281494,589.965820,575.592041,0.110770
-553.619385,586.395264,567.810059,0.111524
-562.591553,588.684082,575.958252,0.112268
-567.077637,581.909180,572.753906,0.113011
-569.641113,583.740234,569.732666,0.113754
-557.373047,583.007812,566.619873,0.114508
-556.457520,591.888428,569.549561,0.115252
-555.999756,589.599609,573.852539,0.115993
-561.584473,588.043213,576.324463,0.116727
-559.112549,581.726074,568.725586,0.117483
-548.858643,581.085205,570.922852,0.118227
-550.781250,586.761475,566.802979,0.118971
-554.534912,580.169678,569.458008,0.119714
-556.457520,582.733154,567.810059,0.120468
-557.189941,582.092285,571.014404,0.121212
-557.281494,583.740234,579.162598,0.121955
-553.710938,582.641602,570.465088,0.122699
-552.337646,586.761475,565.612793,0.123452
-555.358887,571.289062,560.119629,0.124196
-556.549072,577.148438,567.535400,0.124939
-547.302246,572.296143,566.436768,0.125756
-547.027588,576.873779,562.957764,0.126514
-552.246094,575.134277,570.465088,0.127323
-552.062988,573.577881,569.091797,0.128068
-551.147461,579.254150,569.549561,0.128812
-546.112061,579.803467,566.436768,0.129569
-547.485352,578.613281,565.887451,0.130313
-551.147461,579.254150,567.535400,0.131057
-549.774170,573.028564,566.711426,0.131800
-548.034668,574.401855,564.697266,0.132553
-546.020508,577.972412,568.908691,0.133297
-539.611816,573.486328,563.781738,0.134039
-541.900635,572.204590,568.084717,0.134783
-544.281006,578.796387,560.485840,0.135526
-547.943115,586.120605,564.697266,0.136260
-550.598145,584.381104,568.359375,0.136993
-547.119141,583.923340,567.077637,0.137727
-546.295166,580.718994,567.260742,0.138484
-544.647217,582.183838,569.549561,0.139227
-542.449951,581.726074,578.155518,0.139971
-540.527344,574.493408,566.253662,0.140714
-542.175293,582.000732,572.570801,0.141468
-542.358398,580.810547,573.944092,0.142290
-547.851562,584.289551,566.436768,0.143035
-546.752930,581.726074,565.521240,0.143779
-542.449951,582.366943,571.472168,0.144556
-541.351318,577.972412,570.190430,0.145300
-539.154053,578.704834,568.176270,0.146044
-540.985107,572.387695,566.070557,0.146787
-534.393311,580.902100,569.000244,0.147530
-544.830322,575.042725,561.126709,0.148264
-543.457031,576.049805,565.429688,0.148998
-546.936035,582.275391,565.155029,0.149731
-546.386719,586.761475,565.704346,0.150500
-547.851562,582.366943,566.253662,0.151244
-543.640137,579.803467,568.450928,0.151987
-546.661377,581.451416,565.246582,0.152731
-548.767090,583.007812,565.979004,0.153481
-538.146973,582.824707,571.929932,0.154225
-547.485352,580.444336,570.373535,0.154969
-550.689697,583.282471,562.866211,0.155712
-551.879883,586.669922,569.091797,0.156465
-550.415039,584.838867,566.253662,0.157209
-547.393799,587.493896,566.253662,0.157953
-550.872803,585.571289,568.542480,0.158696
-545.928955,586.761475,562.316895,0.159448
-548.675537,581.726074,567.993164,0.160192
-546.752930,589.416504,573.944092,0.160936
-546.661377,585.479736,562.500000,0.161727
-548.034668,585.662842,562.591553,0.162484
-549.865723,589.508057,567.443848,0.163228
-549.041748,588.317871,568.908691,0.163983
-545.013428,592.529297,565.887451,0.164732
-546.569824,589.508057,560.485840,0.165526
-552.246094,588.958740,570.007324,0.166279
-553.161621,586.486816,568.084717,0.167045
-551.422119,592.895508,569.732666,0.167812
-553.710938,585.754395,563.964844,0.168556
-556.274414,587.310791,568.634033,0.169300
-547.485352,591.430664,568.817139,0.170044
-552.795410,593.444824,573.028564,0.170796
-550.231934,585.662842,567.077637,0.171540
-551.879883,588.500977,573.394775,0.172284
-545.562744,590.515137,567.901611,0.173027
-560.394287,594.543457,565.429688,0.173770
-560.852051,592.071533,569.549561,0.174504
-558.837891,597.106934,568.450928,0.175238
-555.084229,590.698242,571.838379,0.175972
-546.844482,592.803955,571.838379,0.176735
-562.591553,587.585449,566.986084,0.177479
-557.739258,592.803955,573.669434,0.178222
-560.760498,592.987061,569.274902,0.178966
-563.140869,597.930908,567.810059,0.179712
-556.274414,597.381592,573.303223,0.180456
-557.739258,597.747803,561.859131,0.181200
-557.373047,592.895508,561.218262,0.181943
-559.753418,596.923828,572.479248,0.182698
-553.436279,592.071533,577.423096,0.183442
-549.591064,595.550537,575.317383,0.184186
-558.105469,591.430664,563.323975,0.184929
-551.788330,588.500977,565.795898,0.185666
-558.471680,589.691162,563.507080,0.186400
-558.837891,592.071533,563.140869,0.187133
-559.570312,597.839355,562.042236,0.187867
-557.373047,587.951660,561.401367,0.188616
-562.866211,606.628418,567.626953,0.189360
-559.295654,592.987061,568.817139,0.190103
-552.246094,582.733154,566.345215,0.190846
-551.513672,589.416504,568.450928,0.191596
-552.795410,590.148926,568.634033,0.192339
-550.323486,588.043213,565.246582,0.193083
-549.591064,591.796875,565.521240,0.193826
-550.781250,591.613770,561.950684,0.194570
-551.239014,586.853027,569.549561,0.195315
-552.612305,585.113525,569.274902,0.196058
-550.231934,591.430664,567.077637,0.196801
-553.619385,598.754883,566.436768,0.197544
-554.443359,588.226318,566.619873,0.198288
-551.971436,585.296631,555.999756,0.199032
-557.006836,590.698242,560.119629,0.199775
-550.140381,598.022461,560.760498,0.200519
-548.858643,590.789795,556.365967,0.201264
-548.583984,591.979980,564.697266,0.202007
-550.506592,599.670410,564.239502,0.202750
-546.569824,595.092773,560.394287,0.203500
-552.612305,591.522217,563.415527,0.204244
-553.894043,589.599609,570.281982,0.204988
-555.175781,588.684082,575.408936,0.205732
-555.816650,593.902588,572.113037,0.206475
-555.450439,595.550537,567.352295,0.207228
-553.710938,600.677490,566.528320,0.207972
-557.647705,594.177246,574.310303,0.208715
-553.619385,599.853516,570.648193,0.209458
-548.034668,596.191406,568.084717,0.210211
-551.422119,596.466064,570.831299,0.210955
-548.767090,598.022461,562.683105,0.211789
-536.682129,603.607178,560.028076,0.212575
-541.442871,607.086182,565.338135,0.213321
-549.957275,600.860596,561.309814,0.214150
-553.436279,597.473145,584.747314,0.214895
-546.020508,599.304199,564.788818,0.215664
-549.041748,596.008301,562.133789,0.216407
-544.189453,590.789795,562.133789,0.217150
-548.858643,593.627930,567.535400,0.217893
-545.471191,592.620850,565.155029,0.218637
-551.239014,595.275879,562.774658,0.219371
-551.605225,594.085693,560.211182,0.220105
-552.703857,593.170166,566.894531,0.220839
-554.168701,589.874268,560.668945,0.221596
-539.886475,598.205566,563.323975,0.222369
-548.034668,591.705322,565.063477,0.223114
-551.330566,593.078613,565.429688,0.223858
-553.802490,598.114014,562.957764,0.224614
-558.013916,591.613770,560.119629,0.225357
-551.422119,595.184326,556.091309,0.226100
-558.746338,589.874268,557.739258,0.226844
-562.683105,589.050293,565.887451,0.227596
-562.500000,586.853027,563.323975,0.228340
-561.035156,595.092773,563.049316,0.229083
-565.063477,594.818115,562.408447,0.229826
-561.309814,593.353271,560.577393,0.230569
-562.133789,594.177246,564.056396,0.231304
-559.112549,597.106934,555.450439,0.232037
-567.260742,595.092773,559.753418,0.232771
-565.979004,593.811035,563.964844,0.233527
-567.169189,593.536377,561.584473,0.234270
-564.971924,591.247559,563.323975,0.235015
-561.676025,598.571777,554.992676,0.235769
-568.084717,589.050293,556.915283,0.236578
-570.007324,599.029541,559.204102,0.237335
-563.507080,598.846436,559.020996,0.238079
-568.359375,596.923828,559.570312,0.238822
-576.141357,603.790283,559.753418,0.239586
-578.521729,599.304199,567.077637,0.240329
-587.219238,592.620850,564.147949,0.241072
-580.444336,602.050781,569.091797,0.241815
-576.599121,606.445312,574.310303,0.242569
-574.676514,607.269287,563.690186,0.243312
-578.155518,605.712891,564.239502,0.244056
-578.338623,602.508545,566.894531,0.244799
-579.803467,601.135254,568.267822,0.245542
-583.740234,604.888916,565.338135,0.246304
-588.775635,611.572266,569.915771,0.247050
-584.838867,607.360840,564.147949,0.247794
-590.057373,604.064941,564.331055,0.248537
-584.655762,597.290039,565.795898,0.249280
-579.254150,603.515625,561.676025,0.250023
-585.296631,598.663330,559.570312,0.250767
-586.303711,596.557617,563.690186,0.251522
-584.838867,598.297119,566.345215,0.252281
-587.768555,603.424072,565.338135,0.253031
-594.451904,604.797363,568.908691,0.253822
-589.508057,599.853516,563.323975,0.254582
-583.648682,604.064941,567.626953,0.255344
-589.416504,602.783203,570.190430,0.256093
-592.346191,602.783203,562.774658,0.256860
-586.761475,610.382080,569.000244,0.257605
-589.233398,610.473633,557.464600,0.258348
-595.092773,611.846924,564.056396,0.259090
-590.148926,607.360840,558.197021,0.259837
-596.191406,603.973389,560.943604,0.260571
-595.367432,609.191895,564.147949,0.261304
-596.649170,607.177734,556.640625,0.262038
-598.297119,611.572266,567.535400,0.262783
-596.191406,614.685059,572.021484,0.263527
-589.141846,605.987549,562.225342,0.264271
-591.888428,601.684570,565.429688,0.265014
-600.128174,610.565186,569.915771,0.265763
-599.487305,601.318359,559.570312,0.266508
-603.698730,607.360840,556.091309,0.267251
-595.184326,607.727051,561.309814,0.267994
-595.550537,606.811523,563.323975,0.268731
-596.374512,611.297607,556.549072,0.269465
-587.127686,610.382080,564.788818,0.270198
-589.416504,603.790283,558.105469,0.270932
-590.057373,604.888916,561.950684,0.271665
-590.148926,604.980469,560.394287,0.272399
-591.979980,604.980469,561.126709,0.273142
-591.522217,606.811523,563.690186,0.273887
-596.191406,602.325439,558.380127,0.274639
-592.529297,600.036621,554.351807,0.275382
-588.317871,610.565186,560.668945,0.276125
-593.261719,615.875244,557.281494,0.276869
-589.141846,610.839844,553.436279,0.277613
-589.233398,601.684570,556.274414,0.278357
-589.141846,608.825684,562.042236,0.279101
-590.148926,607.452393,556.274414,0.279844
-586.944580,587.768555,553.710938,0.280591
-588.317871,606.903076,555.450439,0.281325
-592.803955,607.543945,553.436279,0.282058
-589.508057,611.572266,554.901123,0.282792
-586.120605,608.184814,555.633545,0.283533
-586.669922,611.206055,559.753418,0.284277
-590.240479,604.064941,561.492920,0.285102
-583.648682,610.473633,554.443359,0.285846
-586.486816,611.389160,550.964355,0.286590
-587.677002,599.578857,555.450439,0.287334
-579.071045,601.409912,552.978516,0.288077
-580.078125,608.093262,558.288574,0.288820
-580.352783,604.064941,555.908203,0.289564
-582.183838,599.670410,553.253174,0.290307
-582.366943,607.086182,561.859131,0.291051
-588.500977,598.754883,554.443359,0.291794
-585.937500,607.635498,552.429199,0.292534
-570.281982,600.402832,554.718018,0.293268
-572.113037,596.557617,561.309814,0.294002
-576.324463,606.262207,557.647705,0.294735
-570.098877,609.008789,559.112549,0.295473
-577.056885,606.994629,563.049316,0.296216
-579.162598,597.290039,556.182861,0.296958
-570.831299,599.212646,557.189941,0.297700
-569.458008,599.761963,561.492920,0.298442
-579.803467,596.191406,563.415527,0.299184
-575.775146,602.233887,566.345215,0.299926
-576.049805,601.867676,566.619873,0.300669
-568.725586,607.635498,567.443848,0.301411
-565.063477,599.670410,563.049316,0.302153
-561.950684,593.536377,559.661865,0.302895
-561.035156,601.684570,559.295654,0.303638
-560.577393,601.135254,568.450928,0.304380
-560.302734,593.261719,568.359375,0.305132
-560.668945,600.219727,571.014404,0.305875
-561.126709,593.536377,569.458008,0.306617
-563.049316,601.135254,572.021484,0.307367
-560.577393,594.085693,563.049316,0.308139
-552.703857,608.551025,571.014404,0.308922
-558.013916,591.979980,568.359375,0.309673
-539.886475,595.092773,567.260742,0.310436
-557.830811,595.092773,584.930420,0.311180
-557.373047,590.057373,564.605713,0.311924
-557.098389,590.698242,565.521240,0.312667
-557.739258,587.677002,566.070557,0.313411
-557.556152,587.768555,575.866699,0.314154
-549.682617,584.747314,574.218750,0.314897
-550.140381,585.571289,568.176270,0.315641
-547.485352,581.817627,564.697266,0.316384
-550.140381,586.120605,568.908691,0.317129
-554.992676,579.528809,567.169189,0.317863
-549.774170,578.704834,567.901611,0.318597
-546.936035,579.895020,570.007324,0.319331
-550.231934,579.986572,567.169189,0.320091
-548.400879,576.965332,564.514160,0.320835
-551.879883,578.155518,570.922852,0.321578
-547.210693,577.423096,549.316406,0.322327
-546.752930,579.071045,560.943604,0.323084
-551.513672,584.838867,563.323975,0.323828
-552.612305,577.606201,566.711426,0.324572
-547.302246,579.895020,558.105469,0.325315
-545.654297,578.155518,583.740234,0.326067
-553.161621,575.592041,562.408447,0.326811
-550.231934,574.584961,566.894531,0.327554
-549.774170,572.662354,561.218262,0.328298
-554.809570,574.127197,556.640625,0.329102
-551.605225,576.507568,563.690186,0.329848
-557.830811,570.556641,557.739258,0.330630
-556.823730,575.134277,559.753418,0.331392
-554.351807,578.521729,554.351807,0.332137
-558.288574,585.845947,556.915283,0.332924
-553.894043,579.254150,560.760498,0.333670
-556.640625,574.676514,562.133789,0.334426
-563.781738,579.711914,559.387207,0.335170
-561.767578,582.000732,559.295654,0.335914
-556.915283,582.000732,552.612305,0.336657
-557.739258,576.141357,557.647705,0.337410
-560.119629,574.768066,551.788330,0.338154
-560.302734,579.986572,560.119629,0.338897
-558.380127,603.424072,557.922363,0.339641
-557.006836,588.500977,557.189941,0.340384
-553.344727,578.979492,553.894043,0.341118
-552.520752,586.761475,559.020996,0.341852
-556.274414,587.310791,554.534912,0.342585
-551.422119,586.486816,555.725098,0.343344
-557.830811,590.789795,557.556152,0.344088
-549.316406,590.240479,558.197021,0.344832
-552.062988,586.212158,539.520264,0.345575
-550.872803,591.796875,559.112549,0.346328
-549.591064,592.071533,559.295654,0.347072
-540.069580,591.430664,574.127197,0.347815
-542.724609,601.226807,565.521240,0.348558
-542.175293,596.649170,565.155029,0.349311
-532.928467,594.268799,565.887451,0.350055
-527.252197,596.832275,575.775146,0.350815
-535.125732,597.381592,571.380615,0.351559
-537.048340,600.677490,571.838379,0.352313
-532.287598,601.867676,568.267822,0.353056
-529.266357,603.607178,568.725586,0.353800
-535.675049,610.015869,580.444336,0.354543
-530.914307,632.446289,571.746826,0.355296
-520.477295,604.522705,572.204590,0.356122
-521.575928,599.670410,573.211670,0.356866
-521.209717,603.698730,575.134277,0.357609
-516.723633,613.037109,573.211670,0.358354
-493.011475,610.656738,571.838379,0.359088
-511.413574,614.501953,572.296143,0.359822
-501.708984,613.494873,572.662354,0.360556
-499.877930,617.156982,578.887939,0.361313
-507.476807,605.072021,574.310303,0.362057
-494.567871,612.304688,576.049805,0.362801
-490.264893,612.213135,590.423584,0.363544
-482.666016,602.508545,591.339111,0.364297
-480.926514,600.128174,589.141846,0.365040
-483.947754,603.881836,585.662842,0.365784
-482.666016,604.248047,588.317871,0.366527
-485.046387,605.438232,590.789795,0.367279
-482.482910,603.607178,587.768555,0.368023
-489.715576,609.008789,575.134277,0.368766
-486.602783,601.959229,577.056885,0.369509
-489.257812,596.649170,579.071045,0.370252
-481.201172,601.867676,582.366943,0.370986
-481.933594,593.627930,586.578369,0.371720
-482.025146,592.895508,584.289551,0.372454
-490.264893,598.846436,571.472168,0.373217
-489.257812,600.494385,584.289551,0.373960
-487.152100,599.395752,576.049805,0.374702
-482.482910,600.128174,569.000244,0.375444
-487.152100,597.015381,579.162598,0.376197
-490.173340,596.374512,577.972412,0.376940
-495.941162,594.543457,572.937012,0.377682
-488.983154,600.219727,573.120117,0.378427
-491.546631,600.311279,573.394775,0.379179
-493.103027,592.437744,575.408936,0.379966
-488.708496,592.346191,569.641113,0.380720
-488.616943,596.008301,569.549561,0.381463
-498.596191,593.627930,561.218262,0.382227
-490.905762,591.888428,558.746338,0.382971
-501.892090,591.430664,570.007324,0.383714
-501.342773,589.691162,562.225342,0.384457
-510.406494,592.529297,565.246582,0.385209
-510.955811,587.402344,564.605713,0.385954
-506.835938,594.360352,564.697266,0.386697
-502.258301,592.803955,556.732178,0.387440
-500.976562,588.684082,556.640625,0.388184
-500.518799,585.571289,550.231934,0.388918
-496.215820,590.881348,555.999756,0.389651
-499.328613,586.212158,557.006836,0.390385
-500.518799,587.677002,554.260254,0.391143
-501.068115,582.641602,549.682617,0.391886
-496.582031,589.141846,560.119629,0.392628
-498.962402,593.078613,553.527832,0.393370
-500.244141,587.127686,560.852051,0.394125
-499.603271,590.240479,551.971436,0.394871
-501.068115,587.493896,555.450439,0.395614
-501.159668,590.332031,558.380127,0.396357
-500.244141,591.979980,551.605225,0.397101
-496.856689,595.092773,553.253174,0.397844
-497.955322,591.156006,554.534912,0.398588
-495.117188,590.972900,551.971436,0.399331
-495.941162,590.240479,542.724609,0.400068
-500.610352,593.994141,551.055908,0.400801
-505.279541,597.564697,552.703857,0.401535
-501.983643,596.008301,551.513672,0.402268
-498.138428,597.564697,557.373047,0.403025
-502.441406,598.846436,556.640625,0.403769
-503.540039,599.029541,558.929443,0.404513
-503.173828,602.142334,563.232422,0.405257
-507.019043,603.973389,554.077148,0.406001
-506.195068,601.226807,551.330566,0.406746
-506.652832,605.438232,558.013916,0.407489
-511.138916,607.269287,560.302734,0.408233
-507.751465,609.741211,560.211182,0.408977
-499.237061,610.107422,553.710938,0.409722
-501.434326,606.903076,550.964355,0.410465
-518.829346,610.839844,546.936035,0.411208
-513.519287,602.325439,553.436279,0.411961
-507.751465,605.438232,545.288086,0.412705
-508.758545,598.754883,554.626465,0.413449
-506.927490,595.733643,552.062988,0.414192
-509.399414,602.142334,554.168701,0.414937
-505.462646,609.741211,557.006836,0.415680
-517.639160,596.923828,555.084229,0.416423
-519.012451,603.149414,557.373047,0.417166
-522.491455,609.832764,554.443359,0.417910
-517.364502,604.522705,554.534912,0.418653
-520.568848,607.543945,541.625977,0.419416
-522.766113,607.635498,559.570312,0.420161
-522.399902,602.233887,557.373047,0.420906
-516.448975,604.888916,552.886963,0.421646
-523.315430,586.212158,550.964355,0.422380
-524.047852,608.825684,558.288574,0.423114
-526.245117,605.804443,557.647705,0.423857
-522.674561,605.804443,554.718018,0.424601
-520.385742,602.416992,556.457520,0.425344
-517.364502,608.825684,563.690186,0.426088
-526.153564,605.895996,556.457520,0.426827
-518.737793,608.184814,550.598145,0.427640
-521.942139,600.494385,546.661377,0.428374
-521.667480,602.966309,549.224854,0.429107
-529.083252,601.867676,548.858643,0.429848
-532.836914,611.297607,551.055908,0.430592
-529.266357,604.248047,558.197021,0.431335
-528.259277,595.458984,556.640625,0.432078
-543.548584,611.022949,561.950684,0.432822
-538.604736,606.903076,561.859131,0.433566
-536.865234,605.255127,555.633545,0.434309
-535.125732,602.600098,564.239502,0.435052
-535.308838,610.565186,544.830322,0.435805
-533.294678,611.389160,564.697266,0.436549
-530.731201,587.127686,559.295654,0.437293
-541.900635,605.529785,557.098389,0.438036
-535.308838,611.480713,547.576904,0.438779
-535.034180,602.874756,557.922363,0.439512
-540.802002,609.008789,554.534912,0.440246
-543.365479,604.614258,560.119629,0.440979
-545.745850,610.473633,560.394287,0.441713
-544.372559,609.466553,555.358887,0.442475
-541.534424,610.107422,585.571289,0.443220
-542.999268,611.297607,558.105469,0.443964
-543.457031,609.466553,558.471680,0.444708
-543.823242,610.931396,555.908203,0.445462
-544.464111,608.734131,554.168701,0.446206
-544.189453,602.233887,557.647705,0.446950
-543.090820,603.515625,549.591064,0.447694
-547.576904,600.952148,549.957275,0.448448
-542.083740,599.487305,547.760010,0.449192
-544.738770,608.734131,553.802490,0.449943
-541.809082,613.311768,541.717529,0.450693
-540.618896,605.255127,543.548584,0.451499
-539.062500,606.994629,544.006348,0.452252
-535.858154,602.416992,547.668457,0.452996
-535.858154,609.008789,547.668457,0.453799
-546.752930,604.797363,545.471191,0.454547
-544.006348,603.149414,541.809082,0.455291
-544.281006,600.952148,541.351318,0.456035
-545.837402,610.565186,536.499023,0.456788
-547.302246,604.431152,541.717529,0.457533
-550.781250,599.487305,545.104980,0.458277
-548.583984,617.889404,547.576904,0.459021
-552.246094,611.938477,541.900635,0.459765
-547.485352,605.163574,544.555664,0.460498
-549.957275,605.163574,540.618896,0.461232
-546.295166,614.410400,543.365479,0.461965
-554.992676,619.812012,548.583984,0.462748
-547.393799,611.206055,537.872314,0.463493
-551.239014,612.304688,550.506592,0.464237
-546.844482,616.882324,545.471191,0.464982
-548.583984,623.107910,538.787842,0.465739
-551.147461,613.403320,538.696289,0.466484
-557.830811,620.727539,533.660889,0.467228
-556.091309,619.171143,534.942627,0.467972
-554.718018,617.980957,535.858154,0.468725
-553.710938,624.847412,541.259766,0.469471
-548.309326,632.537842,541.809082,0.470229
-550.231934,633.819580,541.351318,0.470989
-553.619385,635.559082,543.090820,0.471814
-554.351807,635.284424,545.745850,0.472589
-563.690186,637.023926,550.872803,0.473351
-557.922363,637.207031,543.640137,0.474138
-560.302734,638.214111,543.731689,0.474936
-556.915283,648.834229,551.147461,0.475697
-565.063477,644.531250,537.780762,0.476519
-568.359375,645.721436,547.119141,0.477319
-567.626953,644.989014,540.893555,0.478079
-572.753906,649.200439,545.837402,0.478923
-567.169189,649.017334,538.055420,0.479692
-577.423096,645.080566,545.379639,0.480501
-575.775146,646.636963,551.422119,0.481317
-570.098877,659.179688,553.985596,0.482104
-572.296143,649.658203,546.295166,0.482856
-575.317383,653.961182,544.647217,0.483624
-568.634033,652.770996,543.365479,0.484369
-568.267822,656.982422,547.943115,0.485114
-572.845459,652.130127,541.992188,0.485881
-580.169678,656.250000,541.625977,0.486627
-580.261230,649.475098,546.661377,0.487370
-578.338623,651.214600,542.724609,0.488114
-575.042725,654.327393,540.435791,0.488871
-578.796387,654.510498,553.527832,0.489615
-576.416016,654.693604,545.928955,0.490359
-578.796387,651.580811,534.576416,0.491103
-572.845459,656.066895,545.837402,0.491856
-571.746826,655.334473,543.823242,0.492601
-572.204590,647.735596,544.006348,0.493345
-571.472168,645.629883,539.611816,0.494089
-569.824219,641.235352,546.203613,0.494833
-577.514648,641.784668,542.816162,0.495567
-574.127197,644.439697,533.660889,0.496301
-575.225830,641.510010,533.203125,0.497035
-570.007324,642.608643,535.034180,0.497793
-569.549561,641.326904,532.104492,0.498537
-561.676025,638.031006,532.653809,0.499365
-564.422607,631.164551,537.780762,0.500109
-561.767578,636.657715,534.118652,0.500865
-565.429688,637.023926,534.210205,0.501610
-542.449951,629.150391,532.104492,0.502353
-564.056396,632.263184,535.675049,0.503097
-567.626953,629.882812,535.308838,0.503850
-562.133789,629.699707,527.801514,0.504595
-563.415527,637.390137,527.069092,0.505339
-541.168213,627.868652,527.343750,0.506082
-563.690186,634.185791,530.181885,0.506826
-554.901123,632.263184,533.477783,0.507618
-556.732178,631.439209,526.977539,0.508377
-557.922363,628.234863,527.709961,0.509134
-555.084229,629.791260,527.709961,0.509927
-560.943604,622.833252,531.372070,0.510686
-554.809570,629.974365,532.470703,0.511447
-552.795410,626.861572,530.456543,0.512198
-552.886963,628.417969,532.745361,0.512976
-550.323486,633.270264,529.266357,0.513722
-549.224854,629.425049,531.463623,0.514466
-548.767090,631.164551,531.829834,0.515210
-546.295166,631.439209,533.660889,0.515953
-542.633057,628.326416,532.745361,0.516687
-548.034668,630.615234,516.998291,0.517421
-548.675537,628.967285,536.865234,0.518155
-543.273926,628.509521,535.491943,0.518828
-546.112061,632.446289,531.188965,0.519567
-548.034668,640.136719,546.936035,0.520308
-537.689209,623.931885,535.766602,0.521075
-538.421631,632.629395,536.773682,0.521849
-535.766602,632.720947,539.520264,0.522594
-540.252686,628.967285,542.816162,0.523338
-535.675049,636.383057,535.125732,0.524094
-539.978027,638.854980,542.633057,0.524839
-537.963867,638.305664,545.745850,0.525582
-537.780762,648.834229,548.217773,0.526326
-537.231445,641.784668,546.020508,0.527070
-539.245605,639.129639,544.006348,0.527814
-547.119141,638.580322,544.647217,0.528558
-541.809082,643.890381,546.661377,0.529303
-541.076660,639.862061,545.288086,0.530039
-544.097900,638.763428,549.133301,0.530773
-560.485840,636.932373,552.612305,0.531507
-535.766602,640.319824,555.267334,0.532241
-537.139893,643.432617,555.450439,0.533004
-537.231445,637.481689,558.288574,0.533759
-551.605225,643.249512,551.422119,0.534503
-548.309326,642.517090,555.084229,0.535247
-545.745850,643.157959,548.126221,0.535994
-544.647217,640.502930,554.443359,0.536740
-548.767090,643.157959,555.084229,0.537484
-550.872803,643.707275,552.429199,0.538228
-558.746338,641.876221,549.957275,0.538988
-550.231934,641.235352,552.429199,0.539743
-552.886963,637.573242,551.605225,0.540486
-553.344727,648.010254,550.872803,0.541234
-551.330566,644.714355,552.795410,0.541995
-546.936035,636.566162,552.154541,0.542740
-549.957275,647.186279,544.372559,0.543487
-547.302246,651.855469,548.492432,0.544231
-551.513672,649.108887,554.718018,0.544986
-553.802490,641.967773,539.337158,0.545731
-556.732178,649.383545,539.337158,0.546475
-554.351807,651.306152,542.083740,0.547218
-557.464600,642.791748,543.090820,0.547962
-550.872803,636.383057,545.288086,0.548696
-557.006836,633.544922,544.830322,0.549429
-551.971436,636.566162,549.682617,0.550163
-550.140381,645.263672,548.400879,0.550909
-551.696777,643.890381,535.400391,0.551653
-557.739258,630.065918,540.069580,0.552398
-556.732178,640.411377,535.125732,0.553142
-561.859131,625.854492,538.330078,0.553887
-555.175781,637.847900,540.618896,0.554639
-553.985596,639.495850,538.421631,0.555384
-554.718018,633.728027,538.787842,0.556127
-555.633545,627.593994,541.534424,0.556873
-557.739258,625.396729,537.139893,0.557617
-553.802490,632.629395,536.590576,0.558361
-551.696777,638.488770,538.696289,0.559105
-548.950195,634.643555,539.703369,0.559843
-548.309326,632.537842,528.808594,0.560577
-552.062988,633.819580,535.034180,0.561311
-562.133789,631.347656,531.738281,0.562045
-562.774658,631.256104,529.357910,0.562793
-556.365967,638.580322,531.829834,0.563537
-559.661865,645.721436,536.407471,0.564281
-559.478760,638.671875,533.020020,0.565025
-559.204102,638.488770,528.259277,0.565770
-559.204102,640.228271,538.146973,0.566514
-561.767578,633.270264,529.449463,0.567258
-552.246094,635.467529,533.020020,0.568001
-560.577393,634.277344,527.709961,0.568795
-554.168701,634.368896,533.752441,0.569551
-564.697266,631.439209,525.238037,0.570382
-566.619873,635.742188,530.364990,0.571149
-564.331055,638.397217,523.498535,0.571912
-563.781738,645.172119,530.639648,0.572656
-550.964355,634.002686,530.822754,0.573400
-564.880371,636.749268,534.576416,0.574144
-561.950684,639.862061,533.477783,0.574898
-565.063477,642.425537,533.935547,0.575643
-566.162109,647.003174,534.576416,0.576387
-563.140869,646.270752,536.224365,0.577130
-568.542480,643.981934,535.034180,0.577874
-577.148438,645.263672,535.400391,0.578608
-577.148438,640.686035,533.111572,0.579342
-567.626953,643.157959,532.928467,0.580076
-574.127197,648.834229,531.829834,0.580835
-577.514648,640.686035,554.718018,0.581579
-576.416016,643.981934,530.273438,0.582323
-579.803467,640.594482,530.731201,0.583067
-573.852539,645.080566,523.132324,0.583820
-577.423096,651.489258,534.484863,0.584564
-579.162598,650.756836,538.696289,0.585308
-577.697754,650.848389,539.703369,0.586053
-581.176758,651.672363,536.956787,0.586805
-585.754395,652.862549,536.224365,0.587549
-590.515137,647.186279,532.012939,0.588293
-590.423584,642.974854,530.548096,0.589037
-584.472656,645.080566,529.998779,0.589781
-585.388184,643.341064,526.885986,0.590514
-583.190918,642.425537,528.717041,0.591248
-591.705322,647.186279,542.083740,0.591982
-594.085693,650.207520,532.104492,0.592739
-597.106934,643.615723,524.505615,0.593493
-592.163086,647.186279,533.111572,0.594280
-594.360352,647.735596,537.414551,0.595030
-592.529297,643.890381,533.386230,0.595795
-599.945068,649.017334,526.794434,0.596540
-597.290039,649.108887,517.730713,0.597284
-592.529297,649.383545,523.956299,0.598064
-593.078613,642.974854,528.717041,0.598834
-600.311279,638.214111,527.526855,0.599580
-599.304199,638.580322,522.857666,0.600324
-601.776123,642.517090,529.815674,0.601067
-601.776123,642.333984,527.709961,0.601827
-596.557617,646.728516,530.181885,0.602571
-606.994629,643.798828,524.597168,0.603315
-605.895996,642.242432,528.167725,0.604059
-598.846436,643.341064,529.632568,0.604802
-600.860596,650.390625,529.449463,0.605536
-604.797363,641.326904,524.230957,0.606271
-606.628418,651.397705,527.709961,0.607004
-609.100342,650.299072,533.752441,0.607766
-607.452393,641.510010,524.688721,0.608510
-610.656738,644.165039,524.047852,0.609254
-610.198975,646.179199,523.040771,0.609998
-617.614746,646.545410,523.956299,0.610752
-612.762451,650.665283,512.969971,0.611496
-609.375000,649.200439,522.033691,0.612240
-615.875244,646.728516,527.801514,0.612983
-613.494873,645.355225,520.568848,0.613736
-610.015869,654.876709,521.209717,0.614480
-613.403320,655.334473,522.033691,0.615224
-612.762451,646.453857,521.301270,0.615968
-612.213135,644.256592,523.773193,0.616712
-605.346680,652.130127,529.266357,0.617461
-618.347168,647.918701,524.871826,0.618207
-613.769531,654.144287,532.653809,0.618953
-614.227295,660.369873,519.744873,0.619703
-611.206055,657.806396,522.857666,0.620469
-612.396240,652.130127,521.759033,0.621222
-609.191895,651.947021,525.421143,0.621961
-611.389160,650.115967,524.414062,0.622724
-605.895996,645.629883,524.597168,0.623469
-611.114502,652.130127,519.744873,0.624213
-605.712891,655.792236,522.766113,0.624957
-607.727051,646.911621,521.392822,0.625702
-602.325439,649.475098,524.597168,0.626445
-604.797363,653.320312,526.885986,0.627189
-607.543945,648.284912,529.998779,0.627934
-608.734131,638.488770,522.308350,0.628678
-602.508545,650.390625,520.019531,0.629422
-604.705811,641.601562,518.096924,0.630166
-601.776123,645.721436,523.040771,0.630912
-597.015381,652.587891,524.780273,0.631646
-585.388184,653.594971,526.794434,0.632379
-599.578857,655.242920,525.512695,0.633113
-591.522217,652.313232,525.238037,0.633853
-593.170166,655.700684,528.625488,0.634597
-595.733643,651.947021,523.040771,0.635341
-594.360352,633.453369,523.498535,0.636085
-595.825195,644.989014,521.392822,0.636829
-593.170166,652.404785,524.688721,0.637572
-587.493896,653.961182,526.153564,0.638317
-593.719482,658.630371,524.414062,0.639061
-596.923828,649.566650,530.548096,0.639813
-583.557129,652.313232,520.660400,0.640557
-586.303711,656.066895,523.498535,0.641386
-583.465576,660.644531,529.449463,0.642131
-582.733154,657.989502,528.259277,0.642881
-585.479736,655.883789,527.893066,0.643616
-582.916260,652.954102,527.526855,0.644350
-583.007812,652.587891,525.787354,0.645084
-581.542969,653.320312,533.843994,0.645830
-579.711914,652.404785,527.618408,0.646573
-588.592529,653.686523,528.167725,0.647316
-581.085205,657.806396,531.097412,0.648059
-575.500488,655.059814,535.217285,0.648809
-577.331543,652.313232,534.484863,0.649552
-577.056885,648.010254,538.696289,0.650295
-577.423096,647.186279,536.773682,0.651038
-576.599121,649.658203,527.618408,0.651781
-573.944092,651.947021,534.942627,0.652524
-573.120117,653.045654,529.083252,0.653266
-575.592041,655.151367,536.682129,0.654009
-574.127197,649.383545,538.696289,0.654752
-573.486328,648.468018,538.970947,0.655505
-571.746826,646.362305,528.900146,0.656248
-568.450928,649.566650,527.252197,0.656991
-563.415527,656.433105,539.245605,0.657734
-564.422607,648.284912,540.802002,0.658486
-563.232422,649.658203,535.766602,0.659276
-562.408447,640.869141,531.646729,0.660022
-560.852051,642.608643,531.555176,0.660767
-552.520752,652.862549,530.090332,0.661511
-558.380127,644.348145,522.583008,0.662254
-560.577393,640.228271,525.238037,0.663000
-553.161621,643.707275,528.900146,0.663758
-554.718018,641.235352,536.132812,0.664529
-558.837891,641.143799,540.344238,0.665302
-552.154541,643.981934,517.913818,0.666048
-555.084229,632.812500,531.463623,0.666793
-557.739258,633.361816,529.815674,0.667537
-545.104980,636.291504,529.083252,0.668280
-550.781250,634.094238,537.048340,0.669024
-551.513672,631.164551,531.829834,0.669788
-547.943115,631.805420,531.646729,0.670532
-545.196533,637.390137,527.618408,0.671276
-544.006348,639.495850,536.956787,0.672019
-553.527832,631.439209,531.005859,0.672757
-549.774170,627.777100,526.885986,0.673492
-541.351318,638.763428,528.808594,0.674225
-546.752930,653.503418,527.343750,0.674959
-546.936035,638.488770,531.738281,0.675712
-545.654297,633.453369,529.907227,0.676456
-549.591064,644.256592,532.562256,0.677200
-545.288086,635.101318,528.259277,0.677944
-537.139893,612.121582,530.548096,0.678690
-542.633057,629.425049,533.020020,0.679433
-546.752930,637.390137,536.865234,0.680177
-548.309326,627.502441,529.815674,0.680921
-539.794922,625.488281,533.569336,0.681665
-543.273926,655.975342,525.604248,0.682408
-535.675049,637.481689,530.822754,0.683151
-542.083740,634.185791,522.766113,0.683895
-538.970947,644.897461,533.935547,0.684648
-542.449951,631.347656,529.998779,0.685382
-544.097900,628.692627,538.696289,0.686116
-537.963867,629.699707,536.499023,0.686849
-534.759521,633.270264,532.836914,0.687583
-542.724609,634.185791,535.583496,0.688348
-541.992188,634.094238,534.118652,0.689091
-543.182373,652.404785,534.851074,0.689834
-539.428711,630.249023,529.998779,0.690577
-531.463623,626.129150,532.104492,0.691328
-542.449951,634.552002,534.393311,0.692071
-546.752930,634.918213,524.230957,0.692813
-537.506104,632.537842,532.928467,0.693556
-540.802002,629.699707,535.675049,0.694308
-544.006348,635.009766,540.252686,0.695051
-541.809082,631.622314,534.118652,0.695794
-542.816162,637.390137,537.048340,0.696536
-542.175293,632.080078,535.217285,0.697343
-537.414551,632.263184,528.350830,0.698107
-537.506104,632.171631,527.526855,0.698880
-541.534424,637.298584,525.054932,0.699683
-539.245605,634.002686,537.414551,0.700445
-541.168213,632.629395,542.541504,0.701202
-540.344238,634.368896,530.090332,0.701949
-538.055420,629.974365,532.836914,0.702722
-542.724609,629.150391,533.294678,0.703469
-541.625977,630.889893,534.576416,0.704222
-536.499023,626.129150,531.097412,0.704967
-538.513184,631.256104,527.618408,0.705714
-540.618896,624.847412,528.442383,0.706448
-538.238525,630.249023,531.921387,0.707182
-539.245605,628.417969,531.372070,0.707915
-540.802002,633.361816,524.047852,0.708676
-535.766602,627.136230,535.949707,0.709420
-536.773682,629.058838,533.203125,0.710163
-542.175293,629.699707,526.885986,0.710907
-542.449951,626.953125,532.470703,0.711660
-548.583984,630.249023,537.414551,0.712404
-544.372559,629.425049,536.132812,0.713233
-543.731689,623.199463,524.322510,0.713978
-538.238525,632.537842,530.914307,0.714735
-542.449951,625.030518,558.837891,0.715480
-536.407471,632.904053,528.167725,0.716224
-537.689209,631.347656,529.815674,0.716968
-540.161133,630.889893,534.301758,0.717712
-542.083740,628.967285,531.829834,0.718446
-538.513184,622.192383,532.653809,0.719179
-544.006348,624.481201,531.829834,0.719913
-543.273926,627.960205,537.506104,0.720682
-545.379639,626.770020,533.660889,0.721424
-535.583496,624.938965,537.231445,0.722167
-539.337158,627.593994,527.709961,0.722910
-540.069580,621.643066,527.069092,0.723661
-538.696289,622.833252,527.160645,0.724405
-536.590576,625.305176,529.907227,0.725148
-539.703369,626.220703,526.428223,0.725882
-536.041260,626.312256,523.498535,0.726626
-542.541504,622.650146,528.442383,0.727369
-537.506104,625.488281,529.449463,0.728112
-545.379639,620.452881,524.322510,0.728855
-555.633545,622.650146,532.562256,0.729605
-538.330078,623.016357,532.928467,0.730347
-539.886475,622.009277,533.569336,0.731090
-535.400391,621.826172,529.174805,0.731832
-530.822754,620.910645,528.533936,0.732576
-560.668945,620.544434,533.020020,0.733319
-535.125732,618.988037,522.949219,0.734061
-534.667969,625.396729,534.118652,0.734808
-536.499023,625.213623,530.914307,0.735560
-537.780762,625.213623,529.998779,0.736338
-532.745361,621.002197,529.266357,0.737090
-532.470703,625.671387,529.174805,0.737834
-535.675049,620.819092,532.379150,0.738582
-535.400391,626.037598,535.034180,0.739326
-536.041260,627.319336,533.935547,0.740069
-533.477783,621.185303,529.357910,0.740813
-529.449463,624.114990,526.977539,0.741589
-529.357910,619.171143,528.717041,0.742336
-536.865234,627.593994,531.097412,0.743081
-534.301758,628.601074,530.731201,0.743825
-537.322998,631.530762,535.583496,0.744584
-538.421631,631.347656,534.484863,0.745328
-541.534424,629.058838,529.907227,0.746072
-538.146973,625.488281,532.287598,0.746816
-537.322998,626.953125,535.949707,0.747570
-536.041260,624.114990,536.407471,0.748314
-528.259277,629.241943,531.463623,0.749058
-537.963867,628.601074,533.935547,0.749801
-532.012939,630.340576,536.682129,0.750547
-532.745361,632.537842,535.217285,0.751282
-535.125732,631.164551,537.963867,0.752016
-537.780762,635.192871,537.322998,0.752749
-538.604736,631.530762,534.210205,0.753509
-535.858154,655.334473,533.386230,0.754253
-537.780762,636.840820,530.364990,0.755026
-537.689209,631.530762,530.090332,0.755928
-536.865234,629.974365,528.442383,0.756721
-532.196045,638.763428,520.568848,0.757501
-532.836914,616.790771,533.203125,0.758316
-531.738281,641.693115,535.491943,0.759092
-537.872314,632.171631,535.675049,0.759835
-540.344238,640.228271,529.357910,0.760457
-539.245605,636.566162,536.132812,0.761259
-533.477783,645.355225,529.632568,0.762029
-539.978027,644.714355,535.217285,0.762773
-539.062500,644.805908,535.308838,0.763536
-539.886475,640.686035,528.350830,0.764312
-538.879395,644.531250,530.273438,0.765046
-540.985107,642.059326,530.914307,0.765779
-538.970947,647.552490,536.041260,0.766512
-542.083740,642.608643,554.992676,0.767309
-536.499023,643.615723,530.822754,0.768074
-535.675049,640.228271,528.076172,0.768865
-541.992188,643.707275,529.907227,0.769609
-546.386719,650.665283,537.780762,0.770368
-516.357422,638.031006,533.477783,0.771103
-542.175293,646.087646,530.731201,0.771865
-539.428711,649.017334,529.907227,0.772649
-545.288086,645.629883,526.428223,0.773396
-536.041260,648.468018,530.822754,0.774157
-542.266846,648.101807,529.998779,0.774894
-544.464111,639.495850,530.456543,0.775628
-545.288086,639.495850,526.794434,0.776362
-543.640137,635.650635,532.287598,0.777095
-542.816162,641.693115,533.843994,0.777829
-537.872314,644.989014,525.970459,0.778577
-540.802002,641.418457,527.069092,0.779311
-542.449951,645.263672,524.414062,0.780045
-548.309326,643.524170,527.160645,0.780778
-549.133301,641.876221,528.076172,0.781513
-549.774170,639.953613,526.885986,0.782247
-540.618896,642.242432,524.414062,0.782981
-544.921875,646.270752,527.893066,0.783715
-547.668457,643.981934,533.111572,0.784537
-551.696777,642.242432,529.724121,0.785283
-546.295166,653.686523,528.625488,0.786027
-542.358398,644.714355,527.343750,0.786771
-543.273926,644.531250,524.963379,0.787526
-550.415039,642.242432,527.343750,0.788270
-545.104980,643.249512,528.442383,0.789014
-541.076660,643.890381,522.949219,0.789758
-539.337158,646.636963,524.780273,0.790502
-545.379639,649.658203,524.780273,0.791246
-545.196533,643.981934,526.336670,0.791990
-542.266846,644.714355,526.702881,0.792734
-538.604736,651.397705,524.505615,0.793478
-542.633057,653.411865,523.406982,0.794222
-544.281006,652.130127,525.604248,0.794956
-547.851562,645.904541,530.914307,0.795689
-549.957275,640.960693,526.245117,0.796423
-552.612305,646.911621,530.090332,0.797188
-542.724609,653.686523,524.963379,0.797932
-537.597656,643.615723,528.717041,0.798676
-548.583984,645.172119,529.541016,0.799420
-547.393799,642.791748,527.160645,0.800164
-548.400879,640.777588,523.223877,0.800898
-551.971436,642.425537,534.759521,0.801632
-550.140381,641.967773,526.519775,0.802366
-550.872803,650.482178,531.372070,0.803122
-545.471191,643.341064,533.935547,0.803865
-546.020508,645.812988,534.393311,0.804609
-552.795410,647.918701,527.526855,0.805362
-549.499512,643.157959,533.111572,0.806131
-548.492432,640.136719,533.294678,0.806931
-547.027588,643.341064,531.280518,0.807684
-552.612305,639.678955,529.266357,0.808443
-546.844482,647.552490,524.414062,0.809196
-547.302246,646.179199,524.963379,0.809960
-553.802490,650.665283,529.174805,0.810712
-550.048828,640.136719,524.963379,0.811505
-553.894043,642.517090,531.555176,0.812257
-556.640625,647.552490,533.752441,0.813001
-551.239014,649.291992,530.364990,0.813745
-547.668457,645.812988,528.991699,0.814500
-551.147461,646.362305,533.477783,0.815245
-544.921875,643.066406,539.794922,0.815989
-547.760010,645.080566,535.217285,0.816732
-551.239014,636.566162,529.357910,0.817476
-549.682617,643.707275,527.343750,0.818210
-549.499512,643.341064,519.470215,0.818944
-556.365967,644.897461,525.512695,0.819677
-551.971436,643.890381,527.160645,0.820437
-550.689697,648.010254,530.822754,0.821171
-553.253174,637.390137,533.569336,0.821906
-559.020996,646.270752,529.724121,0.822641
-551.788330,648.742676,527.984619,0.823400
-546.661377,653.137207,524.505615,0.824145
-553.619385,652.038574,529.907227,0.824903
-551.422119,647.827148,533.843994,0.825649
-553.894043,640.228271,524.047852,0.826405
-554.351807,645.446777,524.322510,0.827149
-550.781250,645.996094,531.829834,0.827893
-560.668945,646.820068,517.456055,0.828637
-553.894043,647.094727,527.252197,0.829391
-562.042236,643.066406,522.399902,0.830136
-561.767578,641.418457,526.611328,0.830880
-557.739258,644.531250,527.160645,0.831624
-558.471680,650.848389,531.463623,0.832367
-558.471680,649.383545,528.350830,0.833101
-552.978516,647.277832,530.181885,0.833835
-553.619385,652.770996,527.252197,0.834568
-548.583984,649.017334,534.301758,0.835326
-553.985596,637.115479,527.709961,0.836070
-561.492920,644.989014,536.865234,0.836814
-560.943604,654.418945,529.815674,0.837557
-558.013916,651.947021,532.104492,0.838301
-555.175781,640.136719,529.357910,0.839035
-556.732178,638.946533,523.773193,0.839716
-556.365967,640.319824,528.717041,0.840451
-556.640625,647.460938,531.005859,0.841207
-556.091309,646.545410,536.682129,0.841951
-558.197021,649.383545,537.231445,0.842696
-552.612305,645.538330,529.998779,0.843440
-555.175781,651.580811,531.646729,0.844210
-558.013916,655.517578,528.259277,0.844955
-555.725098,648.193359,529.449463,0.845699
-557.189941,641.052246,530.914307,0.846444
-557.098389,643.981934,530.273438,0.847198
-553.802490,637.847900,528.167725,0.847942
-556.732178,639.953613,537.231445,0.848686
-554.901123,637.664795,537.963867,0.849430
-554.534912,640.136719,531.738281,0.850186
-548.400879,637.115479,529.907227,0.850932
-555.450439,635.742188,538.787842,0.851676
-549.957275,643.890381,535.949707,0.852420
-551.971436,648.376465,533.935547,0.853166
-552.703857,638.580322,528.167725,0.853901
-555.908203,638.580322,531.188965,0.854634
-560.211182,631.347656,525.054932,0.855450
-557.464600,631.713867,520.660400,0.856213
-552.246094,638.397217,517.272949,0.856957
-549.865723,641.876221,524.230957,0.857701
-545.379639,643.432617,528.991699,0.858445
-551.971436,640.319824,530.456543,0.859207
-551.147461,636.749268,527.435303,0.859951
-552.520752,641.143799,524.688721,0.860695
-557.189941,642.700195,516.082764,0.861439
-552.703857,642.700195,524.047852,0.862193
-551.239014,639.770508,525.512695,0.862938
-550.781250,634.735107,528.442383,0.863682
-551.513672,639.770508,529.174805,0.864426
-552.246094,635.284424,523.040771,0.865178
-550.323486,638.122559,529.632568,0.865911
-549.865723,639.678955,526.519775,0.866645
-543.090820,636.840820,524.414062,0.867379
-548.034668,642.517090,522.033691,0.868144
-546.203613,644.714355,531.738281,0.868889
-544.647217,641.784668,528.900146,0.869633
-542.999268,635.833740,535.217285,0.870377
-547.760010,643.707275,534.759521,0.871130
-548.309326,638.671875,530.822754,0.871874
-553.985596,639.770508,530.090332,0.872618
-550.872803,637.481689,531.738281,0.873362
-547.485352,642.974854,536.315918,0.874118
-542.999268,632.354736,530.456543,0.874862
-546.936035,642.517090,527.526855,0.875606
-541.351318,637.390137,529.907227,0.876350
-541.076660,648.376465,527.160645,0.877100
-544.738770,649.475098,528.442383,0.877860
-542.175293,644.348145,533.294678,0.878610
-545.288086,641.326904,534.301758,0.879397
-549.865723,643.981934,530.731201,0.880169
-548.583984,645.172119,533.020020,0.880914
-551.422119,639.495850,529.541016,0.881658
-539.062500,646.270752,534.576416,0.882401
-536.132812,643.249512,536.499023,0.883155
-541.076660,634.552002,531.097412,0.883914
-541.625977,638.671875,531.921387,0.884677
-543.731689,641.235352,531.188965,0.885501
-541.442871,644.989014,537.963867,0.886295
-539.337158,637.481689,529.632568,0.887059
-540.161133,647.918701,536.682129,0.887820
-540.069580,647.552490,540.344238,0.888611
-539.703369,636.474609,537.322998,0.889374
-540.252686,638.763428,535.949707,0.890133
-539.794922,642.150879,537.963867,0.890879
-537.506104,645.721436,532.196045,0.891699
-543.548584,644.989014,530.364990,0.892446
-539.520264,641.510010,530.364990,0.893191
-540.802002,647.186279,530.548096,0.893935
-539.062500,643.524170,529.724121,0.894681
-533.294678,642.608643,535.949707,0.895415
-538.879395,644.073486,531.921387,0.896149
-537.597656,646.453857,538.970947,0.896882
-537.780762,644.256592,516.265869,0.897642
-538.787842,643.890381,531.829834,0.898387
-537.506104,648.284912,530.456543,0.899131
-536.956787,644.622803,534.118652,0.899875
-538.330078,635.467529,534.484863,0.900630
-540.527344,636.749268,526.428223,0.901374
-534.301758,642.425537,535.034180,0.902118
-539.520264,634.735107,537.048340,0.902863
-539.245605,638.946533,537.048340,0.903607
-536.590576,641.876221,530.548096,0.904351
-536.865234,637.847900,531.829834,0.905095
-537.231445,645.080566,532.379150,0.905839
-539.703369,640.869141,529.357910,0.906576
-549.407959,637.847900,535.217285,0.907310
-537.689209,635.009766,530.090332,0.908043
-538.970947,633.911133,535.125732,0.908777
-540.802002,640.777588,531.738281,0.909531
-537.963867,640.502930,536.132812,0.910275
-538.330078,635.467529,528.533936,0.911019
-537.597656,645.080566,527.069092,0.911763
-534.301758,649.291992,532.287598,0.912502
-542.083740,646.362305,522.766113,0.913236
-538.513184,639.770508,526.428223,0.913970
-540.435791,647.186279,524.047852,0.914704
-561.676025,642.974854,523.864746,0.915451
-541.076660,640.777588,528.991699,0.916195
-537.872314,635.101318,532.379150,0.916939
-538.238525,641.143799,532.287598,0.917683
-534.851074,640.869141,536.224365,0.918464
-532.470703,648.193359,526.794434,0.919210
-538.604736,635.192871,522.583008,0.919954
-530.639648,637.847900,526.977539,0.920698
-531.555176,646.362305,523.864746,0.921452
-535.125732,640.960693,524.505615,0.922187
-530.639648,644.348145,528.625488,0.922921
-549.499512,636.749268,529.266357,0.923671
-531.280518,644.989014,532.745361,0.924436
-562.133789,637.390137,529.815674,0.925181
-542.724609,637.573242,523.864746,0.925925
-536.682129,634.094238,529.357910,0.926749
-533.660889,635.742188,530.731201,0.927505
-540.527344,632.263184,532.104492,0.928249
-538.787842,641.784668,531.280518,0.928993
-543.273926,632.080078,530.273438,0.929737
-544.555664,636.108398,531.829834,0.930481
-518.188477,639.404297,535.217285,0.931253
-542.175293,638.305664,536.590576,0.932003
-542.266846,631.256104,528.717041,0.932765
-544.738770,634.826660,525.329590,0.933510
-542.358398,640.960693,529.357910,0.934254
-540.161133,636.016846,533.843994,0.934997
-540.161133,638.214111,531.921387,0.935741
-537.597656,631.622314,527.893066,0.936485
-536.590576,635.650635,524.139404,0.937229
-531.188965,640.686035,535.583496,0.937973
-539.520264,635.925293,527.618408,0.938714
-541.992188,633.544922,528.900146,0.939448
-542.541504,640.045166,531.005859,0.940181
-542.724609,635.833740,535.675049,0.940914
-539.428711,636.383057,533.111572,0.941651
-545.562744,639.587402,528.991699,0.942395
-536.407471,633.361816,526.977539,0.943139
-537.506104,637.023926,539.611816,0.943883
-538.879395,637.573242,536.407471,0.944627
-544.281006,640.228271,532.012939,0.945371
-541.717529,632.171631,531.829834,0.946115
-535.675049,633.544922,531.738281,0.946859
-540.344238,636.749268,531.188965,0.947603
-542.083740,630.706787,530.181885,0.948363
-537.139893,629.699707,532.196045,0.949117
-539.978027,626.495361,535.766602,0.949897
-534.942627,626.312256,534.667969,0.950653
-535.949707,630.798340,531.738281,0.951397
-542.358398,654.968262,528.442383,0.952141
-532.379150,639.678955,534.576416,0.952884
-536.132812,632.263184,531.555176,0.953636
-541.809082,628.417969,526.794434,0.954401
-538.879395,628.143311,528.076172,0.955151
-536.956787,620.910645,529.174805,0.955923
-539.978027,618.988037,532.379150,0.956720
-541.259766,614.685059,532.928467,0.957464
-540.985107,619.171143,533.843994,0.958207
-535.491943,616.241455,535.766602,0.958951
-534.667969,626.953125,535.583496,0.959704
-525.512695,617.614746,520.568848,0.960448
-535.583496,622.100830,528.350830,0.961191
-534.027100,625.946045,523.223877,0.961935
-540.893555,624.481201,530.273438,0.962678
-538.421631,624.938965,521.759033,0.963412
-533.752441,624.023438,532.928467,0.964147
-539.794922,622.283936,526.977539,0.964881
-540.527344,623.657227,531.372070,0.965658
-527.709961,627.960205,527.801514,0.966405
-534.667969,624.114990,526.794434,0.967148
-528.808594,623.565674,526.062012,0.967892
-535.766602,624.755859,522.308350,0.968647
-537.872314,622.833252,528.900146,0.969392
-535.491943,622.833252,525.054932,0.970136
-535.491943,622.467041,531.921387,0.970880
-539.428711,622.283936,526.702881,0.971623
-536.041260,628.875732,530.639648,0.972358
-530.639648,630.157471,536.865234,0.973091
-535.858154,630.249023,531.188965,0.973825
-534.667969,631.896973,532.653809,0.974583
-539.154053,623.199463,529.357910,0.975327
-537.506104,634.277344,531.555176,0.976071
-540.893555,630.523682,530.181885,0.976815
-540.252686,630.249023,524.780273,0.977568
-537.048340,626.678467,526.611328,0.978313
-532.562256,632.904053,525.329590,0.979056
-530.822754,635.559082,525.695801,0.979800
-530.090332,637.939453,526.977539,0.980553
-531.646729,633.544922,528.259277,0.981297
-533.569336,632.812500,523.681641,0.982041
-529.083252,634.277344,527.709961,0.982785
-535.583496,639.770508,534.118652,0.983528
-536.407471,631.164551,527.252197,0.984262
-538.604736,637.023926,527.893066,0.984996
-541.992188,637.115479,531.555176,0.985729
-544.006348,640.686035,531.829834,0.986481
-545.196533,641.693115,526.062012,0.987226
-545.288086,637.481689,528.076172,0.987969
-539.520264,637.481689,519.104004,0.988718
-529.815674,641.143799,521.118164,0.989472
-540.618896,640.228271,527.709961,0.990117
-542.358398,637.939453,522.583008,0.990862
-542.266846,639.129639,528.900146,0.991605
-543.914795,641.601562,527.343750,0.992360
-547.119141,639.770508,530.639648,0.993104
-541.717529,642.425537,532.653809,0.993864
-540.893555,638.488770,531.463623,0.994624
-539.611816,641.601562,525.604248,0.995369
-547.027588,638.122559,522.491455,0.996113
-542.266846,645.446777,523.132324,0.996857
-538.696289,653.778076,523.773193,0.997600
-545.104980,647.827148,524.963379,0.998449
-541.809082,643.890381,527.801514,0.999194
-538.055420,649.383545,526.062012,0.999938
-532.653809,642.059326,535.034180,1.000682
-541.717529,643.707275,530.273438,1.001416
-538.421631,648.284912,530.639648,1.002149
-538.330078,641.601562,531.463623,1.002883
-546.295166,642.425537,528.625488,1.003616
-538.604736,649.658203,534.484863,1.004378
-537.689209,639.770508,528.442383,1.005122
-535.400391,643.615723,527.252197,1.005866
-541.717529,651.397705,531.646729,1.006610
-535.491943,653.503418,526.153564,1.007364
-543.182373,655.151367,531.372070,1.008107
-546.386719,651.763916,537.139893,1.008851
-539.520264,647.460938,532.562256,1.009595
-537.780762,652.770996,529.907227,1.010349
-536.865234,650.848389,523.132324,1.011093
-534.851074,644.805908,523.956299,1.011836
-532.287598,641.693115,525.054932,1.012580
-534.576416,641.510010,528.350830,1.013323
-534.667969,648.925781,533.386230,1.014057
-542.266846,642.150879,526.245117,1.014790
-542.358398,639.221191,530.090332,1.015523
-543.640137,639.770508,529.998779,1.016289
-547.119141,644.805908,527.893066,1.017033
-532.836914,640.228271,522.674561,1.017776
-536.315918,640.502930,526.245117,1.018520
-535.766602,648.468018,526.519775,1.019276
-561.309814,646.728516,525.512695,1.020029
-539.978027,649.200439,532.379150,1.020804
-536.315918,641.143799,523.315430,1.021558
-515.716553,641.876221,521.759033,1.022318
-539.062500,642.883301,525.238037,1.023053
-550.506592,639.953613,528.717041,1.023786
-544.281006,632.720947,527.069092,1.024520
-542.358398,647.827148,527.435303,1.025285
-542.999268,642.883301,516.723633,1.026095
-539.428711,643.707275,528.717041,1.026846
-539.154053,643.341064,525.512695,1.027634
-546.295166,645.538330,528.808594,1.028373
-547.393799,641.418457,530.273438,1.029107
-545.379639,650.024414,528.991699,1.029841
-545.379639,641.967773,522.399902,1.030594
-546.752930,639.495850,529.541016,1.031338
-549.591064,647.827148,528.717041,1.032081
-551.788330,644.622803,534.210205,1.032825
-541.900635,644.897461,537.872314,1.033567
-552.062988,642.242432,532.012939,1.034301
-552.062988,646.179199,532.745361,1.035034
-549.957275,648.193359,526.977539,1.035769
-551.971436,641.143799,531.372070,1.036505
-552.520752,643.341064,532.562256,1.037249
-552.703857,644.439697,531.646729,1.037993
-551.971436,643.981934,536.407471,1.038737
-557.006836,642.883301,539.703369,1.039481
-552.062988,644.073486,535.949707,1.040234
-555.450439,640.319824,534.393311,1.040979
-555.908203,650.665283,533.843994,1.041722
-559.295654,645.812988,536.315918,1.042466
-557.281494,647.735596,527.160645,1.043220
-552.978516,642.700195,532.470703,1.043964
-555.816650,645.721436,528.991699,1.044708
-556.457520,643.249512,526.336670,1.045451
-554.534912,650.115967,533.752441,1.046194
-557.006836,653.137207,542.266846,1.046928
-565.795898,652.313232,529.998779,1.047661
-558.288574,645.996094,528.625488,1.048394
-560.668945,645.812988,529.083252,1.049160
-560.119629,644.256592,535.491943,1.049904
-560.668945,645.996094,532.104492,1.050647
-567.993164,647.277832,535.766602,1.051391
-562.683105,654.144287,539.154053,1.052144
-559.478760,650.115967,529.541016,1.052888
-559.387207,650.482178,530.181885,1.053632
-566.711426,641.693115,524.414062,1.054376
-557.739258,642.883301,530.456543,1.055119
-554.443359,651.397705,534.301758,1.055853
-562.591553,647.369385,537.963867,1.056586
-561.492920,645.263672,536.773682,1.057319
-566.345215,645.904541,542.724609,1.058072
-564.514160,651.947021,534.942627,1.058814
-562.774658,653.411865,535.858154,1.059557
-558.380127,651.397705,535.125732,1.060299
-558.654785,645.263672,533.935547,1.061050
-562.774658,644.622803,530.731201,1.061793
-562.500000,645.172119,530.639648,1.062535
-564.422607,639.129639,530.914307,1.063344
-564.697266,640.777588,529.907227,1.064105
-558.380127,636.749268,528.808594,1.064849
-558.197021,640.319824,531.738281,1.065593
-565.063477,634.277344,526.794434,1.066336
-559.478760,643.890381,528.533936,1.067089
-564.788818,642.791748,534.393311,1.067833
-564.056396,636.749268,532.470703,1.068576
-563.598633,644.622803,527.526855,1.069403
-566.162109,646.545410,529.083252,1.070159
-564.331055,639.312744,522.949219,1.070904
-566.070557,645.263672,524.780273,1.071647
-565.338135,641.235352,524.139404,1.072391
-566.436768,641.693115,527.526855,1.073135
-565.063477,645.996094,528.350830,1.073878
-567.260742,643.890381,534.301758,1.074622
-568.084717,645.355225,519.378662,1.075366
-567.626953,648.468018,529.632568,1.076110
-558.288574,646.087646,532.470703,1.076854
-556.274414,646.911621,531.646729,1.077597
-561.126709,655.426025,536.956787,1.078340
-566.894531,646.911621,526.245117,1.079074
-566.986084,651.123047,530.914307,1.079807
-564.605713,647.003174,533.935547,1.080540
-568.450928,652.862549,524.047852,1.081274
-573.303223,652.313232,530.273438,1.082019
-567.718506,646.545410,531.280518,1.082763
-563.690186,639.770508,531.555176,1.083506
-570.281982,645.904541,531.921387,1.084250
-565.704346,645.263672,527.984619,1.085003
-562.866211,648.376465,526.428223,1.085747
-568.084717,651.031494,523.681641,1.086491
-567.993164,643.524170,522.674561,1.087234
-565.795898,644.622803,522.949219,1.087988
-572.937012,639.953613,519.927979,1.088732
-574.310303,643.432617,520.935059,1.089476
-561.584473,637.207031,524.780273,1.090219
-569.824219,650.665283,532.562256,1.090962
-566.986084,641.967773,521.026611,1.091703
-569.549561,643.432617,519.195557,1.092449
-568.267822,638.122559,514.892578,1.093209
-565.612793,635.650635,514.434814,1.093985
-559.478760,634.643555,515.625000,1.094730
-567.169189,636.291504,517.272949,1.095475
-568.359375,637.939453,515.991211,1.096232
-566.802979,633.178711,518.371582,1.096976
-563.598633,637.298584,512.420654,1.097719
-564.971924,635.833740,517.730713,1.098463
-566.619873,633.911133,517.547607,1.099239
-565.704346,631.530762,508.941650,1.099993
-568.359375,634.826660,511.596680,1.100765
-572.845459,641.510010,515.167236,1.101514
-562.042236,644.165039,516.815186,1.102258
-570.831299,635.742188,516.815186,1.103001
-567.169189,650.482178,514.892578,1.103744
-565.521240,641.876221,520.568848,1.104488
-558.013916,646.728516,523.956299,1.105231
-565.338135,646.636963,525.604248,1.105974
-563.140869,640.960693,515.808105,1.106719
-564.971924,645.996094,510.681152,1.107463
-564.788818,645.446777,506.378174,1.108200
-559.295654,644.348145,518.188477,1.108934
-561.035156,646.636963,520.202637,1.109666
-566.162109,648.651123,518.463135,1.110400
-561.218262,644.531250,513.702393,1.111160
-561.584473,658.905029,519.744873,1.111904
-555.908203,648.834229,519.561768,1.112647
-558.471680,648.193359,512.237549,1.113391
-555.450439,653.961182,520.568848,1.114135
-558.746338,651.397705,525.512695,1.114878
-565.979004,654.510498,522.125244,1.115622
-569.915771,657.257080,524.505615,1.116365
-560.577393,655.242920,522.766113,1.117118
-560.119629,652.130127,523.773193,1.117862
-555.999756,657.989502,516.174316,1.118605
-564.331055,652.679443,522.949219,1.119349
-558.929443,654.876709,528.076172,1.120092
-563.598633,659.271240,523.040771,1.120825
-561.492920,651.123047,524.688721,1.121559
-559.387207,655.517578,520.751953,1.122293
-565.246582,651.031494,526.885986,1.123026
-565.887451,654.693604,519.561768,1.123792
-562.225342,658.172607,523.315430,1.124536
-559.844971,654.968262,522.216797,1.125279
-555.908203,662.109375,519.744873,1.126023
-559.112549,651.672363,520.019531,1.126766
-560.760498,650.482178,521.484375,1.127500
-564.422607,652.130127,519.195557,1.128234
-562.225342,651.397705,523.040771,1.128967
-560.028076,652.496338,518.829346,1.129724
-560.119629,643.066406,519.653320,1.130467
-561.401367,645.996094,514.892578,1.131209
-563.964844,645.812988,515.441895,1.131951
-568.542480,649.017334,518.463135,1.132701
-568.817139,654.510498,524.414062,1.133444
-563.507080,640.411377,523.956299,1.134186
-559.295654,643.249512,521.667480,1.134929
-563.964844,633.728027,520.111084,1.135695
-560.760498,637.390137,521.850586,1.136441
-565.246582,642.883301,520.568848,1.137185
-569.549561,627.410889,520.019531,1.137929
-560.394287,635.650635,524.139404,1.138721
-567.993164,638.122559,512.145996,1.139466
-557.189941,640.228271,524.871826,1.140296
-564.697266,630.889893,517.364502,1.141052
-561.676025,629.516602,526.428223,1.141796
-559.204102,628.784180,522.583008,1.142540
-567.169189,628.967285,519.561768,1.143283
-561.950684,652.679443,526.428223,1.144027
-554.077148,629.791260,525.604248,1.144771
-558.654785,632.537842,526.794434,1.145514
-561.401367,627.227783,522.125244,1.146257
-562.774658,632.904053,522.399902,1.146998
-562.957764,636.474609,522.125244,1.147731
-560.943604,631.256104,519.378662,1.148465
-545.013428,630.249023,525.695801,1.149199
-556.274414,631.072998,527.526855,1.149951
-560.394287,629.333496,522.308350,1.150696
-558.654785,625.305176,519.470215,1.151440
-564.697266,633.453369,519.653320,1.152183
-562.591553,632.995605,517.913818,1.152936
-556.823730,631.988525,524.963379,1.153680
-552.886963,628.234863,526.794434,1.154424
-558.471680,627.685547,518.188477,1.155167
-551.513672,627.960205,522.949219,1.155911
-558.746338,625.305176,524.688721,1.156666
-559.753418,626.312256,522.216797,1.157410
-555.725098,629.058838,522.949219,1.158154
-564.788818,655.700684,531.280518,1.158897
-556.640625,636.749268,527.984619,1.159641
-556.274414,632.263184,532.012939,1.160374
-556.274414,635.375977,526.977539,1.161108
-552.520752,628.051758,527.435303,1.161841
-546.936035,614.868164,530.273438,1.162609
-550.231934,627.227783,531.463623,1.163362
-550.323486,632.354736,533.660889,1.164111
-553.253174,632.995605,528.167725,1.164894
-553.344727,631.988525,532.287598,1.165641
-556.640625,634.918213,532.745361,1.166385
-555.633545,635.925293,537.506104,1.167149
-554.534912,635.925293,540.435791,1.167914
-550.689697,639.678955,538.513184,1.168666
-546.478271,640.045166,537.139893,1.169437
-550.781250,635.559082,534.210205,1.170184
-546.752930,638.397217,538.421631,1.170950
-546.569824,641.326904,535.400391,1.171694
-544.189453,644.714355,535.949707,1.172437
-554.718018,632.080078,535.400391,1.173181
-550.506592,637.298584,539.154053,1.173922
-558.288574,641.784668,532.562256,1.174666
-549.957275,640.228271,529.357910,1.175410
-556.457520,644.531250,537.689209,1.176153
-556.182861,642.425537,533.386230,1.176895
-555.633545,640.594482,531.738281,1.177629
-554.626465,646.087646,536.041260,1.178363
-555.725098,648.284912,540.161133,1.179096
-555.084229,647.827148,529.632568,1.179838
-549.682617,643.798828,536.590576,1.180582
-549.041748,641.418457,524.230957,1.181325
-548.492432,644.989014,527.801514,1.182068
-541.717529,651.580811,533.843994,1.182811
-554.443359,650.207520,530.639648,1.183555
-551.879883,652.404785,534.393311,1.184297
-543.090820,645.629883,533.477783,1.185040
-546.752930,647.186279,531.555176,1.185793
-544.097900,646.820068,540.069580,1.186536
-538.970947,646.270752,541.076660,1.187279
-543.273926,642.333984,534.576416,1.188022
-541.809082,650.207520,528.076172,1.188763
-541.717529,642.791748,531.280518,1.189497
-538.238525,644.989014,528.259277,1.190230
-537.414551,649.566650,541.534424,1.190964
-537.322998,643.707275,530.639648,1.191708
-529.541016,640.960693,529.815674,1.192452
-532.928467,649.749756,537.048340,1.193195
-534.393311,645.263672,534.301758,1.193938
-526.702881,647.735596,535.125732,1.194687
-532.836914,647.369385,538.787842,1.195421
-534.667969,641.235352,532.653809,1.196154
-530.456543,649.291992,539.337158,1.196887
-529.266357,640.228271,535.308838,1.197620
-530.364990,638.488770,538.238525,1.198374
-529.724121,639.495850,536.224365,1.199117
-526.153564,639.587402,557.556152,1.199861
-531.463623,645.904541,536.132812,1.200604
-531.555176,643.890381,527.343750,1.201357
-520.294189,635.833740,538.513184,1.202120
-524.230957,639.129639,531.188965,1.202865
-523.590088,642.425537,529.998779,1.203609
-522.308350,644.714355,536.315918,1.204360
-520.477295,644.897461,534.393311,1.205103
-516.448975,640.228271,535.034180,1.205852
-520.385742,639.862061,530.364990,1.206607
-527.618408,642.059326,531.097412,1.207351
-526.153564,643.341064,537.139893,1.208095
-529.357910,638.580322,517.364502,1.208838
-519.104004,643.890381,534.393311,1.209589
-519.927979,638.671875,530.090332,1.210333
-519.836426,639.038086,531.005859,1.211156
-512.878418,634.826660,531.829834,1.211900
-513.702393,636.932373,535.858154,1.212646
-519.287109,641.418457,533.294678,1.213380
-514.434814,630.340576,534.667969,1.214113
-519.653320,631.988525,530.548096,1.214846
-511.322021,631.896973,528.259277,1.215588
-513.610840,631.439209,528.717041,1.216331
-519.378662,633.178711,524.597168,1.217075
-515.991211,626.495361,528.808594,1.217817
-517.730713,632.720947,528.259277,1.218557
-519.287109,628.784180,533.935547,1.219290
-518.646240,629.699707,533.386230,1.220024
-520.568848,625.671387,529.998779,1.220757
-514.892578,654.876709,529.632568,1.221526
-520.294189,628.051758,531.829834,1.222269
-516.357422,629.333496,535.217285,1.223013
-519.653320,625.213623,536.773682,1.223756
-513.336182,631.530762,533.569336,1.224501
-516.540527,634.002686,534.393311,1.225256
-518.463135,632.263184,532.287598,1.226005
-515.167236,624.389648,535.583496,1.226798
-509.033203,623.199463,533.660889,1.227562
-507.568359,629.974365,534.210205,1.228335
-509.765625,636.749268,536.132812,1.229100
-513.427734,626.953125,532.745361,1.229864
-507.019043,629.241943,532.470703,1.230683
-509.307861,630.157471,534.210205,1.231440
-508.209229,625.122070,537.414551,1.232184
-538.146973,627.410889,527.343750,1.233002
-515.533447,632.812500,531.005859,1.233785
-516.998291,627.960205,535.308838,1.234608
-521.301270,623.016357,528.625488,1.235437
-522.949219,615.509033,529.266357,1.236200
-513.793945,620.910645,535.858154,1.236945
-518.737793,624.572754,527.435303,1.237695
-512.786865,623.474121,522.766113,1.238465
-513.610840,626.953125,528.442383,1.239229
-520.477295,618.621826,534.851074,1.239977
-520.751953,625.854492,530.090332,1.240751
-520.660400,623.748779,529.541016,1.241518
-523.040771,627.410889,531.280518,1.242262
-520.019531,628.234863,531.280518,1.243005
-526.611328,623.107910,532.928467,1.243748
-523.132324,628.784180,528.442383,1.244501
-511.138916,632.812500,532.653809,1.245245
-518.096924,634.918213,530.090332,1.245988
-520.935059,635.101318,540.527344,1.246732
-524.047852,629.333496,536.682129,1.247479
-520.751953,636.932373,532.287598,1.248215
-518.829346,629.241943,534.759521,1.248948
-518.188477,640.045166,535.034180,1.249682
-534.210205,625.396729,526.794434,1.250439
-519.378662,625.762939,527.618408,1.251184
-518.096924,636.383057,535.675049,1.251927
-524.505615,636.657715,536.315918,1.252670
-519.927979,634.460449,530.548096,1.253421
-519.104004,637.573242,543.090820,1.254164
-526.611328,636.474609,530.914307,1.254907
-523.681641,633.636475,528.900146,1.255651
-518.005371,634.918213,533.752441,1.256403
-527.160645,638.854980,531.921387,1.257146
-519.195557,642.517090,538.787842,1.257890
-523.406982,643.157959,533.752441,1.258633
-519.744873,647.735596,531.829834,1.259376
-528.625488,636.657715,539.245605,1.260110
-529.449463,633.178711,536.682129,1.260844
-526.702881,641.326904,534.942627,1.261577
-541.259766,642.242432,524.963379,1.262329
-530.273438,638.488770,527.252197,1.263073
-530.639648,643.524170,531.097412,1.263857
-530.731201,643.157959,532.836914,1.264602
-536.224365,642.883301,530.731201,1.265346
-531.829834,643.341064,531.280518,1.266080
-531.280518,639.953613,523.406982,1.266813
-534.759521,640.777588,532.562256,1.267546
-532.379150,641.235352,535.308838,1.268303
-541.809082,646.636963,540.527344,1.269046
-537.414551,643.707275,537.506104,1.269789
-535.583496,634.277344,527.801514,1.270532
-536.773682,636.016846,525.787354,1.271276
-541.992188,634.094238,527.893066,1.272009
-540.802002,642.425537,532.653809,1.272769
-541.442871,644.714355,524.871826,1.273512
-546.386719,640.869141,527.618408,1.274281
-518.829346,635.375977,525.970459,1.275033
-536.865234,636.016846,526.428223,1.275777
-545.654297,634.277344,526.062012,1.276520
-541.900635,610.290527,531.005859,1.277281
-548.583984,635.375977,524.597168,1.278024
-545.196533,631.988525,535.217285,1.278767
-543.182373,635.925293,535.217285,1.279510
-549.316406,637.939453,534.027100,1.280254
-549.774170,614.959717,524.505615,1.280988
-542.907715,637.939453,528.076172,1.281721
-542.724609,630.340576,524.139404,1.282455
-548.126221,655.242920,524.139404,1.283307
-543.457031,638.671875,527.069092,1.284052
-542.266846,627.777100,529.357910,1.284795
-543.090820,635.467529,523.223877,1.285538
-551.422119,630.249023,525.329590,1.286292
-546.936035,638.671875,527.252197,1.287035
-546.569824,639.129639,520.568848,1.287778
-546.203613,644.439697,525.329590,1.288522
-551.239014,640.136719,524.047852,1.289275
-545.471191,641.510010,529.541016,1.290018
-552.154541,639.312744,529.083252,1.290762
-547.210693,640.777588,526.885986,1.291504
-551.239014,639.038086,525.878906,1.292247
-549.133301,636.474609,518.554688,1.292982
-545.379639,642.150879,527.893066,1.293716
-540.893555,638.397217,526.702881,1.294449
-557.922363,636.749268,514.984131,1.295216
-550.689697,634.277344,519.836426,1.295959
-550.415039,636.932373,532.104492,1.296702
-547.485352,646.545410,530.731201,1.297444
-554.168701,644.165039,524.597168,1.298197
-556.457520,634.826660,525.329590,1.298940
-555.450439,641.326904,526.885986,1.299682
-548.492432,639.770508,530.548096,1.300424
-554.718018,643.615723,521.759033,1.301175
-547.210693,642.425537,524.871826,1.301917
-553.619385,640.228271,524.505615,1.302659
-541.534424,643.249512,531.738281,1.303409
-550.964355,640.869141,521.392822,1.304179
-547.119141,642.333984,531.372070,1.304958
-554.534912,635.192871,527.343750,1.305709
-555.450439,644.165039,518.920898,1.306453
-553.985596,638.763428,525.054932,1.307214
-551.879883,640.686035,529.632568,1.307958
-555.175781,641.967773,527.252197,1.308701
-549.957275,642.425537,519.653320,1.309469
-548.767090,646.270752,533.294678,1.310251
-548.492432,635.101318,526.794434,1.311002
-544.647217,641.052246,526.428223,1.311774
-546.661377,642.333984,529.357910,1.312521
-552.246094,650.390625,525.787354,1.313266
-551.513672,644.256592,526.519775,1.314009
-548.034668,643.249512,524.871826,1.314753
-550.231934,645.446777,528.900146,1.315505
-544.372559,647.369385,527.160645,1.316249
-547.210693,640.869141,528.167725,1.316992
-545.837402,645.355225,530.090332,1.317735
-550.048828,644.805908,523.132324,1.318478
-545.104980,648.925781,523.040771,1.319222
-540.435791,642.425537,529.724121,1.319956
-545.013428,639.495850,524.963379,1.320692
-542.083740,645.172119,526.336670,1.321425
-553.710938,639.495850,531.188965,1.322185
-547.668457,645.080566,528.350830,1.322928
-551.422119,648.742676,525.970459,1.323671
-548.400879,643.341064,529.083252,1.324413
-552.978516,645.446777,539.337158,1.325166
-548.858643,650.207520,527.618408,1.325910
-549.224854,646.087646,533.020020,1.326653
-557.006836,641.876221,531.280518,1.327397
-550.964355,641.510010,534.210205,1.328149
-551.696777,645.080566,528.350830,1.328893
-550.140381,634.643555,528.350830,1.329636
-548.034668,636.474609,532.562256,1.330379
-555.450439,641.967773,529.266357,1.331121
-559.753418,647.369385,532.012939,1.331855
-554.260254,640.411377,527.069092,1.332589
-551.422119,646.362305,526.153564,1.333322
-554.901123,638.763428,531.555176,1.334003
-557.830811,645.172119,531.280518,1.334747
-557.373047,642.517090,524.230957,1.335490
-557.464600,645.263672,534.484863,1.336233
-557.281494,638.397217,537.048340,1.336976
-545.562744,645.904541,536.499023,1.337710
-553.344727,637.023926,526.794434,1.338443
-557.922363,643.249512,526.885986,1.339177
-555.358887,638.214111,521.667480,1.339930
-566.986084,638.305664,526.611328,1.340673
-564.971924,641.784668,525.329590,1.341415
-565.338135,642.425537,519.378662,1.342156
-560.485840,641.326904,514.526367,1.342907
-560.852051,635.742188,528.991699,1.343649
-559.661865,640.228271,528.076172,1.344391
-562.042236,634.552002,527.252197,1.345133
-560.394287,629.333496,526.977539,1.345884
-556.182861,643.798828,530.548096,1.346626
-562.408447,634.826660,522.399902,1.347369
-553.619385,640.960693,527.343750,1.348110
-561.767578,637.207031,515.167236,1.348862
-558.288574,630.981445,528.259277,1.349604
-558.197021,634.735107,523.864746,1.350346
-551.971436,634.185791,527.343750,1.351088
-551.971436,632.995605,531.829834,1.351859
-552.337646,636.932373,527.893066,1.352603
-547.210693,640.777588,525.695801,1.353346
-564.514160,636.016846,527.709961,1.354174
-560.668945,640.136719,525.878906,1.354929
-560.668945,640.502930,527.435303,1.355673
-558.288574,641.143799,531.372070,1.356417
-554.260254,639.129639,531.005859,1.357160
-555.267334,634.643555,526.153564,1.357913
-558.837891,638.671875,519.104004,1.358656
-559.570312,634.826660,520.751953,1.359400
-561.676025,635.192871,520.294189,1.360143
-561.859131,630.615234,519.470215,1.360886
-555.633545,639.678955,527.069092,1.361620
-556.274414,640.960693,527.984619,1.362353
-562.133789,628.784180,525.329590,1.363087
-555.450439,627.593994,525.329590,1.363842
-555.267334,626.953125,526.062012,1.364583
-557.556152,634.277344,525.878906,1.365325
-562.866211,626.770020,528.350830,1.366067
-557.281494,637.390137,524.688721,1.366822
-555.541992,629.699707,522.216797,1.367566
-560.394287,625.579834,527.618408,1.368310
-554.077148,629.974365,513.519287,1.369053
-554.443359,629.058838,516.723633,1.369806
-554.168701,632.537842,523.956299,1.370550
-557.189941,623.657227,527.801514,1.371293
-556.274414,621.368408,528.167725,1.372037
-552.612305,626.129150,518.646240,1.372779
-557.373047,628.509521,523.040771,1.373513
-553.894043,633.728027,519.195557,1.374246
-560.028076,628.051758,522.399902,1.374980
-551.971436,629.608154,521.484375,1.375743
-551.239014,631.072998,513.153076,1.376485
-552.062988,625.305176,517.364502,1.377244
-559.112549,626.403809,514.343262,1.378002
-558.288574,623.565674,514.892578,1.378813
-546.752930,629.791260,516.265869,1.379559
-547.576904,623.565674,520.477295,1.380303
-551.513672,625.213623,518.005371,1.381052
-552.520752,626.403809,520.660400,1.381829
-554.534912,612.945557,523.498535,1.382581
-550.231934,624.664307,519.378662,1.383353
-546.752930,621.643066,520.019531,1.384103
-552.703857,610.290527,526.428223,1.384870
-547.393799,633.819580,529.632568,1.385613
-550.598145,620.910645,523.773193,1.386393
-546.386719,621.093750,524.047852,1.387189
-539.978027,624.847412,524.780273,1.387946
-539.245605,624.481201,529.724121,1.388713
-548.950195,616.424561,532.653809,1.389465
-555.541992,624.114990,527.252197,1.390242
-545.745850,621.643066,525.604248,1.390989
-546.386719,625.030518,530.090332,1.391733
-543.273926,621.917725,527.801514,1.392476
-543.182373,621.093750,521.667480,1.393223
-543.365479,631.988525,525.970459,1.393957
-548.950195,626.586914,536.956787,1.394691
-548.950195,623.016357,528.625488,1.395424
-548.492432,617.980957,531.280518,1.396184
-545.196533,624.572754,533.935547,1.396927
-544.097900,626.495361,527.435303,1.397670
-541.534424,623.291016,537.139893,1.398414
-544.738770,620.544434,527.618408,1.399167
-541.992188,619.628906,527.069092,1.399911
-553.161621,621.734619,527.252197,1.400655
-554.077148,618.621826,535.858154,1.401398
-546.569824,622.924805,526.977539,1.402143
-538.787842,619.262695,529.815674,1.402885
-539.978027,621.093750,527.252197,1.403628
-543.090820,621.917725,532.653809,1.404371
-542.541504,619.079590,527.343750,1.405122
-540.069580,616.058350,525.329590,1.405856
-547.485352,620.178223,532.287598,1.406590
-544.006348,622.650146,527.618408,1.407323
-537.963867,621.276855,529.724121,1.408071
-537.689209,621.368408,517.913818,1.408805
-547.119141,621.185303,517.089844,1.409539
-537.231445,622.283936,518.737793,1.410272
-540.435791,612.487793,521.667480,1.411012
-542.541504,614.318848,523.590088,1.411754
-544.738770,621.643066,519.104004,1.412496
-529.815674,625.030518,522.949219,1.413239
-535.125732,621.185303,515.625000,1.413980
-532.836914,627.319336,516.723633,1.414722
-539.337158,619.628906,524.230957,1.415464
-538.787842,614.593506,522.491455,1.416206
-538.787842,629.974365,526.153564,1.416947
-534.667969,625.488281,527.801514,1.417689
-535.491943,624.023438,525.878906,1.418431
-536.682129,629.974365,529.357910,1.419213
-533.752441,629.791260,530.456543,1.419971
-536.315918,628.967285,531.372070,1.420715
-532.196045,654.693604,534.576416,1.421490
-528.808594,636.016846,525.238037,1.422236
-533.111572,636.566162,523.315430,1.422990
-534.576416,643.066406,538.421631,1.423734
-534.942627,640.045166,529.174805,1.424476
-543.182373,628.417969,529.907227,1.425302
-537.597656,641.235352,539.794922,1.426057
-538.696289,644.439697,538.970947,1.426800
-537.506104,646.362305,529.907227,1.427543
-529.907227,646.545410,541.900635,1.428286
-534.393311,640.502930,544.647217,1.429029
-543.457031,640.777588,539.886475,1.429763
-538.787842,643.341064,536.682129,1.430496
-541.442871,644.348145,532.562256,1.431230
-542.724609,639.129639,540.618896,1.431987
-546.295166,641.510010,548.126221,1.432731
-519.653320,644.531250,535.583496,1.433468
-540.710449,644.714355,540.435791,1.434202
-536.590576,638.122559,536.773682,1.434959
-541.351318,648.193359,536.315918,1.435702
-536.499023,647.186279,534.576416,1.436446
-561.035156,648.651123,537.597656,1.437189
-543.182373,643.615723,538.330078,1.437945
-545.471191,646.545410,541.992188,1.438688
-543.823242,634.918213,542.633057,1.439431
-548.858643,642.242432,539.520264,1.440174
-537.689209,650.756836,537.048340,1.440918
-541.442871,651.672363,540.710449,1.441651
-541.809082,645.996094,538.146973,1.442385
-539.703369,645.996094,534.210205,1.443118
-538.696289,646.179199,538.787842,1.443883
-542.816162,642.333984,526.519775,1.444626
-546.478271,638.763428,523.315430,1.445368
-536.315918,636.383057,527.252197,1.446111
-537.963867,644.622803,535.125732,1.446864
-538.238525,643.707275,536.865234,1.447621
-543.090820,642.791748,539.703369,1.448407
-533.203125,643.524170,538.970947,1.449153
-539.428711,635.467529,536.132812,1.449919
-544.830322,634.735107,537.597656,1.450663
-544.555664,640.411377,538.330078,1.451406
-542.266846,642.150879,541.259766,1.452154
-539.611816,645.080566,537.139893,1.452935
-539.154053,639.221191,531.372070,1.453688
-539.794922,641.052246,527.069092,1.454485
-539.245605,637.664795,526.519775,1.455235
-534.942627,630.615234,522.491455,1.456000
-539.062500,632.537842,530.364990,1.456744
-541.168213,635.284424,521.759033,1.457487
-538.787842,628.417969,530.456543,1.458230
-539.062500,631.439209,524.047852,1.458982
-538.696289,633.178711,522.857666,1.459725
-538.330078,624.572754,525.512695,1.460468
-535.949707,626.312256,527.252197,1.461211
-529.357910,629.241943,526.702881,1.461955
-537.597656,626.495361,525.787354,1.462691
-537.506104,628.509521,516.082764,1.463426
-529.815674,632.720947,513.885498,1.464159
-534.667969,629.791260,512.969971,1.464919
-532.379150,625.762939,519.104004,1.465662
-531.372070,625.488281,520.843506,1.466405
-534.851074,626.312256,519.378662,1.467148
-527.801514,622.833252,517.547607,1.467902
-528.717041,617.340088,523.773193,1.468645
-528.625488,625.488281,528.625488,1.469388
-527.160645,629.699707,531.280518,1.470131
-528.167725,616.882324,527.343750,1.470884
-539.154053,618.621826,522.399902,1.471627
-535.034180,623.565674,526.885986,1.472370
-531.738281,627.960205,524.963379,1.473113
-530.090332,622.467041,520.202637,1.473857
-527.252197,624.481201,521.026611,1.474590
-533.843994,623.657227,524.230957,1.475323
-533.752441,621.551514,524.322510,1.476057
-528.808594,626.037598,528.259277,1.476822
-538.421631,619.171143,522.674561,1.477565
-535.125732,627.685547,529.632568,1.478309
-537.139893,625.671387,527.343750,1.479051
-531.372070,629.425049,532.287598,1.479794
-535.583496,623.199463,525.787354,1.480528
-532.836914,619.354248,524.505615,1.481261
-529.174805,616.699219,516.540527,1.481995
-528.625488,617.156982,519.378662,1.482747
-531.188965,621.002197,519.378662,1.483489
-534.576416,623.657227,516.448975,1.484231
-544.006348,626.037598,528.259277,1.484973
-544.830322,619.079590,527.069092,1.485723
-532.836914,626.129150,533.935547,1.486465
-530.181885,626.220703,541.076660,1.487254
-537.139893,629.333496,543.914795,1.488000
-534.393311,632.995605,531.188965,1.488744
-538.421631,628.875732,533.203125,1.489487
-534.759521,615.509033,528.259277,1.490231
-537.597656,606.628418,524.505615,1.490974
-535.034180,612.121582,522.491455,1.491730
-540.161133,604.797363,512.878418,1.492473
-533.477783,609.008789,508.666992,1.493216
-538.055420,603.240967,507.934570,1.493959
-547.027588,614.959717,523.406982,1.494702
-544.097900,612.030029,532.836914,1.495461
-548.217773,613.311768,535.125732,1.496286
-543.457031,621.826172,545.562744,1.497096
-539.062500,619.812012,551.422119,1.497888
-529.449463,618.255615,544.281006,1.498636
-534.942627,612.670898,532.836914,1.499378
-543.273926,610.107422,531.738281,1.500133
-549.041748,606.811523,522.308350,1.500924
-554.534912,610.748291,519.378662,1.501667
-550.964355,609.191895,520.935059,1.502409
-534.667969,608.367920,521.942139,1.503212
-541.625977,608.093262,527.709961,1.503955
-545.379639,612.487793,539.337158,1.504697
-541.809082,612.579346,546.936035,1.505439
-543.731689,610.198975,549.957275,1.506195
-542.999268,618.621826,549.682617,1.506939
-538.238525,623.474121,550.964355,1.507682
-561.767578,625.946045,556.823730,1.508426
-542.999268,624.298096,551.879883,1.509170
-548.126221,619.537354,553.619385,1.509914
-562.316895,618.255615,549.682617,1.510656
-557.189941,614.410400,545.104980,1.511406
-554.534912,619.903564,548.492432,1.512140
-544.738770,625.579834,549.774170,1.512873
-535.675049,624.206543,557.281494,1.513607
-535.675049,626.037598,568.634033,1.514342
-551.513672,632.171631,560.485840,1.515086
-547.119141,634.368896,576.324463,1.515830
-568.084717,635.009766,578.430176,1.516573
-553.802490,640.228271,579.071045,1.517353
-546.569824,678.771973,576.690674,1.518210
-540.435791,648.834229,570.739746,1.519059
-544.555664,649.108887,567.352295,1.519816
-546.295166,648.010254,569.183350,1.520560
-539.337158,644.348145,564.239502,1.521304
-537.597656,677.673340,568.359375,1.522204
-538.604736,671.813965,569.915771,1.522991
-546.020508,671.997070,578.796387,1.523751
-553.802490,664.398193,587.768555,1.524541
-553.253174,681.335449,591.156006,1.525309
-551.696777,675.018311,581.176758,1.526053
-537.506104,690.765381,589.691162,1.526809
-532.836914,699.829102,590.515137,1.527555
-528.533936,693.603516,587.677002,1.528299
-527.252197,698.638916,595.825195,1.529043
-540.252686,696.258545,599.212646,1.529833
-542.907715,697.814941,588.592529,1.530579
-545.104980,698.181152,595.642090,1.531337
-543.548584,705.322266,594.177246,1.532098
-539.154053,706.604004,598.480225,1.532845
-527.160645,705.047607,589.691162,1.533589
-516.174316,705.139160,598.663330,1.534350
-515.441895,701.751709,596.649170,1.535094
-495.117188,710.540771,589.416504,1.535837
-487.884521,724.914551,579.803467,1.536580
-482.391357,716.308594,581.726074,1.537333
-485.687256,698.272705,621.002197,1.538076
-491.729736,694.885254,662.750244,1.538819
-521.118164,678.405762,678.222656,1.539562
-524.414062,691.955566,706.054688,1.540305
-535.583496,710.083008,718.963623,1.541039
-536.865234,738.281250,721.527100,1.541772
-529.907227,744.140625,715.942383,1.542505
-531.188965,728.302002,699.279785,1.543263
-530.822754,726.654053,674.743652,1.544006
-523.681641,723.358154,648.010254,1.544750
-513.885498,701.934814,623.382568,1.545493
-501.525879,704.956055,588.317871,1.546246
-504.364014,700.286865,613.494873,1.547091
-513.885498,700.012207,648.651123,1.547838
-532.562256,702.941895,653.503418,1.548581
-535.858154,709.533691,691.497803,1.549329
-535.949707,720.245361,712.738037,1.550064
-537.048340,722.900391,727.294922,1.550797
-532.836914,713.470459,729.217529,1.551531
-532.653809,707.336426,713.836670,1.552285
-529.998779,687.561035,688.293457,1.553028
-517.547607,673.553467,659.271240,1.553772
-523.956299,653.411865,623.382568,1.554515
-542.724609,625.030518,607.910156,1.555345
-561.767578,620.452881,610.839844,1.556091
-558.013916,627.227783,610.198975,1.556834
-561.309814,623.657227,629.425049,1.557578
-563.690186,622.009277,657.989502,1.558321
-556.915283,630.432129,675.933838,1.559065
-561.584473,625.579834,686.370850,1.559808
-543.640137,624.938965,719.787598,1.560562
-539.794922,612.670898,722.900391,1.561305
-538.696289,607.086182,740.936279,1.562048
-534.393311,604.248047,746.337891,1.562782
-549.774170,608.917236,739.562988,1.563536
-575.408936,618.072510,737.640381,1.564279
-570.098877,614.593506,734.252930,1.565022
-609.283447,593.444824,715.576172,1.565764
-597.839355,579.803467,697.814941,1.566517
-576.782227,577.056885,670.349121,1.567260
-559.112549,554.443359,657.897949,1.568003
-531.738281,548.858643,675.659180,1.568833
-547.393799,554.626465,679.595947,1.569579
-545.104980,548.217773,684.997559,1.570312
-551.513672,538.696289,681.518555,1.571045
-558.105469,521.209717,666.870117,1.571779
-545.196533,521.942139,671.447754,1.572543
-572.204590,513.519287,662.750244,1.573286
-577.972412,480.743408,743.408203,1.574030
-605.529785,452.728271,807.678223,1.574773
-646.728516,529.724121,858.856201,1.575525
-643.615723,566.528320,854.370117,1.576269
-604.339600,543.090820,831.024170,1.577012
-589.965820,506.561279,775.360107,1.577755
-541.351318,503.448486,741.119385,1.578507
-509.765625,512.512207,684.722900,1.579250
-505.279541,523.406982,626.037598,1.579993
-508.026123,532.104492,619.720459,1.580736
-500.518799,535.858154,641.235352,1.581471
-548.492432,514.892578,661.651611,1.582205
-563.598633,501.342773,688.476562,1.582938
-568.634033,500.244141,682.434082,1.583672
-533.203125,508.117676,706.054688,1.584418
-533.386230,545.471191,725.555420,1.585161
-517.639160,551.513672,737.548828,1.585904
-503.631592,561.126709,762.359619,1.586647
-485.778809,583.282471,812.988281,1.587401
-511.138916,597.930908,790.557861,1.588152
-494.934082,682.159424,550.781250,1.588901
-445.404053,691.497803,448.333740,1.589683
-381.408691,634.643555,526.611328,1.590429
-294.433594,562.408447,693.054199,1.591173
-548.217773,560.119629,800.628662,1.591926
-584.838867,544.281006,828.277588,1.592689
-565.155029,545.288086,849.609375,1.593463
-640.594482,547.302246,889.617920,1.594242
-597.198486,567.993164,910.308838,1.594990
-599.853516,581.726074,940.246582,1.595733
-590.423584,628.234863,940.521240,1.596494
-514.892578,651.489258,965.148926,1.597263
-362.915039,703.216553,994.262695,1.598012
-404.754639,731.781006,1002.136230,1.598756
-422.424316,766.387939,1054.779053,1.599501
-492.279053,821.044922,1055.145264,1.600245
-451.171875,876.892090,1033.081055,1.600988
-373.626709,865.081787,1036.468506,1.601731
-443.481445,824.340820,1028.594971,1.602474
-647.735596,544.464111,974.670410,1.603217
-847.869873,661.560059,892.456055,1.603960
-578.338623,885.681152,843.933105,1.604703
-118.286133,560.760498,881.286621,1.605495
-53.283691,474.151611,827.178955,1.606232
-621.459961,872.131348,792.022705,1.606964
-105.102539,919.921875,789.367676,1.607698
-129.821777,1078.125000,828.186035,1.608462
-660.644531,633.636475,852.447510,1.609205
-532.012939,562.042236,682.891846,1.609948
-236.572266,352.386475,669.525146,1.610691
-103.912354,529.815674,645.355225,1.611444
-461.334229,795.501709,624.114990,1.612188
-360.534668,891.265869,626.037598,1.612931
-225.128174,723.358154,639.129639,1.613674
-450.347900,895.843506,657.073975,1.614427
-342.224121,1206.390381,652.404785,1.615171
692.413330,323.547363,795.227051,1.615914
813.354492,336.914062,819.305420,1.616657
-600.402832,-314.300537,858.581543,1.617400
17.303467,988.586426,478.088379,1.618133
575.592041,811.523438,457.305908,1.618867
-1038.024902,820.861816,518.829346,1.619601
-434.326172,848.327637,499.694824,1.620366
-151.062012,581.909180,534.667969,1.621101
-682.983398,824.981689,564.331055,1.621834
2.563477,657.989502,603.790283,1.622568
-461.975098,778.198242,665.954590,1.623329
-507.110596,1011.474609,680.328369,1.624073
-223.480225,50.445557,706.878662,1.624816
12.268066,765.563965,569.091797,1.625560
27.648926,1064.941406,577.148438,1.626311
-225.494385,687.377930,639.312744,1.627055
-495.025635,724.822998,584.838867,1.627799
-950.592041,779.296875,603.973389,1.628542
-420.776367,742.126465,537.963867,1.629296
382.415771,-104.736328,549.499512,1.630057
-176.879883,648.376465,477.539062,1.630802
-552.795410,809.234619,515.258789,1.631545
-313.018799,577.514648,452.728271,1.632299
-99.975586,366.394043,385.986328,1.633042
-157.745361,521.209717,287.933350,1.633809
-240.417480,623.199463,312.927246,1.634568
-226.593018,563.690186,323.272705,1.635312
-262.573242,596.557617,360.626221,1.636056
-274.108887,504.455566,401.733398,1.636847
-354.217529,487.976074,386.901855,1.637592
-523.040771,463.439941,347.442627,1.638336
-1011.291504,359.069824,352.935791,1.639079
-1443.786621,342.590332,444.488525,1.639906
-1247.131348,293.884277,411.437988,1.640665
-971.191406,402.648926,388.549805,1.641409
-749.450684,440.185547,420.043945,1.642152
-637.390137,501.892090,446.685791,1.642895
-703.491211,528.167725,432.952881,1.643630
-784.149170,545.562744,444.030762,1.644363
-729.400635,539.703369,467.285156,1.645096
-725.280762,490.905762,440.826416,1.645830
-824.066162,393.035889,397.155762,1.646586
-749.450684,350.097656,389.099121,1.647330
-576.782227,337.280273,398.712158,1.648073
-534.851074,317.138672,409.515381,1.648816
-526.702881,302.032471,416.564941,1.649560
-497.406006,279.052734,355.224609,1.650303
-440.643311,291.870117,347.625732,1.651046
-385.253906,274.841309,363.464355,1.651789
-381.958008,217.254639,367.675781,1.652533
-363.739014,209.289551,357.238770,1.653275
-155.731201,236.206055,292.785645,1.654018
-277.770996,234.008789,372.344971,1.654762
-522.674561,166.076660,384.704590,1.655502
-492.004395,143.554688,382.049561,1.656236
-220.275879,169.921875,393.493652,1.656969
-241.516113,176.605225,398.437500,1.657703
-307.708740,169.006348,377.380371,1.658450
-287.841797,196.197510,378.753662,1.659194
-229.339600,209.838867,371.795654,1.659937
-244.262695,221.923828,366.302490,1.660680
-273.284912,233.093262,362.091064,1.661423
-260.284424,242.156982,328.948975,1.662179
-207.824707,252.410889,343.414307,1.662941
-216.705322,276.947021,329.772949,1.663730
-227.966309,268.066406,308.441162,1.664477
-222.839355,261.016846,307.067871,1.665221
-208.282471,255.981445,310.913086,1.665964
-175.140381,229.614258,357.421875,1.666751
-107.574463,244.537354,335.357666,1.667535
-49.163818,254.241943,334.442139,1.668300
-97.778320,265.594482,324.737549,1.669049
-114.349365,267.517090,298.370361,1.669792
-158.020020,272.460938,307.891846,1.670554
-202.697754,263.031006,344.146729,1.671298
-236.297607,255.432129,346.252441,1.672041
-146.484375,276.397705,355.682373,1.672784
-128.173828,285.461426,356.872559,1.673536
-128.723145,291.137695,381.134033,1.674280
-126.068115,297.363281,393.402100,1.675023
-119.384766,284.362793,392.211914,1.675766
-136.779785,308.807373,407.409668,1.676511
-130.371094,301.391602,410.980225,1.677247
-107.574463,324.920654,439.544678,1.678040
-81.390381,274.291992,510.955811,1.678836
-254.333496,355.499268,540.710449,1.679595
-152.343750,311.462402,501.525879,1.680340
151.977539,273.010254,526.794434,1.681083
-60.516357,346.069336,637.756348,1.681826
-50.720215,319.793701,643.432617,1.682579
145.751953,376.007080,625.579834,1.683323
164.062500,395.050049,652.038574,1.684066
-2.380371,396.972656,675.659180,1.684809
-29.663086,411.529541,678.222656,1.685552
0.549316,439.270020,678.588867,1.686285
12.176514,477.996826,705.963135,1.687019
12.268066,503.173828,734.161377,1.687753
32.409668,509.857178,737.274170,1.688511
21.972656,561.584473,751.281738,1.689254
19.958496,581.451416,744.049072,1.689997
19.042969,577.148438,750.640869,1.690740
-3.387451,569.641113,781.219482,1.691493
-4.577637,588.317871,791.473389,1.692236
56.671143,621.459961,798.065186,1.692979
58.776855,623.840332,844.390869,1.693723
-17.486572,629.333496,863.983154,1.694465
-18.127441,573.120117,886.871338,1.695199
1.098633,543.365479,928.527832,1.695932
-61.157227,501.434326,968.811035,1.696665
-60.150146,509.033203,978.790283,1.697409
42.205811,479.827881,982.177734,1.698142
94.573975,508.483887,979.980469,1.698875
168.457031,509.582520,973.663330,1.699609
249.847412,484.954834,968.444824,1.700372
270.996094,491.455078,960.571289,1.701116
288.482666,495.574951,926.330566,1.701859
291.229248,502.990723,900.878906,1.702603
290.496826,499.328613,891.448975,1.703355
257.904053,522.033691,858.215332,1.704099
274.017334,522.949219,839.904785,1.704842
246.459961,517.822266,810.607910,1.705585
207.824707,474.975586,777.648926,1.706338
107.482910,455.841064,756.958008,1.707081
-8.514404,406.219482,721.801758,1.707824
-85.052490,401.275635,686.370850,1.708607
-104.919434,438.903809,656.524658,1.709351
-106.384277,448.333740,637.298584,1.710095
-118.103027,471.679688,617.523193,1.710838
-131.469727,480.377197,614.593506,1.711663
-126.892090,480.285645,615.417480,1.712407
-135.589600,475.067139,615.325928,1.713150
-139.984131,478.546143,627.685547,1.713894
-128.540039,465.087891,633.087158,1.714637
-122.772217,467.193604,628.784180,1.715391
-105.926514,471.038818,633.270264,1.716135
-131.835938,478.179932,647.003174,1.716878
-147.674561,490.631104,644.531250,1.717622
-166.351318,514.801025,653.503418,1.718369
-171.844482,522.674561,649.658203,1.719103
-178.802490,530.181885,645.629883,1.719863
-190.155029,527.160645,649.383545,1.720607
-150.970459,541.717529,654.968262,1.721350
-10.894775,558.654785,661.834717,1.722093
-64.910889,565.429688,703.216553,1.722836
-191.711426,529.083252,738.922119,1.723581
-222.198486,544.006348,715.026855,1.724324
-209.564209,582.733154,692.230225,1.725067
-239.776611,578.887939,736.175537,1.725810
-203.704834,576.416016,739.837646,1.726558
-184.204102,601.226807,749.450684,1.727291
-192.260742,599.761963,746.337891,1.728025
-226.226807,604.248047,764.831543,1.728758
-232.635498,593.078613,766.845703,1.729492
-250.488281,595.458984,776.000977,1.730249
-245.361328,592.803955,788.452148,1.730992
-238.952637,606.262207,795.776367,1.731735
-243.530273,624.206543,787.719727,1.732478
-226.226807,626.312256,754.852295,1.733249
-314.483643,599.121094,774.810791,1.734000
-438.171387,561.309814,762.084961,1.734772
-517.913818,542.907715,765.014648,1.735522
-462.066650,562.591553,744.873047,1.736266
-385.528564,585.571289,738.830566,1.737009
-382.232666,577.697754,756.774902,1.737759
-403.198242,583.190918,750.732422,1.738523
-403.015137,582.458496,739.654541,1.739305
-385.345459,588.958740,722.625732,1.740054
-410.980225,596.191406,724.914551,1.740797
-399.078369,601.684570,727.386475,1.741556
-392.303467,612.579346,722.259521,1.742300
-416.473389,624.755859,732.971191,1.743042
-415.557861,623.107910,728.302002,1.743785
-404.022217,633.361816,734.893799,1.744528
-406.036377,643.615723,763.366699,1.745271
-396.148682,636.657715,793.304443,1.746014
-374.816895,652.313232,803.466797,1.746757
-370.422363,640.869141,829.925537,1.747495
-355.316162,656.250000,844.024658,1.748229
-318.145752,667.694092,852.630615,1.748963
-321.807861,667.144775,857.666016,1.749698
-318.237305,667.694092,860.412598,1.750443
-316.772461,657.531738,852.081299,1.751177
-314.758301,663.299561,843.292236,1.751910
-317.962646,676.849365,818.572998,1.752644
-306.793213,678.680420,797.332764,1.753379
-306.335449,693.511963,766.662598,1.754123
-297.637939,705.963135,738.372803,1.754865
-299.377441,692.687988,735.443115,1.755608
-313.659668,696.258545,739.105225,1.756351
-286.926270,692.321777,739.105225,1.757095
-294.342041,713.470459,748.901367,1.757839
-286.010742,713.653564,763.824463,1.758582
-289.581299,729.125977,788.452148,1.759332
-278.411865,723.083496,802.093506,1.760075
-299.102783,736.083984,814.544678,1.760818
-307.617188,738.464355,805.847168,1.761561
-301.208496,753.204346,800.720215,1.762304
-336.364746,762.268066,796.783447,1.763049
-347.717285,767.303467,782.684326,1.763783
-351.379395,768.035889,783.416748,1.764516
-370.788574,777.465820,773.803711,1.765250
-376.739502,780.303955,771.697998,1.766007
-385.070801,794.860840,766.754150,1.766741
-381.866455,789.276123,773.162842,1.767474
-388.275146,790.100098,777.465820,1.768208
-388.824463,780.029297,780.670166,1.768962
-390.563965,774.078369,783.233643,1.769706
-386.444092,762.451172,786.804199,1.770448
-389.099121,757.415771,786.437988,1.771192
-378.845215,755.676270,789.733887,1.771944
-392.211914,747.802734,793.121338,1.772687
-394.317627,765.106201,764.099121,1.773431
-387.634277,780.120850,757.598877,1.774174
-401.367188,777.923584,755.310059,1.774927
-417.205811,783.508301,750.457764,1.775670
-426.452637,742.309570,741.943359,1.776413
-431.854248,724.639893,754.211426,1.777176
-400.451660,712.097168,741.210938,1.777920
-406.127930,703.399658,741.210938,1.778663
-387.634277,706.787109,703.948975,1.779406
-371.246338,696.350098,695.343018,1.780148
-374.267578,706.329346,676.849365,1.780902
-370.422363,706.329346,654.327393,1.781645
-384.429932,694.519043,652.496338,1.782388
-401.458740,693.237305,644.073486,1.783216
-411.346436,684.448242,648.834229,1.783951
-408.142090,680.053711,641.326904,1.784684
-398.895264,694.610596,636.840820,1.785418
-422.698975,673.553467,630.981445,1.786151
-399.078369,657.531738,620.544434,1.786901
-402.008057,620.910645,610.107422,1.787634
-382.965088,638.397217,621.368408,1.788367
-353.210449,623.657227,607.269287,1.789101
-368.499756,632.446289,619.079590,1.789858
-344.604492,601.593018,598.480225,1.790602
-359.436035,603.881836,597.656250,1.791345
-368.499756,594.177246,595.092773,1.792088
-363.372803,599.853516,589.782715,1.792840
-354.949951,588.317871,582.458496,1.793584
-318.969727,561.035156,582.275391,1.794327
-296.630859,538.238525,576.141357,1.795070
-349.456787,487.609863,584.930420,1.795813
-414.916992,530.090332,601.959229,1.796547
-366.485596,572.937012,585.571289,1.797280
-319.976807,611.572266,567.901611,1.798014
-350.738525,619.171143,550.048828,1.798777
-343.963623,598.571777,546.752930,1.799520
-318.237305,564.331055,537.139893,1.800262
-341.308594,584.472656,533.935547,1.801004
-448.516846,562.683105,503.265381,1.801755
-486.694336,578.430176,479.461670,1.802497
-376.464844,590.515137,486.419678,1.803239
-351.470947,584.289551,519.561768,1.803981
-396.331787,555.908203,518.463135,1.804733
-399.993896,548.858643,512.145996,1.805491
-395.050049,550.689697,513.610840,1.806249
-404.846191,542.999268,510.406494,1.807047
-415.100098,540.435791,516.723633,1.807816
-407.226562,545.104980,515.625000,1.808628
-420.043945,554.260254,507.843018,1.809375
-499.053955,562.774658,500.885010,1.810171
-527.618408,577.697754,504.547119,1.810928
-565.521240,565.338135,507.293701,1.811677
-606.262207,565.612793,506.195068,1.812447
-657.165527,557.647705,513.153076,1.813215
-664.489746,562.316895,533.111572,1.813958
-680.328369,571.289062,544.372559,1.814702
-668.975830,583.374023,558.654785,1.815446
-624.755859,611.572266,594.177246,1.816199
-582.916260,631.164551,608.001709,1.816942
-478.637695,654.785156,645.629883,1.817685
-431.854248,665.039062,680.236816,1.818428
-348.815918,691.223145,683.074951,1.819171
-296.081543,706.054688,700.195312,1.819905
-288.299561,714.111328,699.371338,1.820639
-267.517090,719.970703,685.821533,1.821373
-261.657715,723.358154,661.376953,1.822136
-271.911621,735.717773,655.792236,1.822880
-281.799316,730.224609,622.283936,1.823623
-299.652100,726.562500,608.001709,1.824366
-342.407227,731.414795,584.106445,1.825119
-365.203857,729.858398,578.613281,1.825862
-402.099609,743.041992,586.303711,1.826605
-438.995361,766.571045,623.565674,1.827348
-428.375244,773.620605,642.242432,1.828091
-433.868408,788.269043,683.441162,1.828835
-428.558350,811.981201,709.991455,1.829577
-415.924072,821.411133,730.499268,1.830320
-419.769287,838.348389,747.985840,1.831057
-412.994385,844.940186,756.408691,1.831791
-411.621094,857.116699,772.430420,1.832524
-417.480469,853.454590,778.472900,1.833257
-427.642822,848.876953,772.613525,1.834015
-432.220459,850.982666,771.057129,1.834759
-444.946289,858.947754,770.416260,1.835503
-463.714600,854.553223,757.324219,1.836245
-469.116211,855.285645,751.464844,1.836985
-485.961914,861.877441,760.894775,1.837718
-488.342285,862.335205,751.098633,1.838452
-482.482910,868.927002,747.344971,1.839185
-484.130859,857.666016,773.620605,1.839922
-479.370117,851.348877,774.261475,1.840664
-470.489502,846.313477,786.804199,1.841406
-465.728760,853.729248,783.416748,1.842149
-451.629639,846.496582,782.226562,1.842891
-424.987793,858.398438,785.156250,1.843633
-448.608398,856.384277,759.429932,1.844374
-440.368652,846.221924,771.148682,1.845122
-440.368652,840.087891,758.056641,1.845867
-441.192627,819.488525,740.753174,1.846610
-434.143066,822.326660,735.260010,1.847354
-419.036865,829.650879,713.104248,1.848096
-420.410156,807.769775,731.048584,1.848849
-409.332275,801.452637,726.196289,1.849592
-405.120850,799.346924,713.012695,1.850335
-398.986816,801.635742,715.393066,1.851079
-395.507812,793.212891,718.414307,1.851816
-391.204834,792.297363,727.478027,1.852550
-386.718750,784.790039,730.316162,1.853283
-393.676758,791.656494,735.076904,1.854103
-387.725830,796.325684,737.182617,1.854847
-395.690918,790.832520,734.985352,1.855590
-386.444092,791.381836,730.590820,1.856333
-398.986816,785.522461,738.372803,1.857076
-394.592285,784.881592,739.379883,1.857820
-381.042480,780.303955,741.210938,1.858563
-369.140625,769.226074,739.379883,1.859306
-365.570068,783.782959,737.457275,1.860049
-356.048584,779.205322,737.640381,1.860793
-346.435547,781.402588,752.655029,1.861537
-331.054688,774.444580,744.873047,1.862280
-324.096680,779.754639,747.985840,1.863023
-313.293457,776.458740,753.845215,1.863770
-313.568115,783.325195,759.613037,1.864504
-303.680420,771.148682,771.514893,1.865237
-294.982910,781.677246,776.733398,1.865971
-293.334961,789.825439,762.268066,1.866713
-295.806885,793.029785,770.233154,1.867457
-285.827637,779.754639,770.782471,1.868198
-285.919189,779.113770,770.690918,1.868940
-279.693604,783.416748,774.810791,1.869681
-279.235840,771.881104,778.564453,1.870431
-280.975342,769.775391,786.437988,1.871173
-269.073486,774.261475,783.599854,1.871916
-268.890381,771.881104,779.022217,1.872658
-261.840820,770.050049,786.529541,1.873409
-257.812500,762.908936,793.579102,1.874151
-261.657715,765.747070,780.853271,1.874893
-253.509521,758.697510,789.001465,1.875634
-250.305176,747.161865,783.142090,1.876395
-251.037598,734.985352,781.494141,1.877150
-235.656738,741.943359,778.747559,1.877899
-228.332520,733.886719,772.521973,1.878682
-218.811035,730.407715,768.768311,1.879477
-220.275879,721.252441,755.126953,1.880224
-213.867188,720.245361,752.746582,1.880968
-216.064453,706.329346,745.971680,1.881729
-209.838867,708.526611,740.203857,1.882493
-202.606201,701.843262,736.358643,1.883242
-199.493408,697.814941,733.612061,1.884013
-190.979004,690.124512,733.428955,1.884785
-190.155029,692.504883,729.034424,1.885528
-172.851562,685.272217,721.343994,1.886272
-177.520752,685.455322,715.759277,1.887015
-177.612305,679.138184,710.540771,1.887768
-141.998291,687.561035,713.104248,1.888512
-160.217285,692.687988,709.533691,1.889256
-153.076172,693.511963,705.139160,1.889999
-150.146484,689.025879,704.498291,1.890746
-148.223877,681.610107,713.195801,1.891482
-119.934082,687.835693,707.611084,1.892215
-134.857178,694.152832,705.596924,1.892948
-131.835938,688.568115,702.850342,1.893710
-130.371094,687.927246,714.111328,1.894454
-125.701904,687.469482,708.984375,1.895197
-126.342773,685.089111,703.399658,1.895941
-124.420166,690.399170,701.751709,1.896753
-123.413086,686.096191,708.435059,1.897500
-118.927002,690.582275,711.364746,1.898243
-114.440918,695.434570,718.780518,1.898986
-115.081787,695.434570,719.055176,1.899739
-116.729736,705.963135,723.449707,1.900483
-116.638184,699.920654,730.499268,1.901226
-117.645264,713.012695,733.337402,1.901969
-123.046875,727.844238,734.344482,1.902721
-122.039795,731.231689,745.605469,1.903464
-116.821289,727.569580,761.901855,1.904207
-112.426758,735.900879,762.634277,1.904951
-125.152588,741.851807,775.543213,1.905695
-131.744385,773.071289,781.494141,1.906429
-114.807129,758.789062,775.817871,1.907162
-126.525879,756.225586,779.571533,1.907896
-127.716064,750.915527,794.860840,1.908658
-122.863770,766.662598,780.487061,1.909462
-118.286133,766.754150,782.958984,1.910209
-110.961914,771.881104,786.621094,1.910957
-109.863281,774.169922,784.515381,1.911691
-102.905273,776.641846,773.071289,1.912424
-106.567383,784.698486,773.712158,1.913157
-103.179932,791.931152,771.514893,1.913890
-106.842041,788.909912,777.923584,1.914651
-101.348877,795.776367,777.832031,1.915395
-90.087891,788.635254,781.585693,1.916138
-93.383789,799.530029,781.311035,1.916882
-101.074219,802.551270,782.958984,1.917625
-94.573975,816.467285,778.747559,1.918359
-96.496582,811.431885,768.585205,1.919092
-100.616455,804.199219,771.606445,1.919826
-95.855713,815.185547,782.043457,1.920583
-96.038818,810.791016,776.824951,1.921327
-100.982666,820.495605,787.445068,1.922131
-109.222412,827.728271,789.733887,1.922918
-109.130859,830.291748,794.403076,1.923663
-108.032227,839.996338,798.065186,1.924406
-118.194580,838.806152,801.269531,1.925234
-119.659424,850.708008,806.121826,1.925989
-121.856689,857.849121,809.600830,1.926732
-128.540039,866.729736,808.776855,1.927476
-130.462646,871.856689,807.861328,1.928220
-138.153076,881.652832,800.720215,1.928964
-141.540527,900.878906,800.994873,1.929698
-151.062012,890.075684,802.185059,1.930431
-158.020020,873.321533,799.530029,1.931165
-156.280518,873.046875,796.051025,1.931922
-169.097900,876.708984,788.452148,1.932666
-179.992676,872.497559,788.726807,1.933409
-178.070068,878.814697,771.331787,1.934153
-161.865234,874.420166,779.846191,1.934906
-180.084229,874.969482,768.493652,1.935650
-182.281494,874.786377,793.579102,1.936393
-170.654297,878.448486,769.775391,1.937137
-177.520752,884.674072,777.557373,1.937890
-175.506592,886.688232,778.930664,1.938634
-171.112061,878.265381,783.508301,1.939377
-162.231445,879.913330,795.043945,1.940121
-161.682129,884.490967,795.410156,1.940866
-160.034180,887.512207,787.353516,1.941600
-168.182373,882.568359,790.924072,1.942334
-163.055420,882.751465,793.395996,1.943067
-167.724609,877.990723,774.444580,1.943819
-175.415039,877.349854,790.740967,1.944563
-180.816650,868.652344,797.607422,1.945307
-167.358398,870.208740,800.537109,1.946051
-182.281494,862.884521,796.234131,1.946820
-184.478760,864.990234,796.691895,1.947571
-179.809570,854.003906,799.346924,1.948361
-168.640137,853.637695,807.769775,1.949114
-168.640137,844.665527,814.178467,1.949927
-162.597656,833.038330,815.185547,1.950679
-173.217773,816.925049,811.248779,1.951440
-162.963867,814.910889,801.910400,1.952221
-156.005859,810.333252,819.396973,1.952998
-162.048340,800.903320,789.001465,1.953747
-171.020508,784.423828,779.663086,1.954491
-148.681641,765.747070,766.845703,1.955237
-145.477295,751.281738,743.591309,1.955981
-150.421143,740.936279,744.415283,1.956725
-134.490967,727.203369,730.682373,1.957468
-130.279541,718.139648,718.048096,1.958220
-130.004883,706.146240,712.188721,1.958963
-133.758545,676.483154,700.286865,1.959706
-133.209229,672.637939,697.540283,1.960450
-124.786377,660.186768,692.413330,1.961190
-125.610352,655.609131,678.405762,1.961924
-131.561279,651.763916,678.222656,1.962658
-136.871338,636.474609,668.975830,1.963391
-131.378174,629.882812,675.018311,1.964128
-131.744385,617.065430,664.764404,1.964872
-134.033203,618.530273,668.060303,1.965616
-119.750977,613.677979,664.855957,1.966360
-121.582031,593.627930,663.574219,1.967111
-113.250732,592.254639,656.158447,1.967855
-104.278564,589.324951,666.778564,1.968599
-94.299316,587.402344,677.581787,1.969343
-79.742432,588.684082,676.574707,1.970087
-66.101074,583.740234,674.285889,1.970831
-60.607910,584.381104,669.891357,1.971575
-58.502197,568.908691,674.560547,1.972318
-57.769775,550.872803,669.342041,1.973061
-38.269043,555.541992,668.243408,1.973806
-69.305420,559.478760,662.475586,1.974540
-48.248291,547.485352,664.581299,1.975273
-40.832520,535.034180,652.587891,1.976007
-38.085938,523.773193,638.214111,1.976764
-43.212891,516.998291,638.946533,1.977510
-41.564941,499.420166,637.756348,1.978258
-45.410156,471.313477,625.122070,1.979064
-43.212891,481.933594,588.775635,1.979825
-57.403564,462.707520,606.353760,1.980574
-57.312012,450.439453,580.444336,1.981350
-59.051514,448.059082,575.408936,1.982120
-55.480957,435.791016,543.640137,1.982923
-56.671143,425.079346,547.576904,1.983686
-53.924561,430.297852,529.541016,1.984443
-43.670654,429.290771,504.547119,1.985291
-45.593262,447.235107,496.582031,1.986056
-38.452148,454.193115,493.194580,1.986812
-18.676758,463.439941,490.264893,1.987651
-19.042969,470.947266,478.637695,1.988440
5.035400,483.032227,469.573975,1.989195
-1.190186,502.258301,457.122803,1.989939
-6.774902,503.173828,455.383301,1.990682
5.401611,533.386230,443.481445,1.991424
19.134521,548.583984,437.988281,1.992167
-9.887695,565.338135,442.657471,1.992910
2.380371,594.360352,430.389404,1.993653
-3.021240,614.868164,427.093506,1.994396
-17.669678,625.854492,432.861328,1.995138
1.007080,660.003662,438.812256,1.995893
1.556396,673.095703,444.854736,1.996626
-7.781982,677.215576,449.798584,1.997359
-23.712158,703.308105,469.299316,1.998176
6.225586,733.337402,489.349365,1.998917
-3.204346,768.035889,525.878906,1.999662
-37.994385,766.754150,539.062500,2.000405
-10.528564,804.748535,560.485840,2.001149
-12.451172,810.241699,563.323975,2.001892
-58.319092,826.263428,590.057373,2.002636
-35.797119,860.229492,610.015869,2.003380
-13.092041,872.955322,619.354248,2.004123
-58.135986,896.392822,643.707275,2.004867
-57.586670,904.907227,656.250000,2.005611
-17.028809,919.281006,675.659180,2.006355
-33.508301,954.620361,704.681396,2.007098
-57.586670,948.211670,729.125977,2.007851
-36.346436,993.804932,735.992432,2.008636
-48.889160,997.467041,750.366211,2.009381
-80.932617,987.030029,792.663574,2.010125
-65.734863,1004.516602,810.058594,2.010879
-54.473877,1018.890381,816.192627,2.011622
-84.869385,1032.989502,832.580566,2.012366
-86.883545,1040.130615,832.672119,2.013109
-68.481445,1065.216064,872.863770,2.013866
-83.129883,1075.836182,905.548096,2.014625
-92.742920,1075.378418,907.379150,2.015374
-76.904297,1095.245361,923.034668,2.016118
-85.327148,1101.104736,936.035156,2.016871
-75.531006,1139.007568,958.374023,2.017617
-89.630127,1143.310547,992.706299,2.018356
-136.322021,1151.275635,1008.728027,2.019118
-152.069092,1148.254395,1038.391113,2.019876
-145.294189,1153.015137,1048.645020,2.020610
-139.434814,1160.797119,1061.462402,2.021344
-145.843506,1161.712646,1084.442139,2.022078
-151.794434,1138.092041,1090.026855,2.022835
-125.335693,1123.718262,1112.915039,2.023579
-64.636230,1079.040527,1130.401611,2.024350
-76.721191,1093.414307,1109.069824,2.025127
-165.344238,1077.941895,1123.992920,2.025900
-162.048340,1043.334961,1084.533691,2.026645
-157.012939,1042.694092,1031.341553,2.027389
-216.522217,991.973877,1009.094238,2.028133
-238.037109,975.128174,959.930420,2.028887
-248.291016,969.909668,938.232422,2.029632
-251.037598,958.190918,907.379150,2.030376
-243.072510,946.105957,882.476807,2.031119
-230.529785,937.683105,826.904297,2.031863
184.570312,929.992676,649.749756,2.032597
35.797119,835.235596,581.451416,2.033330
-662.750244,817.108154,453.094482,2.034064
-228.332520,862.426758,457.946777,2.034823
134.948730,833.038330,510.223389,2.035570
-181.915283,716.400146,505.462646,2.036314
-107.116699,730.133057,462.890625,2.037057
-51.086426,701.019287,442.199707,2.037830
-245.910645,630.981445,440.917969,2.038577
-127.899170,613.952637,416.931152,2.039321
-179.351807,597.564697,440.185547,2.040101
-215.972900,645.904541,397.888184,2.040849
-218.811035,465.362549,394.866943,2.041593
-291.412354,454.559326,532.012939,2.042336
-222.381592,399.444580,461.700439,2.043106
-173.675537,525.512695,428.833008,2.043849
-278.411865,476.989746,410.339355,2.044593
-186.950684,471.313477,412.719727,2.045337
-98.144531,447.967529,373.077393,2.046091
-163.879395,463.897705,352.752686,2.046835
-86.608887,450.988770,339.843750,2.047579
-35.614014,430.572510,325.653076,2.048322
-61.889648,417.663574,321.990967,2.049066
-35.247803,422.790527,278.228760,2.049799
-22.338867,413.726807,277.038574,2.050533
-8.331299,403.564453,284.362793,2.051266
-14.007568,387.542725,262.115479,2.052000
-34.790039,369.873047,257.171631,2.052734
-0.823975,312.835693,277.221680,2.053467
49.621582,301.208496,272.552490,2.054201
0.091553,313.201904,247.100830,2.054950
-31.951904,361.724854,200.866699,2.055694
30.212402,348.083496,187.225342,2.056437
-35.705566,320.800781,221.832275,2.057197
33.233643,392.028809,177.795410,2.057952
37.078857,469.665527,124.053955,2.058695
34.149170,507.385254,113.433838,2.059439
29.937744,525.695801,87.707520,2.060182
34.790039,549.224854,81.024170,2.060934
20.782471,510.864258,68.206787,2.061678
33.966064,367.584229,178.527832,2.062421
81.390381,354.675293,200.683594,2.063165
115.081787,430.297852,74.432373,2.063908
-91.735840,436.981201,86.059570,2.064642
118.011475,428.558350,178.985596,2.065375
160.125732,464.996338,132.293701,2.066108
6.317139,539.062500,124.511719,2.066852
14.465332,473.968506,145.568848,2.067595
111.053467,429.931641,180.175781,2.068339
58.868408,460.327148,242.614746,2.069082
53.375244,470.306396,166.992188,2.069826
92.559814,498.596191,194.641113,2.070660
116.821289,535.400391,249.114990,2.071404
115.905762,551.239014,252.777100,2.072147
164.794922,538.787842,246.276855,2.072890
158.660889,442.565918,243.530273,2.073634
77.087402,425.262451,253.051758,2.074377
118.103027,431.213379,220.916748,2.075121
126.617432,446.594238,207.916260,2.075857
92.285156,444.396973,202.880859,2.076619
107.574463,466.369629,180.450439,2.077364
111.877441,495.849609,156.372070,2.078107
57.769775,529.541016,139.160156,2.078862
109.405518,540.802002,105.926514,2.079605
127.441406,517.364502,110.595703,2.080349
91.278076,510.864258,87.615967,2.081092
109.222412,493.652344,62.530518,2.081846
16.845703,517.089844,106.475830,2.082589
142.822266,514.434814,100.250244,2.083332
190.338135,556.274414,74.157715,2.084075
73.242188,567.260742,88.806152,2.084818
49.438477,542.724609,108.215332,2.085551
138.153076,548.309326,104.827881,2.086284
141.815186,538.055420,103.454590,2.087017
93.750000,521.209717,81.024170,2.087775
91.827393,544.006348,77.270508,2.088519
138.885498,629.425049,22.430420,2.089262
149.505615,606.353760,12.542725,2.090005
73.516846,586.669922,8.605957,2.090755
