ACC_X,ACC_Y,ACC_Z
708.575989,413.824005,562.176025
702.719971,407.967987,554.367981
700.768005,415.776001,564.127991
694.911987,411.872009,566.080017
700.768005,421.631989,575.840027
700.768005,409.920013,564.127991
700.768005,417.727997,564.127991
706.624023,417.727997,554.367981
700.768005,409.920013,552.416016
704.671997,409.920013,568.031982
704.671997,413.824005,564.127991
698.815979,415.776001,564.127991
710.528015,407.967987,566.080017
704.671997,406.015991,571.935974
706.624023,413.824005,560.223999
708.575989,407.967987,564.127991
712.479980,415.776001,562.176025
720.288025,417.727997,569.984009
698.815979,417.727997,566.080017
706.624023,415.776001,568.031982
710.528015,411.872009,569.984009
708.575989,404.063995,566.080017
720.288025,404.063995,573.888000
710.528015,406.015991,573.888000
714.432007,417.727997,575.840027
720.288025,407.967987,566.080017
720.288025,411.872009,575.840027
714.432007,404.063995,575.840027
720.288025,413.824005,579.744019
720.288025,411.872009,579.744019
716.383972,411.872009,573.888000
716.383972,415.776001,575.840027
718.335999,415.776001,583.648010
722.239990,415.776001,571.935974
714.432007,411.872009,569.984009
716.383972,404.063995,575.840027
726.143982,402.112000,579.744019
724.192017,406.015991,573.888000
732.000000,409.920013,583.648010
728.096008,409.920013,575.840027
726.143982,411.872009,583.648010
720.288025,407.967987,577.791992
722.239990,406.015991,569.984009
724.192017,407.967987,564.127991
720.288025,409.920013,571.935974
720.288025,411.872009,569.984009
720.288025,415.776001,573.888000
718.335999,406.015991,573.888000
720.288025,406.015991,569.984009
714.432007,400.160004,573.888000
710.528015,406.015991,573.888000
720.288025,415.776001,575.840027
718.335999,406.015991,571.935974
718.335999,411.872009,571.935974
716.383972,407.967987,571.935974
724.192017,404.063995,571.935974
722.239990,417.727997,577.791992
718.335999,411.872009,571.935974
724.192017,409.920013,568.031982
706.624023,411.872009,573.888000
720.288025,411.872009,568.031982
714.432007,411.872009,571.935974
718.335999,407.967987,579.744019
718.335999,411.872009,575.840027
716.383972,404.063995,566.080017
714.432007,406.015991,571.935974
724.192017,413.824005,569.984009
728.096008,409.920013,566.080017
718.335999,406.015991,571.935974
724.192017,404.063995,571.935974
718.335999,400.160004,569.984009
716.383972,400.160004,566.080017
720.288025,394.303986,573.888000
718.335999,398.208008,577.791992
716.383972,402.112000,571.935974
716.383972,400.160004,577.791992
718.335999,394.303986,571.935974
718.335999,400.160004,577.791992
714.432007,398.208008,577.791992
720.288025,402.112000,566.080017
716.383972,394.303986,573.888000
714.432007,406.015991,573.888000
718.335999,402.112000,571.935974
724.192017,396.256012,575.840027
720.288025,404.063995,579.744019
720.288025,406.015991,575.840027
716.383972,394.303986,579.744019
718.335999,394.303986,577.791992
710.528015,392.351990,579.744019
714.432007,386.496002,575.840027
714.432007,396.256012,577.791992
710.528015,390.399994,564.127991
716.383972,394.303986,564.127991
712.479980,394.303986,571.935974
716.383972,394.303986,577.791992
706.624023,392.351990,573.888000
712.479980,398.208008,571.935974
710.528015,394.303986,569.984009
708.575989,392.351990,575.840027
716.383972,402.112000,585.599976
712.479980,394.303986,575.840027
712.479980,394.303986,564.127991
710.528015,394.303986,569.984009
714.432007,394.303986,569.984009
712.479980,400.160004,571.935974
704.671997,396.256012,575.840027
706.624023,400.160004,575.840027
708.575989,392.351990,575.840027
694.911987,390.399994,573.888000
694.911987,396.256012,575.840027
706.624023,396.256012,562.176025
708.575989,398.208008,566.080017
708.575989,400.160004,558.271973
700.768005,398.208008,568.031982
694.911987,396.256012,568.031982
704.671997,400.160004,568.031982
698.815979,396.256012,568.031982
706.624023,390.399994,564.127991
702.719971,396.256012,571.935974
702.719971,392.351990,569.984009
702.719971,396.256012,566.080017
702.719971,388.447998,571.935974
700.768005,386.496002,564.127991
700.768005,390.399994,571.935974
704.671997,400.160004,569.984009
694.911987,396.256012,575.840027
704.671997,400.160004,581.695984
704.671997,394.303986,579.744019
702.719971,404.063995,587.552002
704.671997,398.208008,583.648010
714.432007,390.399994,587.552002
702.719971,396.256012,583.648010
698.815979,404.063995,587.552002
714.432007,404.063995,587.552002
706.624023,411.872009,597.312012
708.575989,402.112000,589.504028
708.575989,407.967987,589.504028
708.575989,400.160004,585.599976
704.671997,390.399994,587.552002
708.575989,400.160004,587.552002
698.815979,398.208008,573.888000
706.624023,404.063995,575.840027
704.671997,407.967987,573.888000
700.768005,390.399994,583.648010
698.815979,390.399994,575.840027
691.007996,394.303986,569.984009
698.815979,402.112000,569.984009
702.719971,398.208008,569.984009
706.624023,400.160004,571.935974
698.815979,398.208008,577.791992
694.911987,411.872009,566.080017
700.768005,398.208008,562.176025
700.768005,390.399994,566.080017
698.815979,398.208008,569.984009
704.671997,404.063995,569.984009
698.815979,400.160004,568.031982
696.864014,409.920013,571.935974
698.815979,411.872009,566.080017
696.864014,402.112000,568.031982
700.768005,404.063995,568.031982
704.671997,407.967987,562.176025
702.719971,407.967987,566.080017
694.911987,411.872009,566.080017
694.911987,407.967987,573.888000
704.671997,402.112000,569.984009
704.671997,396.256012,568.031982
704.671997,402.112000,566.080017
698.815979,400.160004,564.127991
712.479980,406.015991,571.935974
710.528015,398.208008,564.127991
706.624023,409.920013,568.031982
718.335999,404.063995,571.935974
712.479980,400.160004,587.552002
720.288025,406.015991,571.935974
714.432007,407.967987,583.648010
714.432007,402.112000,579.744019
716.383972,406.015991,573.888000
716.383972,406.015991,569.984009
726.143982,407.967987,568.031982
722.239990,407.967987,573.888000
726.143982,398.208008,569.984009
728.096008,402.112000,569.984009
722.239990,388.447998,566.080017
726.143982,392.351990,560.223999
722.239990,396.256012,566.080017
724.192017,392.351990,556.320007
737.856018,394.303986,552.416016
732.000000,400.160004,556.320007
733.952026,396.256012,562.176025
730.047974,390.399994,571.935974
741.760010,392.351990,569.984009
737.856018,400.160004,569.984009
741.760010,394.303986,566.080017
743.711975,400.160004,566.080017
749.567993,398.208008,569.984009
751.520020,392.351990,569.984009
751.520020,392.351990,569.984009
759.328003,390.399994,573.888000
763.231995,406.015991,583.648010
757.375977,396.256012,573.888000
751.520020,390.399994,571.935974
751.520020,386.496002,569.984009
759.328003,392.351990,568.031982
759.328003,390.399994,571.935974
753.471985,396.256012,564.127991
745.664001,388.447998,569.984009
745.664001,388.447998,568.031982
753.471985,380.640015,568.031982
759.328003,384.544006,571.935974
763.231995,388.447998,575.840027
759.328003,374.783997,564.127991
753.471985,382.592010,569.984009
757.375977,392.351990,558.271973
745.664001,392.351990,569.984009
753.471985,396.256012,564.127991
755.424011,382.592010,558.271973
763.231995,390.399994,571.935974
757.375977,390.399994,571.935974
757.375977,396.256012,579.744019
757.375977,398.208008,573.888000
755.424011,396.256012,562.176025
753.471985,386.496002,566.080017
751.520020,396.256012,573.888000
763.231995,386.496002,575.840027
753.471985,390.399994,573.888000
757.375977,390.399994,575.840027
753.471985,382.592010,577.791992
751.520020,386.496002,575.840027
741.760010,392.351990,569.984009
747.616028,398.208008,562.176025
737.856018,400.160004,566.080017
741.760010,407.967987,558.271973
753.471985,407.967987,564.127991
745.664001,402.112000,558.271973
737.856018,404.063995,552.416016
739.807983,396.256012,548.512024
737.856018,404.063995,552.416016
735.903992,396.256012,538.752014
737.856018,400.160004,540.703979
743.711975,402.112000,552.416016
733.952026,409.920013,540.703979
745.664001,411.872009,538.752014
745.664001,404.063995,542.656006
749.567993,404.063995,546.559998
755.424011,400.160004,548.512024
749.567993,400.160004,552.416016
759.328003,400.160004,558.271973
753.471985,402.112000,568.031982
763.231995,402.112000,579.744019
757.375977,407.967987,569.984009
757.375977,407.967987,581.695984
749.567993,421.631989,587.552002
749.567993,419.679993,587.552002
759.328003,417.727997,585.599976
761.280029,421.631989,587.552002
753.471985,425.536011,587.552002
763.231995,425.536011,581.695984
759.328003,429.440002,568.031982
755.424011,429.440002,566.080017
757.375977,425.536011,564.127991
747.616028,413.824005,562.176025
747.616028,421.631989,556.320007
751.520020,406.015991,556.320007
741.760010,409.920013,564.127991
743.711975,402.112000,558.271973
741.760010,411.872009,562.176025
743.711975,411.872009,552.416016
743.711975,415.776001,560.223999
741.760010,409.920013,560.223999
755.424011,419.679993,560.223999
737.856018,421.631989,558.271973
747.616028,421.631989,562.176025
743.711975,427.488007,556.320007
739.807983,441.152008,564.127991
741.760010,431.391998,558.271973
739.807983,439.200012,566.080017
737.856018,431.391998,566.080017
733.952026,433.343994,562.176025
733.952026,435.295990,568.031982
743.711975,441.152008,558.271973
737.856018,435.295990,564.127991
730.047974,431.391998,556.320007
730.047974,435.295990,556.320007
730.047974,429.440002,556.320007
728.096008,421.631989,564.127991
730.047974,423.584015,560.223999
730.047974,417.727997,558.271973
726.143982,423.584015,554.367981
726.143982,431.391998,556.320007
730.047974,425.536011,556.320007
728.096008,431.391998,556.320007
726.143982,433.343994,550.463989
722.239990,437.247986,556.320007
722.239990,437.247986,560.223999
732.000000,447.007996,566.080017
733.952026,443.104004,558.271973
730.047974,437.247986,558.271973
735.903992,448.959991,571.935974
724.192017,452.864014,573.888000
732.000000,448.959991,583.648010
724.192017,437.247986,571.935974
724.192017,447.007996,569.984009
722.239990,437.247986,568.031982
728.096008,441.152008,571.935974
724.192017,433.343994,566.080017
724.192017,439.200012,562.176025
718.335999,423.584015,564.127991
718.335999,427.488007,562.176025
724.192017,431.391998,566.080017
712.479980,437.247986,566.080017
720.288025,427.488007,560.223999
712.479980,433.343994,552.416016
720.288025,433.343994,560.223999
718.335999,443.104004,564.127991
720.288025,445.056000,562.176025
714.432007,439.200012,566.080017
716.383972,441.152008,566.080017
714.432007,433.343994,566.080017
714.432007,437.247986,571.935974
722.239990,441.152008,571.935974
728.096008,441.152008,571.935974
726.143982,437.247986,581.695984
722.239990,441.152008,577.791992
724.192017,431.391998,575.840027
722.239990,429.440002,583.648010
732.000000,433.343994,581.695984
728.096008,427.488007,573.888000
730.047974,429.440002,568.031982
730.047974,429.440002,573.888000
722.239990,421.631989,571.935974
724.192017,431.391998,575.840027
726.143982,417.727997,577.791992
726.143982,421.631989,569.984009
732.000000,417.727997,587.552002
732.000000,409.920013,575.840027
732.000000,413.824005,583.648010
732.000000,421.631989,579.744019
735.903992,409.920013,577.791992
733.952026,409.920013,577.791992
730.047974,413.824005,583.648010
730.047974,423.584015,585.599976
728.096008,419.679993,577.791992
741.760010,419.679993,581.695984
730.047974,413.824005,585.599976
726.143982,419.679993,585.599976
724.192017,423.584015,585.599976
730.047974,417.727997,585.599976
726.143982,417.727997,583.648010
735.903992,409.920013,573.888000
732.000000,419.679993,571.935974
728.096008,409.920013,573.888000
741.760010,404.063995,573.888000
745.664001,394.303986,573.888000
743.711975,398.208008,577.791992
739.807983,404.063995,573.888000
737.856018,407.967987,571.935974
735.903992,396.256012,577.791992
737.856018,406.015991,577.791992
735.903992,400.160004,577.791992
730.047974,400.160004,581.695984
743.711975,406.015991,583.648010
745.664001,398.208008,583.648010
737.856018,406.015991,583.648010
739.807983,404.063995,587.552002
741.760010,398.208008,595.359985
745.664001,400.160004,597.312012
741.760010,398.208008,595.359985
751.520020,402.112000,591.455994
745.664001,396.256012,589.504028
747.616028,394.303986,571.935974
745.664001,390.399994,587.552002
745.664001,382.592010,579.744019
745.664001,396.256012,585.599976
739.807983,376.735992,585.599976
741.760010,380.640015,579.744019
747.616028,380.640015,583.648010
745.664001,384.544006,581.695984
747.616028,378.687988,587.552002
747.616028,382.592010,587.552002
747.616028,376.735992,583.648010
741.760010,380.640015,581.695984
745.664001,382.592010,581.695984
743.711975,390.399994,581.695984
741.760010,386.496002,575.840027
753.471985,388.447998,577.791992
745.664001,392.351990,577.791992
751.520020,390.399994,577.791992
759.328003,384.544006,575.840027
753.471985,388.447998,569.984009
745.664001,384.544006,569.984009
755.424011,372.832001,577.791992
747.616028,370.880005,575.840027
749.567993,376.735992,568.031982
745.664001,376.735992,569.984009
741.760010,380.640015,568.031982
745.664001,380.640015,569.984009
747.616028,378.687988,568.031982
741.760010,380.640015,568.031982
751.520020,380.640015,562.176025
739.807983,380.640015,569.984009
745.664001,384.544006,569.984009
739.807983,380.640015,569.984009
743.711975,392.351990,569.984009
747.616028,382.592010,573.888000
741.760010,382.592010,569.984009
741.760010,382.592010,577.791992
743.711975,382.592010,575.840027
743.711975,378.687988,579.744019
745.664001,380.640015,579.744019
733.952026,382.592010,571.935974
741.760010,382.592010,569.984009
743.711975,398.208008,575.840027
743.711975,392.351990,575.840027
739.807983,388.447998,568.031982
737.856018,388.447998,568.031982
743.711975,386.496002,571.935974
745.664001,376.735992,564.127991
737.856018,384.544006,562.176025
739.807983,380.640015,568.031982
733.952026,380.640015,562.176025
733.952026,388.447998,564.127991
730.047974,382.592010,556.320007
730.047974,374.783997,554.367981
728.096008,390.399994,552.416016
724.192017,382.592010,554.367981
726.143982,380.640015,554.367981
724.192017,386.496002,556.320007
730.047974,386.496002,564.127991
718.335999,384.544006,556.320007
728.096008,374.783997,556.320007
728.096008,374.783997,550.463989
726.143982,392.351990,556.320007
728.096008,380.640015,556.320007
724.192017,386.496002,554.367981
722.239990,394.303986,560.223999
712.479980,390.399994,556.320007
710.528015,386.496002,550.463989
718.335999,392.351990,552.416016
720.288025,386.496002,548.512024
712.479980,374.783997,546.559998
710.528015,384.544006,542.656006
710.528015,384.544006,546.559998
708.575989,378.687988,554.367981
710.528015,382.592010,542.656006
706.624023,384.544006,548.512024
696.864014,376.735992,542.656006
700.768005,370.880005,538.752014
708.575989,380.640015,540.703979
708.575989,384.544006,540.703979
700.768005,376.735992,532.895996
704.671997,380.640015,552.416016
704.671997,378.687988,536.799988
691.007996,380.640015,542.656006
691.007996,378.687988,546.559998
694.911987,386.496002,540.703979
698.815979,378.687988,542.656006
692.960022,372.832001,542.656006
691.007996,388.447998,544.607971
692.960022,374.783997,546.559998
691.007996,382.592010,548.512024
692.960022,374.783997,540.703979
685.151978,376.735992,546.559998
691.007996,380.640015,542.656006
694.911987,361.119995,552.416016
694.911987,368.928009,548.512024
696.864014,366.976013,556.320007
696.864014,359.167999,544.607971
700.768005,357.216003,546.559998
694.911987,361.119995,546.559998
694.911987,368.928009,544.607971
696.864014,370.880005,554.367981
700.768005,363.071991,556.320007
710.528015,370.880005,554.367981
710.528015,363.071991,548.512024
700.768005,366.976013,556.320007
708.575989,366.976013,560.223999
698.815979,361.119995,558.271973
706.624023,365.023987,560.223999
702.719971,368.928009,558.271973
700.768005,366.976013,556.320007
700.768005,361.119995,560.223999
694.911987,355.264008,554.367981
692.960022,351.359985,554.367981
704.671997,357.216003,552.416016
696.864014,357.216003,552.416016
700.768005,353.312012,552.416016
702.719971,355.264008,552.416016
698.815979,353.312012,554.367981
700.768005,353.312012,554.367981
694.911987,351.359985,560.223999
712.479980,357.216003,556.320007
704.671997,361.119995,554.367981
706.624023,355.264008,560.223999
706.624023,357.216003,558.271973
704.671997,361.119995,564.127991
700.768005,351.359985,560.223999
698.815979,361.119995,566.080017
708.575989,355.264008,566.080017
710.528015,353.312012,568.031982
710.528015,361.119995,569.984009
712.479980,363.071991,571.935974
710.528015,361.119995,569.984009
706.624023,357.216003,566.080017
708.575989,357.216003,571.935974
702.719971,359.167999,583.648010
720.288025,365.023987,577.791992
710.528015,349.407990,573.888000
714.432007,355.264008,575.840027
710.528015,351.359985,568.031982
716.383972,349.407990,571.935974
712.479980,351.359985,564.127991
708.575989,355.264008,566.080017
710.528015,351.359985,573.888000
706.624023,359.167999,568.031982
712.479980,351.359985,569.984009
698.815979,355.264008,571.935974
702.719971,365.023987,569.984009
708.575989,353.312012,569.984009
708.575989,355.264008,569.984009
716.383972,355.264008,575.840027
720.288025,361.119995,579.744019
712.479980,359.167999,568.031982
710.528015,361.119995,577.791992
710.528015,361.119995,579.744019
710.528015,361.119995,579.744019
706.624023,363.071991,579.744019
700.768005,357.216003,571.935974
700.768005,353.312012,571.935974
712.479980,355.264008,564.127991
710.528015,361.119995,569.984009
716.383972,357.216003,579.744019
710.528015,351.359985,568.031982
708.575989,363.071991,569.984009
710.528015,361.119995,569.984009
716.383972,363.071991,571.935974
706.624023,366.976013,577.791992
714.432007,363.071991,569.984009
706.624023,370.880005,568.031982
710.528015,372.832001,568.031982
704.671997,363.071991,564.127991
708.575989,376.735992,564.127991
700.768005,372.832001,556.320007
702.719971,363.071991,560.223999
708.575989,372.832001,558.271973
712.479980,368.928009,571.935974
706.624023,380.640015,571.935974
704.671997,368.928009,571.935974
708.575989,378.687988,566.080017
706.624023,384.544006,568.031982
712.479980,378.687988,564.127991
704.671997,392.351990,566.080017
712.479980,392.351990,568.031982
700.768005,390.399994,554.367981
706.624023,390.399994,558.271973
704.671997,386.496002,554.367981
706.624023,376.735992,548.512024
700.768005,382.592010,558.271973
698.815979,386.496002,554.367981
708.575989,394.303986,548.512024
704.671997,392.351990,546.559998
702.719971,394.303986,556.320007
700.768005,392.351990,540.703979
700.768005,386.496002,546.559998
694.911987,384.544006,552.416016
698.815979,398.208008,546.559998
704.671997,392.351990,554.367981
704.671997,392.351990,554.367981
698.815979,394.303986,556.320007
704.671997,382.592010,554.367981
704.671997,392.351990,552.416016
700.768005,386.496002,571.935974
702.719971,394.303986,560.223999
708.575989,394.303986,568.031982
700.768005,402.112000,556.320007
702.719971,398.208008,554.367981
702.719971,404.063995,566.080017
700.768005,400.160004,568.031982
698.815979,394.303986,564.127991
694.911987,384.544006,564.127991
702.719971,404.063995,562.176025
702.719971,394.303986,568.031982
708.575989,388.447998,575.840027
704.671997,390.399994,562.176025
698.815979,388.447998,560.223999
698.815979,386.496002,560.223999
694.911987,392.351990,564.127991
704.671997,390.399994,577.791992
704.671997,396.256012,569.984009
708.575989,404.063995,569.984009
706.624023,398.208008,575.840027
704.671997,411.872009,566.080017
704.671997,406.015991,568.031982
708.575989,407.967987,566.080017
704.671997,407.967987,575.840027
708.575989,406.015991,558.271973
716.383972,400.160004,577.791992
706.624023,400.160004,573.888000
706.624023,407.967987,569.984009
706.624023,406.015991,566.080017
708.575989,411.872009,579.744019
708.575989,415.776001,569.984009
708.575989,409.920013,566.080017
710.528015,411.872009,569.984009
710.528015,398.208008,575.840027
704.671997,400.160004,568.031982
716.383972,409.920013,558.271973
706.624023,400.160004,564.127991
712.479980,394.303986,566.080017
714.432007,392.351990,569.984009
712.479980,392.351990,569.984009
712.479980,398.208008,562.176025
714.432007,407.967987,560.223999
708.575989,413.824005,575.840027
714.432007,409.920013,566.080017
720.288025,415.776001,564.127991
710.528015,413.824005,562.176025
710.528015,409.920013,575.840027
720.288025,411.872009,569.984009
712.479980,413.824005,571.935974
720.288025,411.872009,571.935974
716.383972,406.015991,566.080017
712.479980,411.872009,566.080017
710.528015,409.920013,571.935974
712.479980,409.920013,560.223999
728.096008,409.920013,571.935974
724.192017,404.063995,569.984009
720.288025,419.679993,569.984009
720.288025,413.824005,575.840027
712.479980,406.015991,577.791992
720.288025,411.872009,569.984009
718.335999,409.920013,575.840027
724.192017,409.920013,587.552002
722.239990,406.015991,587.552002
732.000000,400.160004,581.695984
728.096008,406.015991,579.744019
720.288025,411.872009,577.791992
722.239990,402.112000,587.552002
732.000000,404.063995,587.552002
735.903992,402.112000,573.888000
730.047974,407.967987,581.695984
730.047974,404.063995,581.695984
732.000000,402.112000,585.599976
726.143982,402.112000,583.648010
732.000000,398.208008,581.695984
737.856018,407.967987,579.744019
733.952026,390.399994,577.791992
728.096008,406.015991,587.552002
726.143982,404.063995,575.840027
730.047974,398.208008,573.888000
730.047974,402.112000,568.031982
730.047974,400.160004,569.984009
728.096008,398.208008,571.935974
728.096008,404.063995,562.176025
722.239990,404.063995,562.176025
724.192017,402.112000,568.031982
724.192017,394.303986,564.127991
722.239990,404.063995,562.176025
728.096008,400.160004,568.031982
728.096008,398.208008,550.463989
718.335999,400.160004,558.271973
728.096008,406.015991,556.320007
728.096008,406.015991,556.320007
714.432007,400.160004,554.367981
720.288025,398.208008,552.416016
728.096008,402.112000,550.463989
728.096008,406.015991,560.223999
718.335999,411.872009,552.416016
718.335999,409.920013,548.512024
722.239990,407.967987,550.463989
730.047974,407.967987,548.512024
728.096008,400.160004,556.320007
722.239990,400.160004,554.367981
728.096008,407.967987,544.607971
730.047974,409.920013,546.559998
716.383972,404.063995,552.416016
722.239990,407.967987,544.607971
720.288025,402.112000,552.416016
720.288025,402.112000,554.367981
714.432007,407.967987,556.320007
718.335999,411.872009,546.559998
724.192017,404.063995,552.416016
732.000000,406.015991,556.320007
722.239990,409.920013,552.416016
726.143982,407.967987,556.320007
722.239990,404.063995,550.463989
732.000000,406.015991,552.416016
735.903992,407.967987,548.512024
730.047974,390.399994,552.416016
739.807983,398.208008,552.416016
726.143982,400.160004,550.463989
732.000000,404.063995,556.320007
724.192017,407.967987,548.512024
720.288025,406.015991,548.512024
726.143982,407.967987,550.463989
732.000000,400.160004,548.512024
733.952026,390.399994,546.559998
728.096008,388.447998,546.559998
728.096008,392.351990,556.320007
733.952026,392.351990,542.656006
728.096008,398.208008,542.656006
726.143982,396.256012,538.752014
728.096008,396.256012,548.512024
728.096008,398.208008,552.416016
730.047974,400.160004,542.656006
722.239990,406.015991,550.463989
724.192017,394.303986,542.656006
726.143982,404.063995,550.463989
724.192017,398.208008,548.512024
732.000000,394.303986,550.463989
722.239990,400.160004,548.512024
716.383972,396.256012,556.320007
726.143982,402.112000,550.463989
718.335999,400.160004,552.416016
718.335999,394.303986,544.607971
722.239990,398.208008,548.512024
728.096008,396.256012,552.416016
718.335999,396.256012,548.512024
718.335999,404.063995,552.416016
722.239990,394.303986,556.320007
720.288025,386.496002,550.463989
716.383972,400.160004,546.559998
712.479980,394.303986,544.607971
712.479980,394.303986,548.512024
712.479980,400.160004,540.703979
714.432007,386.496002,542.656006
710.528015,392.351990,544.607971
714.432007,392.351990,538.752014
708.575989,380.640015,548.512024
716.383972,392.351990,544.607971
710.528015,392.351990,542.656006
702.719971,390.399994,540.703979
710.528015,392.351990,544.607971
708.575989,386.496002,542.656006
702.719971,386.496002,542.656006
710.528015,392.351990,536.799988
708.575989,392.351990,544.607971
706.624023,388.447998,550.463989
710.528015,392.351990,548.512024
712.479980,394.303986,534.848022
716.383972,382.592010,542.656006
702.719971,392.351990,544.607971
702.719971,388.447998,542.656006
708.575989,380.640015,544.607971
708.575989,374.783997,538.752014
712.479980,380.640015,552.416016
716.383972,380.640015,544.607971
708.575989,376.735992,554.367981
712.479980,382.592010,556.320007
720.288025,376.735992,544.607971
714.432007,378.687988,556.320007
716.383972,382.592010,556.320007
724.192017,374.783997,552.416016
718.335999,380.640015,548.512024
718.335999,380.640015,542.656006
716.383972,370.880005,544.607971
726.143982,376.735992,548.512024
714.432007,380.640015,550.463989
724.192017,372.832001,552.416016
726.143982,376.735992,550.463989
728.096008,372.832001,560.223999
724.192017,376.735992,544.607971
718.335999,378.687988,550.463989
724.192017,374.783997,540.703979
724.192017,376.735992,550.463989
730.047974,370.880005,542.656006
732.000000,376.735992,548.512024
739.807983,376.735992,554.367981
733.952026,372.832001,550.463989
730.047974,370.880005,548.512024
735.903992,365.023987,552.416016
743.711975,372.832001,546.559998
732.000000,382.592010,552.416016
732.000000,370.880005,558.271973
732.000000,372.832001,560.223999
726.143982,378.687988,550.463989
730.047974,374.783997,564.127991
741.760010,376.735992,554.367981
737.856018,384.544006,554.367981
739.807983,376.735992,552.416016
735.903992,378.687988,556.320007
737.856018,384.544006,562.176025
733.952026,374.783997,556.320007
739.807983,382.592010,556.320007
733.952026,380.640015,550.463989
743.711975,378.687988,550.463989
739.807983,384.544006,550.463989
737.856018,376.735992,556.320007
737.856018,382.592010,560.223999
737.856018,376.735992,562.176025
737.856018,378.687988,562.176025
730.047974,380.640015,564.127991
739.807983,384.544006,566.080017
743.711975,378.687988,562.176025
743.711975,384.544006,562.176025
745.664001,384.544006,564.127991
741.760010,384.544006,566.080017
741.760010,388.447998,568.031982
747.616028,380.640015,571.935974
743.711975,388.447998,562.176025
745.664001,380.640015,573.888000
733.952026,380.640015,568.031982
737.856018,380.640015,571.935974
745.664001,372.832001,571.935974
743.711975,384.544006,568.031982
743.711975,394.303986,571.935974
737.856018,394.303986,571.935974
737.856018,392.351990,566.080017
743.711975,402.112000,571.935974
747.616028,396.256012,566.080017
741.760010,380.640015,569.984009
747.616028,392.351990,575.840027
733.952026,386.496002,575.840027
739.807983,386.496002,579.744019
739.807983,392.351990,569.984009
739.807983,386.496002,568.031982
733.952026,392.351990,569.984009
743.711975,392.351990,571.935974
733.952026,388.447998,573.888000
741.760010,390.399994,573.888000
739.807983,396.256012,575.840027
733.952026,390.399994,575.840027
733.952026,390.399994,573.888000
741.760010,392.351990,569.984009
730.047974,390.399994,569.984009
735.903992,396.256012,568.031982
735.903992,396.256012,575.840027
739.807983,392.351990,569.984009
730.047974,378.687988,575.840027
730.047974,396.256012,579.744019
732.000000,386.496002,577.791992
739.807983,386.496002,575.840027
739.807983,388.447998,573.888000
741.760010,382.592010,573.888000
739.807983,384.544006,568.031982
733.952026,374.783997,579.744019
730.047974,372.832001,579.744019
739.807983,380.640015,573.888000
741.760010,372.832001,579.744019
741.760010,384.544006,569.984009
743.711975,384.544006,583.648010
739.807983,388.447998,579.744019
741.760010,382.592010,587.552002
739.807983,382.592010,579.744019
743.711975,382.592010,581.695984
730.047974,386.496002,591.455994
733.952026,388.447998,583.648010
737.856018,386.496002,583.648010
741.760010,382.592010,579.744019
747.616028,388.447998,589.504028
737.856018,384.544006,591.455994
741.760010,378.687988,585.599976
741.760010,386.496002,593.408020
751.520020,390.399994,589.504028
751.520020,378.687988,591.455994
745.664001,384.544006,591.455994
755.424011,380.640015,589.504028
739.807983,380.640015,587.552002
743.711975,384.544006,595.359985
753.471985,394.303986,599.263977
753.471985,390.399994,597.312012
741.760010,388.447998,599.263977
751.520020,392.351990,599.263977
751.520020,386.496002,610.976013
747.616028,382.592010,603.168030
749.567993,390.399994,599.263977
751.520020,386.496002,607.072021
755.424011,384.544006,597.312012
753.471985,378.687988,603.168030
755.424011,392.351990,603.168030
763.231995,386.496002,603.168030
753.471985,390.399994,607.072021
741.760010,392.351990,605.119995
751.520020,396.256012,593.408020
759.328003,390.399994,603.168030
751.520020,386.496002,610.976013
755.424011,380.640015,597.312012
753.471985,394.303986,599.263977
757.375977,392.351990,595.359985
749.567993,392.351990,597.312012
751.520020,386.496002,599.263977
747.616028,398.208008,597.312012
753.471985,396.256012,595.359985
755.424011,388.447998,599.263977
757.375977,392.351990,591.455994
745.664001,396.256012,589.504028
745.664001,398.208008,593.408020
755.424011,384.544006,589.504028
749.567993,378.687988,591.455994
749.567993,396.256012,585.599976
745.664001,396.256012,597.312012
747.616028,390.399994,595.359985
743.711975,396.256012,595.359985
745.664001,396.256012,593.408020
743.711975,390.399994,585.599976
745.664001,396.256012,585.599976
755.424011,396.256012,599.263977
755.424011,394.303986,597.312012
745.664001,386.496002,579.744019
745.664001,396.256012,585.599976
753.471985,400.160004,599.263977
747.616028,404.063995,595.359985
747.616028,402.112000,597.312012
745.664001,402.112000,591.455994
741.760010,415.776001,589.504028
743.711975,396.256012,585.599976
749.567993,402.112000,603.168030
747.616028,406.015991,603.168030
741.760010,406.015991,603.168030
745.664001,411.872009,601.216003
743.711975,402.112000,597.312012
739.807983,402.112000,597.312012
741.760010,409.920013,599.263977
739.807983,407.967987,595.359985
733.952026,402.112000,599.263977
739.807983,409.920013,597.312012
732.000000,400.160004,581.695984
733.952026,407.967987,591.455994
737.856018,402.112000,597.312012
733.952026,402.112000,585.599976
728.096008,402.112000,587.552002
739.807983,400.160004,587.552002
733.952026,404.063995,589.504028
733.952026,404.063995,591.455994
722.239990,406.015991,591.455994
726.143982,404.063995,581.695984
730.047974,402.112000,587.552002
732.000000,406.015991,587.552002
726.143982,394.303986,585.599976
735.903992,394.303986,585.599976
724.192017,392.351990,589.504028
728.096008,398.208008,587.552002
724.192017,398.208008,579.744019
726.143982,392.351990,585.599976
730.047974,394.303986,585.599976
718.335999,396.256012,575.840027
724.192017,392.351990,585.599976
714.432007,400.160004,577.791992
718.335999,394.303986,575.840027
714.432007,394.303986,569.984009
720.288025,392.351990,569.984009
710.528015,392.351990,569.984009
716.383972,396.256012,566.080017
716.383972,400.160004,575.840027
712.479980,394.303986,573.888000
716.383972,398.208008,571.935974
714.432007,396.256012,571.935974
714.432007,394.303986,575.840027
720.288025,411.872009,573.888000
714.432007,407.967987,566.080017
714.432007,406.015991,571.935974
718.335999,406.015991,569.984009
716.383972,398.208008,571.935974
720.288025,409.920013,571.935974
718.335999,406.015991,571.935974
720.288025,406.015991,568.031982
722.239990,406.015991,569.984009
722.239990,402.112000,566.080017
728.096008,406.015991,568.031982
728.096008,398.208008,562.176025
726.143982,404.063995,569.984009
716.383972,394.303986,571.935974
718.335999,404.063995,571.935974
728.096008,394.303986,569.984009
722.239990,396.256012,575.840027
724.192017,390.399994,568.031982
722.239990,404.063995,568.031982
718.335999,400.160004,564.127991
728.096008,394.303986,564.127991
732.000000,396.256012,566.080017
722.239990,386.496002,566.080017
732.000000,388.447998,566.080017
730.047974,386.496002,575.840027
726.143982,384.544006,566.080017
733.952026,388.447998,566.080017
722.239990,394.303986,568.031982
726.143982,384.544006,564.127991
726.143982,384.544006,566.080017
732.000000,374.783997,558.271973
726.143982,370.880005,568.031982
732.000000,368.928009,562.176025
735.903992,382.592010,566.080017
732.000000,366.976013,568.031982
739.807983,363.071991,562.176025
733.952026,376.735992,562.176025
739.807983,368.928009,566.080017
739.807983,366.976013,564.127991
741.760010,372.832001,564.127991
743.711975,359.167999,568.031982
751.520020,370.880005,566.080017
741.760010,368.928009,564.127991
751.520020,366.976013,564.127991
745.664001,363.071991,569.984009
755.424011,366.976013,569.984009
753.471985,366.976013,566.080017
753.471985,357.216003,573.888000
747.616028,361.119995,568.031982
763.231995,361.119995,562.176025
757.375977,365.023987,568.031982
757.375977,361.119995,571.935974
753.471985,357.216003,573.888000
769.088013,359.167999,568.031982
753.471985,351.359985,577.791992
759.328003,357.216003,566.080017
769.088013,361.119995,569.984009
771.039978,359.167999,571.935974
771.039978,349.407990,569.984009
763.231995,365.023987,569.984009
767.135986,361.119995,571.935974
765.184021,347.455994,571.935974
763.231995,347.455994,571.935974
771.039978,357.216003,577.791992
763.231995,351.359985,573.888000
761.280029,353.312012,566.080017
767.135986,345.503998,568.031982
757.375977,349.407990,571.935974
757.375977,349.407990,566.080017
759.328003,349.407990,558.271973
759.328003,343.552002,564.127991
761.280029,339.648010,562.176025
761.280029,349.407990,560.223999
763.231995,349.407990,560.223999
757.375977,345.503998,568.031982
755.424011,345.503998,558.271973
753.471985,331.839996,556.320007
753.471985,337.696014,556.320007
751.520020,337.696014,558.271973
753.471985,337.696014,568.031982
751.520020,345.503998,554.367981
759.328003,351.359985,552.416016
753.471985,341.600006,554.367981
751.520020,347.455994,546.559998
755.424011,337.696014,550.463989
749.567993,341.600006,546.559998
745.664001,331.839996,546.559998
749.567993,337.696014,552.416016
747.616028,353.312012,556.320007
753.471985,347.455994,542.656006
747.616028,349.407990,546.559998
745.664001,343.552002,544.607971
745.664001,349.407990,546.559998
747.616028,347.455994,556.320007
745.664001,347.455994,556.320007
751.520020,341.600006,554.367981
743.711975,349.407990,550.463989
745.664001,341.600006,560.223999
747.616028,347.455994,556.320007
741.760010,345.503998,554.367981
739.807983,349.407990,556.320007
749.567993,351.359985,558.271973
741.760010,345.503998,562.176025
749.567993,355.264008,556.320007
743.711975,353.312012,556.320007
741.760010,351.359985,556.320007
747.616028,347.455994,556.320007
741.760010,339.648010,554.367981
743.711975,357.216003,550.463989
741.760010,347.455994,554.367981
743.711975,347.455994,556.320007
737.856018,353.312012,550.463989
743.711975,353.312012,556.320007
743.711975,339.648010,540.703979
741.760010,349.407990,548.512024
739.807983,349.407990,548.512024
735.903992,345.503998,550.463989
747.616028,351.359985,548.512024
741.760010,347.455994,552.416016
733.952026,343.552002,550.463989
741.760010,345.503998,554.367981
747.616028,349.407990,544.607971
739.807983,345.503998,554.367981
732.000000,343.552002,556.320007
735.903992,349.407990,546.559998
741.760010,345.503998,554.367981
743.711975,347.455994,550.463989
739.807983,349.407990,550.463989
739.807983,345.503998,556.320007
735.903992,349.407990,556.320007
743.711975,353.312012,562.176025
741.760010,345.503998,560.223999
733.952026,343.552002,560.223999
741.760010,347.455994,556.320007
745.664001,347.455994,562.176025
745.664001,335.743988,554.367981
751.520020,337.696014,560.223999
745.664001,345.503998,564.127991
743.711975,343.552002,571.935974
747.616028,347.455994,560.223999
747.616028,347.455994,554.367981
751.520020,339.648010,568.031982
751.520020,349.407990,562.176025
743.711975,345.503998,558.271973
751.520020,351.359985,575.840027
749.567993,347.455994,568.031982
751.520020,341.600006,562.176025
745.664001,333.791992,568.031982
751.520020,345.503998,564.127991
749.567993,347.455994,562.176025
759.328003,343.552002,562.176025
745.664001,343.552002,571.935974
741.760010,343.552002,569.984009
753.471985,345.503998,558.271973
759.328003,347.455994,566.080017
757.375977,343.552002,562.176025
747.616028,339.648010,558.271973
757.375977,351.359985,564.127991
745.664001,345.503998,566.080017
749.567993,339.648010,566.080017
755.424011,337.696014,566.080017
761.280029,343.552002,558.271973
755.424011,345.503998,568.031982
743.711975,343.552002,566.080017
745.664001,333.791992,566.080017
747.616028,343.552002,571.935974
751.520020,345.503998,564.127991
749.567993,345.503998,569.984009
753.471985,339.648010,568.031982
745.664001,345.503998,558.271973
747.616028,353.312012,568.031982
745.664001,337.696014,566.080017
745.664001,337.696014,566.080017
745.664001,343.552002,569.984009
743.711975,345.503998,568.031982
739.807983,335.743988,566.080017
739.807983,337.696014,560.223999
743.711975,331.839996,566.080017
751.520020,339.648010,566.080017
749.567993,337.696014,571.935974
735.903992,324.032013,568.031982
743.711975,335.743988,566.080017
737.856018,331.839996,564.127991
730.047974,329.888000,560.223999
735.903992,333.791992,568.031982
743.711975,329.888000,562.176025
733.952026,341.600006,562.176025
733.952026,325.984009,571.935974
730.047974,333.791992,568.031982
735.903992,333.791992,562.176025
735.903992,327.936005,556.320007
741.760010,333.791992,564.127991
737.856018,329.888000,566.080017
739.807983,337.696014,562.176025
735.903992,329.888000,566.080017
737.856018,327.936005,568.031982
741.760010,333.791992,560.223999
737.856018,327.936005,556.320007
737.856018,324.032013,560.223999
733.952026,327.936005,575.840027
741.760010,333.791992,560.223999
745.664001,337.696014,566.080017
741.760010,333.791992,564.127991
737.856018,322.079987,564.127991
739.807983,322.079987,568.031982
743.711975,322.079987,560.223999
741.760010,327.936005,558.271973
739.807983,331.839996,569.984009
743.711975,337.696014,571.935974
747.616028,329.888000,573.888000
745.664001,333.791992,577.791992
749.567993,331.839996,569.984009
747.616028,329.888000,579.744019
741.760010,324.032013,575.840027
755.424011,320.127991,566.080017
743.711975,333.791992,581.695984
749.567993,327.936005,581.695984
749.567993,329.888000,585.599976
741.760010,324.032013,579.744019
753.471985,329.888000,575.840027
751.520020,325.984009,581.695984
757.375977,335.743988,581.695984
757.375977,324.032013,583.648010
757.375977,320.127991,583.648010
737.856018,325.984009,587.552002
747.616028,325.984009,587.552002
755.424011,312.320007,577.791992
747.616028,320.127991,579.744019
745.664001,329.888000,577.791992
741.760010,329.888000,579.744019
755.424011,318.175995,577.791992
745.664001,329.888000,573.888000
747.616028,327.936005,579.744019
745.664001,333.791992,585.599976
745.664001,327.936005,583.648010
741.760010,324.032013,577.791992
739.807983,329.888000,575.840027
739.807983,329.888000,569.984009
741.760010,322.079987,573.888000
743.711975,324.032013,568.031982
741.760010,325.984009,569.984009
739.807983,325.984009,569.984009
741.760010,329.888000,575.840027
735.903992,322.079987,571.935974
739.807983,318.175995,573.888000
741.760010,324.032013,569.984009
739.807983,320.127991,569.984009
741.760010,331.839996,577.791992
743.711975,331.839996,571.935974
739.807983,324.032013,569.984009
741.760010,329.888000,569.984009
741.760010,324.032013,575.840027
739.807983,327.936005,571.935974
751.520020,327.936005,569.984009
747.616028,327.936005,579.744019
743.711975,322.079987,581.695984
741.760010,324.032013,569.984009
747.616028,333.791992,585.599976
745.664001,335.743988,585.599976
745.664001,329.888000,579.744019
749.567993,331.839996,575.840027
749.567993,327.936005,587.552002
759.328003,333.791992,585.599976
757.375977,337.696014,581.695984
751.520020,331.839996,589.504028
753.471985,333.791992,585.599976
755.424011,329.888000,585.599976
763.231995,331.839996,581.695984
763.231995,341.600006,587.552002
769.088013,345.503998,579.744019
753.471985,337.696014,587.552002
755.424011,343.552002,587.552002
755.424011,349.407990,585.599976
761.280029,343.552002,587.552002
757.375977,337.696014,585.599976
755.424011,343.552002,583.648010
757.375977,351.359985,585.599976
759.328003,353.312012,583.648010
759.328003,341.600006,587.552002
753.471985,341.600006,585.599976
753.471985,347.455994,583.648010
755.424011,337.696014,585.599976
755.424011,351.359985,583.648010
757.375977,353.312012,577.791992
753.471985,345.503998,585.599976
755.424011,353.312012,589.504028
751.520020,347.455994,583.648010
757.375977,345.503998,573.888000
753.471985,355.264008,581.695984
755.424011,353.312012,587.552002
749.567993,351.359985,589.504028
749.567993,357.216003,581.695984
749.567993,347.455994,591.455994
743.711975,347.455994,591.455994
753.471985,349.407990,581.695984
755.424011,361.119995,585.599976
751.520020,347.455994,581.695984
749.567993,359.167999,589.504028
751.520020,349.407990,581.695984
747.616028,359.167999,581.695984
751.520020,365.023987,589.504028
745.664001,357.216003,581.695984
743.711975,357.216003,581.695984
741.760010,361.119995,577.791992
755.424011,365.023987,575.840027
751.520020,351.359985,569.984009
741.760010,355.264008,575.840027
745.664001,349.407990,575.840027
747.616028,351.359985,579.744019
747.616028,347.455994,587.552002
743.711975,361.119995,581.695984
745.664001,357.216003,583.648010
745.664001,347.455994,585.599976
745.664001,365.023987,577.791992
747.616028,361.119995,579.744019
751.520020,357.216003,575.840027
741.760010,363.071991,579.744019
751.520020,359.167999,575.840027
749.567993,370.880005,573.888000
749.567993,366.976013,573.888000
745.664001,366.976013,571.935974
753.471985,365.023987,573.888000
749.567993,368.928009,583.648010
749.567993,361.119995,577.791992
749.567993,372.832001,583.648010
739.807983,361.119995,581.695984
757.375977,359.167999,575.840027
751.520020,361.119995,579.744019
745.664001,368.928009,571.935974
749.567993,366.976013,575.840027
745.664001,361.119995,569.984009
741.760010,366.976013,566.080017
755.424011,366.976013,573.888000
749.567993,366.976013,571.935974
747.616028,359.167999,573.888000
745.664001,361.119995,569.984009
745.664001,361.119995,579.744019
755.424011,361.119995,583.648010
755.424011,361.119995,575.840027
749.567993,361.119995,571.935974
751.520020,365.023987,571.935974
749.567993,363.071991,573.888000
755.424011,363.071991,581.695984
749.567993,366.976013,568.031982
751.520020,359.167999,566.080017
741.760010,355.264008,569.984009
755.424011,365.023987,569.984009
753.471985,359.167999,571.935974
747.616028,361.119995,573.888000
743.711975,359.167999,560.223999
757.375977,365.023987,569.984009
745.664001,355.264008,569.984009
743.711975,347.455994,568.031982
743.711975,353.312012,568.031982
741.760010,351.359985,569.984009
737.856018,355.264008,566.080017
741.760010,359.167999,560.223999
737.856018,359.167999,558.271973
747.616028,351.359985,560.223999
737.856018,351.359985,560.223999
739.807983,347.455994,562.176025
737.856018,357.216003,560.223999
739.807983,353.312012,571.935974
737.856018,345.503998,560.223999
735.903992,357.216003,560.223999
737.856018,355.264008,556.320007
737.856018,351.359985,558.271973
737.856018,357.216003,562.176025
741.760010,353.312012,556.320007
730.047974,355.264008,554.367981
735.903992,359.167999,562.176025
737.856018,353.312012,560.223999
743.711975,353.312012,556.320007
735.903992,353.312012,560.223999
735.903992,357.216003,552.416016
743.711975,359.167999,556.320007
733.952026,347.455994,546.559998
735.903992,345.503998,550.463989
741.760010,353.312012,550.463989
739.807983,345.503998,554.367981
741.760010,349.407990,550.463989
728.096008,347.455994,546.559998
741.760010,349.407990,548.512024
735.903992,345.503998,550.463989
735.903992,353.312012,548.512024
737.856018,351.359985,550.463989
743.711975,349.407990,544.607971
743.711975,331.839996,552.416016
739.807983,349.407990,550.463989
735.903992,347.455994,542.656006
739.807983,353.312012,550.463989
733.952026,351.359985,552.416016
739.807983,351.359985,550.463989
743.711975,335.743988,546.559998
735.903992,345.503998,542.656006
733.952026,337.696014,542.656006
743.711975,343.552002,548.512024
739.807983,343.552002,556.320007
737.856018,337.696014,552.416016
739.807983,345.503998,554.367981
733.952026,343.552002,542.656006
737.856018,345.503998,550.463989
737.856018,339.648010,548.512024
735.903992,343.552002,546.559998
733.952026,343.552002,540.703979
743.711975,337.696014,548.512024
737.856018,335.743988,538.752014
733.952026,345.503998,546.559998
735.903992,339.648010,538.752014
737.856018,337.696014,542.656006
741.760010,343.552002,546.559998
741.760010,345.503998,552.416016
739.807983,345.503998,554.367981
743.711975,353.312012,556.320007
747.616028,341.600006,546.559998
747.616028,347.455994,558.271973
745.664001,341.600006,554.367981
743.711975,341.600006,552.416016
747.616028,327.936005,556.320007
743.711975,337.696014,546.559998
745.664001,345.503998,554.367981
747.616028,329.888000,548.512024
741.760010,345.503998,554.367981
743.711975,347.455994,556.320007
747.616028,343.552002,552.416016
749.567993,337.696014,552.416016
749.567993,337.696014,552.416016
745.664001,339.648010,558.271973
741.760010,345.503998,554.367981
743.711975,347.455994,550.463989
747.616028,353.312012,568.031982
749.567993,345.503998,554.367981
761.280029,349.407990,558.271973
745.664001,345.503998,558.271973
743.711975,347.455994,558.271973
745.664001,347.455994,554.367981
745.664001,345.503998,558.271973
745.664001,345.503998,562.176025
743.711975,355.264008,560.223999
737.856018,349.407990,552.416016
745.664001,345.503998,554.367981
741.760010,341.600006,558.271973
739.807983,339.648010,554.367981
741.760010,347.455994,552.416016
741.760010,341.600006,562.176025
749.567993,335.743988,568.031982
751.520020,345.503998,554.367981
745.664001,341.600006,554.367981
745.664001,351.359985,550.463989
745.664001,343.552002,552.416016
745.664001,345.503998,558.271973
745.664001,339.648010,558.271973
741.760010,345.503998,554.367981
741.760010,349.407990,568.031982
743.711975,347.455994,560.223999
751.520020,347.455994,560.223999
747.616028,343.552002,566.080017
751.520020,347.455994,564.127991
747.616028,351.359985,568.031982
747.616028,347.455994,564.127991
743.711975,347.455994,562.176025
749.567993,357.216003,560.223999
753.471985,351.359985,558.271973
751.520020,347.455994,566.080017
745.664001,345.503998,564.127991
745.664001,345.503998,558.271973
743.711975,343.552002,566.080017
741.760010,351.359985,569.984009
730.047974,343.552002,568.031982
743.711975,347.455994,568.031982
741.760010,349.407990,568.031982
739.807983,345.503998,562.176025
741.760010,353.312012,552.416016
745.664001,339.648010,554.367981
739.807983,345.503998,560.223999
743.711975,345.503998,556.320007
737.856018,339.648010,554.367981
739.807983,343.552002,562.176025
739.807983,347.455994,554.367981
739.807983,349.407990,550.463989
741.760010,345.503998,554.367981
741.760010,349.407990,556.320007
737.856018,349.407990,558.271973
733.952026,339.648010,562.176025
737.856018,345.503998,562.176025
735.903992,347.455994,560.223999
747.616028,353.312012,564.127991
745.664001,335.743988,564.127991
741.760010,347.455994,564.127991
747.616028,351.359985,568.031982
739.807983,349.407990,568.031982
743.711975,347.455994,564.127991
741.760010,345.503998,564.127991
749.567993,343.552002,566.080017
743.711975,341.600006,566.080017
749.567993,349.407990,566.080017
745.664001,349.407990,569.984009
747.616028,341.600006,571.935974
745.664001,339.648010,571.935974
741.760010,349.407990,569.984009
743.711975,339.648010,566.080017
749.567993,347.455994,564.127991
747.616028,341.600006,566.080017
747.616028,343.552002,566.080017
749.567993,347.455994,575.840027
753.471985,345.503998,564.127991
757.375977,335.743988,569.984009
741.760010,341.600006,571.935974
743.711975,341.600006,571.935974
751.520020,339.648010,566.080017
753.471985,353.312012,566.080017
747.616028,343.552002,571.935974
747.616028,337.696014,564.127991
749.567993,345.503998,560.223999
753.471985,351.359985,571.935974
755.424011,341.600006,571.935974
739.807983,339.648010,575.840027
741.760010,343.552002,571.935974
747.616028,331.839996,573.888000
751.520020,343.552002,571.935974
751.520020,339.648010,564.127991
749.567993,345.503998,571.935974
743.711975,347.455994,564.127991
741.760010,335.743988,564.127991
747.616028,343.552002,566.080017
755.424011,343.552002,566.080017
747.616028,351.359985,564.127991
741.760010,345.503998,566.080017
735.903992,343.552002,566.080017
749.567993,349.407990,564.127991
737.856018,351.359985,564.127991
743.711975,347.455994,562.176025
739.807983,353.312012,554.367981
741.760010,349.407990,569.984009
743.711975,345.503998,568.031982
747.616028,343.552002,571.935974
755.424011,345.503998,569.984009
747.616028,349.407990,571.935974
747.616028,355.264008,562.176025
749.567993,357.216003,568.031982
753.471985,347.455994,560.223999
749.567993,345.503998,560.223999
751.520020,343.552002,562.176025
745.664001,355.264008,560.223999
745.664001,349.407990,569.984009
751.520020,353.312012,569.984009
753.471985,357.216003,566.080017
753.471985,359.167999,575.840027
753.471985,361.119995,569.984009
749.567993,361.119995,569.984009
753.471985,355.264008,566.080017
755.424011,361.119995,566.080017
761.280029,365.023987,579.744019
753.471985,359.167999,571.935974
743.711975,374.783997,575.840027
751.520020,361.119995,573.888000
753.471985,368.928009,569.984009
755.424011,366.976013,569.984009
757.375977,368.928009,573.888000
757.375977,370.880005,573.888000
757.375977,365.023987,573.888000
757.375977,365.023987,568.031982
763.231995,357.216003,571.935974
763.231995,359.167999,566.080017
763.231995,361.119995,562.176025
763.231995,363.071991,560.223999
767.135986,365.023987,568.031982
772.992004,361.119995,569.984009
767.135986,363.071991,571.935974
767.135986,359.167999,568.031982
761.280029,365.023987,575.840027
765.184021,355.264008,577.791992
763.231995,359.167999,575.840027
765.184021,376.735992,569.984009
761.280029,363.071991,564.127991
763.231995,370.880005,564.127991
761.280029,365.023987,568.031982
771.039978,376.735992,558.271973
765.184021,374.783997,558.271973
763.231995,363.071991,562.176025
765.184021,374.783997,562.176025
763.231995,372.832001,566.080017
767.135986,372.832001,571.935974
769.088013,380.640015,566.080017
769.088013,378.687988,560.223999
771.039978,372.832001,568.031982
767.135986,376.735992,568.031982
771.039978,366.976013,558.271973
771.039978,370.880005,566.080017
771.039978,366.976013,571.935974
774.943970,366.976013,573.888000
774.943970,370.880005,571.935974
769.088013,368.928009,573.888000
776.895996,376.735992,583.648010
784.703979,370.880005,595.359985
776.895996,376.735992,591.455994
776.895996,382.592010,587.552002
780.799988,390.399994,587.552002
772.992004,390.399994,585.599976
772.992004,388.447998,581.695984
780.799988,382.592010,577.791992
782.752014,382.592010,579.744019
772.992004,386.496002,579.744019
778.848022,386.496002,575.840027
772.992004,386.496002,569.984009
769.088013,382.592010,562.176025
772.992004,392.351990,568.031982
778.848022,386.496002,554.367981
767.135986,386.496002,568.031982
771.039978,392.351990,562.176025
767.135986,388.447998,564.127991
769.088013,374.783997,575.840027
763.231995,372.832001,560.223999
772.992004,374.783997,575.840027
765.184021,392.351990,573.888000
772.992004,382.592010,571.935974
776.895996,380.640015,573.888000
765.184021,388.447998,573.888000
772.992004,392.351990,577.791992
771.039978,392.351990,569.984009
774.943970,390.399994,569.984009
769.088013,402.112000,573.888000
767.135986,402.112000,569.984009
769.088013,392.351990,554.367981
765.184021,404.063995,568.031982
778.848022,398.208008,575.840027
771.039978,390.399994,571.935974
772.992004,386.496002,573.888000
765.184021,380.640015,575.840027
761.280029,390.399994,568.031982
771.039978,388.447998,568.031982
763.231995,386.496002,571.935974
763.231995,380.640015,562.176025
761.280029,390.399994,564.127991
759.328003,396.256012,569.984009
769.088013,396.256012,579.744019
767.135986,396.256012,569.984009
767.135986,392.351990,566.080017
767.135986,396.256012,569.984009
761.280029,398.208008,573.888000
761.280029,396.256012,573.888000
763.231995,388.447998,575.840027
755.424011,394.303986,566.080017
765.184021,394.303986,568.031982
759.328003,402.112000,562.176025
753.471985,398.208008,560.223999
753.471985,404.063995,568.031982
755.424011,392.351990,558.271973
755.424011,388.447998,556.320007
753.471985,390.399994,560.223999
755.424011,390.399994,556.320007
747.616028,390.399994,558.271973
741.760010,392.351990,556.320007
747.616028,400.160004,546.559998
745.664001,396.256012,554.367981
747.616028,390.399994,558.271973
743.711975,390.399994,560.223999
743.711975,390.399994,562.176025
741.760010,398.208008,564.127991
751.520020,402.112000,560.223999
755.424011,411.872009,554.367981
745.664001,402.112000,554.367981
753.471985,400.160004,566.080017
747.616028,402.112000,566.080017
747.616028,400.160004,573.888000
753.471985,411.872009,569.984009
753.471985,402.112000,564.127991
751.520020,406.015991,568.031982
755.424011,394.303986,571.935974
757.375977,400.160004,564.127991
755.424011,398.208008,562.176025
759.328003,404.063995,569.984009
755.424011,400.160004,573.888000
753.471985,392.351990,562.176025
749.567993,386.496002,571.935974
747.616028,396.256012,562.176025
759.328003,390.399994,566.080017
757.375977,392.351990,562.176025
763.231995,386.496002,566.080017
763.231995,394.303986,568.031982
761.280029,390.399994,564.127991
765.184021,394.303986,560.223999
761.280029,398.208008,569.984009
769.088013,392.351990,566.080017
759.328003,384.544006,573.888000
759.328003,390.399994,571.935974
774.943970,374.783997,566.080017
771.039978,382.592010,568.031982
771.039978,392.351990,579.744019
774.943970,386.496002,571.935974
771.039978,390.399994,571.935974
776.895996,386.496002,575.840027
767.135986,388.447998,568.031982
776.895996,386.496002,575.840027
776.895996,378.687988,569.984009
774.943970,392.351990,569.984009
778.848022,392.351990,575.840027
776.895996,384.544006,579.744019
774.943970,388.447998,568.031982
772.992004,382.592010,569.984009
776.895996,386.496002,569.984009
774.943970,374.783997,571.935974
776.895996,374.783997,569.984009
776.895996,382.592010,575.840027
778.848022,388.447998,558.271973
778.848022,378.687988,562.176025
786.656006,378.687988,568.031982
774.943970,378.687988,568.031982
784.703979,382.592010,569.984009
782.752014,392.351990,575.840027
788.607971,376.735992,569.984009
790.559998,378.687988,571.935974
788.607971,388.447998,585.599976
794.463989,388.447998,573.888000
806.176025,380.640015,583.648010
798.367981,374.783997,583.648010
794.463989,374.783997,587.552002
802.271973,370.880005,583.648010
800.320007,374.783997,585.599976
798.367981,374.783997,589.504028
802.271973,376.735992,585.599976
794.463989,372.832001,587.552002
794.463989,372.832001,593.408020
804.223999,376.735992,595.359985
806.176025,376.735992,587.552002
806.176025,386.496002,591.455994
794.463989,372.832001,579.744019
792.512024,380.640015,585.599976
788.607971,376.735992,573.888000
792.512024,376.735992,581.695984
790.559998,370.880005,587.552002
794.463989,378.687988,577.791992
790.559998,382.592010,573.888000
794.463989,382.592010,581.695984
798.367981,378.687988,581.695984
794.463989,384.544006,583.648010
794.463989,380.640015,581.695984
782.752014,380.640015,579.744019
780.799988,366.976013,583.648010
790.559998,370.880005,579.744019
780.799988,374.783997,577.791992
774.943970,374.783997,573.888000
778.848022,380.640015,571.935974
776.895996,380.640015,573.888000
769.088013,376.735992,579.744019
772.992004,374.783997,575.840027
771.039978,384.544006,568.031982
765.184021,374.783997,569.984009
769.088013,382.592010,566.080017
772.992004,380.640015,569.984009
767.135986,382.592010,573.888000
759.328003,388.447998,577.791992
757.375977,376.735992,575.840027
757.375977,376.735992,569.984009
757.375977,382.592010,583.648010
755.424011,370.880005,575.840027
755.424011,376.735992,579.744019
751.520020,380.640015,575.840027
751.520020,388.447998,579.744019
743.711975,388.447998,579.744019
745.664001,392.351990,579.744019
739.807983,392.351990,569.984009
747.616028,394.303986,571.935974
730.047974,400.160004,566.080017
733.952026,396.256012,564.127991
722.239990,398.208008,564.127991
732.000000,402.112000,562.176025
726.143982,386.496002,566.080017
726.143982,394.303986,558.271973
722.239990,398.208008,558.271973
718.335999,396.256012,556.320007
716.383972,390.399994,560.223999
712.479980,386.496002,562.176025
728.096008,394.303986,562.176025
714.432007,392.351990,568.031982
720.288025,388.447998,569.984009
712.479980,398.208008,571.935974
712.479980,386.496002,571.935974
708.575989,392.351990,568.031982
706.624023,388.447998,568.031982
704.671997,388.447998,556.320007
706.624023,390.399994,562.176025
702.719971,400.160004,560.223999
698.815979,404.063995,560.223999
700.768005,404.063995,560.223999
694.911987,413.824005,560.223999
691.007996,406.015991,560.223999
696.864014,394.303986,564.127991
698.815979,388.447998,558.271973
700.768005,396.256012,550.463989
691.007996,396.256012,554.367981
700.768005,390.399994,566.080017
698.815979,394.303986,566.080017
698.815979,382.592010,560.223999
694.911987,392.351990,564.127991
691.007996,388.447998,571.935974
694.911987,380.640015,564.127991
694.911987,386.496002,566.080017
704.671997,392.351990,564.127991
708.575989,380.640015,562.176025
712.479980,378.687988,558.271973
710.528015,374.783997,558.271973
718.335999,390.399994,558.271973
716.383972,396.256012,558.271973
724.192017,386.496002,558.271973
722.239990,396.256012,566.080017
730.047974,392.351990,573.888000
735.903992,396.256012,569.984009
737.856018,396.256012,579.744019
745.664001,396.256012,587.552002
743.711975,390.399994,589.504028
749.567993,384.544006,599.263977
749.567993,386.496002,597.312012
757.375977,378.687988,610.976013
761.280029,388.447998,607.072021
771.039978,378.687988,609.023987
769.088013,392.351990,616.831970
769.088013,378.687988,618.783997
761.280029,374.783997,622.687988
735.903992,376.735992,626.591980
745.664001,380.640015,616.831970
771.039978,355.264008,618.783997
784.703979,314.272003,610.976013
800.320007,288.895996,614.880005
796.416016,308.415985,618.783997
794.463989,339.648010,624.640015
780.799988,349.407990,632.447998
786.656006,347.455994,620.736023
774.943970,382.592010,628.544006
776.895996,423.584015,630.495972
772.992004,417.727997,632.447998
778.848022,411.872009,636.351990
792.512024,421.631989,640.255981
788.607971,419.679993,638.304016
806.176025,404.063995,646.112000
812.031982,400.160004,642.208008
825.695984,402.112000,650.015991
810.080017,409.920013,650.015991
812.031982,402.112000,648.064026
802.271973,398.208008,651.968018
810.080017,406.015991,665.632019
808.127991,402.112000,659.776001
802.271973,386.496002,663.679993
796.416016,378.687988,669.536011
804.223999,370.880005,677.343994
813.984009,359.167999,671.487976
810.080017,343.552002,663.679993
813.984009,337.696014,651.968018
823.744019,349.407990,653.919983
827.648010,345.503998,663.679993
833.504028,345.503998,659.776001
851.072021,363.071991,659.776001
856.927979,368.928009,669.536011
874.495972,359.167999,689.056030
870.591980,359.167999,712.479980
874.495972,382.592010,730.047974
868.640015,406.015991,767.135986
864.736023,402.112000,786.656006
860.831970,404.063995,796.416016
854.976013,402.112000,794.463989
858.880005,400.160004,798.367981
862.783997,378.687988,802.271973
866.687988,361.119995,788.607971
866.687988,347.455994,798.367981
868.640015,333.791992,796.416016
860.831970,304.511993,788.607971
854.976013,292.799988,776.895996
851.072021,310.368011,788.607971
841.312012,292.799988,784.703979
841.312012,288.895996,778.848022
829.599976,286.944000,772.992004
825.695984,284.992004,763.231995
831.552002,292.799988,759.328003
847.168030,349.407990,763.231995
866.687988,294.752014,765.184021
856.927979,201.056000,759.328003
858.880005,226.432007,765.184021
876.447998,333.791992,769.088013
884.255981,357.216003,790.559998
866.687988,322.079987,790.559998
847.168030,290.847992,794.463989
843.263977,327.936005,794.463989
847.168030,380.640015,798.367981
839.359985,380.640015,804.223999
837.408020,351.359985,806.176025
853.023987,341.600006,800.320007
858.880005,355.264008,794.463989
870.591980,370.880005,802.271973
872.544006,359.167999,808.127991
872.544006,329.888000,794.463989
870.591980,337.696014,788.607971
864.736023,343.552002,778.848022
860.831970,341.600006,786.656006
862.783997,316.223999,776.895996
847.168030,312.320007,774.943970
845.216003,322.079987,774.943970
847.168030,314.272003,771.039978
847.168030,300.608002,774.943970
851.072021,288.895996,776.895996
870.591980,288.895996,772.992004
870.591980,279.135986,765.184021
884.255981,267.424011,774.943970
894.015991,265.471985,771.039978
886.208008,296.704010,778.848022
895.968018,320.127991,780.799988
882.304016,320.127991,782.752014
884.255981,335.743988,792.512024
884.255981,366.976013,796.416016
874.495972,384.544006,792.512024
876.447998,392.351990,786.656006
872.544006,400.160004,790.559998
874.495972,409.920013,778.848022
870.591980,411.872009,761.280029
884.255981,402.112000,743.711975
884.255981,417.727997,726.143982
886.208008,411.872009,710.528015
876.447998,388.447998,689.056030
876.447998,363.071991,675.392029
866.687988,390.399994,655.872009
866.687988,407.967987,648.064026
860.831970,386.496002,640.255981
858.880005,374.783997,624.640015
853.023987,363.071991,616.831970
860.831970,380.640015,616.831970
858.880005,368.928009,603.168030
864.736023,343.552002,605.119995
858.880005,349.407990,620.736023
862.783997,365.023987,630.495972
872.544006,365.023987,630.495972
868.640015,357.216003,638.304016
874.495972,359.167999,640.255981
868.640015,366.976013,648.064026
858.880005,380.640015,661.728027
866.687988,392.351990,669.536011
853.023987,402.112000,673.440002
858.880005,411.872009,671.487976
841.312012,421.631989,681.247986
829.599976,433.343994,669.536011
841.312012,433.343994,671.487976
837.408020,427.488007,665.632019
835.455994,429.440002,651.968018
825.695984,427.488007,640.255981
819.840027,427.488007,634.400024
804.223999,415.776001,636.351990
802.271973,413.824005,642.208008
792.512024,411.872009,648.064026
792.512024,390.399994,632.447998
784.703979,382.592010,636.351990
788.607971,370.880005,632.447998
788.607971,351.359985,616.831970
776.895996,351.359985,599.263977
774.943970,345.503998,601.216003
778.848022,349.407990,593.408020
782.752014,345.503998,591.455994
784.703979,341.600006,595.359985
790.559998,339.648010,595.359985
806.176025,361.119995,614.880005
802.271973,361.119995,626.591980
812.031982,355.264008,642.208008
837.408020,353.312012,661.728027
843.263977,357.216003,669.536011
854.976013,368.928009,683.200012
856.927979,366.976013,692.960022
847.168030,378.687988,696.864014
831.552002,400.160004,700.768005
813.984009,421.631989,702.719971
792.512024,435.295990,692.960022
782.752014,462.623993,687.104004
782.752014,470.432007,671.487976
771.039978,466.528015,657.823975
767.135986,448.959991,651.968018
763.231995,429.440002,644.159973
739.807983,425.536011,646.112000
722.239990,437.247986,651.968018
716.383972,423.584015,659.776001
708.575989,413.824005,667.583984
714.432007,404.063995,679.296021
716.383972,380.640015,694.911987
733.952026,359.167999,714.432007
749.567993,322.079987,726.143982
771.039978,271.328003,745.664001
782.752014,253.759995,757.375977
778.848022,244.000000,753.471985
769.088013,253.759995,749.567993
749.567993,283.040009,751.520020
739.807983,318.175995,737.856018
708.575989,501.664001,722.239990
714.432007,552.416016,698.815979
706.624023,327.936005,675.392029
765.184021,3.904000,646.112000
726.143982,115.167999,609.023987
698.815979,702.719971,577.791992
710.528015,874.495972,548.512024
712.479980,447.007996,511.424011
735.903992,253.759995,497.760010
700.768005,489.951996,484.096008
724.192017,651.968018,443.104004
694.911987,564.127991,409.920013
714.432007,411.872009,437.247986
710.528015,447.007996,503.615997
663.679993,503.615997,556.320007
620.736023,448.959991,558.271973
665.632019,394.303986,552.416016
667.583984,388.447998,542.656006
681.247986,388.447998,564.127991
667.583984,359.167999,583.648010
642.208008,324.032013,614.880005
653.919983,300.608002,634.400024
634.400024,290.847992,648.064026
640.255981,277.183990,663.679993
646.112000,245.951996,677.343994
653.919983,226.432007,679.296021
651.968018,238.143997,663.679993
659.776001,240.095993,667.583984
663.679993,226.432007,677.343994
665.632019,240.095993,667.583984
663.679993,247.904007,663.679993
626.591980,275.231995,663.679993
634.400024,275.231995,675.392029
618.783997,284.992004,657.823975
622.687988,312.320007,653.919983
603.168030,343.552002,651.968018
597.312012,345.503998,650.015991
591.455994,339.648010,634.400024
573.888000,372.832001,632.447998
568.031982,374.783997,618.783997
546.559998,363.071991,610.976013
534.848022,366.976013,607.072021
527.039978,390.399994,610.976013
542.656006,363.071991,603.168030
550.463989,345.503998,601.216003
560.223999,341.600006,601.216003
542.656006,333.791992,601.216003
546.559998,312.320007,612.927979
534.848022,300.608002,624.640015
519.231995,306.463989,638.304016
523.135986,304.511993,616.831970
519.231995,322.079987,630.495972
513.375977,304.511993,612.927979
528.992004,288.895996,610.976013
523.135986,296.704010,607.072021
527.039978,300.608002,603.168030
519.231995,296.704010,589.504028
517.280029,312.320007,573.888000
523.135986,327.936005,562.176025
517.280029,314.272003,571.935974
515.328003,327.936005,552.416016
495.808014,339.648010,546.559998
486.048004,316.223999,536.799988
464.575989,271.328003,528.992004
448.959991,257.664001,509.471985
429.440002,249.856003,511.424011
423.584015,214.720001,493.855988
423.584015,177.632004,482.144012
413.824005,165.919998,482.144012
404.063995,148.352005,472.384003
396.256012,99.552002,478.239990
400.160004,48.799999,484.096008
407.967987,44.896000,472.384003
423.584015,68.320000,466.528015
431.391998,62.464001,458.720001
433.343994,50.751999,447.007996
452.864014,46.848000,450.911987
452.864014,64.416000,441.152008
448.959991,91.744003,450.911987
443.104004,87.839996,454.816010
445.056000,91.744003,462.623993
445.056000,111.264000,470.432007
450.911987,138.591995,470.432007
447.007996,165.919998,476.287994
437.247986,189.343994,480.191986
441.152008,204.960007,484.096008
433.343994,234.240005,486.048004
439.200012,265.471985,493.855988
431.391998,292.799988,493.855988
425.536011,298.656006,497.760010
433.343994,337.696014,507.519989
437.247986,345.503998,511.424011
425.536011,343.552002,509.471985
415.776001,351.359985,527.039978
431.391998,370.880005,540.703979
427.488007,372.832001,558.271973
447.007996,351.359985,577.791992
452.864014,345.503998,581.695984
466.528015,324.032013,609.023987
472.384003,283.040009,640.255981
488.000000,226.432007,669.536011
505.567993,197.151993,689.056030
499.712006,167.871994,708.575989
507.519989,134.688004,728.096008
513.375977,109.311996,737.856018
513.375977,87.839996,743.711975
515.328003,81.984001,743.711975
515.328003,97.599998,737.856018
513.375977,107.360001,732.000000
503.615997,99.552002,720.288025
495.808014,134.688004,710.528015
484.096008,167.871994,691.007996
488.000000,175.679993,663.679993
488.000000,189.343994,638.304016
489.951996,230.335999,634.400024
489.951996,240.095993,628.544006
482.144012,230.335999,634.400024
484.096008,240.095993,638.304016
505.567993,240.095993,618.783997
468.480011,263.519989,644.159973
503.615997,238.143997,663.679993
499.712006,193.248001,675.392029
484.096008,218.623993,691.007996
476.287994,249.856003,718.335999
484.096008,165.919998,735.903992
493.855988,103.456001,749.567993
499.712006,150.304001,749.567993
503.615997,169.824005,732.000000
505.567993,109.311996,732.000000
513.375977,89.792000,718.335999
503.615997,132.735992,712.479980
488.000000,148.352005,687.104004
501.664001,156.160004,665.632019
503.615997,162.016006,653.919983
499.712006,189.343994,642.208008
489.951996,208.863998,624.640015
484.096008,224.479996,622.687988
470.432007,230.335999,603.168030
468.480011,236.192001,595.359985
460.671997,245.951996,585.599976
458.720001,232.287994,585.599976
456.768005,218.623993,573.888000
454.816010,214.720001,571.935974
450.911987,214.720001,577.791992
456.768005,187.391998,579.744019
450.911987,167.871994,585.599976
443.104004,177.632004,589.504028
447.007996,173.727997,591.455994
439.200012,144.447998,603.168030
443.104004,148.352005,601.216003
435.295990,158.112000,589.504028
425.536011,160.063995,591.455994
429.440002,156.160004,583.648010
417.727997,169.824005,583.648010
406.015991,183.488007,564.127991
407.967987,183.488007,556.320007
402.112000,185.440002,544.607971
390.399994,212.768005,530.943970
380.640015,214.720001,525.088013
372.832001,222.528000,517.280029
370.880005,230.335999,511.424011
363.071991,234.240005,513.375977
363.071991,228.384003,505.567993
355.264008,226.432007,501.664001
359.167999,228.384003,509.471985
365.023987,228.384003,513.375977
355.264008,220.576004,517.280029
359.167999,218.623993,519.231995
368.928009,220.576004,523.135986
359.167999,216.671997,525.088013
365.023987,214.720001,519.231995
359.167999,210.815994,527.039978
361.119995,218.623993,523.135986
363.071991,230.335999,519.231995
368.928009,234.240005,528.992004
361.119995,245.951996,521.184021
372.832001,247.904007,521.184021
376.735992,238.143997,513.375977
368.928009,240.095993,511.424011
370.880005,242.048004,495.808014
378.687988,249.856003,499.712006
376.735992,245.951996,491.903992
382.592010,236.192001,489.951996
382.592010,249.856003,488.000000
390.399994,247.904007,486.048004
392.351990,245.951996,480.191986
404.063995,247.904007,484.096008
406.015991,247.904007,476.287994
407.967987,249.856003,474.335999
407.967987,255.712006,474.335999
413.824005,251.807999,476.287994
406.015991,257.664001,488.000000
417.727997,263.519989,489.951996
425.536011,253.759995,488.000000
435.295990,271.328003,509.471985
431.391998,265.471985,497.760010
435.295990,273.279999,517.280029
441.152008,279.135986,527.039978
447.007996,263.519989,542.656006
462.623993,263.519989,558.271973
472.384003,251.807999,562.176025
486.048004,245.951996,581.695984
489.951996,245.951996,603.168030
495.808014,230.335999,610.976013
513.375977,226.432007,624.640015
521.184021,226.432007,632.447998
521.184021,216.671997,648.064026
530.943970,218.623993,673.440002
530.943970,220.576004,691.007996
536.799988,220.576004,706.624023
542.656006,236.192001,716.383972
548.512024,242.048004,724.192017
546.559998,244.000000,716.383972
556.320007,240.095993,716.383972
556.320007,249.856003,691.007996
556.320007,271.328003,685.151978
550.463989,279.135986,663.679993
544.607971,288.895996,648.064026
538.752014,306.463989,646.112000
527.039978,306.463989,618.783997
528.992004,308.415985,614.880005
519.231995,308.415985,603.168030
511.424011,310.368011,585.599976
521.184021,314.272003,585.599976
511.424011,306.463989,573.888000
511.424011,302.559998,568.031982
513.375977,306.463989,566.080017
511.424011,292.799988,558.271973
509.471985,284.992004,571.935974
515.328003,286.944000,568.031982
513.375977,298.656006,562.176025
513.375977,310.368011,564.127991
513.375977,310.368011,562.176025
503.615997,308.415985,562.176025
519.231995,312.320007,583.648010
521.184021,320.127991,577.791992
519.231995,322.079987,595.359985
521.184021,324.032013,605.119995
523.135986,329.888000,610.976013
527.039978,327.936005,618.783997
532.895996,333.791992,616.831970
523.135986,339.648010,620.736023
525.088013,333.791992,624.640015
525.088013,341.600006,626.591980
527.039978,320.127991,624.640015
528.992004,329.888000,626.591980
523.135986,333.791992,620.736023
525.088013,327.936005,616.831970
528.992004,320.127991,618.783997
525.088013,312.320007,607.072021
525.088013,320.127991,610.976013
525.088013,312.320007,609.023987
525.088013,308.415985,603.168030
527.039978,306.463989,603.168030
519.231995,318.175995,597.312012
523.135986,302.559998,589.504028
528.992004,314.272003,599.263977
532.895996,304.511993,595.359985
538.752014,306.463989,597.312012
538.752014,314.272003,609.023987
534.848022,306.463989,626.591980
540.703979,300.608002,630.495972
544.607971,294.752014,634.400024
542.656006,302.559998,636.351990
544.607971,300.608002,628.544006
548.512024,296.704010,638.304016
544.607971,296.704010,644.159973
548.512024,298.656006,648.064026
560.223999,290.847992,650.015991
550.463989,286.944000,653.919983
554.367981,277.183990,657.823975
554.367981,277.183990,648.064026
564.127991,267.424011,644.159973
558.271973,265.471985,648.064026
568.031982,263.519989,653.919983
569.984009,253.759995,661.728027
569.984009,267.424011,659.776001
571.935974,263.519989,651.968018
569.984009,267.424011,657.823975
568.031982,259.615997,651.968018
569.984009,255.712006,659.776001
587.552002,253.759995,650.015991
587.552002,251.807999,655.872009
581.695984,251.807999,663.679993
579.744019,245.951996,661.728027
591.455994,244.000000,671.487976
599.263977,240.095993,663.679993
593.408020,251.807999,671.487976
593.408020,253.759995,667.583984
599.263977,244.000000,671.487976
599.263977,244.000000,663.679993
597.312012,242.048004,681.247986
597.312012,238.143997,675.392029
601.216003,242.048004,673.440002
609.023987,240.095993,679.296021
607.072021,234.240005,669.536011
601.216003,247.904007,663.679993
589.504028,238.143997,663.679993
591.455994,247.904007,659.776001
593.408020,238.143997,659.776001
595.359985,249.856003,651.968018
589.504028,251.807999,648.064026
583.648010,247.904007,646.112000
581.695984,247.904007,642.208008
589.504028,245.951996,646.112000
585.599976,232.287994,632.447998
587.552002,247.904007,640.255981
581.695984,245.951996,636.351990
581.695984,236.192001,648.064026
587.552002,238.143997,640.255981
589.504028,224.479996,634.400024
583.648010,244.000000,638.304016
585.599976,238.143997,638.304016
583.648010,240.095993,638.304016
587.552002,244.000000,638.304016
593.408020,238.143997,638.304016
587.552002,249.856003,640.255981
589.504028,257.664001,638.304016
587.552002,253.759995,650.015991
589.504028,249.856003,640.255981
587.552002,267.424011,646.112000
593.408020,249.856003,640.255981
589.504028,257.664001,632.447998
599.263977,259.615997,642.208008
599.263977,255.712006,650.015991
597.312012,244.000000,650.015991
599.263977,253.759995,650.015991
607.072021,234.240005,642.208008
603.168030,244.000000,650.015991
607.072021,242.048004,650.015991
605.119995,236.192001,657.823975
605.119995,230.335999,653.919983
612.927979,222.528000,644.159973
612.927979,230.335999,659.776001
614.880005,228.384003,655.872009
626.591980,230.335999,669.536011
628.544006,234.240005,669.536011
628.544006,240.095993,659.776001
632.447998,230.335999,665.632019
628.544006,232.287994,665.632019
646.112000,234.240005,667.583984
638.304016,234.240005,671.487976
636.351990,232.287994,677.343994
646.112000,234.240005,671.487976
648.064026,228.384003,669.536011
657.823975,228.384003,671.487976
655.872009,230.335999,681.247986
669.536011,220.576004,673.440002
663.679993,216.671997,675.392029
667.583984,218.623993,675.392029
675.392029,216.671997,679.296021
675.392029,206.912003,683.200012
679.296021,204.960007,675.392029
679.296021,214.720001,683.200012
679.296021,220.576004,679.296021
683.200012,214.720001,679.296021
689.056030,216.671997,679.296021
683.200012,210.815994,679.296021
691.007996,208.863998,679.296021
700.768005,216.671997,683.200012
696.864014,206.912003,685.151978
696.864014,216.671997,685.151978
702.719971,228.384003,692.960022
704.671997,218.623993,689.056030
708.575989,224.479996,692.960022
706.624023,218.623993,691.007996
710.528015,224.479996,694.911987
704.671997,220.576004,698.815979
702.719971,222.528000,691.007996
714.432007,208.863998,689.056030
716.383972,214.720001,691.007996
712.479980,206.912003,696.864014
706.624023,208.863998,692.960022
712.479980,212.768005,698.815979
716.383972,210.815994,691.007996
714.432007,204.960007,700.768005
716.383972,214.720001,700.768005
714.432007,204.960007,692.960022
714.432007,208.863998,691.007996
720.288025,208.863998,691.007996
710.528015,208.863998,685.151978
712.479980,208.863998,687.104004
718.335999,218.623993,691.007996
720.288025,206.912003,685.151978
728.096008,206.912003,687.104004
726.143982,212.768005,689.056030
722.239990,204.960007,685.151978
724.192017,203.007996,685.151978
720.288025,216.671997,683.200012
722.239990,203.007996,679.296021
720.288025,216.671997,683.200012
714.432007,220.576004,689.056030
724.192017,204.960007,677.343994
716.383972,201.056000,683.200012
718.335999,212.768005,689.056030
720.288025,204.960007,683.200012
712.479980,210.815994,679.296021
714.432007,220.576004,679.296021
720.288025,210.815994,683.200012
716.383972,208.863998,675.392029
718.335999,212.768005,669.536011
724.192017,232.287994,685.151978
722.239990,226.432007,683.200012
718.335999,226.432007,673.440002
718.335999,230.335999,681.247986
722.239990,236.192001,675.392029
728.096008,234.240005,677.343994
720.288025,230.335999,667.583984
724.192017,244.000000,677.343994
718.335999,232.287994,685.151978
720.288025,234.240005,673.440002
726.143982,236.192001,683.200012
718.335999,230.335999,681.247986
728.096008,234.240005,691.007996
726.143982,238.143997,691.007996
728.096008,238.143997,687.104004
728.096008,238.143997,683.200012
743.711975,236.192001,692.960022
737.856018,236.192001,691.007996
735.903992,247.904007,698.815979
743.711975,247.904007,700.768005
747.616028,249.856003,702.719971
739.807983,251.807999,696.864014
749.567993,255.712006,696.864014
747.616028,253.759995,704.671997
755.424011,257.664001,706.624023
757.375977,263.519989,714.432007
759.328003,261.567993,710.528015
763.231995,267.424011,716.383972
759.328003,269.376007,716.383972
769.088013,261.567993,712.479980
769.088013,259.615997,712.479980
769.088013,259.615997,722.239990
771.039978,271.328003,716.383972
780.799988,259.615997,716.383972
774.943970,261.567993,724.192017
776.895996,253.759995,724.192017
792.512024,251.807999,726.143982
788.607971,257.664001,720.288025
790.559998,259.615997,728.096008
790.559998,263.519989,728.096008
784.703979,263.519989,722.239990
784.703979,261.567993,728.096008
792.512024,271.328003,730.047974
798.367981,271.328003,730.047974
792.512024,267.424011,728.096008
796.416016,269.376007,718.335999
798.367981,277.183990,718.335999
790.559998,269.376007,714.432007
794.463989,269.376007,718.335999
794.463989,267.424011,716.383972
790.559998,269.376007,720.288025
788.607971,265.471985,718.335999
792.512024,265.471985,720.288025
788.607971,271.328003,716.383972
782.752014,267.424011,702.719971
778.848022,265.471985,706.624023
778.848022,261.567993,698.815979
782.752014,267.424011,694.911987
772.992004,267.424011,692.960022
772.992004,269.376007,692.960022
776.895996,265.471985,687.104004
767.135986,267.424011,687.104004
778.848022,267.424011,677.343994
765.184021,279.135986,681.247986
771.039978,283.040009,679.296021
763.231995,269.376007,681.247986
757.375977,261.567993,679.296021
771.039978,269.376007,675.392029
765.184021,265.471985,677.343994
749.567993,269.376007,677.343994
757.375977,263.519989,669.536011
755.424011,251.807999,673.440002
757.375977,269.376007,679.296021
753.471985,255.712006,677.343994
757.375977,247.904007,681.247986
753.471985,249.856003,675.392029
757.375977,247.904007,673.440002
761.280029,244.000000,675.392029
753.471985,245.951996,679.296021
749.567993,226.432007,675.392029
767.135986,226.432007,679.296021
765.184021,234.240005,671.487976
761.280029,230.335999,679.296021
757.375977,226.432007,683.200012
767.135986,228.384003,685.151978
761.280029,222.528000,692.960022
761.280029,230.335999,689.056030
767.135986,228.384003,679.296021
761.280029,224.479996,685.151978
767.135986,218.623993,692.960022
774.943970,218.623993,691.007996
757.375977,212.768005,700.768005
763.231995,208.863998,692.960022
763.231995,206.912003,692.960022
769.088013,210.815994,694.911987
759.328003,210.815994,698.815979
757.375977,212.768005,698.815979
761.280029,204.960007,691.007996
755.424011,208.863998,692.960022
763.231995,199.104004,698.815979
761.280029,203.007996,691.007996
771.039978,195.199997,694.911987
753.471985,197.151993,696.864014
755.424011,201.056000,683.200012
759.328003,212.768005,687.104004
757.375977,206.912003,691.007996
749.567993,208.863998,692.960022
759.328003,203.007996,696.864014
753.471985,203.007996,696.864014
755.424011,204.960007,696.864014
759.328003,191.296005,700.768005
761.280029,189.343994,694.911987
757.375977,189.343994,704.671997
757.375977,187.391998,708.575989
761.280029,179.584000,694.911987
765.184021,179.584000,694.911987
757.375977,179.584000,700.768005
761.280029,177.632004,708.575989
765.184021,169.824005,716.383972
765.184021,158.112000,716.383972
763.231995,156.160004,714.432007
763.231995,162.016006,718.335999
757.375977,162.016006,720.288025
757.375977,160.063995,720.288025
765.184021,150.304001,716.383972
771.039978,162.016006,718.335999
765.184021,154.207993,706.624023
765.184021,152.255997,714.432007
767.135986,144.447998,716.383972
771.039978,154.207993,706.624023
763.231995,156.160004,704.671997
763.231995,152.255997,694.911987
761.280029,150.304001,696.864014
767.135986,146.399994,704.671997
763.231995,152.255997,706.624023
761.280029,152.255997,704.671997
763.231995,136.639999,696.864014
767.135986,142.496002,691.007996
761.280029,146.399994,694.911987
755.424011,148.352005,694.911987
749.567993,150.304001,696.864014
749.567993,150.304001,702.719971
751.520020,142.496002,694.911987
755.424011,136.639999,692.960022
745.664001,146.399994,683.200012
735.903992,142.496002,685.151978
737.856018,132.735992,689.056030
743.711975,138.591995,685.151978
733.952026,138.591995,679.296021
739.807983,134.688004,683.200012
730.047974,142.496002,681.247986
732.000000,134.688004,689.056030
728.096008,121.024002,675.392029
726.143982,126.879997,675.392029
726.143982,134.688004,679.296021
728.096008,134.688004,677.343994
720.288025,124.928001,681.247986
716.383972,128.832001,677.343994
716.383972,134.688004,681.247986
704.671997,132.735992,683.200012
710.528015,126.879997,677.343994
704.671997,119.071999,677.343994
700.768005,124.928001,675.392029
702.719971,119.071999,681.247986
710.528015,122.975998,673.440002
700.768005,117.120003,669.536011
698.815979,117.120003,681.247986
698.815979,117.120003,675.392029
691.007996,109.311996,677.343994
691.007996,109.311996,669.536011
694.911987,105.407997,679.296021
694.911987,113.216003,677.343994
696.864014,109.311996,671.487976
696.864014,113.216003,685.151978
694.911987,101.503998,677.343994
683.200012,101.503998,675.392029
687.104004,107.360001,681.247986
694.911987,109.311996,692.960022
687.104004,101.503998,673.440002
687.104004,91.744003,675.392029
692.960022,103.456001,681.247986
687.104004,97.599998,673.440002
687.104004,97.599998,675.392029
691.007996,95.648003,677.343994
683.200012,85.888000,683.200012
681.247986,87.839996,667.583984
685.151978,93.695999,671.487976
675.392029,91.744003,667.583984
679.296021,91.744003,669.536011
683.200012,85.888000,659.776001
681.247986,91.744003,659.776001
677.343994,87.839996,655.872009
677.343994,83.935997,657.823975
675.392029,78.080002,651.968018
667.583984,85.888000,661.728027
677.343994,83.935997,659.776001
671.487976,80.031998,667.583984
669.536011,74.176003,657.823975
673.440002,76.127998,651.968018
669.536011,76.127998,665.632019
681.247986,66.367996,653.919983
671.487976,78.080002,657.823975
663.679993,74.176003,648.064026
669.536011,74.176003,648.064026
661.728027,68.320000,653.919983
663.679993,68.320000,651.968018
663.679993,66.367996,644.159973
657.823975,58.560001,646.112000
657.823975,70.272003,636.351990
663.679993,72.223999,638.304016
659.776001,68.320000,636.351990
663.679993,58.560001,636.351990
663.679993,64.416000,630.495972
651.968018,68.320000,632.447998
659.776001,70.272003,624.640015
655.872009,64.416000,624.640015
653.919983,54.655998,622.687988
659.776001,58.560001,622.687988
651.968018,58.560001,616.831970
663.679993,58.560001,610.976013
665.632019,56.608002,618.783997
665.632019,56.608002,618.783997
671.487976,62.464001,622.687988
677.343994,64.416000,616.831970
679.296021,60.512001,618.783997
681.247986,52.703999,612.927979
685.151978,50.751999,609.023987
681.247986,64.416000,624.640015
689.056030,60.512001,616.831970
691.007996,56.608002,616.831970
687.104004,68.320000,620.736023
696.864014,64.416000,618.783997
696.864014,56.608002,612.927979
694.911987,58.560001,612.927979
696.864014,50.751999,622.687988
696.864014,60.512001,616.831970
704.671997,60.512001,620.736023
700.768005,60.512001,618.783997
692.960022,56.608002,614.880005
698.815979,64.416000,612.927979
700.768005,64.416000,610.976013
706.624023,66.367996,612.927979
706.624023,60.512001,605.119995
704.671997,64.416000,610.976013
706.624023,64.416000,609.023987
712.479980,68.320000,610.976013
716.383972,68.320000,607.072021
718.335999,66.367996,603.168030
720.288025,74.176003,605.119995
720.288025,78.080002,601.216003
724.192017,87.839996,610.976013
722.239990,70.272003,603.168030
726.143982,83.935997,607.072021
735.903992,91.744003,607.072021
732.000000,95.648003,610.976013
735.903992,85.888000,610.976013
745.664001,78.080002,612.927979
751.520020,81.984001,612.927979
755.424011,93.695999,609.023987
757.375977,97.599998,612.927979
757.375977,105.407997,616.831970
765.184021,109.311996,614.880005
761.280029,111.264000,616.831970
769.088013,105.407997,616.831970
778.848022,105.407997,624.640015
782.752014,117.120003,626.591980
782.752014,117.120003,626.591980
798.367981,117.120003,632.447998
800.320007,122.975998,630.495972
808.127991,117.120003,626.591980
812.031982,132.735992,634.400024
813.984009,126.879997,630.495972
817.888000,124.928001,634.400024
821.791992,134.688004,634.400024
821.791992,128.832001,634.400024
829.599976,130.783997,646.112000
833.504028,128.832001,640.255981
843.263977,124.928001,646.112000
841.312012,134.688004,651.968018
843.263977,132.735992,651.968018
849.119995,132.735992,648.064026
851.072021,128.832001,638.304016
858.880005,136.639999,644.159973
851.072021,142.496002,648.064026
854.976013,148.352005,636.351990
862.783997,144.447998,653.919983
862.783997,140.544006,644.159973
866.687988,148.352005,657.823975
866.687988,158.112000,657.823975
866.687988,156.160004,646.112000
866.687988,152.255997,648.064026
874.495972,158.112000,644.159973
872.544006,165.919998,651.968018
874.495972,163.968002,661.728027
876.447998,152.255997,648.064026
866.687988,160.063995,651.968018
878.400024,169.824005,659.776001
878.400024,169.824005,659.776001
884.255981,165.919998,663.679993
892.064026,175.679993,653.919983
890.112000,177.632004,648.064026
882.304016,173.727997,653.919983
886.208008,175.679993,648.064026
882.304016,169.824005,648.064026
884.255981,187.391998,651.968018
886.208008,175.679993,650.015991
884.255981,175.679993,642.208008
886.208008,183.488007,642.208008
886.208008,177.632004,636.351990
882.304016,177.632004,632.447998
882.304016,177.632004,636.351990
880.351990,175.679993,634.400024
878.400024,185.440002,628.544006
888.159973,171.776001,634.400024
882.304016,185.440002,630.495972
878.400024,175.679993,624.640015
888.159973,177.632004,634.400024
884.255981,185.440002,630.495972
886.208008,177.632004,632.447998
886.208008,183.488007,632.447998
882.304016,189.343994,642.208008
886.208008,179.584000,644.159973
886.208008,179.584000,644.159973
890.112000,197.151993,634.400024
899.872009,181.535995,628.544006
895.968018,185.440002,628.544006
899.872009,187.391998,634.400024
884.255981,191.296005,628.544006
892.064026,181.535995,628.544006
886.208008,179.584000,624.640015
890.112000,189.343994,626.591980
884.255981,179.584000,624.640015
878.400024,185.440002,620.736023
884.255981,181.535995,620.736023
878.400024,185.440002,616.831970
878.400024,185.440002,612.927979
884.255981,179.584000,618.783997
880.351990,183.488007,607.072021
884.255981,181.535995,612.927979
872.544006,171.776001,612.927979
874.495972,171.776001,612.927979
868.640015,179.584000,616.831970
858.880005,185.440002,610.976013
860.831970,175.679993,614.880005
864.736023,183.488007,618.783997
854.976013,185.440002,610.976013
854.976013,175.679993,610.976013
849.119995,175.679993,607.072021
860.831970,177.632004,601.216003
856.927979,175.679993,601.216003
851.072021,173.727997,597.312012
847.168030,179.584000,597.312012
833.504028,177.632004,595.359985
837.408020,179.584000,597.312012
835.455994,167.871994,581.695984
831.552002,160.063995,587.552002
829.599976,173.727997,583.648010
833.504028,167.871994,581.695984
829.599976,156.160004,571.935974
833.504028,169.824005,566.080017
821.791992,169.824005,566.080017
825.695984,154.207993,562.176025
825.695984,154.207993,560.223999
819.840027,162.016006,560.223999
821.791992,156.160004,558.271973
819.840027,163.968002,556.320007
819.840027,162.016006,558.271973
819.840027,167.871994,554.367981
819.840027,165.919998,560.223999
815.935974,160.063995,552.416016
813.984009,160.063995,560.223999
821.791992,160.063995,546.559998
813.984009,160.063995,546.559998
813.984009,156.160004,542.656006
815.935974,156.160004,556.320007
817.888000,162.016006,554.367981
812.031982,160.063995,552.416016
815.935974,150.304001,554.367981
817.888000,148.352005,548.512024
817.888000,152.255997,544.607971
808.127991,140.544006,532.895996
808.127991,136.639999,546.559998
815.935974,134.688004,542.656006
806.176025,144.447998,532.895996
798.367981,142.496002,523.135986
812.031982,132.735992,525.088013
806.176025,138.591995,527.039978
817.888000,144.447998,523.135986
806.176025,140.544006,519.231995
800.320007,144.447998,521.184021
808.127991,148.352005,521.184021
806.176025,144.447998,515.328003
792.512024,140.544006,513.375977
798.367981,148.352005,511.424011
806.176025,144.447998,517.280029
792.512024,148.352005,507.519989
802.271973,142.496002,511.424011
804.223999,142.496002,507.519989
802.271973,142.496002,497.760010
796.416016,124.928001,497.760010
798.367981,128.832001,505.567993
796.416016,121.024002,499.712006
806.176025,126.879997,493.855988
798.367981,122.975998,495.808014
794.463989,113.216003,491.903992
798.367981,122.975998,484.096008
804.223999,115.167999,488.000000
800.320007,115.167999,486.048004
798.367981,117.120003,486.048004
802.271973,113.216003,488.000000
806.176025,111.264000,484.096008
813.984009,111.264000,476.287994
810.080017,113.216003,478.239990
815.935974,113.216003,480.191986
815.935974,126.879997,468.480011
821.791992,121.024002,462.623993
821.791992,122.975998,474.335999
831.552002,115.167999,474.335999
831.552002,107.360001,478.239990
839.359985,113.216003,478.239990
839.359985,115.167999,470.432007
845.216003,111.264000,486.048004
845.216003,113.216003,488.000000
841.312012,121.024002,489.951996
847.168030,122.975998,488.000000
847.168030,117.120003,491.903992
847.168030,107.360001,488.000000
860.831970,111.264000,501.664001
856.927979,111.264000,505.567993
860.831970,115.167999,507.519989
862.783997,113.216003,521.184021
880.351990,119.071999,509.471985
878.400024,121.024002,528.992004
882.304016,117.120003,519.231995
882.304016,132.735992,534.848022
888.159973,126.879997,538.752014
892.064026,130.783997,527.039978
897.919983,138.591995,530.943970
903.776001,140.544006,532.895996
903.776001,148.352005,534.848022
911.583984,142.496002,528.992004
917.440002,140.544006,532.895996
919.392029,154.207993,532.895996
921.343994,148.352005,538.752014
919.392029,154.207993,527.039978
931.104004,138.591995,530.943970
936.960022,132.735992,532.895996
936.960022,134.688004,536.799988
956.479980,130.783997,527.039978
970.143982,124.928001,540.703979
976.000000,150.304001,554.367981
993.567993,152.255997,558.271973
1001.375977,130.783997,575.840027
1011.135986,138.591995,585.599976
1015.039978,179.584000,601.216003
1018.943970,160.063995,616.831970
1022.848022,136.639999,638.304016
1036.511963,146.399994,650.015991
1036.511963,156.160004,665.632019
1034.560059,148.352005,661.728027
1040.416016,132.735992,673.440002
1048.223999,132.735992,683.200012
1052.128052,136.639999,671.487976
1050.176025,148.352005,663.679993
1048.223999,140.544006,663.679993
1042.368042,150.304001,663.679993
1044.319946,148.352005,653.919983
1036.511963,156.160004,646.112000
1040.416016,156.160004,642.208008
1034.560059,160.063995,636.351990
1036.511963,156.160004,640.255981
1022.848022,158.112000,620.736023
1022.848022,160.063995,614.880005
1020.895996,162.016006,601.216003
1009.184021,160.063995,603.168030
1020.895996,150.304001,595.359985
1009.184021,144.447998,595.359985
1011.135986,163.968002,597.312012
999.424011,160.063995,587.552002
1005.280029,136.639999,585.599976
999.424011,140.544006,589.504028
999.424011,128.832001,593.408020
997.471985,128.832001,595.359985
991.616028,138.591995,599.263977
985.760010,138.591995,587.552002
987.711975,138.591995,599.263977
987.711975,138.591995,595.359985
977.952026,144.447998,593.408020
983.807983,146.399994,595.359985
985.760010,140.544006,591.455994
979.903992,132.735992,595.359985
968.192017,136.639999,587.552002
970.143982,140.544006,583.648010
968.192017,144.447998,577.791992
962.335999,138.591995,568.031982
958.432007,134.688004,554.367981
956.479980,144.447998,564.127991
958.432007,140.544006,552.416016
944.768005,140.544006,542.656006
938.911987,140.544006,544.607971
938.911987,140.544006,532.895996
936.960022,138.591995,530.943970
935.007996,132.735992,536.799988
931.104004,130.783997,530.943970
927.200012,130.783997,519.231995
935.007996,117.120003,521.184021
931.104004,130.783997,521.184021
929.151978,121.024002,523.135986
923.296021,124.928001,534.848022
919.392029,130.783997,532.895996
917.440002,117.120003,530.943970
919.392029,128.832001,542.656006
931.104004,124.928001,540.703979
921.343994,126.879997,552.416016
931.104004,124.928001,554.367981
917.440002,124.928001,568.031982
923.296021,134.688004,560.223999
919.392029,140.544006,552.416016
911.583984,142.496002,554.367981
913.536011,142.496002,564.127991
907.679993,132.735992,552.416016
907.679993,142.496002,550.463989
903.776001,144.447998,544.607971
907.679993,138.591995,534.848022
903.776001,142.496002,544.607971
907.679993,148.352005,534.848022
899.872009,156.160004,540.703979
897.919983,146.399994,528.992004
895.968018,142.496002,530.943970
890.112000,146.399994,523.135986
899.872009,146.399994,525.088013
897.919983,146.399994,523.135986
901.823975,126.879997,523.135986
897.919983,130.783997,538.752014
892.064026,142.496002,528.992004
901.823975,132.735992,525.088013
897.919983,121.024002,528.992004
897.919983,117.120003,532.895996
899.872009,132.735992,527.039978
905.728027,142.496002,540.703979
911.583984,128.832001,530.943970
911.583984,142.496002,534.848022
911.583984,144.447998,540.703979
915.487976,150.304001,536.799988
909.632019,146.399994,552.416016
905.728027,144.447998,542.656006
913.536011,150.304001,550.463989
915.487976,152.255997,536.799988
917.440002,158.112000,542.656006
915.487976,146.399994,546.559998
917.440002,140.544006,548.512024
923.296021,148.352005,542.656006
925.247986,144.447998,542.656006
919.392029,128.832001,552.416016
913.536011,140.544006,542.656006
913.536011,146.399994,542.656006
919.392029,138.591995,540.703979
917.440002,142.496002,532.895996
927.200012,140.544006,534.848022
915.487976,144.447998,527.039978
915.487976,158.112000,540.703979
915.487976,156.160004,525.088013
909.632019,160.063995,534.848022
913.536011,173.727997,525.088013
921.343994,169.824005,534.848022
911.583984,167.871994,534.848022
919.392029,165.919998,540.703979
921.343994,171.776001,540.703979
921.343994,171.776001,544.607971
909.632019,163.968002,540.703979
911.583984,169.824005,534.848022
917.440002,169.824005,534.848022
909.632019,171.776001,538.752014
909.632019,163.968002,538.752014
907.679993,156.160004,528.992004
915.487976,156.160004,536.799988
909.632019,163.968002,528.992004
901.823975,158.112000,523.135986
907.679993,154.207993,528.992004
894.015991,160.063995,528.992004
894.015991,146.399994,525.088013
895.968018,167.871994,515.328003
897.919983,156.160004,509.471985
895.968018,162.016006,517.280029
894.015991,156.160004,509.471985
886.208008,163.968002,503.615997
892.064026,165.919998,499.712006
899.872009,165.919998,493.855988
892.064026,162.016006,503.615997
886.208008,163.968002,493.855988
886.208008,163.968002,501.664001
886.208008,156.160004,495.808014
886.208008,160.063995,501.664001
894.015991,171.776001,499.712006
886.208008,163.968002,503.615997
886.208008,158.112000,511.424011
892.064026,146.399994,505.567993
888.159973,144.447998,505.567993
882.304016,150.304001,511.424011
888.159973,138.591995,513.375977
884.255981,140.544006,509.471985
884.255981,146.399994,513.375977
886.208008,152.255997,507.519989
874.495972,144.447998,509.471985
884.255981,142.496002,503.615997
868.640015,144.447998,507.519989
874.495972,150.304001,503.615997
868.640015,144.447998,509.471985
862.783997,140.544006,493.855988
856.927979,150.304001,505.567993
858.880005,148.352005,499.712006
860.831970,160.063995,488.000000
854.976013,154.207993,493.855988
854.976013,130.783997,489.951996
860.831970,140.544006,488.000000
860.831970,140.544006,488.000000
856.927979,136.639999,495.808014
851.072021,142.496002,501.664001
853.023987,136.639999,484.096008
849.119995,122.975998,484.096008
843.263977,126.879997,476.287994
847.168030,128.832001,480.191986
843.263977,128.832001,482.144012
839.359985,134.688004,472.384003
847.168030,128.832001,484.096008
837.408020,124.928001,476.287994
837.408020,126.879997,474.335999
831.552002,119.071999,478.239990
837.408020,124.928001,484.096008
833.504028,122.975998,468.480011
835.455994,121.024002,460.671997
835.455994,115.167999,470.432007
841.312012,119.071999,472.384003
831.552002,109.311996,474.335999
841.312012,105.407997,474.335999
837.408020,107.360001,474.335999
841.312012,99.552002,476.287994
839.359985,105.407997,488.000000
839.359985,99.552002,488.000000
841.312012,97.599998,493.855988
837.408020,95.648003,493.855988
833.504028,95.648003,497.760010
839.359985,95.648003,505.567993
839.359985,99.552002,511.424011
837.408020,91.744003,509.471985
849.119995,81.984001,515.328003
847.168030,81.984001,525.088013
843.263977,78.080002,528.992004
845.216003,83.935997,528.992004
847.168030,81.984001,530.943970
849.119995,78.080002,536.799988
843.263977,78.080002,536.799988
835.455994,83.935997,534.848022
845.216003,87.839996,532.895996
837.408020,80.031998,540.703979
841.312012,74.176003,530.943970
833.504028,81.984001,525.088013
827.648010,78.080002,521.184021
835.455994,91.744003,523.135986
827.648010,87.839996,523.135986
825.695984,78.080002,517.280029
821.791992,78.080002,511.424011
821.791992,78.080002,503.615997
821.791992,76.127998,509.471985
815.935974,83.935997,503.615997
806.176025,78.080002,499.712006
810.080017,83.935997,497.760010
806.176025,81.984001,489.951996
798.367981,81.984001,491.903992
798.367981,80.031998,489.951996
792.512024,89.792000,486.048004
792.512024,85.888000,486.048004
792.512024,91.744003,474.335999
788.607971,89.792000,484.096008
790.559998,95.648003,480.191986
780.799988,91.744003,478.239990
780.799988,97.599998,476.287994
782.752014,97.599998,478.239990
778.848022,111.264000,478.239990
774.943970,101.503998,476.287994
771.039978,99.552002,482.144012
765.184021,109.311996,478.239990
772.992004,101.503998,486.048004
761.280029,89.792000,468.480011
753.471985,97.599998,472.384003
761.280029,97.599998,478.239990
749.567993,89.792000,482.144012
755.424011,95.648003,476.287994
751.520020,95.648003,464.575989
745.664001,95.648003,464.575989
743.711975,97.599998,460.671997
730.047974,99.552002,468.480011
722.239990,103.456001,458.720001
726.143982,95.648003,450.911987
720.288025,101.503998,445.056000
708.575989,95.648003,439.200012
710.528015,97.599998,433.343994
708.575989,101.503998,417.727997
704.671997,107.360001,425.536011
696.864014,101.503998,427.488007
679.296021,99.552002,421.631989
626.591980,109.311996,417.727997
657.823975,101.503998,427.488007
644.159973,80.031998,419.679993
663.679993,72.223999,413.824005
673.440002,95.648003,413.824005
669.536011,64.416000,409.920013
659.776001,64.416000,407.967987
659.776001,66.367996,406.015991
648.064026,81.984001,409.920013
655.872009,97.599998,384.544006
644.159973,101.503998,382.592010
646.112000,97.599998,386.496002
636.351990,97.599998,392.351990
638.304016,107.360001,376.735992
630.495972,121.024002,361.119995
632.447998,119.071999,349.407990
628.544006,103.456001,359.167999
622.687988,101.503998,357.216003
630.495972,101.503998,341.600006
632.447998,113.216003,335.743988
624.640015,105.407997,339.648010
626.591980,97.599998,347.455994
616.831970,85.888000,343.552002
618.783997,83.935997,329.888000
626.591980,80.031998,324.032013
634.400024,66.367996,316.223999
630.495972,56.608002,316.223999
632.447998,68.320000,314.272003
634.400024,56.608002,310.368011
636.351990,54.655998,320.127991
628.544006,64.416000,314.272003
640.255981,56.608002,306.463989
651.968018,54.655998,308.415985
636.351990,48.799999,304.511993
653.919983,62.464001,296.704010
642.208008,58.560001,296.704010
642.208008,64.416000,294.752014
630.495972,60.512001,298.656006
616.831970,70.272003,300.608002
620.736023,48.799999,300.608002
607.072021,27.327999,304.511993
603.168030,39.040001,302.559998
610.976013,37.088001,304.511993
610.976013,23.424000,300.608002
610.976013,15.616000,308.415985
612.927979,13.664000,308.415985
612.927979,15.616000,300.608002
616.831970,19.520000,298.656006
620.736023,23.424000,302.559998
616.831970,15.616000,310.368011
610.976013,17.568001,314.272003
612.927979,21.472000,308.415985
609.023987,52.703999,308.415985
605.119995,48.799999,304.511993
622.687988,33.183998,318.175995
622.687988,37.088001,308.415985
620.736023,39.040001,312.320007
632.447998,31.232000,310.368011
648.064026,40.992001,310.368011
653.919983,44.896000,306.463989
638.304016,37.088001,300.608002
636.351990,29.280001,288.895996
636.351990,42.944000,288.895996
634.400024,62.464001,269.376007
622.687988,66.367996,273.279999
612.927979,27.327999,286.944000
614.880005,15.616000,281.088013
622.687988,48.799999,277.183990
642.208008,46.848000,296.704010
640.255981,27.327999,312.320007
648.064026,15.616000,335.743988
677.343994,29.280001,353.312012
671.487976,35.136002,355.264008
683.200012,39.040001,368.928009
659.776001,23.424000,390.399994
689.056030,-3.904000,402.112000
671.487976,15.616000,404.063995
679.296021,25.375999,413.824005
675.392029,25.375999,423.584015
669.536011,11.712000,435.295990
692.960022,11.712000,437.247986
694.911987,31.232000,429.440002
694.911987,39.040001,429.440002
694.911987,58.560001,425.536011
696.864014,52.703999,421.631989
679.296021,50.751999,413.824005
681.247986,64.416000,402.112000
669.536011,83.935997,390.399994
679.296021,85.888000,374.783997
679.296021,64.416000,372.832001
694.911987,72.223999,351.359985
683.200012,91.744003,333.791992
692.960022,85.888000,322.079987
681.247986,46.848000,322.079987
751.520020,0.000000,292.799988
747.616028,138.591995,271.328003
712.479980,234.240005,302.559998
704.671997,76.127998,355.264008
767.135986,-113.216003,345.503998
778.848022,-7.808000,271.328003
765.184021,271.328003,226.432007
778.848022,160.063995,263.519989
788.607971,-89.792000,300.608002
810.080017,-48.799999,322.079987
778.848022,189.343994,306.463989
778.848022,226.432007,308.415985
802.271973,62.464001,322.079987
843.263977,-29.280001,335.743988
831.552002,50.751999,355.264008
829.599976,97.599998,366.976013
847.168030,23.424000,359.167999
870.591980,-40.992001,325.984009
903.776001,1.952000,312.320007
907.679993,62.464001,306.463989
919.392029,60.512001,283.040009
921.343994,33.183998,261.567993
919.392029,39.040001,236.192001
899.872009,81.984001,204.960007
901.823975,99.552002,193.248001
897.919983,37.088001,201.056000
1040.416016,122.975998,220.576004
931.104004,193.248001,224.479996
936.960022,117.120003,216.671997
831.552002,25.375999,201.056000
843.263977,-58.560001,204.960007
815.935974,3.904000,187.391998
870.591980,439.200012,167.871994
856.927979,616.831970,191.296005
890.112000,388.447998,191.296005
927.200012,273.279999,189.343994
942.815979,495.808014,199.104004
985.760010,552.416016,216.671997
993.567993,425.536011,230.335999
1022.848022,343.552002,238.143997
1030.656006,308.415985,245.951996
1038.463989,281.088013,249.856003
1046.271973,251.807999,267.424011
1030.656006,220.576004,273.279999
1034.560059,152.255997,269.376007
1042.368042,83.935997,269.376007
1046.271973,66.367996,269.376007
1030.656006,56.608002,294.752014
1034.560059,40.992001,302.559998
1022.848022,48.799999,312.320007
1022.848022,124.928001,320.127991
1048.223999,177.632004,327.936005
1050.176025,119.071999,337.696014
1073.599976,40.992001,349.407990
1108.735962,25.375999,378.687988
1102.880005,97.599998,400.160004
1081.407959,212.768005,413.824005
1073.599976,275.231995,437.247986
1097.024048,253.759995,480.191986
1081.407959,173.727997,501.664001
1102.880005,158.112000,517.280029
1106.784058,228.384003,527.039978
1118.495972,259.615997,532.895996
1122.400024,214.720001,538.752014
1128.255981,119.071999,542.656006
1136.063965,74.176003,560.223999
1138.015991,93.695999,562.176025
1122.400024,113.216003,566.080017
1126.303955,99.552002,571.935974
1104.832031,54.655998,581.695984
1104.832031,39.040001,585.599976
1106.784058,31.232000,589.504028
1091.167969,31.232000,603.168030
1081.407959,35.136002,612.927979
1085.312012,21.472000,622.687988
1081.407959,0.000000,614.880005
1087.264038,-5.856000,607.072021
974.047974,-122.975998,601.216003
851.072021,-460.671997,646.112000
892.064026,-296.704010,761.280029
847.168030,-85.888000,813.984009
886.208008,-103.456001,800.320007
1015.039978,-206.912003,778.848022
1044.319946,-204.960007,735.903992
948.671997,-136.639999,694.911987
999.424011,-39.040001,650.015991
1059.936035,-93.695999,603.168030
1065.791992,-242.048004,554.367981
1069.696045,-210.815994,519.231995
1098.975952,-113.216003,488.000000
1120.447998,-167.871994,470.432007
1120.447998,-263.519989,448.959991
1122.400024,-230.335999,427.488007
1126.303955,-167.871994,406.015991
1114.592041,-201.056000,402.112000
1108.735962,-236.192001,400.160004
1097.024048,-204.960007,400.160004
1095.072021,-146.399994,400.160004
1069.696045,-93.695999,382.592010
1059.936035,-64.416000,380.640015
1040.416016,-17.568001,374.783997
1009.184021,39.040001,353.312012
987.711975,126.879997,331.839996
968.192017,181.535995,308.415985
954.528015,226.432007,288.895996
935.007996,249.856003,267.424011
927.200012,279.135986,232.287994
933.056030,292.799988,204.960007
911.583984,277.183990,189.343994
913.536011,240.095993,134.688004
899.872009,193.248001,103.456001
897.919983,160.063995,80.031998
899.872009,126.879997,46.848000
884.255981,76.127998,7.808000
878.400024,33.183998,-21.472000
864.736023,1.952000,-74.176003
841.312012,-17.568001,-97.599998
864.736023,-29.280001,-128.832001
851.072021,-21.472000,-156.160004
839.359985,15.616000,-181.535995
813.984009,68.320000,-220.576004
813.984009,93.695999,-251.807999
819.840027,138.591995,-271.328003
813.984009,152.255997,-300.608002
808.127991,177.632004,-302.559998
813.984009,173.727997,-324.032013
804.223999,208.863998,-337.696014
804.223999,236.192001,-368.928009
792.512024,214.720001,-394.303986
790.559998,224.479996,-406.015991
776.895996,216.671997,-404.063995
788.607971,249.856003,-406.015991
784.703979,220.576004,-402.112000
774.943970,232.287994,-407.967987
767.135986,236.192001,-411.872009
782.752014,212.768005,-415.776001
778.848022,193.248001,-417.727997
776.895996,167.871994,-413.824005
810.080017,201.056000,-411.872009
786.656006,197.151993,-437.247986
800.320007,193.248001,-441.152008
599.263977,275.231995,-329.888000
679.296021,501.664001,195.199997
732.000000,27.327999,203.007996
694.911987,-279.135986,-279.135986
987.711975,232.287994,-712.479980
935.007996,386.496002,-841.312012
938.911987,419.679993,-651.968018
851.072021,-7.808000,-195.199997
899.872009,224.479996,-359.167999
995.520020,587.552002,-556.320007
999.424011,380.640015,-591.455994
999.424011,158.112000,-448.959991
587.552002,402.112000,-179.584000
1143.871948,618.783997,265.471985
1401.536011,790.559998,351.359985
1116.543945,540.703979,165.919998
636.351990,603.168030,466.528015
605.119995,1040.416016,776.895996
1733.375977,610.976013,593.408020
1454.239990,-739.807983,733.952026
1780.223999,-2088.639893,675.392029
1727.520020,-2383.392090,669.536011
1739.232056,-1903.199951,650.015991
1514.751953,-634.400024,720.288025
1397.631958,1022.848022,726.143982
1456.192017,1639.680054,646.112000
1555.744019,1448.384033,593.408020
1374.208008,968.192017,648.064026
1245.375977,396.256012,677.343994
1356.640015,-29.280001,595.359985
1458.144043,-304.511993,519.231995
1520.608032,-292.799988,511.424011
1501.088013,-109.311996,480.191986
1432.767944,124.928001,398.208008
1452.287964,935.007996,333.791992
1366.400024,1653.343994,296.704010
1380.063965,1737.280029,257.664001
1329.312012,1284.416016,292.799988
1333.215942,265.471985,351.359985
1485.472046,-1446.432007,409.920013
1512.800049,-2559.072021,523.135986
1495.232056,-1549.887939,527.039978
1397.631958,413.824005,493.855988
1387.871948,1423.008057,462.623993
1489.375977,1553.791992,398.208008
1458.144043,1581.119995,312.320007
1296.128052,1288.319946,249.856003
1321.504028,117.120003,189.343994
1337.119995,-1071.647949,148.352005
1395.680054,-1305.887939,117.120003
1405.439941,-628.544006,101.503998
1382.015991,443.104004,66.367996
1370.303955,1454.239990,50.751999
1333.215942,2012.511963,76.127998
1225.855957,1460.095947,91.744003
1233.663940,-40.992001,44.896000
1276.608032,-1614.303955,23.424000
1383.968018,-2723.040039,15.616000
1245.375977,-2279.936035,93.695999
1151.680054,-236.192001,162.016006
1124.352051,1383.968018,193.248001
1301.984009,1600.640015,195.199997
1372.255981,1374.208008,162.016006
1329.312012,1167.296021,87.839996
1231.712036,493.855988,-25.375999
1243.423950,-507.519989,-103.456001
1278.560059,-1030.656006,-156.160004
1251.232056,-689.056030,-214.720001
1257.088013,279.135986,-255.712006
1182.911987,1522.560059,-210.815994
1100.927979,2223.327881,-87.839996
1050.176025,1524.511963,-13.664000
1028.703979,-197.151993,-56.608002
1221.952026,-1676.767944,-165.919998
1288.319946,-2420.479980,-167.871994
1284.416016,-2211.615967,-37.088001
1247.328003,-1083.359985,156.160004
1307.839966,169.824005,423.584015
1489.375977,683.200012,663.679993
1629.920044,488.000000,929.151978
1754.848022,-275.231995,1177.056030
1827.072021,-1311.744019,1512.800049
2037.887939,-2213.568115,2014.463989
2194.048096,-2151.104004,2365.823975
2233.087891,-1300.031982,2299.456055
2164.768066,-413.824005,1788.031982
2008.608032,39.040001,1087.264038
1774.368042,249.856003,427.488007
1473.760010,372.832001,-107.360001
1259.040039,437.247986,-476.287994
1116.543945,495.808014,-706.624023
1046.271973,575.840027,-835.455994
964.288025,683.200012,-817.888000
1052.128052,796.416016,-704.671997
1182.911987,819.840027,-480.191986
1317.599976,739.807983,-181.535995
1358.592041,532.895996,181.535995
1409.343994,290.847992,470.432007
1397.631958,54.655998,583.648010
1303.936035,-37.088001,482.144012
1206.336060,-5.856000,265.471985
1155.583984,46.848000,56.608002
1106.784058,70.272003,19.520000
1163.391968,-7.808000,132.735992
1315.647949,-173.727997,351.359985
1469.855957,-427.488007,585.599976
1563.552002,-632.447998,696.864014
1510.848022,-685.151978,550.463989
1393.728027,-538.752014,197.151993
1249.280029,-263.519989,-162.016006
1134.112061,-46.848000,-406.015991
1087.264038,9.760000,-443.104004
1075.552002,-7.808000,-370.880005
1087.264038,-11.712000,-245.951996
1071.647949,50.751999,-183.488007
1089.215942,238.143997,-136.639999
1093.119995,525.088013,-101.503998
1104.832031,784.703979,-58.560001
1124.352051,894.015991,-44.896000
1153.631958,895.968018,-76.127998
1147.776001,903.776001,-113.216003
1161.439941,903.776001,-113.216003
1171.199951,829.599976,-56.608002
1173.151978,648.064026,13.664000
1171.199951,470.432007,27.327999
1128.255981,333.791992,27.327999
1122.400024,220.576004,5.856000
1106.784058,113.216003,-5.856000
1087.264038,-35.136002,0.000000
1091.167969,-216.671997,-9.760000
1079.456055,-333.791992,-37.088001
1054.079956,-347.455994,-95.648003
991.616028,-310.368011,-167.871994
944.768005,-534.848022,-208.863998
944.768005,-890.112000,-275.231995
938.911987,-958.432007,-353.312012
921.343994,-782.752014,-382.592010
935.007996,-445.056000,-349.407990
948.671997,-113.216003,-267.424011
960.383972,154.207993,-191.296005
991.616028,355.264008,-144.447998
1011.135986,431.391998,-109.311996
1028.703979,347.455994,-89.792000
1022.848022,175.679993,-44.896000
1034.560059,25.375999,-13.664000
1048.223999,-144.447998,11.712000
1046.271973,-267.424011,39.040001
1042.368042,-275.231995,44.896000
1026.751953,-204.960007,21.472000
1028.703979,-52.703999,-7.808000
1022.848022,46.848000,-50.751999
1022.848022,105.407997,-95.648003
1020.895996,119.071999,-130.783997
1009.184021,87.839996,-154.207993
1011.135986,44.896000,-154.207993
1030.656006,5.856000,-128.832001
1032.608032,-5.856000,-83.935997
1046.271973,-19.520000,-56.608002
1069.696045,9.760000,-54.655998
1065.791992,23.424000,-87.839996
1057.984009,60.512001,-130.783997
1054.079956,70.272003,-156.160004
1026.751953,60.512001,-179.584000
1042.368042,42.944000,-193.248001
1042.368042,25.375999,-183.488007
1042.368042,48.799999,-150.304001
1046.271973,27.327999,-103.456001
1067.744019,31.232000,-74.176003
1063.839966,27.327999,-39.040001
1075.552002,42.944000,-50.751999
1063.839966,50.751999,-52.703999
1046.271973,91.744003,-60.512001
1056.031982,115.167999,-58.560001
1067.744019,138.591995,-23.424000
1065.791992,165.919998,9.760000
1091.167969,195.199997,9.760000
1102.880005,242.048004,21.472000
1118.495972,255.712006,3.904000
1102.880005,269.376007,-3.904000
1085.312012,288.895996,-3.904000
1089.215942,275.231995,-9.760000
1091.167969,228.384003,-23.424000
1087.264038,175.679993,-37.088001
1095.072021,107.360001,-62.464001
1093.119995,33.183998,-56.608002
1067.744019,19.520000,-76.127998
1054.079956,3.904000,-105.407997
1046.271973,-25.375999,-105.407997
1057.984009,-7.808000,-76.127998
1071.647949,9.760000,-62.464001
1081.407959,17.568001,-33.183998
1100.927979,40.992001,-23.424000
1097.024048,52.703999,-11.712000
1102.880005,70.272003,-7.808000
1098.975952,97.599998,-19.520000
1110.687988,124.928001,-31.232000
1104.832031,144.447998,-33.183998
1095.072021,165.919998,-46.848000
1089.215942,152.255997,-39.040001
1091.167969,111.264000,-39.040001
1102.880005,76.127998,-19.520000
1098.975952,60.512001,-27.327999
1095.072021,50.751999,-33.183998
1085.312012,52.703999,-39.040001
1079.456055,40.992001,-37.088001
1073.599976,44.896000,-35.136002
1085.312012,76.127998,-56.608002
1073.599976,76.127998,-62.464001
1073.599976,105.407997,-46.848000
1073.599976,121.024002,-37.088001
1081.407959,97.599998,-27.327999
1085.312012,85.888000,-37.088001
1079.456055,87.839996,-54.655998
1065.791992,68.320000,-60.512001
1046.271973,52.703999,-66.367996
1042.368042,54.655998,-74.176003
1030.656006,52.703999,-70.272003
1030.656006,35.136002,-52.703999
1042.368042,21.472000,-44.896000
1030.656006,31.232000,-56.608002
1032.608032,81.984001,-107.360001
1011.135986,93.695999,-119.071999
1011.135986,111.264000,-162.016006
1003.328003,124.928001,-177.632004
1005.280029,76.127998,-160.063995
1020.895996,29.280001,-113.216003
1034.560059,11.712000,-68.320000
1038.463989,13.664000,-21.472000
1038.463989,17.568001,-35.136002
1022.848022,27.327999,-62.464001
1013.088013,68.320000,-109.311996
989.664001,111.264000,-122.975998
999.424011,132.735992,-148.352005
1005.280029,144.447998,-144.447998
1009.184021,126.879997,-140.544006
1016.992004,117.120003,-140.544006
1018.943970,83.935997,-134.688004
1020.895996,56.608002,-126.879997
1024.800049,40.992001,-128.832001
1016.992004,35.136002,-124.928001
1003.328003,25.375999,-130.783997
991.616028,25.375999,-150.304001
977.952026,40.992001,-163.968002
985.760010,46.848000,-150.304001
995.520020,50.751999,-150.304001
999.424011,48.799999,-154.207993
999.424011,42.944000,-167.871994
989.664001,33.183998,-158.112000
993.567993,25.375999,-146.399994
1001.375977,15.616000,-169.824005
1003.328003,7.808000,-187.391998
1007.231995,11.712000,-195.199997
1013.088013,11.712000,-195.199997
1011.135986,19.520000,-195.199997
1022.848022,33.183998,-185.440002
1018.943970,44.896000,-195.199997
1022.848022,46.848000,-201.056000
1024.800049,58.560001,-214.720001
1032.608032,74.176003,-226.432007
1040.416016,81.984001,-224.479996
1036.511963,85.888000,-238.143997
1032.608032,85.888000,-247.904007
1040.416016,95.648003,-232.287994
1052.128052,101.503998,-238.143997
1048.223999,122.975998,-240.095993
1061.887939,136.639999,-249.856003
1059.936035,146.399994,-255.712006
1054.079956,156.160004,-259.615997
1071.647949,179.584000,-271.328003
1065.791992,191.296005,-267.424011
1071.647949,187.391998,-275.231995
1071.647949,191.296005,-269.376007
1087.264038,199.104004,-281.088013
1075.552002,206.912003,-281.088013
1071.647949,210.815994,-283.040009
1083.359985,212.768005,-275.231995
1081.407959,212.768005,-277.183990
1079.456055,203.007996,-281.088013
1073.599976,218.623993,-281.088013
1087.264038,220.576004,-267.424011
1098.975952,238.143997,-277.183990
1091.167969,238.143997,-265.471985
1100.927979,251.807999,-269.376007
1093.119995,269.376007,-257.664001
1091.167969,265.471985,-253.759995
1093.119995,263.519989,-251.807999
1097.024048,277.183990,-251.807999
1102.880005,275.231995,-255.712006
1093.119995,253.759995,-253.759995
1104.832031,249.856003,-253.759995
1118.495972,249.856003,-238.143997
1108.735962,245.951996,-236.192001
1106.784058,247.904007,-249.856003
1112.640015,244.000000,-245.951996
1114.592041,255.712006,-244.000000
1120.447998,255.712006,-234.240005
1122.400024,257.664001,-242.048004
1122.400024,261.567993,-236.192001
1126.303955,257.664001,-238.143997
1122.400024,255.712006,-236.192001
1118.495972,269.376007,-238.143997
1120.447998,267.424011,-236.192001
1118.495972,265.471985,-230.335999
1118.495972,279.135986,-238.143997
1110.687988,273.279999,-230.335999
1112.640015,271.328003,-234.240005
1116.543945,257.664001,-232.287994
1116.543945,253.759995,-230.335999
1112.640015,242.048004,-232.287994
1114.592041,234.240005,-240.095993
1110.687988,242.048004,-244.000000
1108.735962,236.192001,-247.904007
1114.592041,244.000000,-242.048004
1116.543945,242.048004,-247.904007
1112.640015,247.904007,-245.951996
1116.543945,247.904007,-247.904007
1126.303955,234.240005,-247.904007
1118.495972,230.335999,-253.759995
1116.543945,236.192001,-263.519989
1108.735962,220.576004,-251.807999
1110.687988,226.432007,-257.664001
1120.447998,226.432007,-257.664001
1104.832031,218.623993,-265.471985
1104.832031,226.432007,-259.615997
1108.735962,228.384003,-263.519989
1104.832031,220.576004,-263.519989
1106.784058,222.528000,-273.279999
1118.495972,224.479996,-271.328003
1112.640015,230.335999,-261.567993
1110.687988,228.384003,-261.567993
1114.592041,230.335999,-259.615997
1110.687988,232.287994,-257.664001
1104.832031,226.432007,-265.471985
1104.832031,214.720001,-273.279999
1110.687988,220.576004,-255.712006
1116.543945,212.768005,-251.807999
1126.303955,216.671997,-251.807999
1108.735962,222.528000,-255.712006
1112.640015,224.479996,-247.904007
1114.592041,214.720001,-253.759995
1114.592041,214.720001,-261.567993
1124.352051,220.576004,-247.904007
1118.495972,228.384003,-249.856003
1116.543945,224.479996,-236.192001
1106.784058,222.528000,-238.143997
1122.400024,199.104004,-244.000000
1108.735962,191.296005,-234.240005
1110.687988,187.391998,-240.095993
1112.640015,191.296005,-249.856003
1118.495972,187.391998,-240.095993
1116.543945,201.056000,-242.048004
1118.495972,206.912003,-232.287994
1120.447998,204.960007,-228.384003
1120.447998,195.199997,-224.479996
1122.400024,201.056000,-222.528000
1112.640015,201.056000,-230.335999
