ACC_X,ACC_Y,ACC_Z
685.151978,384.544006,620.736023
687.104004,388.447998,620.736023
687.104004,390.399994,618.783997
696.864014,376.735992,614.880005
696.864014,380.640015,622.687988
687.104004,386.496002,624.640015
692.960022,386.496002,616.831970
689.056030,376.735992,616.831970
691.007996,378.687988,628.544006
691.007996,378.687988,614.880005
691.007996,382.592010,612.927979
692.960022,380.640015,626.591980
685.151978,378.687988,614.880005
679.296021,386.496002,612.927979
685.151978,388.447998,618.783997
692.960022,384.544006,616.831970
692.960022,384.544006,612.927979
683.200012,384.544006,612.927979
683.200012,382.592010,618.783997
687.104004,388.447998,618.783997
691.007996,386.496002,612.927979
694.911987,386.496002,616.831970
687.104004,386.496002,616.831970
687.104004,382.592010,612.927979
685.151978,388.447998,620.736023
689.056030,396.256012,616.831970
683.200012,384.544006,618.783997
687.104004,384.544006,622.687988
683.200012,382.592010,618.783997
692.960022,380.640015,622.687988
692.960022,380.640015,616.831970
692.960022,384.544006,609.023987
687.104004,378.687988,618.783997
687.104004,378.687988,622.687988
687.104004,384.544006,618.783997
685.151978,370.880005,609.023987
692.960022,376.735992,612.927979
691.007996,384.544006,616.831970
687.104004,386.496002,618.783997
691.007996,374.783997,622.687988
689.056030,378.687988,620.736023
692.960022,380.640015,626.591980
689.056030,376.735992,622.687988
689.056030,376.735992,620.736023
683.200012,378.687988,624.640015
683.200012,376.735992,616.831970
692.960022,376.735992,614.880005
687.104004,380.640015,620.736023
694.911987,382.592010,628.544006
694.911987,380.640015,626.591980
698.815979,382.592010,620.736023
687.104004,376.735992,624.640015
691.007996,374.783997,622.687988
692.960022,380.640015,622.687988
696.864014,380.640015,618.783997
694.911987,382.592010,626.591980
691.007996,374.783997,624.640015
696.864014,372.832001,622.687988
694.911987,382.592010,616.831970
691.007996,382.592010,614.880005
694.911987,380.640015,626.591980
694.911987,392.351990,620.736023
692.960022,378.687988,618.783997
681.247986,378.687988,618.783997
694.911987,380.640015,620.736023
694.911987,380.640015,616.831970
685.151978,376.735992,614.880005
691.007996,378.687988,626.591980
691.007996,384.544006,616.831970
692.960022,378.687988,618.783997
692.960022,382.592010,624.640015
700.768005,384.544006,634.400024
694.911987,392.351990,622.687988
687.104004,378.687988,620.736023
687.104004,386.496002,626.591980
691.007996,376.735992,620.736023
696.864014,374.783997,618.783997
689.056030,380.640015,630.495972
685.151978,384.544006,622.687988
689.056030,384.544006,612.927979
691.007996,374.783997,618.783997
689.056030,376.735992,628.544006
691.007996,374.783997,624.640015
691.007996,386.496002,616.831970
689.056030,376.735992,620.736023
687.104004,388.447998,620.736023
683.200012,378.687988,626.591980
689.056030,372.832001,618.783997
689.056030,376.735992,616.831970
689.056030,376.735992,622.687988
694.911987,384.544006,620.736023
692.960022,374.783997,622.687988
685.151978,378.687988,626.591980
687.104004,378.687988,622.687988
694.911987,384.544006,620.736023
683.200012,378.687988,618.783997
679.296021,372.832001,616.831970
683.200012,370.880005,622.687988
683.200012,376.735992,628.544006
687.104004,380.640015,626.591980
689.056030,366.976013,612.927979
687.104004,376.735992,620.736023
681.247986,368.928009,620.736023
683.200012,366.976013,626.591980
689.056030,372.832001,630.495972
689.056030,378.687988,628.544006
683.200012,376.735992,622.687988
689.056030,376.735992,622.687988
683.200012,376.735992,616.831970
687.104004,380.640015,616.831970
685.151978,378.687988,618.783997
683.200012,384.544006,610.976013
689.056030,376.735992,616.831970
689.056030,372.832001,616.831970
689.056030,374.783997,618.783997
687.104004,376.735992,622.687988
687.104004,382.592010,624.640015
683.200012,386.496002,620.736023
681.247986,384.544006,630.495972
679.296021,384.544006,626.591980
681.247986,388.447998,618.783997
685.151978,368.928009,614.880005
689.056030,376.735992,622.687988
681.247986,388.447998,618.783997
685.151978,376.735992,618.783997
687.104004,382.592010,612.927979
685.151978,372.832001,616.831970
692.960022,378.687988,612.927979
689.056030,384.544006,612.927979
679.296021,378.687988,612.927979
689.056030,378.687988,610.976013
681.247986,374.783997,607.072021
689.056030,374.783997,618.783997
679.296021,378.687988,616.831970
683.200012,378.687988,616.831970
683.200012,374.783997,618.783997
683.200012,376.735992,616.831970
679.296021,376.735992,620.736023
691.007996,374.783997,620.736023
691.007996,376.735992,626.591980
683.200012,376.735992,628.544006
679.296021,378.687988,624.640015
681.247986,390.399994,620.736023
687.104004,378.687988,622.687988
692.960022,374.783997,622.687988
679.296021,370.880005,620.736023
691.007996,374.783997,620.736023
689.056030,388.447998,620.736023
692.960022,378.687988,618.783997
687.104004,378.687988,618.783997
691.007996,374.783997,618.783997
687.104004,376.735992,612.927979
689.056030,378.687988,618.783997
673.440002,378.687988,624.640015
681.247986,384.544006,618.783997
685.151978,378.687988,622.687988
689.056030,380.640015,624.640015
685.151978,384.544006,610.976013
685.151978,388.447998,612.927979
683.200012,376.735992,626.591980
683.200012,370.880005,626.591980
689.056030,374.783997,618.783997
689.056030,370.880005,618.783997
681.247986,382.592010,616.831970
681.247986,382.592010,612.927979
683.200012,378.687988,616.831970
692.960022,382.592010,616.831970
681.247986,390.399994,616.831970
685.151978,380.640015,609.023987
696.864014,374.783997,622.687988
685.151978,378.687988,620.736023
685.151978,382.592010,624.640015
681.247986,378.687988,618.783997
683.200012,374.783997,609.023987
687.104004,388.447998,616.831970
685.151978,374.783997,614.880005
685.151978,384.544006,616.831970
683.200012,384.544006,618.783997
675.392029,380.640015,616.831970
685.151978,384.544006,624.640015
683.200012,378.687988,616.831970
683.200012,388.447998,620.736023
685.151978,388.447998,612.927979
681.247986,378.687988,618.783997
683.200012,378.687988,618.783997
687.104004,386.496002,616.831970
681.247986,382.592010,620.736023
673.440002,376.735992,612.927979
698.815979,388.447998,614.880005
685.151978,388.447998,618.783997
683.200012,380.640015,612.927979
683.200012,380.640015,610.976013
681.247986,376.735992,612.927979
681.247986,378.687988,626.591980
685.151978,378.687988,620.736023
685.151978,386.496002,620.736023
681.247986,378.687988,618.783997
683.200012,390.399994,620.736023
679.296021,384.544006,618.783997
683.200012,378.687988,622.687988
685.151978,378.687988,624.640015
685.151978,378.687988,618.783997
679.296021,384.544006,624.640015
675.392029,382.592010,618.783997
681.247986,378.687988,622.687988
689.056030,378.687988,616.831970
679.296021,384.544006,618.783997
681.247986,376.735992,614.880005
673.440002,382.592010,616.831970
681.247986,384.544006,624.640015
685.151978,378.687988,622.687988
685.151978,376.735992,616.831970
679.296021,380.640015,612.927979
691.007996,388.447998,614.880005
675.392029,386.496002,622.687988
687.104004,380.640015,622.687988
687.104004,388.447998,612.927979
687.104004,374.783997,620.736023
683.200012,380.640015,612.927979
679.296021,376.735992,626.591980
681.247986,380.640015,614.880005
685.151978,378.687988,618.783997
675.392029,382.592010,612.927979
681.247986,378.687988,618.783997
675.392029,382.592010,618.783997
679.296021,386.496002,610.976013
685.151978,388.447998,607.072021
683.200012,388.447998,618.783997
685.151978,390.399994,612.927979
681.247986,390.399994,618.783997
681.247986,388.447998,612.927979
691.007996,384.544006,614.880005
689.056030,378.687988,620.736023
681.247986,378.687988,616.831970
677.343994,384.544006,618.783997
681.247986,376.735992,624.640015
692.960022,380.640015,622.687988
689.056030,372.832001,614.880005
679.296021,376.735992,614.880005
681.247986,378.687988,618.783997
689.056030,376.735992,609.023987
675.392029,386.496002,622.687988
677.343994,378.687988,618.783997
675.392029,382.592010,618.783997
675.392029,384.544006,620.736023
689.056030,376.735992,614.880005
675.392029,386.496002,614.880005
681.247986,378.687988,618.783997
675.392029,384.544006,624.640015
681.247986,382.592010,620.736023
689.056030,382.592010,624.640015
683.200012,378.687988,616.831970
685.151978,378.687988,618.783997
683.200012,378.687988,624.640015
687.104004,378.687988,616.831970
687.104004,386.496002,622.687988
683.200012,382.592010,612.927979
683.200012,376.735992,626.591980
683.200012,378.687988,616.831970
677.343994,378.687988,614.880005
681.247986,384.544006,620.736023
687.104004,382.592010,620.736023
679.296021,376.735992,616.831970
687.104004,378.687988,618.783997
692.960022,378.687988,620.736023
687.104004,378.687988,616.831970
683.200012,384.544006,618.783997
687.104004,384.544006,612.927979
683.200012,376.735992,622.687988
692.960022,384.544006,618.783997
687.104004,388.447998,618.783997
683.200012,378.687988,626.591980
681.247986,388.447998,620.736023
683.200012,372.832001,614.880005
692.960022,386.496002,622.687988
687.104004,382.592010,616.831970
689.056030,370.880005,618.783997
689.056030,374.783997,620.736023
692.960022,378.687988,622.687988
696.864014,390.399994,610.976013
692.960022,386.496002,618.783997
683.200012,382.592010,618.783997
692.960022,384.544006,614.880005
683.200012,376.735992,622.687988
691.007996,388.447998,614.880005
700.768005,378.687988,605.119995
687.104004,384.544006,618.783997
694.911987,378.687988,616.831970
687.104004,386.496002,620.736023
694.911987,386.496002,620.736023
700.768005,378.687988,628.544006
696.864014,374.783997,622.687988
689.056030,390.399994,620.736023
694.911987,392.351990,626.591980
696.864014,394.303986,630.495972
694.911987,388.447998,622.687988
698.815979,392.351990,620.736023
694.911987,384.544006,616.831970
692.960022,380.640015,609.023987
691.007996,382.592010,612.927979
694.911987,382.592010,620.736023
696.864014,376.735992,620.736023
692.960022,392.351990,616.831970
691.007996,388.447998,614.880005
687.104004,384.544006,620.736023
694.911987,382.592010,616.831970
689.056030,384.544006,610.976013
694.911987,392.351990,616.831970
696.864014,390.399994,614.880005
687.104004,382.592010,624.640015
692.960022,392.351990,620.736023
694.911987,386.496002,622.687988
692.960022,392.351990,622.687988
698.815979,390.399994,616.831970
692.960022,382.592010,616.831970
696.864014,394.303986,626.591980
696.864014,394.303986,624.640015
698.815979,388.447998,626.591980
698.815979,386.496002,626.591980
692.960022,386.496002,624.640015
696.864014,392.351990,618.783997
694.911987,382.592010,620.736023
694.911987,388.447998,616.831970
700.768005,384.544006,626.591980
696.864014,392.351990,624.640015
692.960022,392.351990,628.544006
696.864014,390.399994,622.687988
692.960022,388.447998,620.736023
691.007996,394.303986,624.640015
692.960022,382.592010,618.783997
696.864014,388.447998,616.831970
694.911987,392.351990,616.831970
700.768005,392.351990,622.687988
692.960022,384.544006,622.687988
692.960022,392.351990,614.880005
694.911987,386.496002,626.591980
687.104004,388.447998,630.495972
700.768005,394.303986,622.687988
691.007996,390.399994,622.687988
696.864014,386.496002,616.831970
694.911987,386.496002,626.591980
700.768005,388.447998,626.591980
704.671997,386.496002,624.640015
704.671997,382.592010,620.736023
704.671997,384.544006,622.687988
708.575989,376.735992,622.687988
698.815979,392.351990,622.687988
700.768005,380.640015,612.927979
700.768005,384.544006,614.880005
700.768005,392.351990,622.687988
704.671997,382.592010,622.687988
698.815979,380.640015,616.831970
704.671997,384.544006,626.591980
696.864014,382.592010,612.927979
698.815979,384.544006,616.831970
706.624023,382.592010,618.783997
704.671997,384.544006,616.831970
710.528015,384.544006,620.736023
712.479980,382.592010,618.783997
704.671997,384.544006,628.544006
716.383972,376.735992,618.783997
708.575989,378.687988,634.400024
712.479980,388.447998,620.736023
710.528015,382.592010,630.495972
704.671997,388.447998,622.687988
708.575989,384.544006,630.495972
714.432007,390.399994,630.495972
714.432007,380.640015,632.447998
706.624023,388.447998,624.640015
706.624023,382.592010,616.831970
714.432007,384.544006,612.927979
704.671997,386.496002,622.687988
700.768005,382.592010,614.880005
704.671997,382.592010,630.495972
704.671997,382.592010,626.591980
712.479980,386.496002,622.687988
704.671997,386.496002,620.736023
706.624023,382.592010,622.687988
704.671997,382.592010,624.640015
710.528015,380.640015,630.495972
712.479980,384.544006,630.495972
712.479980,390.399994,622.687988
706.624023,382.592010,626.591980
714.432007,376.735992,620.736023
712.479980,378.687988,630.495972
698.815979,380.640015,624.640015
706.624023,384.544006,622.687988
712.479980,382.592010,630.495972
712.479980,378.687988,622.687988
710.528015,384.544006,624.640015
710.528015,378.687988,624.640015
708.575989,388.447998,628.544006
710.528015,386.496002,636.351990
704.671997,380.640015,628.544006
708.575989,380.640015,634.400024
708.575989,376.735992,628.544006
702.719971,386.496002,630.495972
704.671997,384.544006,626.591980
716.383972,378.687988,620.736023
706.624023,388.447998,620.736023
710.528015,384.544006,618.783997
706.624023,388.447998,622.687988
712.479980,382.592010,618.783997
710.528015,370.880005,624.640015
708.575989,372.832001,620.736023
700.768005,372.832001,630.495972
704.671997,380.640015,626.591980
706.624023,384.544006,624.640015
704.671997,386.496002,628.544006
706.624023,384.544006,626.591980
712.479980,384.544006,624.640015
700.768005,382.592010,618.783997
698.815979,380.640015,626.591980
704.671997,380.640015,622.687988
704.671997,384.544006,622.687988
704.671997,382.592010,620.736023
704.671997,386.496002,626.591980
698.815979,384.544006,620.736023
696.864014,404.063995,630.495972
698.815979,384.544006,616.831970
694.911987,384.544006,624.640015
704.671997,386.496002,626.591980
696.864014,374.783997,618.783997
704.671997,380.640015,626.591980
700.768005,378.687988,636.351990
696.864014,384.544006,628.544006
692.960022,374.783997,616.831970
700.768005,386.496002,614.880005
698.815979,380.640015,616.831970
689.056030,376.735992,614.880005
692.960022,386.496002,620.736023
692.960022,382.592010,618.783997
689.056030,374.783997,612.927979
683.200012,388.447998,620.736023
694.911987,388.447998,610.976013
696.864014,374.783997,620.736023
683.200012,376.735992,618.783997
696.864014,380.640015,620.736023
694.911987,382.592010,626.591980
696.864014,386.496002,614.880005
689.056030,386.496002,612.927979
692.960022,382.592010,618.783997
692.960022,378.687988,624.640015
685.151978,396.256012,618.783997
692.960022,380.640015,620.736023
698.815979,388.447998,616.831970
683.200012,380.640015,612.927979
681.247986,386.496002,616.831970
687.104004,380.640015,616.831970
687.104004,384.544006,622.687988
683.200012,378.687988,618.783997
681.247986,388.447998,618.783997
681.247986,388.447998,618.783997
679.296021,396.256012,616.831970
681.247986,388.447998,612.927979
692.960022,396.256012,605.119995
681.247986,378.687988,612.927979
681.247986,374.783997,609.023987
683.200012,384.544006,605.119995
679.296021,386.496002,607.072021
685.151978,390.399994,610.976013
683.200012,388.447998,612.927979
681.247986,394.303986,626.591980
679.296021,392.351990,610.976013
679.296021,394.303986,616.831970
685.151978,388.447998,610.976013
677.343994,386.496002,610.976013
687.104004,390.399994,612.927979
683.200012,394.303986,616.831970
687.104004,390.399994,618.783997
685.151978,390.399994,622.687988
681.247986,378.687988,618.783997
681.247986,390.399994,622.687988
687.104004,388.447998,612.927979
681.247986,390.399994,618.783997
679.296021,390.399994,618.783997
679.296021,400.160004,620.736023
679.296021,396.256012,614.880005
675.392029,392.351990,614.880005
673.440002,398.208008,610.976013
675.392029,394.303986,605.119995
681.247986,390.399994,618.783997
675.392029,396.256012,618.783997
675.392029,400.160004,609.023987
673.440002,392.351990,614.880005
675.392029,392.351990,609.023987
681.247986,388.447998,601.216003
679.296021,392.351990,601.216003
689.056030,400.160004,603.168030
687.104004,396.256012,605.119995
685.151978,392.351990,609.023987
685.151978,406.015991,609.023987
687.104004,390.399994,618.783997
689.056030,396.256012,616.831970
696.864014,396.256012,618.783997
694.911987,392.351990,614.880005
691.007996,396.256012,620.736023
694.911987,394.303986,628.544006
692.960022,394.303986,626.591980
696.864014,400.160004,630.495972
696.864014,396.256012,632.447998
687.104004,396.256012,620.736023
689.056030,407.967987,628.544006
691.007996,392.351990,632.447998
687.104004,394.303986,634.400024
689.056030,396.256012,628.544006
691.007996,394.303986,622.687988
689.056030,394.303986,622.687988
683.200012,396.256012,626.591980
687.104004,398.208008,628.544006
689.056030,404.063995,626.591980
692.960022,390.399994,618.783997
687.104004,390.399994,630.495972
696.864014,406.015991,624.640015
691.007996,396.256012,622.687988
685.151978,396.256012,622.687988
691.007996,406.015991,612.927979
696.864014,390.399994,620.736023
694.911987,392.351990,620.736023
692.960022,392.351990,616.831970
687.104004,390.399994,624.640015
694.911987,388.447998,620.736023
698.815979,392.351990,626.591980
694.911987,388.447998,628.544006
694.911987,388.447998,628.544006
704.671997,386.496002,628.544006
694.911987,386.496002,620.736023
700.768005,390.399994,626.591980
698.815979,396.256012,630.495972
698.815979,390.399994,632.447998
700.768005,386.496002,628.544006
700.768005,388.447998,634.400024
692.960022,390.399994,622.687988
704.671997,390.399994,626.591980
700.768005,382.592010,622.687988
694.911987,390.399994,630.495972
694.911987,402.112000,632.447998
698.815979,392.351990,626.591980
694.911987,400.160004,618.783997
694.911987,392.351990,626.591980
691.007996,390.399994,628.544006
692.960022,392.351990,626.591980
691.007996,398.208008,624.640015
691.007996,382.592010,630.495972
687.104004,388.447998,622.687988
685.151978,384.544006,622.687988
681.247986,388.447998,624.640015
685.151978,382.592010,620.736023
675.392029,384.544006,612.927979
687.104004,388.447998,618.783997
692.960022,382.592010,612.927979
685.151978,382.592010,612.927979
681.247986,388.447998,622.687988
692.960022,380.640015,626.591980
689.056030,370.880005,626.591980
683.200012,370.880005,626.591980
683.200012,380.640015,632.447998
691.007996,374.783997,624.640015
683.200012,378.687988,624.640015
683.200012,370.880005,626.591980
683.200012,376.735992,628.544006
687.104004,384.544006,624.640015
683.200012,382.592010,632.447998
679.296021,380.640015,630.495972
677.343994,378.687988,626.591980
689.056030,376.735992,624.640015
685.151978,380.640015,628.544006
683.200012,378.687988,628.544006
696.864014,374.783997,630.495972
691.007996,370.880005,626.591980
691.007996,378.687988,626.591980
687.104004,386.496002,630.495972
683.200012,384.544006,622.687988
681.247986,386.496002,624.640015
681.247986,386.496002,632.447998
677.343994,374.783997,624.640015
679.296021,374.783997,632.447998
683.200012,376.735992,626.591980
689.056030,376.735992,628.544006
685.151978,368.928009,632.447998
683.200012,372.832001,628.544006
681.247986,374.783997,634.400024
685.151978,366.976013,628.544006
689.056030,376.735992,628.544006
683.200012,380.640015,632.447998
685.151978,374.783997,634.400024
679.296021,380.640015,630.495972
681.247986,386.496002,618.783997
681.247986,382.592010,622.687988
689.056030,384.544006,620.736023
694.911987,382.592010,618.783997
687.104004,388.447998,630.495972
689.056030,376.735992,624.640015
696.864014,370.880005,624.640015
692.960022,384.544006,622.687988
687.104004,380.640015,626.591980
692.960022,382.592010,624.640015
689.056030,384.544006,628.544006
685.151978,376.735992,624.640015
687.104004,384.544006,630.495972
694.911987,392.351990,626.591980
689.056030,386.496002,632.447998
692.960022,396.256012,638.304016
698.815979,390.399994,636.351990
702.719971,390.399994,638.304016
694.911987,409.920013,632.447998
694.911987,402.112000,638.304016
696.864014,400.160004,622.687988
696.864014,398.208008,630.495972
696.864014,407.967987,630.495972
698.815979,407.967987,630.495972
696.864014,402.112000,622.687988
687.104004,415.776001,622.687988
685.151978,409.920013,620.736023
691.007996,411.872009,624.640015
694.911987,413.824005,626.591980
694.911987,402.112000,630.495972
692.960022,404.063995,628.544006
692.960022,402.112000,632.447998
696.864014,404.063995,630.495972
691.007996,400.160004,634.400024
687.104004,402.112000,628.544006
696.864014,409.920013,634.400024
691.007996,407.967987,634.400024
698.815979,417.727997,630.495972
691.007996,415.776001,638.304016
683.200012,417.727997,630.495972
681.247986,421.631989,624.640015
694.911987,423.584015,626.591980
691.007996,421.631989,634.400024
681.247986,419.679993,630.495972
687.104004,427.488007,618.783997
685.151978,415.776001,618.783997
691.007996,413.824005,607.072021
702.719971,419.679993,609.023987
702.719971,411.872009,610.976013
696.864014,415.776001,614.880005
694.911987,406.015991,622.687988
691.007996,392.351990,624.640015
679.296021,417.727997,632.447998
681.247986,402.112000,630.495972
681.247986,378.687988,630.495972
683.200012,407.967987,626.591980
675.392029,402.112000,620.736023
667.583984,411.872009,622.687988
673.440002,417.727997,622.687988
655.872009,409.920013,612.927979
657.823975,411.872009,612.927979
651.968018,425.536011,605.119995
646.112000,411.872009,609.023987
650.015991,417.727997,612.927979
650.015991,435.295990,603.168030
646.112000,427.488007,597.312012
636.351990,429.440002,581.695984
632.447998,439.200012,597.312012
636.351990,433.343994,599.263977
634.400024,437.247986,591.455994
642.208008,433.343994,599.263977
632.447998,427.488007,601.216003
638.304016,419.679993,603.168030
636.351990,406.015991,601.216003
634.400024,409.920013,605.119995
636.351990,411.872009,609.023987
650.015991,406.015991,609.023987
636.351990,396.256012,605.119995
642.208008,402.112000,605.119995
636.351990,409.920013,612.927979
644.159973,419.679993,612.927979
650.015991,415.776001,618.783997
646.112000,415.776001,616.831970
653.919983,421.631989,618.783997
644.159973,427.488007,612.927979
648.064026,433.343994,622.687988
642.208008,425.536011,616.831970
646.112000,429.440002,609.023987
640.255981,433.343994,609.023987
644.159973,427.488007,601.216003
638.304016,417.727997,601.216003
640.255981,421.631989,607.072021
642.208008,406.015991,601.216003
634.400024,404.063995,599.263977
638.304016,398.208008,607.072021
636.351990,402.112000,610.976013
640.255981,396.256012,609.023987
636.351990,386.496002,607.072021
644.159973,400.160004,609.023987
648.064026,398.208008,609.023987
644.159973,402.112000,607.072021
644.159973,398.208008,612.927979
653.919983,411.872009,612.927979
659.776001,407.967987,616.831970
653.919983,417.727997,624.640015
663.679993,415.776001,630.495972
665.632019,421.631989,634.400024
661.728027,423.584015,640.255981
655.872009,429.440002,640.255981
659.776001,423.584015,644.159973
663.679993,419.679993,644.159973
669.536011,413.824005,640.255981
673.440002,409.920013,638.304016
667.583984,396.256012,636.351990
663.679993,396.256012,636.351990
663.679993,386.496002,618.783997
661.728027,384.544006,614.880005
661.728027,380.640015,607.072021
661.728027,386.496002,609.023987
642.208008,390.399994,599.263977
638.304016,390.399994,575.840027
650.015991,386.496002,581.695984
646.112000,394.303986,579.744019
648.064026,404.063995,583.648010
640.255981,411.872009,579.744019
640.255981,402.112000,587.552002
650.015991,409.920013,595.359985
650.015991,413.824005,605.119995
648.064026,415.776001,610.976013
653.919983,404.063995,614.880005
651.968018,400.160004,622.687988
655.872009,390.399994,630.495972
667.583984,400.160004,632.447998
663.679993,386.496002,648.064026
663.679993,392.351990,650.015991
665.632019,386.496002,648.064026
665.632019,384.544006,646.112000
661.728027,378.687988,650.015991
665.632019,388.447998,638.304016
663.679993,382.592010,618.783997
659.776001,388.447998,614.880005
653.919983,390.399994,622.687988
655.872009,388.447998,620.736023
655.872009,390.399994,610.976013
663.679993,398.208008,610.976013
659.776001,396.256012,597.312012
663.679993,400.160004,599.263977
661.728027,398.208008,610.976013
663.679993,402.112000,607.072021
667.583984,396.256012,605.119995
669.536011,396.256012,614.880005
673.440002,392.351990,622.687988
679.296021,396.256012,626.591980
679.296021,396.256012,622.687988
675.392029,396.256012,632.447998
669.536011,404.063995,632.447998
677.343994,394.303986,632.447998
681.247986,394.303986,640.255981
681.247986,415.776001,644.159973
681.247986,404.063995,634.400024
679.296021,411.872009,638.304016
675.392029,406.015991,630.495972
675.392029,409.920013,624.640015
675.392029,409.920013,620.736023
669.536011,406.015991,612.927979
675.392029,404.063995,605.119995
673.440002,394.303986,603.168030
671.487976,402.112000,609.023987
675.392029,402.112000,605.119995
673.440002,406.015991,609.023987
669.536011,388.447998,614.880005
671.487976,388.447998,605.119995
679.296021,386.496002,612.927979
673.440002,384.544006,618.783997
677.343994,382.592010,612.927979
679.296021,380.640015,630.495972
675.392029,370.880005,630.495972
679.296021,388.447998,634.400024
683.200012,380.640015,636.351990
691.007996,392.351990,636.351990
692.960022,390.399994,644.159973
683.200012,392.351990,632.447998
683.200012,404.063995,638.304016
685.151978,394.303986,628.544006
681.247986,392.351990,636.351990
681.247986,394.303986,634.400024
681.247986,390.399994,622.687988
679.296021,376.735992,609.023987
685.151978,382.592010,612.927979
683.200012,380.640015,607.072021
683.200012,372.832001,603.168030
681.247986,368.928009,605.119995
685.151978,372.832001,614.880005
685.151978,374.783997,614.880005
685.151978,380.640015,618.783997
687.104004,378.687988,624.640015
691.007996,374.783997,626.591980
687.104004,372.832001,636.351990
698.815979,376.735992,642.208008
700.768005,380.640015,653.919983
710.528015,382.592010,644.159973
712.479980,378.687988,651.968018
714.432007,382.592010,653.919983
724.192017,386.496002,650.015991
716.383972,378.687988,650.015991
728.096008,382.592010,644.159973
724.192017,398.208008,640.255981
712.479980,388.447998,630.495972
718.335999,388.447998,618.783997
712.479980,384.544006,618.783997
702.719971,388.447998,607.072021
704.671997,386.496002,589.504028
694.911987,384.544006,587.552002
698.815979,376.735992,569.984009
692.960022,376.735992,566.080017
679.296021,380.640015,548.512024
683.200012,370.880005,554.367981
687.104004,384.544006,556.320007
681.247986,376.735992,556.320007
677.343994,376.735992,554.367981
677.343994,372.832001,566.080017
679.296021,374.783997,575.840027
667.583984,366.976013,575.840027
679.296021,370.880005,585.599976
679.296021,376.735992,595.359985
683.200012,380.640015,601.216003
683.200012,386.496002,607.072021
683.200012,384.544006,609.023987
681.247986,382.592010,630.495972
694.911987,376.735992,630.495972
687.104004,384.544006,624.640015
691.007996,378.687988,628.544006
687.104004,382.592010,618.783997
691.007996,376.735992,620.736023
687.104004,378.687988,630.495972
696.864014,374.783997,624.640015
689.056030,376.735992,620.736023
685.151978,384.544006,618.783997
685.151978,384.544006,618.783997
689.056030,378.687988,607.072021
685.151978,384.544006,599.263977
685.151978,378.687988,599.263977
677.343994,370.880005,595.359985
677.343994,365.023987,589.504028
689.056030,366.976013,595.359985
677.343994,368.928009,591.455994
669.536011,374.783997,595.359985
681.247986,363.071991,603.168030
681.247986,370.880005,607.072021
679.296021,366.976013,614.880005
681.247986,372.832001,614.880005
681.247986,372.832001,628.544006
689.056030,366.976013,622.687988
683.200012,365.023987,628.544006
689.056030,361.119995,630.495972
692.960022,372.832001,632.447998
692.960022,372.832001,638.304016
687.104004,370.880005,626.591980
677.343994,368.928009,614.880005
673.440002,366.976013,612.927979
671.487976,368.928009,599.263977
679.296021,365.023987,595.359985
677.343994,368.928009,585.599976
679.296021,370.880005,583.648010
667.583984,376.735992,573.888000
673.440002,374.783997,566.080017
665.632019,366.976013,560.223999
665.632019,374.783997,568.031982
667.583984,370.880005,569.984009
669.536011,366.976013,569.984009
681.247986,372.832001,583.648010
665.632019,361.119995,589.504028
667.583984,359.167999,601.216003
667.583984,347.455994,614.880005
673.440002,341.600006,620.736023
671.487976,345.503998,638.304016
677.343994,331.839996,636.351990
663.679993,337.696014,636.351990
663.679993,337.696014,642.208008
667.583984,331.839996,640.255981
655.872009,341.600006,628.544006
665.632019,337.696014,624.640015
665.632019,337.696014,618.783997
655.872009,345.503998,605.119995
650.015991,341.600006,603.168030
642.208008,351.359985,593.408020
638.304016,353.312012,583.648010
628.544006,357.216003,575.840027
630.495972,353.312012,558.271973
634.400024,347.455994,566.080017
624.640015,349.407990,552.416016
622.687988,353.312012,556.320007
624.640015,351.359985,562.176025
634.400024,335.743988,560.223999
626.591980,331.839996,573.888000
626.591980,324.032013,579.744019
632.447998,322.079987,585.599976
634.400024,312.320007,599.263977
636.351990,314.272003,605.119995
650.015991,306.463989,610.976013
640.255981,310.368011,618.783997
646.112000,318.175995,622.687988
648.064026,318.175995,632.447998
653.919983,316.223999,630.495972
648.064026,327.936005,636.351990
651.968018,339.648010,634.400024
648.064026,331.839996,626.591980
648.064026,337.696014,632.447998
640.255981,345.503998,626.591980
642.208008,349.407990,620.736023
640.255981,339.648010,616.831970
632.447998,343.552002,607.072021
638.304016,327.936005,603.168030
636.351990,333.791992,599.263977
628.544006,318.175995,599.263977
632.447998,314.272003,591.455994
628.544006,314.272003,597.312012
636.351990,302.559998,601.216003
636.351990,292.799988,597.312012
636.351990,302.559998,610.976013
638.304016,296.704010,609.023987
636.351990,294.752014,616.831970
646.112000,296.704010,616.831970
650.015991,294.752014,620.736023
644.159973,298.656006,634.400024
655.872009,294.752014,632.447998
663.679993,308.415985,636.351990
653.919983,310.368011,640.255981
661.728027,320.127991,638.304016
657.823975,316.223999,644.159973
657.823975,325.984009,644.159973
646.112000,314.272003,648.064026
651.968018,314.272003,646.112000
655.872009,308.415985,636.351990
651.968018,298.656006,636.351990
651.968018,296.704010,628.544006
650.015991,300.608002,628.544006
653.919983,284.992004,624.640015
650.015991,265.471985,622.687988
634.400024,281.088013,624.640015
642.208008,269.376007,618.783997
644.159973,275.231995,634.400024
646.112000,277.183990,618.783997
644.159973,281.088013,628.544006
636.351990,281.088013,626.591980
640.255981,279.135986,642.208008
661.728027,298.656006,648.064026
655.872009,298.656006,646.112000
661.728027,298.656006,661.728027
673.440002,302.559998,673.440002
675.392029,306.463989,667.583984
681.247986,288.895996,681.247986
698.815979,281.088013,675.392029
702.719971,279.135986,685.151978
702.719971,275.231995,691.007996
698.815979,279.135986,694.911987
685.151978,286.944000,696.864014
677.343994,290.847992,706.624023
673.440002,296.704010,698.815979
671.487976,294.752014,698.815979
671.487976,288.895996,689.056030
673.440002,288.895996,669.536011
675.392029,283.040009,651.968018
675.392029,269.376007,640.255981
665.632019,271.328003,630.495972
663.679993,281.088013,616.831970
657.823975,283.040009,620.736023
648.064026,296.704010,605.119995
640.255981,308.415985,587.552002
628.544006,314.272003,583.648010
628.544006,324.032013,573.888000
628.544006,324.032013,579.744019
630.495972,320.127991,564.127991
638.304016,324.032013,571.935974
644.159973,308.415985,575.840027
655.872009,310.368011,585.599976
659.776001,304.511993,595.359985
659.776001,294.752014,607.072021
673.440002,302.559998,614.880005
669.536011,308.415985,632.447998
675.392029,314.272003,644.159973
679.296021,316.223999,657.823975
689.056030,325.984009,667.583984
683.200012,333.791992,677.343994
689.056030,337.696014,679.296021
687.104004,329.888000,685.151978
683.200012,337.696014,683.200012
692.960022,345.503998,681.247986
691.007996,343.552002,681.247986
679.296021,345.503998,679.296021
683.200012,333.791992,671.487976
683.200012,341.600006,669.536011
687.104004,333.791992,653.919983
681.247986,329.888000,638.304016
671.487976,333.791992,640.255981
669.536011,325.984009,626.591980
671.487976,331.839996,618.783997
671.487976,331.839996,610.976013
669.536011,331.839996,618.783997
673.440002,324.032013,609.023987
675.392029,318.175995,609.023987
677.343994,325.984009,607.072021
677.343994,320.127991,601.216003
679.296021,329.888000,605.119995
681.247986,331.839996,609.023987
681.247986,333.791992,622.687988
683.200012,337.696014,620.736023
681.247986,337.696014,634.400024
683.200012,335.743988,638.304016
687.104004,343.552002,634.400024
694.911987,337.696014,632.447998
696.864014,335.743988,632.447998
685.151978,322.079987,626.591980
687.104004,310.368011,628.544006
685.151978,333.791992,616.831970
694.911987,325.984009,610.976013
692.960022,300.608002,603.168030
685.151978,343.552002,614.880005
687.104004,343.552002,597.312012
689.056030,320.127991,605.119995
687.104004,333.791992,605.119995
689.056030,324.032013,601.216003
689.056030,324.032013,603.168030
689.056030,349.407990,605.119995
679.296021,329.888000,607.072021
675.392029,343.552002,612.927979
685.151978,349.407990,618.783997
691.007996,320.127991,610.976013
694.911987,337.696014,616.831970
692.960022,355.264008,616.831970
696.864014,337.696014,616.831970
696.864014,339.648010,622.687988
704.671997,345.503998,626.591980
696.864014,343.552002,620.736023
708.575989,339.648010,630.495972
702.719971,343.552002,630.495972
698.815979,345.503998,630.495972
696.864014,341.600006,630.495972
706.624023,335.743988,630.495972
708.575989,343.552002,624.640015
700.768005,347.455994,632.447998
696.864014,343.552002,624.640015
696.864014,343.552002,622.687988
694.911987,353.312012,616.831970
708.575989,349.407990,618.783997
702.719971,351.359985,614.880005
704.671997,357.216003,616.831970
704.671997,347.455994,618.783997
702.719971,357.216003,622.687988
694.911987,353.312012,620.736023
694.911987,347.455994,612.927979
694.911987,355.264008,622.687988
700.768005,349.407990,626.591980
698.815979,349.407990,620.736023
698.815979,341.600006,616.831970
708.575989,345.503998,620.736023
700.768005,349.407990,630.495972
698.815979,357.216003,632.447998
712.479980,365.023987,624.640015
702.719971,363.071991,630.495972
704.671997,361.119995,626.591980
698.815979,359.167999,628.544006
700.768005,372.832001,620.736023
696.864014,368.928009,622.687988
700.768005,370.880005,630.495972
689.056030,372.832001,620.736023
689.056030,368.928009,616.831970
691.007996,361.119995,612.927979
696.864014,353.312012,610.976013
691.007996,357.216003,607.072021
689.056030,353.312012,610.976013
691.007996,339.648010,610.976013
689.056030,343.552002,610.976013
683.200012,353.312012,618.783997
685.151978,361.119995,616.831970
689.056030,365.023987,622.687988
679.296021,372.832001,626.591980
685.151978,366.976013,626.591980
685.151978,368.928009,626.591980
689.056030,374.783997,618.783997
679.296021,380.640015,618.783997
685.151978,374.783997,614.880005
679.296021,378.687988,616.831970
677.343994,380.640015,612.927979
679.296021,376.735992,616.831970
675.392029,380.640015,618.783997
671.487976,368.928009,610.976013
677.343994,374.783997,618.783997
677.343994,368.928009,614.880005
667.583984,361.119995,614.880005
663.679993,366.976013,605.119995
667.583984,365.023987,605.119995
667.583984,366.976013,609.023987
673.440002,368.928009,603.168030
675.392029,365.023987,605.119995
675.392029,363.071991,607.072021
671.487976,363.071991,593.408020
675.392029,370.880005,601.216003
667.583984,370.880005,605.119995
681.247986,374.783997,609.023987
673.440002,380.640015,614.880005
669.536011,390.399994,609.023987
675.392029,394.303986,609.023987
681.247986,380.640015,610.976013
675.392029,388.447998,618.783997
677.343994,382.592010,614.880005
679.296021,370.880005,614.880005
692.960022,376.735992,605.119995
687.104004,363.071991,605.119995
681.247986,366.976013,616.831970
675.392029,366.976013,612.927979
679.296021,366.976013,614.880005
681.247986,363.071991,603.168030
683.200012,361.119995,607.072021
679.296021,365.023987,597.312012
696.864014,368.928009,597.312012
681.247986,366.976013,605.119995
683.200012,363.071991,603.168030
685.151978,363.071991,603.168030
687.104004,363.071991,603.168030
696.864014,357.216003,597.312012
685.151978,361.119995,599.263977
683.200012,370.880005,597.312012
687.104004,372.832001,603.168030
681.247986,363.071991,607.072021
683.200012,378.687988,607.072021
694.911987,366.976013,607.072021
683.200012,357.216003,605.119995
687.104004,366.976013,609.023987
692.960022,365.023987,612.927979
692.960022,366.976013,612.927979
702.719971,363.071991,620.736023
692.960022,353.312012,630.495972
692.960022,368.928009,626.591980
692.960022,347.455994,624.640015
700.768005,361.119995,616.831970
706.624023,368.928009,618.783997
698.815979,366.976013,618.783997
710.528015,366.976013,616.831970
698.815979,361.119995,614.880005
704.671997,359.167999,622.687988
698.815979,370.880005,610.976013
696.864014,366.976013,612.927979
708.575989,363.071991,610.976013
708.575989,363.071991,612.927979
706.624023,363.071991,609.023987
710.528015,366.976013,620.736023
710.528015,370.880005,614.880005
712.479980,366.976013,614.880005
712.479980,366.976013,616.831970
704.671997,370.880005,612.927979
704.671997,366.976013,610.976013
710.528015,368.928009,609.023987
710.528015,366.976013,614.880005
706.624023,374.783997,607.072021
696.864014,359.167999,607.072021
696.864014,357.216003,609.023987
700.768005,361.119995,599.263977
704.671997,363.071991,597.312012
706.624023,368.928009,603.168030
698.815979,359.167999,593.408020
698.815979,365.023987,603.168030
696.864014,372.832001,593.408020
704.671997,361.119995,591.455994
702.719971,366.976013,591.455994
698.815979,359.167999,589.504028
694.911987,370.880005,599.263977
694.911987,366.976013,591.455994
694.911987,359.167999,579.744019
698.815979,365.023987,579.744019
696.864014,359.167999,583.648010
696.864014,355.264008,583.648010
691.007996,368.928009,587.552002
692.960022,361.119995,583.648010
696.864014,363.071991,581.695984
696.864014,366.976013,581.695984
696.864014,363.071991,583.648010
700.768005,370.880005,573.888000
700.768005,359.167999,583.648010
702.719971,378.687988,571.935974
704.671997,366.976013,577.791992
689.056030,359.167999,589.504028
694.911987,366.976013,579.744019
696.864014,359.167999,577.791992
687.104004,365.023987,569.984009
679.296021,357.216003,583.648010
687.104004,363.071991,571.935974
687.104004,363.071991,583.648010
689.056030,357.216003,571.935974
683.200012,363.071991,569.984009
687.104004,363.071991,577.791992
692.960022,361.119995,566.080017
689.056030,351.359985,569.984009
691.007996,361.119995,569.984009
689.056030,355.264008,562.176025
689.056030,366.976013,566.080017
689.056030,370.880005,566.080017
692.960022,361.119995,566.080017
687.104004,365.023987,558.271973
681.247986,357.216003,568.031982
689.056030,351.359985,569.984009
694.911987,349.407990,566.080017
681.247986,347.455994,562.176025
687.104004,359.167999,562.176025
698.815979,357.216003,571.935974
685.151978,353.312012,562.176025
694.911987,351.359985,564.127991
689.056030,345.503998,562.176025
687.104004,343.552002,573.888000
689.056030,351.359985,568.031982
696.864014,357.216003,571.935974
694.911987,361.119995,566.080017
689.056030,361.119995,569.984009
696.864014,361.119995,569.984009
696.864014,355.264008,573.888000
702.719971,365.023987,579.744019
694.911987,365.023987,577.791992
692.960022,365.023987,577.791992
691.007996,361.119995,581.695984
700.768005,359.167999,577.791992
702.719971,361.119995,583.648010
704.671997,355.264008,577.791992
694.911987,347.455994,579.744019
692.960022,357.216003,577.791992
704.671997,363.071991,585.599976
696.864014,357.216003,573.888000
702.719971,357.216003,575.840027
696.864014,353.312012,571.935974
696.864014,347.455994,583.648010
704.671997,343.552002,575.840027
708.575989,361.119995,566.080017
712.479980,357.216003,566.080017
706.624023,351.359985,564.127991
710.528015,359.167999,556.320007
706.624023,357.216003,566.080017
702.719971,345.503998,566.080017
698.815979,355.264008,564.127991
694.911987,351.359985,566.080017
700.768005,349.407990,562.176025
706.624023,351.359985,560.223999
708.575989,353.312012,571.935974
706.624023,347.455994,568.031982
710.528015,347.455994,571.935974
714.432007,353.312012,569.984009
718.335999,353.312012,569.984009
720.288025,343.552002,569.984009
714.432007,339.648010,568.031982
724.192017,337.696014,569.984009
726.143982,333.791992,579.744019
722.239990,324.032013,581.695984
730.047974,324.032013,579.744019
733.952026,325.984009,577.791992
730.047974,331.839996,581.695984
733.952026,335.743988,581.695984
735.903992,327.936005,589.504028
735.903992,322.079987,591.455994
732.000000,331.839996,587.552002
737.856018,329.888000,597.312012
737.856018,329.888000,603.168030
733.952026,312.320007,593.408020
730.047974,324.032013,595.359985
737.856018,324.032013,597.312012
741.760010,312.320007,601.216003
743.711975,312.320007,597.312012
745.664001,308.415985,603.168030
745.664001,312.320007,603.168030
739.807983,314.272003,597.312012
743.711975,306.463989,595.359985
739.807983,308.415985,595.359985
743.711975,306.463989,597.312012
751.520020,308.415985,589.504028
743.711975,300.608002,597.312012
755.424011,306.463989,599.263977
753.471985,288.895996,593.408020
749.567993,298.656006,603.168030
763.231995,302.559998,607.072021
753.471985,304.511993,599.263977
749.567993,292.799988,601.216003
757.375977,304.511993,601.216003
751.520020,300.608002,603.168030
755.424011,300.608002,609.023987
759.328003,292.799988,609.023987
753.471985,298.656006,601.216003
761.280029,298.656006,609.023987
763.231995,294.752014,605.119995
765.184021,292.799988,601.216003
759.328003,302.559998,603.168030
755.424011,302.559998,612.927979
759.328003,306.463989,618.783997
745.664001,302.559998,609.023987
753.471985,306.463989,612.927979
755.424011,308.415985,605.119995
755.424011,304.511993,599.263977
749.567993,308.415985,609.023987
749.567993,294.752014,610.976013
751.520020,302.559998,597.312012
745.664001,298.656006,603.168030
747.616028,300.608002,603.168030
747.616028,310.368011,603.168030
737.856018,296.704010,587.552002
743.711975,306.463989,585.599976
743.711975,310.368011,597.312012
741.760010,304.511993,595.359985
737.856018,306.463989,591.455994
741.760010,300.608002,581.695984
749.567993,296.704010,591.455994
747.616028,304.511993,587.552002
747.616028,320.127991,587.552002
743.711975,312.320007,577.791992
747.616028,316.223999,593.408020
743.711975,312.320007,583.648010
743.711975,320.127991,587.552002
743.711975,312.320007,583.648010
741.760010,324.032013,569.984009
737.856018,312.320007,577.791992
745.664001,308.415985,587.552002
749.567993,312.320007,573.888000
747.616028,310.368011,571.935974
749.567993,312.320007,571.935974
747.616028,320.127991,571.935974
747.616028,318.175995,579.744019
755.424011,314.272003,569.984009
753.471985,325.984009,575.840027
751.520020,329.888000,569.984009
757.375977,327.936005,573.888000
759.328003,325.984009,571.935974
763.231995,331.839996,583.648010
767.135986,331.839996,583.648010
774.943970,333.791992,581.695984
771.039978,339.648010,585.599976
778.848022,345.503998,589.504028
782.752014,345.503998,593.408020
776.895996,347.455994,595.359985
778.848022,333.791992,589.504028
788.607971,331.839996,597.312012
788.607971,333.791992,599.263977
788.607971,333.791992,607.072021
794.463989,327.936005,607.072021
794.463989,333.791992,612.927979
798.367981,335.743988,607.072021
796.416016,331.839996,618.783997
798.367981,331.839996,614.880005
788.607971,329.888000,618.783997
796.416016,335.743988,620.736023
798.367981,329.888000,616.831970
796.416016,337.696014,614.880005
798.367981,345.503998,607.072021
802.271973,343.552002,599.263977
804.223999,345.503998,595.359985
800.320007,339.648010,591.455994
802.271973,341.600006,593.408020
802.271973,347.455994,597.312012
792.512024,349.407990,591.455994
806.176025,353.312012,587.552002
792.512024,343.552002,587.552002
790.559998,341.600006,581.695984
804.223999,337.696014,583.648010
806.176025,329.888000,585.599976
804.223999,333.791992,595.359985
800.320007,327.936005,591.455994
802.271973,327.936005,591.455994
798.367981,329.888000,587.552002
800.320007,331.839996,585.599976
800.320007,327.936005,593.408020
796.416016,331.839996,589.504028
792.512024,331.839996,587.552002
804.223999,335.743988,589.504028
798.367981,337.696014,589.504028
802.271973,339.648010,595.359985
796.416016,339.648010,593.408020
792.512024,335.743988,587.552002
796.416016,335.743988,577.791992
796.416016,345.503998,585.599976
794.463989,341.600006,591.455994
800.320007,341.600006,583.648010
792.512024,345.503998,581.695984
798.367981,337.696014,585.599976
790.559998,343.552002,587.552002
790.559998,339.648010,581.695984
792.512024,341.600006,591.455994
786.656006,333.791992,579.744019
788.607971,333.791992,569.984009
792.512024,327.936005,569.984009
782.752014,324.032013,568.031982
792.512024,341.600006,569.984009
782.752014,331.839996,575.840027
786.656006,335.743988,575.840027
788.607971,335.743988,573.888000
786.656006,331.839996,575.840027
788.607971,333.791992,575.840027
784.703979,333.791992,571.935974
782.752014,329.888000,569.984009
778.848022,337.696014,577.791992
784.703979,341.600006,581.695984
780.799988,341.600006,575.840027
786.656006,335.743988,579.744019
788.607971,327.936005,581.695984
798.367981,329.888000,583.648010
790.559998,329.888000,583.648010
794.463989,318.175995,591.455994
802.271973,312.320007,587.552002
806.176025,316.223999,577.791992
813.984009,318.175995,581.695984
810.080017,306.463989,583.648010
808.127991,306.463989,583.648010
804.223999,310.368011,591.455994
808.127991,312.320007,595.359985
813.984009,308.415985,599.263977
812.031982,306.463989,603.168030
819.840027,314.272003,599.263977
813.984009,312.320007,601.216003
808.127991,302.559998,603.168030
817.888000,306.463989,603.168030
813.984009,312.320007,593.408020
794.463989,304.511993,591.455994
804.223999,302.559998,591.455994
804.223999,304.511993,591.455994
804.223999,296.704010,585.599976
792.512024,300.608002,585.599976
790.559998,306.463989,587.552002
784.703979,310.368011,591.455994
788.607971,304.511993,581.695984
784.703979,310.368011,591.455994
772.992004,304.511993,583.648010
776.895996,308.415985,583.648010
782.752014,298.656006,579.744019
774.943970,304.511993,577.791992
778.848022,302.559998,587.552002
772.992004,298.656006,573.888000
772.992004,298.656006,579.744019
778.848022,294.752014,581.695984
778.848022,298.656006,579.744019
765.184021,302.559998,589.504028
769.088013,298.656006,585.599976
774.943970,296.704010,591.455994
774.943970,294.752014,593.408020
769.088013,294.752014,587.552002
761.280029,288.895996,589.504028
761.280029,288.895996,589.504028
757.375977,288.895996,585.599976
759.328003,286.944000,585.599976
771.039978,281.088013,587.552002
755.424011,286.944000,585.599976
767.135986,290.847992,585.599976
759.328003,286.944000,581.695984
755.424011,283.040009,579.744019
745.664001,277.183990,587.552002
755.424011,279.135986,579.744019
757.375977,286.944000,585.599976
745.664001,286.944000,573.888000
745.664001,294.752014,579.744019
749.567993,286.944000,581.695984
747.616028,281.088013,575.840027
737.856018,277.183990,583.648010
741.760010,288.895996,581.695984
751.520020,284.992004,577.791992
743.711975,288.895996,575.840027
749.567993,275.231995,583.648010
755.424011,281.088013,573.888000
745.664001,288.895996,569.984009
747.616028,275.231995,575.840027
737.856018,281.088013,583.648010
751.520020,283.040009,579.744019
745.664001,281.088013,577.791992
751.520020,275.231995,575.840027
755.424011,271.328003,591.455994
757.375977,269.376007,581.695984
751.520020,267.424011,569.984009
747.616028,281.088013,571.935974
745.664001,283.040009,573.888000
747.616028,275.231995,571.935974
743.711975,277.183990,566.080017
743.711975,269.376007,571.935974
745.664001,257.664001,569.984009
743.711975,279.135986,575.840027
747.616028,271.328003,566.080017
745.664001,283.040009,562.176025
743.711975,269.376007,569.984009
753.471985,269.376007,573.888000
747.616028,275.231995,575.840027
743.711975,279.135986,571.935974
743.711975,265.471985,562.176025
753.471985,271.328003,566.080017
747.616028,281.088013,571.935974
759.328003,279.135986,568.031982
749.567993,281.088013,571.935974
755.424011,283.040009,569.984009
753.471985,279.135986,569.984009
757.375977,283.040009,569.984009
755.424011,283.040009,577.791992
751.520020,283.040009,577.791992
763.231995,283.040009,575.840027
757.375977,283.040009,573.888000
772.992004,275.231995,583.648010
774.943970,281.088013,583.648010
772.992004,283.040009,585.599976
786.656006,288.895996,599.263977
776.895996,283.040009,591.455994
792.512024,286.944000,587.552002
786.656006,294.752014,599.263977
784.703979,286.944000,595.359985
786.656006,296.704010,593.408020
782.752014,286.944000,601.216003
788.607971,283.040009,599.263977
792.512024,284.992004,603.168030
794.463989,281.088013,593.408020
790.559998,283.040009,599.263977
800.320007,286.944000,591.455994
802.271973,288.895996,597.312012
798.367981,292.799988,593.408020
802.271973,284.992004,597.312012
790.559998,296.704010,603.168030
796.416016,296.704010,603.168030
790.559998,294.752014,597.312012
798.367981,294.752014,595.359985
792.512024,298.656006,597.312012
798.367981,292.799988,591.455994
790.559998,292.799988,597.312012
794.463989,300.608002,593.408020
788.607971,294.752014,591.455994
794.463989,306.463989,593.408020
790.559998,300.608002,591.455994
788.607971,292.799988,585.599976
784.703979,306.463989,599.263977
800.320007,302.559998,599.263977
794.463989,296.704010,607.072021
802.271973,298.656006,599.263977
796.416016,300.608002,599.263977
794.463989,290.847992,597.312012
788.607971,296.704010,605.119995
796.416016,294.752014,603.168030
796.416016,292.799988,603.168030
780.799988,298.656006,607.072021
780.799988,288.895996,593.408020
780.799988,288.895996,591.455994
786.656006,288.895996,589.504028
786.656006,294.752014,585.599976
794.463989,300.608002,587.552002
780.799988,294.752014,587.552002
790.559998,294.752014,583.648010
784.703979,300.608002,589.504028
780.799988,292.799988,587.552002
772.992004,304.511993,585.599976
771.039978,296.704010,583.648010
774.943970,284.992004,587.552002
782.752014,296.704010,583.648010
780.799988,286.944000,585.599976
786.656006,281.088013,597.312012
776.895996,296.704010,589.504028
790.559998,279.135986,593.408020
776.895996,279.135986,597.312012
784.703979,296.704010,605.119995
780.799988,281.088013,607.072021
790.559998,292.799988,610.976013
790.559998,294.752014,607.072021
792.512024,283.040009,605.119995
786.656006,300.608002,609.023987
802.271973,281.088013,612.927979
792.512024,283.040009,612.927979
798.367981,302.559998,612.927979
796.416016,284.992004,626.591980
792.512024,281.088013,616.831970
798.367981,296.704010,624.640015
800.320007,286.944000,620.736023
794.463989,284.992004,634.400024
796.416016,281.088013,638.304016
784.703979,284.992004,634.400024
792.512024,283.040009,638.304016
798.367981,284.992004,636.351990
794.463989,286.944000,630.495972
802.271973,288.895996,642.208008
792.512024,281.088013,628.544006
782.752014,279.135986,628.544006
786.656006,277.183990,632.447998
774.943970,269.376007,634.400024
771.039978,279.135986,651.968018
772.992004,273.279999,646.112000
767.135986,265.471985,644.159973
763.231995,269.376007,659.776001
765.184021,281.088013,655.872009
759.328003,269.376007,655.872009
771.039978,269.376007,650.015991
763.231995,267.424011,640.255981
771.039978,271.328003,648.064026
788.607971,273.279999,636.351990
782.752014,267.424011,624.640015
778.848022,265.471985,618.783997
778.848022,281.088013,609.023987
769.088013,286.944000,593.408020
755.424011,298.656006,589.504028
753.471985,296.704010,575.840027
747.616028,306.463989,571.935974
751.520020,296.704010,566.080017
741.760010,296.704010,564.127991
735.903992,290.847992,556.320007
739.807983,284.992004,552.416016
741.760010,283.040009,554.367981
732.000000,261.567993,550.463989
733.952026,267.424011,546.559998
739.807983,259.615997,548.512024
737.856018,249.856003,540.703979
728.096008,247.904007,544.607971
732.000000,245.951996,544.607971
726.143982,245.951996,550.463989
730.047974,242.048004,556.320007
732.000000,247.904007,550.463989
735.903992,249.856003,534.848022
732.000000,253.759995,538.752014
732.000000,271.328003,548.512024
732.000000,275.231995,536.799988
726.143982,273.279999,538.752014
726.143982,283.040009,544.607971
732.000000,273.279999,536.799988
726.143982,265.471985,542.656006
724.192017,271.328003,538.752014
712.479980,275.231995,540.703979
728.096008,247.904007,530.943970
728.096008,253.759995,540.703979
728.096008,240.095993,536.799988
722.239990,226.432007,542.656006
726.143982,220.576004,542.656006
730.047974,216.671997,534.848022
728.096008,216.671997,528.992004
730.047974,216.671997,536.799988
735.903992,208.863998,530.943970
739.807983,214.720001,538.752014
743.711975,224.479996,546.559998
745.664001,226.432007,548.512024
745.664001,232.287994,556.320007
745.664001,230.335999,560.223999
745.664001,242.048004,562.176025
745.664001,247.904007,571.935974
757.375977,251.807999,577.791992
761.280029,244.000000,573.888000
771.039978,247.904007,587.552002
774.943970,232.287994,589.504028
771.039978,242.048004,595.359985
771.039978,232.287994,603.168030
778.848022,218.623993,605.119995
776.895996,214.720001,614.880005
778.848022,214.720001,616.831970
790.559998,212.768005,612.927979
788.607971,204.960007,622.687988
786.656006,204.960007,616.831970
788.607971,203.007996,612.927979
788.607971,206.912003,614.880005
786.656006,206.912003,609.023987
788.607971,210.815994,610.976013
788.607971,220.576004,599.263977
792.512024,220.576004,610.976013
790.559998,222.528000,607.072021
790.559998,230.335999,603.168030
790.559998,234.240005,607.072021
782.752014,232.287994,607.072021
784.703979,218.623993,593.408020
786.656006,218.623993,603.168030
788.607971,216.671997,601.216003
792.512024,214.720001,610.976013
788.607971,210.815994,609.023987
792.512024,208.863998,605.119995
782.752014,204.960007,612.927979
786.656006,204.960007,622.687988
780.799988,199.104004,616.831970
786.656006,201.056000,618.783997
776.895996,210.815994,626.591980
788.607971,204.960007,624.640015
790.559998,206.912003,618.783997
780.799988,203.007996,612.927979
780.799988,204.960007,616.831970
784.703979,208.863998,616.831970
778.848022,199.104004,612.927979
776.895996,206.912003,610.976013
776.895996,212.768005,610.976013
772.992004,216.671997,614.880005
780.799988,214.720001,610.976013
767.135986,208.863998,601.216003
765.184021,203.007996,597.312012
771.039978,204.960007,605.119995
769.088013,197.151993,614.880005
769.088013,201.056000,612.927979
774.943970,181.535995,607.072021
769.088013,183.488007,616.831970
767.135986,175.679993,614.880005
757.375977,173.727997,622.687988
767.135986,177.632004,612.927979
767.135986,179.584000,634.400024
759.328003,175.679993,622.687988
765.184021,183.488007,630.495972
767.135986,183.488007,638.304016
769.088013,179.584000,634.400024
767.135986,177.632004,642.208008
769.088013,177.632004,638.304016
761.280029,167.871994,648.064026
757.375977,183.488007,644.159973
765.184021,185.440002,657.823975
769.088013,169.824005,651.968018
759.328003,169.824005,659.776001
763.231995,165.919998,667.583984
763.231995,160.063995,671.487976
757.375977,158.112000,673.440002
761.280029,148.352005,669.536011
769.088013,142.496002,651.968018
761.280029,136.639999,657.823975
757.375977,142.496002,650.015991
759.328003,130.783997,642.208008
749.567993,154.207993,634.400024
759.328003,146.399994,630.495972
745.664001,130.783997,630.495972
747.616028,148.352005,632.447998
741.760010,146.399994,620.736023
737.856018,142.496002,618.783997
737.856018,148.352005,607.072021
747.616028,142.496002,610.976013
733.952026,146.399994,605.119995
732.000000,152.255997,605.119995
726.143982,148.352005,601.216003
728.096008,142.496002,589.504028
726.143982,132.735992,595.359985
728.096008,124.928001,591.455994
722.239990,132.735992,577.791992
722.239990,138.591995,573.888000
718.335999,122.975998,571.935974
720.288025,126.879997,583.648010
718.335999,119.071999,577.791992
712.479980,122.975998,573.888000
710.528015,119.071999,585.599976
710.528015,111.264000,573.888000
716.383972,124.928001,575.840027
720.288025,124.928001,568.031982
706.624023,121.024002,564.127991
704.671997,121.024002,568.031982
700.768005,132.735992,554.367981
700.768005,115.167999,552.416016
694.911987,121.024002,550.463989
706.624023,124.928001,542.656006
704.671997,122.975998,548.512024
694.911987,132.735992,552.416016
694.911987,122.975998,548.512024
694.911987,119.071999,540.703979
687.104004,121.024002,544.607971
687.104004,119.071999,548.512024
681.247986,121.024002,552.416016
689.056030,113.216003,556.320007
681.247986,117.120003,544.607971
679.296021,115.167999,534.848022
685.151978,115.167999,532.895996
689.056030,107.360001,534.848022
692.960022,107.360001,527.039978
685.151978,103.456001,528.992004
689.056030,109.311996,523.135986
683.200012,121.024002,527.039978
677.343994,111.264000,519.231995
677.343994,126.879997,523.135986
681.247986,136.639999,519.231995
671.487976,142.496002,525.088013
673.440002,146.399994,507.519989
675.392029,142.496002,503.615997
675.392029,144.447998,521.184021
679.296021,142.496002,509.471985
671.487976,136.639999,503.615997
665.632019,132.735992,509.471985
669.536011,134.688004,503.615997
667.583984,130.783997,491.903992
671.487976,134.688004,489.951996
671.487976,128.832001,491.903992
663.679993,130.783997,489.951996
663.679993,126.879997,488.000000
663.679993,134.688004,491.903992
669.536011,130.783997,484.096008
673.440002,136.639999,491.903992
671.487976,132.735992,482.144012
669.536011,138.591995,484.096008
679.296021,134.688004,495.808014
681.247986,138.591995,493.855988
673.440002,142.496002,501.664001
689.056030,148.352005,503.615997
677.343994,136.639999,509.471985
681.247986,150.304001,513.375977
673.440002,150.304001,505.567993
679.296021,144.447998,517.280029
675.392029,150.304001,519.231995
681.247986,146.399994,519.231995
691.007996,148.352005,532.895996
687.104004,144.447998,540.703979
696.864014,140.544006,542.656006
691.007996,138.591995,542.656006
694.911987,134.688004,552.416016
700.768005,132.735992,554.367981
694.911987,136.639999,554.367981
698.815979,136.639999,564.127991
696.864014,128.832001,566.080017
704.671997,124.928001,571.935974
700.768005,134.688004,577.791992
706.624023,130.783997,564.127991
712.479980,128.832001,568.031982
700.768005,128.832001,569.984009
702.719971,146.399994,566.080017
700.768005,128.832001,573.888000
704.671997,136.639999,560.223999
704.671997,128.832001,562.176025
698.815979,132.735992,566.080017
700.768005,130.783997,571.935974
694.911987,132.735992,560.223999
702.719971,134.688004,571.935974
700.768005,124.928001,560.223999
694.911987,132.735992,560.223999
694.911987,130.783997,554.367981
702.719971,124.928001,556.320007
704.671997,117.120003,546.559998
700.768005,119.071999,562.176025
700.768005,122.975998,556.320007
696.864014,113.216003,556.320007
696.864014,109.311996,558.271973
692.960022,101.503998,554.367981
687.104004,109.311996,550.463989
696.864014,111.264000,556.320007
687.104004,111.264000,546.559998
696.864014,107.360001,542.656006
683.200012,111.264000,548.512024
683.200012,111.264000,544.607971
689.056030,105.407997,538.752014
687.104004,97.599998,536.799988
685.151978,113.216003,540.703979
681.247986,103.456001,528.992004
681.247986,103.456001,530.943970
681.247986,109.311996,536.799988
677.343994,101.503998,540.703979
679.296021,91.744003,527.039978
683.200012,83.935997,525.088013
675.392029,91.744003,521.184021
685.151978,91.744003,513.375977
683.200012,80.031998,513.375977
683.200012,70.272003,517.280029
689.056030,78.080002,519.231995
685.151978,80.031998,515.328003
673.440002,78.080002,511.424011
675.392029,83.935997,505.567993
677.343994,81.984001,507.519989
677.343994,87.839996,493.855988
685.151978,76.127998,493.855988
689.056030,85.888000,491.903992
692.960022,85.888000,507.519989
683.200012,78.080002,499.712006
687.104004,72.223999,497.760010
700.768005,87.839996,493.855988
704.671997,81.984001,495.808014
694.911987,80.031998,499.712006
704.671997,76.127998,497.760010
702.719971,83.935997,501.664001
702.719971,85.888000,499.712006
712.479980,81.984001,503.615997
720.288025,78.080002,509.471985
728.096008,93.695999,505.567993
726.143982,91.744003,513.375977
732.000000,91.744003,505.567993
730.047974,91.744003,519.231995
733.952026,95.648003,515.328003
747.616028,93.695999,509.471985
747.616028,103.456001,519.231995
743.711975,91.744003,515.328003
743.711975,91.744003,515.328003
757.375977,89.792000,517.280029
751.520020,87.839996,525.088013
749.567993,91.744003,515.328003
759.328003,93.695999,525.088013
759.328003,97.599998,513.375977
767.135986,95.648003,513.375977
765.184021,89.792000,521.184021
780.799988,93.695999,509.471985
778.848022,89.792000,511.424011
769.088013,97.599998,511.424011
769.088013,109.311996,517.280029
776.895996,107.360001,517.280029
784.703979,107.360001,513.375977
780.799988,115.167999,507.519989
784.703979,115.167999,501.664001
790.559998,109.311996,513.375977
788.607971,126.879997,505.567993
794.463989,124.928001,505.567993
784.703979,130.783997,505.567993
794.463989,122.975998,499.712006
798.367981,136.639999,495.808014
796.416016,146.399994,503.615997
798.367981,146.399994,501.664001
792.512024,142.496002,495.808014
802.271973,144.447998,493.855988
810.080017,156.160004,489.951996
812.031982,152.255997,491.903992
815.935974,158.112000,489.951996
821.791992,154.207993,488.000000
819.840027,158.112000,480.191986
825.695984,160.063995,484.096008
827.648010,160.063995,484.096008
823.744019,158.112000,486.048004
825.695984,165.919998,482.144012
833.504028,173.727997,480.191986
839.359985,187.391998,482.144012
833.504028,193.248001,482.144012
835.455994,193.248001,486.048004
845.216003,191.296005,489.951996
843.263977,193.248001,486.048004
854.976013,189.343994,478.239990
851.072021,197.151993,482.144012
847.168030,206.912003,476.287994
839.359985,212.768005,484.096008
856.927979,220.576004,478.239990
845.216003,216.671997,484.096008
854.976013,222.528000,484.096008
854.976013,218.623993,491.903992
851.072021,220.576004,486.048004
856.927979,214.720001,476.287994
868.640015,216.671997,478.239990
860.831970,214.720001,486.048004
864.736023,212.768005,474.335999
868.640015,218.623993,489.951996
866.687988,220.576004,482.144012
864.736023,226.432007,488.000000
858.880005,222.528000,484.096008
860.831970,232.287994,491.903992
853.023987,234.240005,489.951996
853.023987,234.240005,489.951996
868.640015,244.000000,489.951996
856.927979,245.951996,488.000000
851.072021,247.904007,486.048004
862.783997,245.951996,476.287994
854.976013,251.807999,476.287994
854.976013,251.807999,476.287994
856.927979,255.712006,470.432007
853.023987,261.567993,472.384003
851.072021,271.328003,476.287994
839.359985,271.328003,466.528015
845.216003,265.471985,464.575989
841.312012,259.615997,464.575989
837.408020,257.664001,466.528015
839.359985,253.759995,456.768005
841.312012,247.904007,450.911987
835.455994,234.240005,458.720001
847.168030,247.904007,460.671997
835.455994,226.432007,456.768005
835.455994,232.287994,456.768005
821.791992,236.192001,466.528015
823.744019,238.143997,468.480011
823.744019,247.904007,456.768005
833.504028,244.000000,452.864014
819.840027,251.807999,450.911987
829.599976,263.519989,462.623993
812.031982,257.664001,460.671997
819.840027,255.712006,460.671997
812.031982,255.712006,460.671997
815.935974,255.712006,454.816010
819.840027,255.712006,462.623993
817.888000,255.712006,458.720001
806.176025,253.759995,454.816010
808.127991,240.095993,458.720001
810.080017,245.951996,448.959991
804.223999,247.904007,448.959991
796.416016,228.384003,445.056000
800.320007,216.671997,439.200012
802.271973,210.815994,443.104004
800.320007,183.488007,433.343994
794.463989,187.391998,429.440002
788.607971,193.248001,421.631989
792.512024,195.199997,429.440002
780.799988,212.768005,435.295990
778.848022,214.720001,427.488007
776.895996,220.576004,427.488007
780.799988,224.479996,427.488007
776.895996,232.287994,433.343994
784.703979,232.287994,425.536011
794.463989,234.240005,419.679993
796.416016,234.240005,415.776001
794.463989,238.143997,411.872009
806.176025,245.951996,421.631989
804.223999,230.335999,423.584015
804.223999,240.095993,433.343994
813.984009,247.904007,437.247986
810.080017,224.479996,447.007996
815.935974,226.432007,445.056000
812.031982,208.863998,452.864014
808.127991,193.248001,448.959991
819.840027,189.343994,448.959991
821.791992,160.063995,452.864014
827.648010,163.968002,454.816010
845.216003,156.160004,450.911987
833.504028,142.496002,437.247986
831.552002,140.544006,443.104004
829.599976,144.447998,445.056000
831.552002,144.447998,435.295990
839.359985,146.399994,439.200012
835.455994,148.352005,441.152008
835.455994,148.352005,441.152008
837.408020,169.824005,435.295990
837.408020,167.871994,447.007996
839.359985,175.679993,445.056000
845.216003,158.112000,447.007996
845.216003,165.919998,450.911987
845.216003,160.063995,448.959991
839.359985,163.968002,456.768005
849.119995,154.207993,452.864014
845.216003,152.255997,458.720001
845.216003,146.399994,460.671997
849.119995,142.496002,460.671997
835.455994,134.688004,454.816010
835.455994,132.735992,454.816010
837.408020,124.928001,450.911987
843.263977,122.975998,448.959991
845.216003,117.120003,452.864014
841.312012,124.928001,448.959991
843.263977,128.832001,443.104004
841.312012,136.639999,443.104004
837.408020,134.688004,431.391998
831.552002,136.639999,431.391998
835.455994,142.496002,433.343994
829.599976,140.544006,443.104004
837.408020,146.399994,437.247986
845.216003,142.496002,421.631989
849.119995,140.544006,431.391998
851.072021,152.255997,431.391998
839.359985,167.871994,423.584015
841.312012,148.352005,427.488007
845.216003,154.207993,419.679993
827.648010,165.919998,413.824005
825.695984,152.255997,415.776001
819.840027,146.399994,413.824005
815.935974,134.688004,413.824005
813.984009,128.832001,421.631989
810.080017,121.024002,429.440002
810.080017,113.216003,419.679993
806.176025,119.071999,415.776001
810.080017,126.879997,419.679993
821.791992,117.120003,411.872009
819.840027,115.167999,411.872009
819.840027,132.735992,402.112000
821.791992,144.447998,404.063995
812.031982,144.447998,396.256012
825.695984,152.255997,394.303986
827.648010,163.968002,394.303986
827.648010,169.824005,396.256012
825.695984,165.919998,390.399994
831.552002,179.584000,384.544006
827.648010,169.824005,374.783997
823.744019,175.679993,370.880005
827.648010,171.776001,374.783997
833.504028,162.016006,374.783997
823.744019,173.727997,366.976013
837.408020,173.727997,355.264008
835.455994,162.016006,357.216003
845.216003,156.160004,349.407990
847.168030,160.063995,347.455994
851.072021,167.871994,341.600006
854.976013,169.824005,341.600006
849.119995,173.727997,335.743988
864.736023,169.824005,329.888000
853.023987,181.535995,337.696014
856.927979,204.960007,343.552002
862.783997,204.960007,335.743988
874.495972,203.007996,333.791992
884.255981,212.768005,337.696014
890.112000,216.671997,339.648010
888.159973,208.863998,333.791992
903.776001,201.056000,331.839996
907.679993,193.248001,329.888000
905.728027,191.296005,337.696014
915.487976,185.440002,343.552002
909.632019,177.632004,353.312012
903.776001,203.007996,368.928009
901.823975,197.151993,382.592010
897.919983,175.679993,390.399994
907.679993,193.248001,402.112000
901.823975,195.199997,407.967987
903.776001,173.727997,409.920013
915.487976,171.776001,417.727997
911.583984,175.679993,413.824005
911.583984,156.160004,415.776001
925.247986,163.968002,407.967987
935.007996,163.968002,411.872009
935.007996,177.632004,400.160004
935.007996,189.343994,407.967987
946.719971,185.440002,400.160004
940.864014,187.391998,402.112000
938.911987,212.768005,400.160004
948.671997,204.960007,404.063995
960.383972,210.815994,398.208008
956.479980,214.720001,400.160004
956.479980,214.720001,413.824005
958.432007,220.576004,396.256012
968.192017,204.960007,396.256012
979.903992,210.815994,386.496002
985.760010,201.056000,386.496002
987.711975,204.960007,390.399994
983.807983,193.248001,382.592010
995.520020,193.248001,384.544006
999.424011,195.199997,386.496002
1009.184021,197.151993,376.735992
1009.184021,199.104004,378.687988
1011.135986,197.151993,384.544006
1020.895996,199.104004,386.496002
1015.039978,203.007996,392.351990
1026.751953,206.912003,388.447998
1018.943970,208.863998,392.351990
1036.511963,210.815994,394.303986
1022.848022,220.576004,400.160004
1034.560059,204.960007,400.160004
1036.511963,195.199997,400.160004
1040.416016,191.296005,407.967987
1042.368042,199.104004,415.776001
1046.271973,187.391998,411.872009
1042.368042,183.488007,423.584015
1044.319946,181.535995,435.295990
1046.271973,179.584000,431.391998
1042.368042,169.824005,425.536011
1056.031982,163.968002,433.343994
1054.079956,173.727997,445.056000
1059.936035,169.824005,443.104004
1046.271973,154.207993,443.104004
1063.839966,160.063995,450.911987
1054.079956,162.016006,445.056000
1054.079956,165.919998,450.911987
1052.128052,171.776001,454.816010
1052.128052,183.488007,458.720001
1042.368042,185.440002,456.768005
1042.368042,179.584000,448.959991
1036.511963,185.440002,448.959991
1040.416016,193.248001,458.720001
1042.368042,189.343994,454.816010
1042.368042,181.535995,454.816010
1036.511963,185.440002,454.816010
1040.416016,191.296005,450.911987
1034.560059,189.343994,447.007996
1026.751953,177.632004,433.343994
1032.608032,181.535995,437.247986
1028.703979,169.824005,437.247986
1028.703979,162.016006,425.536011
1018.943970,160.063995,429.440002
1020.895996,165.919998,419.679993
1009.184021,169.824005,427.488007
1007.231995,152.255997,423.584015
1011.135986,158.112000,415.776001
1001.375977,146.399994,402.112000
991.616028,148.352005,407.967987
995.520020,154.207993,398.208008
989.664001,156.160004,400.160004
979.903992,156.160004,398.208008
985.760010,142.496002,398.208008
977.952026,144.447998,394.303986
985.760010,134.688004,396.256012
976.000000,132.735992,388.447998
964.288025,130.783997,382.592010
964.288025,130.783997,388.447998
962.335999,124.928001,392.351990
960.383972,134.688004,392.351990
962.335999,122.975998,378.687988
948.671997,117.120003,380.640015
948.671997,126.879997,380.640015
936.960022,119.071999,378.687988
942.815979,109.311996,382.592010
944.768005,111.264000,380.640015
938.911987,109.311996,388.447998
948.671997,99.552002,378.687988
940.864014,95.648003,378.687988
940.864014,95.648003,378.687988
940.864014,101.503998,384.544006
940.864014,78.080002,374.783997
935.007996,81.984001,384.544006
938.911987,85.888000,374.783997
929.151978,95.648003,374.783997
942.815979,93.695999,386.496002
940.864014,85.888000,376.735992
942.815979,83.935997,392.351990
929.151978,85.888000,376.735992
931.104004,76.127998,380.640015
946.719971,66.367996,384.544006
936.960022,76.127998,382.592010
940.864014,62.464001,382.592010
948.671997,58.560001,382.592010
936.960022,56.608002,380.640015
950.624023,62.464001,380.640015
954.528015,58.560001,380.640015
944.768005,50.751999,376.735992
954.528015,58.560001,388.447998
966.239990,50.751999,388.447998
952.575989,39.040001,386.496002
974.047974,40.992001,400.160004
974.047974,40.992001,404.063995
979.903992,37.088001,394.303986
1040.416016,37.088001,392.351990
1050.176025,39.040001,388.447998
1044.319946,35.136002,396.256012
1048.223999,27.327999,388.447998
1044.319946,-11.712000,400.160004
1046.271973,5.856000,415.776001
1028.703979,21.472000,419.679993
1040.416016,-5.856000,427.488007
1030.656006,-13.664000,429.440002
1040.416016,9.760000,441.152008
1030.656006,-3.904000,445.056000
1036.511963,1.952000,445.056000
1026.751953,0.000000,448.959991
1032.608032,-1.952000,448.959991
1020.895996,15.616000,458.720001
1020.895996,13.664000,468.480011
1013.088013,3.904000,478.239990
1009.184021,23.424000,480.191986
1013.088013,27.327999,489.951996
1001.375977,21.472000,501.664001
999.424011,27.327999,491.903992
979.903992,42.944000,495.808014
983.807983,48.799999,495.808014
983.807983,27.327999,491.903992
970.143982,29.280001,488.000000
972.096008,44.896000,486.048004
964.288025,29.280001,486.048004
958.432007,11.712000,468.480011
954.528015,13.664000,458.720001
948.671997,9.760000,445.056000
944.768005,5.856000,431.391998
936.960022,-3.904000,409.920013
935.007996,-7.808000,396.256012
933.056030,1.952000,390.399994
931.104004,-1.952000,376.735992
925.247986,1.952000,370.880005
929.151978,17.568001,355.264008
929.151978,3.904000,343.552002
935.007996,3.904000,349.407990
936.960022,11.712000,343.552002
933.056030,3.904000,339.648010
942.815979,7.808000,339.648010
946.719971,0.000000,345.503998
954.528015,0.000000,341.600006
944.768005,5.856000,347.455994
946.719971,-11.712000,343.552002
962.335999,-31.232000,355.264008
960.383972,-13.664000,363.071991
966.239990,-15.616000,372.832001
964.288025,-23.424000,368.928009
966.239990,-29.280001,370.880005
966.239990,-27.327999,366.976013
968.192017,-33.183998,365.023987
966.239990,-27.327999,366.976013
968.192017,-31.232000,365.023987
970.143982,-13.664000,351.359985
964.288025,-19.520000,355.264008
972.096008,-15.616000,359.167999
960.383972,-13.664000,357.216003
952.575989,-9.760000,353.312012
962.335999,1.952000,341.600006
962.335999,1.952000,341.600006
950.624023,-3.904000,337.696014
952.575989,-1.952000,337.696014
958.432007,1.952000,335.743988
956.479980,5.856000,345.503998
952.575989,1.952000,347.455994
948.671997,11.712000,339.648010
942.815979,15.616000,341.600006
936.960022,9.760000,341.600006
942.815979,11.712000,329.888000
933.056030,23.424000,335.743988
931.104004,19.520000,325.984009
940.864014,15.616000,325.984009
927.200012,23.424000,314.272003
923.296021,31.232000,312.320007
927.200012,31.232000,318.175995
925.247986,31.232000,318.175995
915.487976,31.232000,308.415985
925.247986,40.992001,314.272003
921.343994,39.040001,298.656006
915.487976,31.232000,300.608002
909.632019,44.896000,296.704010
917.440002,40.992001,294.752014
913.536011,33.183998,300.608002
913.536011,37.088001,304.511993
913.536011,37.088001,302.559998
905.728027,48.799999,292.799988
915.487976,40.992001,290.847992
901.823975,42.944000,294.752014
905.728027,40.992001,281.088013
905.728027,46.848000,281.088013
905.728027,52.703999,273.279999
915.487976,44.896000,284.992004
911.583984,50.751999,277.183990
907.679993,62.464001,273.279999
903.776001,58.560001,277.183990
903.776001,72.223999,275.231995
903.776001,70.272003,275.231995
899.872009,66.367996,271.328003
901.823975,66.367996,265.471985
897.919983,74.176003,257.664001
897.919983,72.223999,247.904007
903.776001,78.080002,247.904007
894.015991,66.367996,238.143997
899.872009,70.272003,236.192001
903.776001,72.223999,238.143997
897.919983,76.127998,230.335999
894.015991,70.272003,228.384003
899.872009,74.176003,224.479996
890.112000,74.176003,208.863998
897.919983,74.176003,210.815994
899.872009,68.320000,199.104004
876.447998,93.695999,201.056000
888.159973,134.688004,204.960007
882.304016,95.648003,201.056000
884.255981,97.599998,195.199997
876.447998,119.071999,181.535995
880.351990,109.311996,193.248001
872.544006,117.120003,187.391998
870.591980,115.167999,185.440002
876.447998,91.744003,197.151993
876.447998,122.975998,185.440002
874.495972,121.024002,185.440002
868.640015,91.744003,171.776001
872.544006,107.360001,171.776001
862.783997,126.879997,163.968002
858.880005,122.975998,154.207993
856.927979,103.456001,152.255997
854.976013,107.360001,158.112000
864.736023,117.120003,154.207993
853.023987,130.783997,148.352005
860.831970,119.071999,148.352005
860.831970,119.071999,140.544006
862.783997,117.120003,142.496002
868.640015,124.928001,136.639999
866.687988,124.928001,132.735992
870.591980,113.216003,136.639999
860.831970,128.832001,136.639999
870.591980,130.783997,144.447998
845.216003,85.888000,144.447998
778.848022,-115.167999,261.567993
798.367981,138.591995,390.399994
708.575989,394.303986,359.167999
854.976013,35.136002,292.799988
997.471985,-203.007996,361.119995
1138.015991,-201.056000,554.367981
1089.215942,-263.519989,817.888000
1059.936035,-417.727997,936.960022
1157.536011,-195.199997,854.976013
1141.920044,-9.760000,763.231995
1036.511963,7.808000,655.872009
983.807983,249.856003,530.943970
936.960022,484.096008,396.256012
882.304016,569.984009,298.656006
874.495972,513.375977,226.432007
851.072021,359.167999,191.296005
851.072021,357.216003,169.824005
866.687988,331.839996,154.207993
878.400024,177.632004,150.304001
870.591980,74.176003,128.832001
868.640015,76.127998,111.264000
853.023987,44.896000,80.031998
858.880005,-29.280001,68.320000
856.927979,-101.503998,60.512001
854.976013,-146.399994,56.608002
862.783997,-165.919998,42.944000
847.168030,-203.007996,21.472000
837.408020,-199.104004,5.856000
829.599976,-142.496002,-27.327999
813.984009,-76.127998,-68.320000
796.416016,-15.616000,-93.695999
776.895996,17.568001,-126.879997
786.656006,39.040001,-150.304001
778.848022,103.456001,-163.968002
776.895996,134.688004,-169.824005
790.559998,117.120003,-156.160004
794.463989,99.552002,-146.399994
810.080017,83.935997,-132.735992
821.791992,39.040001,-128.832001
837.408020,-40.992001,-121.024002
841.312012,-81.984001,-115.167999
827.648010,-115.167999,-109.311996
825.695984,-113.216003,-105.407997
819.840027,-70.272003,-99.552002
808.127991,-35.136002,-117.120003
800.320007,-68.320000,-130.783997
804.223999,-140.544006,-111.264000
817.888000,-156.160004,-109.311996
841.312012,-130.783997,-117.120003
860.831970,-72.223999,-105.407997
872.544006,273.279999,-107.360001
860.831970,546.559998,-42.944000
856.927979,325.984009,40.992001
886.208008,17.568001,136.639999
950.624023,-81.984001,206.912003
1001.375977,-140.544006,273.279999
1022.848022,-195.199997,337.696014
1020.895996,-206.912003,388.447998
1030.656006,-185.440002,388.447998
1024.800049,-185.440002,378.687988
1020.895996,-78.080002,339.648010
1013.088013,33.183998,283.040009
999.424011,117.120003,255.712006
983.807983,240.095993,206.912003
964.288025,322.079987,169.824005
960.383972,343.552002,165.919998
983.807983,331.839996,173.727997
860.831970,345.503998,232.287994
929.151978,489.951996,445.056000
895.968018,1339.072021,650.015991
1106.784058,2053.503906,650.015991
1120.447998,1979.328003,644.159973
1120.447998,763.231995,634.400024
1208.287964,-856.927979,587.552002
1270.751953,-1719.712036,558.271973
1231.712036,-1506.943970,542.656006
1190.719971,-558.271973,491.903992
1126.303955,575.840027,421.631989
1075.552002,1151.680054,347.455994
1015.039978,1098.975952,286.944000
1007.231995,622.687988,222.528000
1009.184021,7.808000,177.632004
1022.848022,-394.303986,150.304001
1028.703979,-398.208008,142.496002
1024.800049,-138.591995,126.879997
1011.135986,216.671997,83.935997
995.520020,450.911987,70.272003
987.711975,523.135986,60.512001
960.383972,484.096008,70.272003
962.335999,374.783997,89.792000
979.903992,224.479996,103.456001
995.520020,119.071999,136.639999
1013.088013,42.944000,160.063995
1020.895996,15.616000,179.584000
1022.848022,5.856000,173.727997
1022.848022,-23.424000,177.632004
1007.231995,-58.560001,136.639999
983.807983,-93.695999,115.167999
954.528015,-199.104004,113.216003
942.815979,-251.807999,138.591995
925.247986,-113.216003,154.207993
925.247986,169.824005,167.871994
936.960022,404.063995,171.776001
946.719971,415.776001,158.112000
944.768005,218.623993,124.928001
933.056030,-91.744003,95.648003
944.768005,-281.088013,29.280001
929.151978,-201.056000,-9.760000
895.968018,42.944000,-44.896000
882.304016,277.183990,-78.080002
878.400024,365.023987,-115.167999
845.216003,281.088013,-163.968002
831.552002,150.304001,-197.151993
804.223999,0.000000,-224.479996
876.447998,-50.751999,-279.135986
907.679993,13.664000,-304.511993
931.104004,126.879997,-322.079987
897.919983,206.912003,-310.368011
841.312012,171.776001,-320.127991
784.703979,115.167999,-329.888000
732.000000,111.264000,-353.312012
708.575989,128.832001,-402.112000
724.192017,249.856003,-392.351990
763.231995,407.967987,-329.888000
774.943970,501.664001,-257.664001
841.312012,423.584015,-181.535995
853.023987,91.744003,-124.928001
884.255981,-255.712006,-117.120003
915.487976,-569.984009,-124.928001
915.487976,-772.992004,-136.639999
876.447998,-952.575989,-146.399994
802.271973,-886.208008,-154.207993
759.328003,-484.096008,-156.160004
765.184021,46.848000,-163.968002
759.328003,532.895996,-181.535995
792.512024,737.856018,-228.384003
776.895996,650.015991,-253.759995
810.080017,355.264008,-273.279999
870.591980,-27.327999,-275.231995
878.400024,-292.799988,-300.608002
905.728027,-325.984009,-345.503998
895.968018,-165.919998,-407.967987
853.023987,62.464001,-480.191986
837.408020,314.272003,-517.280029
819.840027,335.743988,-468.480011
790.559998,185.440002,-325.984009
790.559998,119.071999,-208.863998
788.607971,357.216003,-124.928001
895.968018,472.384003,-115.167999
972.096008,351.359985,-101.503998
1063.839966,-44.896000,-121.024002
1069.696045,-554.367981,-107.360001
1016.992004,-821.791992,-115.167999
950.624023,-698.815979,-160.063995
864.736023,-329.888000,-249.856003
835.455994,66.367996,-368.928009
856.927979,603.168030,-445.056000
882.304016,1360.543945,-372.832001
1040.416016,1912.959961,-261.567993
1061.887939,1655.296021,-91.744003
1065.791992,140.544006,81.984001
1188.767944,-1676.767944,124.928001
1274.656006,-2451.711914,80.031998
1218.047974,-1834.880005,29.280001
1120.447998,-302.559998,-25.375999
1063.839966,1097.024048,-64.416000
1089.215942,1571.359985,-122.975998
1102.880005,1141.920044,-175.679993
1102.880005,40.992001,-234.240005
1180.959961,-1264.895996,-273.279999
1108.735962,-2231.135986,-214.720001
950.624023,-1953.952026,-128.832001
804.223999,-242.048004,-103.456001
917.440002,1173.151978,-78.080002
1069.696045,1774.368042,11.712000
1198.527954,1895.391968,3.904000
1177.056030,1844.640015,-11.712000
1009.184021,993.567993,-15.616000
1069.696045,-1083.359985,-99.552002
1206.336060,-2611.775879,-175.679993
1268.800049,-2627.392090,-181.535995
1208.287964,-1368.352051,-175.679993
1108.735962,345.503998,-160.063995
1083.359985,1380.063965,-226.432007
1186.816040,1522.560059,-302.559998
1206.336060,1344.927979,-335.743988
1155.583984,595.359985,-329.888000
1138.015991,-569.984009,-281.088013
1165.343994,-1331.264038,-173.727997
1126.303955,-1350.784058,-76.127998
1091.167969,-599.263977,-44.896000
1063.839966,468.480011,-78.080002
1069.696045,1134.112061,-117.120003
1098.975952,1179.008057,-175.679993
1087.264038,671.487976,-204.960007
1128.255981,-189.343994,-275.231995
1132.160034,-903.776001,-366.976013
1184.864014,-1089.215942,-437.247986
1196.576050,-689.056030,-452.864014
1186.816040,85.888000,-460.671997
1196.576050,685.151978,-447.007996
1214.144043,769.088013,-392.351990
1257.088013,560.223999,-325.984009
1239.520020,441.152008,-175.679993
1196.576050,517.280029,-66.367996
1179.008057,406.015991,-27.327999
1436.671997,179.584000,-122.975998
1622.112061,15.616000,-193.248001
1670.911987,-99.552002,-173.727997
1581.119995,-103.456001,-76.127998
1487.423950,42.944000,29.280001
1385.920044,208.863998,132.735992
1380.063965,329.888000,185.440002
1405.439941,394.303986,214.720001
1391.776001,406.015991,236.192001
1415.199951,363.071991,251.807999
1405.439941,271.328003,288.895996
1423.008057,222.528000,353.312012
1475.712036,163.968002,370.880005
1518.656006,13.664000,447.007996
1620.160034,-162.016006,579.744019
1764.608032,-343.552002,827.648010
2006.656006,-601.216003,1159.488037
2477.087891,-1104.832031,1983.232056
3322.303955,-1823.167969,3579.968018
4165.567871,-1864.160034,4895.616211
4440.799805,-1206.336060,4778.496094
3781.023926,-468.480011,3332.063965
2820.639893,234.240005,1467.904053
2102.303955,398.208008,46.848000
1424.959961,669.536011,-663.679993
1079.456055,1155.583984,-1069.696045
884.255981,1370.303955,-1200.479980
856.927979,1268.800049,-1139.968018
942.815979,1057.984009,-991.616028
1067.744019,810.080017,-730.047974
1214.144043,540.703979,-431.391998
1391.776001,242.048004,-121.024002
1532.319946,-5.856000,101.503998
1643.583984,-154.207993,232.287994
1684.576050,-263.519989,267.424011
1641.631958,-314.272003,208.863998
1540.128052,-183.488007,35.136002
1391.776001,-48.799999,-128.832001
1335.167969,-21.472000,-286.944000
1266.848022,52.703999,-329.888000
1260.991943,130.783997,-355.264008
1235.615967,212.768005,-322.079987
1260.991943,327.936005,-261.567993
1323.456055,376.735992,-201.056000
1383.968018,368.928009,-126.879997
1417.151978,390.399994,-72.223999
1401.536011,374.783997,-35.136002
1391.776001,318.175995,-74.176003
1372.255981,181.535995,-136.639999
1337.119995,46.848000,-212.768005
1296.128052,-37.088001,-259.615997
1272.703979,-138.591995,-300.608002
1259.040039,-292.799988,-271.328003
1259.040039,-433.343994,-222.528000
1249.280029,-413.824005,-203.007996
1245.375977,-286.944000,-204.960007
1237.567993,-115.167999,-193.248001
1247.328003,58.560001,-158.112000
1257.088013,216.671997,-121.024002
1247.328003,308.415985,-87.839996
1233.663940,402.112000,-85.888000
1194.624023,478.239990,-115.167999
1184.864014,476.287994,-150.304001
1153.631958,427.488007,-154.207993
1143.871948,345.503998,-171.776001
1139.968018,236.192001,-162.016006
1134.112061,119.071999,-158.112000
1124.352051,19.520000,-175.679993
1120.447998,-37.088001,-195.199997
1110.687988,-95.648003,-189.343994
1110.687988,-95.648003,-193.248001
1102.880005,-39.040001,-208.863998
1095.072021,-1.952000,-203.007996
1089.215942,62.464001,-191.296005
1065.791992,117.120003,-191.296005
1050.176025,152.255997,-203.007996
1042.368042,193.248001,-218.623993
1028.703979,177.632004,-214.720001
1020.895996,165.919998,-210.815994
1016.992004,122.975998,-208.863998
1007.231995,105.407997,-222.528000
1018.943970,58.560001,-212.768005
1018.943970,48.799999,-222.528000
1018.943970,48.799999,-224.479996
1018.943970,56.608002,-240.095993
1038.463989,60.512001,-224.479996
1034.560059,58.560001,-216.671997
1032.608032,68.320000,-222.528000
1024.800049,83.935997,-218.623993
1026.751953,83.935997,-222.528000
1036.511963,54.655998,-228.384003
1028.703979,40.992001,-230.335999
1032.608032,40.992001,-245.951996
1022.848022,33.183998,-245.951996
1030.656006,33.183998,-234.240005
1024.800049,35.136002,-224.479996
999.424011,40.992001,-220.576004
985.760010,54.655998,-238.143997
993.567993,50.751999,-247.904007
991.616028,46.848000,-259.615997
1011.135986,23.424000,-247.904007
1022.848022,7.808000,-234.240005
1030.656006,11.712000,-212.768005
1028.703979,29.280001,-206.912003
1016.992004,35.136002,-230.335999
1016.992004,52.703999,-232.287994
1015.039978,42.944000,-240.095993
1018.943970,60.512001,-236.192001
1015.039978,56.608002,-240.095993
1024.800049,35.136002,-249.856003
1020.895996,27.327999,-253.759995
1026.751953,15.616000,-249.856003
1022.848022,17.568001,-236.192001
1038.463989,17.568001,-226.432007
1040.416016,48.799999,-228.384003
1038.463989,62.464001,-226.432007
1048.223999,60.512001,-214.720001
1044.319946,62.464001,-222.528000
1028.703979,58.560001,-230.335999
1026.751953,64.416000,-222.528000
1011.135986,46.848000,-204.960007
1028.703979,35.136002,-195.199997
1050.176025,46.848000,-210.815994
1059.936035,56.608002,-240.095993
1028.703979,17.568001,-230.335999
1022.848022,-1.952000,-228.384003
1020.895996,13.664000,-240.095993
1024.800049,21.472000,-249.856003
1028.703979,25.375999,-245.951996
1038.463989,29.280001,-247.904007
1032.608032,37.088001,-259.615997
1032.608032,62.464001,-288.895996
1032.608032,83.935997,-253.759995
1038.463989,124.928001,-234.240005
1054.079956,126.879997,-216.671997
1052.128052,144.447998,-218.623993
1044.319946,152.255997,-265.471985
1022.848022,128.832001,-263.519989
1011.135986,132.735992,-251.807999
1024.800049,128.832001,-261.567993
1034.560059,89.792000,-263.519989
1032.608032,50.751999,-283.040009
1022.848022,50.751999,-310.368011
987.711975,39.040001,-347.455994
970.143982,-5.856000,-343.552002
936.960022,-70.272003,-310.368011
1063.839966,48.799999,-366.976013
1311.744019,368.928009,-427.488007
1413.248047,333.791992,-314.272003
1331.264038,322.079987,-199.104004
1282.463989,355.264008,-121.024002
1216.095947,292.799988,-76.127998
1186.816040,288.895996,-138.591995
1128.255981,257.664001,-187.391998
1044.319946,138.591995,-214.720001
1036.511963,64.416000,-265.471985
1069.696045,44.896000,-325.984009
1110.687988,29.280001,-343.552002
1128.255981,1.952000,-300.608002
1157.536011,31.232000,-275.231995
1175.104004,85.888000,-232.287994
1171.199951,171.776001,-210.815994
1151.680054,214.720001,-206.912003
1126.303955,265.471985,-230.335999
1116.543945,290.847992,-240.095993
1112.640015,263.519989,-230.335999
1126.303955,259.615997,-230.335999
1145.823975,259.615997,-255.712006
1136.063965,228.384003,-247.904007
1145.823975,208.863998,-261.567993
1132.160034,179.584000,-290.847992
1136.063965,152.255997,-300.608002
1147.776001,148.352005,-318.175995
1145.823975,132.735992,-318.175995
1134.112061,144.447998,-286.944000
1143.871948,171.776001,-283.040009
1147.776001,187.391998,-294.752014
1143.871948,189.343994,-316.223999
1136.063965,171.776001,-324.032013
1139.968018,156.160004,-318.175995
1139.968018,152.255997,-331.839996
1145.823975,132.735992,-322.079987
1138.015991,99.552002,-296.704010
1091.167969,76.127998,-290.847992
1075.552002,97.599998,-335.743988
1040.416016,93.695999,-353.312012
1013.088013,76.127998,-378.687988
1013.088013,44.896000,-400.160004
1040.416016,13.664000,-400.160004
1075.552002,9.760000,-368.928009
1100.927979,17.568001,-279.135986
1145.823975,15.616000,-187.391998
1145.823975,56.608002,-169.824005
1134.112061,91.744003,-195.199997
1110.687988,117.120003,-224.479996
1100.927979,134.688004,-228.384003
1097.024048,113.216003,-208.863998
1112.640015,56.608002,-177.632004
1149.728027,-25.375999,-165.919998
1157.536011,-109.311996,-167.871994
1141.920044,-171.776001,-203.007996
1128.255981,-206.912003,-206.912003
1120.447998,-167.871994,-201.056000
1097.024048,-119.071999,-195.199997
1069.696045,-158.112000,-212.768005
1069.696045,-208.863998,-226.432007
1091.167969,-218.623993,-214.720001
1112.640015,-199.104004,-187.391998
1138.015991,-165.919998,-154.207993
1149.728027,-124.928001,-158.112000
1151.680054,-93.695999,-197.151993
1155.583984,-39.040001,-218.623993
1149.728027,0.000000,-228.384003
1157.536011,29.280001,-226.432007
1157.536011,44.896000,-212.768005
1155.583984,62.464001,-220.576004
1161.439941,91.744003,-210.815994
1163.391968,111.264000,-222.528000
1143.871948,134.688004,-234.240005
1124.352051,167.871994,-257.664001
1124.352051,179.584000,-261.567993
1134.112061,197.151993,-265.471985
1136.063965,210.815994,-257.664001
1139.968018,191.296005,-228.384003
1147.776001,189.343994,-220.576004
1145.823975,181.535995,-222.528000
1141.920044,165.919998,-234.240005
1139.968018,142.496002,-234.240005
1132.160034,134.688004,-234.240005
1130.208008,126.879997,-251.807999
1114.592041,95.648003,-255.712006
1106.784058,70.272003,-267.424011
1097.024048,68.320000,-279.135986
1085.312012,42.944000,-279.135986
1077.504028,27.327999,-283.040009
1075.552002,40.992001,-288.895996
1071.647949,19.520000,-281.088013
1077.504028,17.568001,-286.944000
1057.984009,25.375999,-300.608002
1057.984009,17.568001,-304.511993
1054.079956,33.183998,-290.847992
1063.839966,46.848000,-296.704010
1046.271973,54.655998,-296.704010
1056.031982,50.751999,-296.704010
1048.223999,52.703999,-312.320007
1032.608032,40.992001,-322.079987
1028.703979,39.040001,-324.032013
1036.511963,25.375999,-294.752014
1032.608032,17.568001,-298.656006
1036.511963,13.664000,-312.320007
1026.751953,5.856000,-298.656006
1018.943970,21.472000,-306.463989
1026.751953,35.136002,-312.320007
1018.943970,35.136002,-306.463989
1022.848022,40.992001,-300.608002
1016.992004,27.327999,-284.992004
1022.848022,0.000000,-281.088013
1034.560059,-7.808000,-281.088013
1038.463989,-27.327999,-283.040009
1034.560059,-29.280001,-284.992004
1032.608032,-31.232000,-294.752014
1030.656006,-37.088001,-304.511993
1026.751953,-46.848000,-292.799988
1032.608032,-35.136002,-288.895996
1032.608032,-13.664000,-298.656006
1044.319946,9.760000,-300.608002
1036.511963,3.904000,-290.847992
1032.608032,-25.375999,-290.847992
1036.511963,-46.848000,-275.231995
1046.271973,-31.232000,-284.992004
1046.271973,-11.712000,-290.847992
1038.463989,9.760000,-304.511993
1032.608032,23.424000,-324.032013
1030.656006,-5.856000,-324.032013
1044.319946,-33.183998,-312.320007
1059.936035,-25.375999,-286.944000
1057.984009,-25.375999,-271.328003
1071.647949,-5.856000,-292.799988
1069.696045,9.760000,-292.799988
1065.791992,17.568001,-300.608002
1050.176025,33.183998,-320.127991
1056.031982,13.664000,-310.368011
1069.696045,-17.568001,-286.944000
1069.696045,-46.848000,-275.231995
1075.552002,-54.655998,-296.704010
1067.744019,-37.088001,-318.175995
1069.696045,-3.904000,-318.175995
1079.456055,0.000000,-300.608002
1102.880005,19.520000,-286.944000
1095.072021,13.664000,-281.088013
1097.024048,9.760000,-292.799988
1087.264038,-5.856000,-308.415985
1069.696045,-13.664000,-308.415985
1079.456055,-19.520000,-314.272003
1077.504028,-39.040001,-312.320007
1091.167969,-23.424000,-298.656006
1106.784058,-13.664000,-286.944000
1093.119995,11.712000,-292.799988
1102.880005,15.616000,-296.704010
1095.072021,15.616000,-298.656006
1095.072021,29.280001,-306.463989
1095.072021,3.904000,-294.752014
1089.215942,-19.520000,-292.799988
1083.359985,-27.327999,-298.656006
1069.696045,-17.568001,-322.079987
1079.456055,-1.952000,-329.888000
1091.167969,11.712000,-337.696014
1093.119995,52.703999,-341.600006
1098.975952,42.944000,-306.463989
1098.975952,39.040001,-281.088013
1089.215942,17.568001,-306.463989
1081.407959,5.856000,-314.272003
1087.264038,-15.616000,-324.032013
1081.407959,3.904000,-316.223999
1087.264038,7.808000,-300.608002
1081.407959,31.232000,-306.463989
1083.359985,52.703999,-316.223999
1073.599976,25.375999,-298.656006
1067.744019,5.856000,-296.704010
1083.359985,-1.952000,-318.175995
1077.504028,3.904000,-302.559998
1079.456055,-7.808000,-298.656006
1085.312012,25.375999,-306.463989
1077.504028,29.280001,-296.704010
1071.647949,1.952000,-279.135986
1071.647949,-35.136002,-296.704010
1063.839966,-56.608002,-292.799988
1065.791992,-56.608002,-281.088013
1061.887939,-37.088001,-269.376007
1059.936035,-13.664000,-281.088013
1069.696045,3.904000,-294.752014
1069.696045,31.232000,-284.992004
1077.504028,37.088001,-279.135986
1083.359985,58.560001,-271.328003
1095.072021,74.176003,-255.712006
1079.456055,68.320000,-253.759995
1075.552002,76.127998,-277.183990
1069.696045,70.272003,-286.944000
1067.744019,58.560001,-288.895996
1057.984009,33.183998,-279.135986
1059.936035,31.232000,-290.847992
1059.936035,37.088001,-292.799988
1052.128052,52.703999,-290.847992
1054.079956,52.703999,-284.992004
1054.079956,64.416000,-288.895996
1061.887939,66.367996,-294.752014
1050.176025,68.320000,-298.656006
1042.368042,70.272003,-306.463989
1048.223999,70.272003,-290.847992
1056.031982,62.464001,-298.656006
1050.176025,70.272003,-304.511993
1034.560059,74.176003,-290.847992
1034.560059,78.080002,-308.415985
1026.751953,78.080002,-308.415985
1024.800049,74.176003,-304.511993
1036.511963,70.272003,-284.992004
1052.128052,54.655998,-279.135986
1044.319946,56.608002,-283.040009
1044.319946,85.888000,-298.656006
1032.608032,93.695999,-314.272003
1032.608032,95.648003,-308.415985
1034.560059,107.360001,-294.752014
1026.751953,107.360001,-283.040009
1022.848022,87.839996,-279.135986
1026.751953,68.320000,-292.799988
1026.751953,80.031998,-304.511993
1024.800049,78.080002,-306.463989
1018.943970,85.888000,-304.511993
1018.943970,87.839996,-290.847992
1018.943970,103.456001,-288.895996
1026.751953,126.879997,-284.992004
1024.800049,119.071999,-284.992004
1015.039978,121.024002,-286.944000
1024.800049,113.216003,-298.656006
1030.656006,103.456001,-284.992004
1028.703979,115.167999,-279.135986
1018.943970,103.456001,-290.847992
1016.992004,95.648003,-302.559998
1005.280029,97.599998,-316.223999
1003.328003,101.503998,-312.320007
997.471985,121.024002,-302.559998
1009.184021,122.975998,-284.992004
1011.135986,121.024002,-281.088013
1011.135986,101.503998,-290.847992
1009.184021,101.503998,-290.847992
1003.328003,101.503998,-298.656006
999.424011,95.648003,-298.656006
1009.184021,101.503998,-296.704010
1009.184021,101.503998,-292.799988
1016.992004,117.120003,-267.424011
1015.039978,136.639999,-267.424011
1009.184021,128.832001,-286.944000
991.616028,122.975998,-302.559998
976.000000,105.407997,-302.559998
997.471985,85.888000,-283.040009
1013.088013,109.311996,-259.615997
1011.135986,105.407997,-279.135986
995.520020,117.120003,-279.135986
985.760010,126.879997,-275.231995
987.711975,115.167999,-275.231995
997.471985,97.599998,-281.088013
981.856018,103.456001,-300.608002
985.760010,109.311996,-292.799988
991.616028,117.120003,-277.183990
995.520020,128.832001,-283.040009
991.616028,109.311996,-290.847992
987.711975,97.599998,-283.040009
979.903992,111.264000,-279.135986
976.000000,111.264000,-284.992004
979.903992,115.167999,-294.752014
981.856018,107.360001,-288.895996
979.903992,122.975998,-265.471985
985.760010,115.167999,-277.183990
977.952026,97.599998,-308.415985
970.143982,85.888000,-302.559998
972.096008,115.167999,-288.895996
976.000000,132.735992,-279.135986
977.952026,115.167999,-296.704010
962.335999,99.552002,-286.944000
968.192017,99.552002,-294.752014
983.807983,107.360001,-296.704010
970.143982,119.071999,-286.944000
972.096008,121.024002,-284.992004
964.288025,89.792000,-279.135986
976.000000,89.792000,-281.088013
981.856018,76.127998,-283.040009
970.143982,89.792000,-294.752014
977.952026,109.311996,-302.559998
977.952026,134.688004,-286.944000
985.760010,144.447998,-261.567993
974.047974,138.591995,-245.951996
1001.375977,89.792000,-263.519989
987.711975,83.935997,-283.040009
974.047974,85.888000,-292.799988
956.479980,105.407997,-284.992004
981.856018,93.695999,-283.040009
993.567993,109.311996,-273.279999
991.616028,95.648003,-257.664001
981.856018,95.648003,-269.376007
981.856018,87.839996,-269.376007
977.952026,85.888000,-281.088013
968.192017,81.984001,-277.183990
974.047974,105.407997,-277.183990
985.760010,111.264000,-267.424011
976.000000,113.216003,-253.759995
976.000000,103.456001,-245.951996
976.000000,81.984001,-259.615997
981.856018,81.984001,-271.328003
987.711975,78.080002,-284.992004
976.000000,78.080002,-267.424011
972.096008,91.744003,-253.759995
979.903992,81.984001,-257.664001
974.047974,109.311996,-249.856003
964.288025,97.599998,-259.615997
968.192017,60.512001,-265.471985
960.383972,60.512001,-271.328003
964.288025,68.320000,-273.279999
964.288025,74.176003,-263.519989
968.192017,78.080002,-261.567993
964.288025,80.031998,-263.519989
960.383972,70.272003,-269.376007
954.528015,78.080002,-263.519989
956.479980,72.223999,-275.231995
954.528015,50.751999,-277.183990
952.575989,52.703999,-271.328003
946.719971,62.464001,-263.519989
962.335999,60.512001,-271.328003
956.479980,35.136002,-284.992004
952.575989,19.520000,-273.279999
966.239990,35.136002,-259.615997
966.239990,35.136002,-253.759995
962.335999,37.088001,-263.519989
966.239990,54.655998,-281.088013
958.432007,58.560001,-281.088013
956.479980,68.320000,-249.856003
960.383972,58.560001,-247.904007
970.143982,33.183998,-259.615997
954.528015,31.232000,-265.471985
952.575989,40.992001,-269.376007
950.624023,39.040001,-269.376007
974.047974,25.375999,-275.231995
976.000000,19.520000,-265.471985
960.383972,33.183998,-251.807999
964.288025,35.136002,-247.904007
964.288025,40.992001,-253.759995
977.952026,35.136002,-238.143997
976.000000,27.327999,-236.192001
972.096008,25.375999,-245.951996
974.047974,19.520000,-240.095993
972.096008,27.327999,-247.904007
981.856018,19.520000,-247.904007
977.952026,29.280001,-253.759995
974.047974,21.472000,-253.759995
977.952026,29.280001,-249.856003
981.856018,13.664000,-245.951996
968.192017,5.856000,-244.000000
966.239990,13.664000,-236.192001
989.664001,13.664000,-228.384003
981.856018,13.664000,-226.432007
983.807983,29.280001,-222.528000
983.807983,19.520000,-232.287994
976.000000,13.664000,-240.095993
970.143982,9.760000,-240.095993
976.000000,0.000000,-245.951996
979.903992,7.808000,-251.807999
977.952026,15.616000,-234.240005
979.903992,23.424000,-242.048004
970.143982,19.520000,-251.807999
962.335999,35.136002,-244.000000
956.479980,27.327999,-234.240005
972.096008,17.568001,-220.576004
981.856018,1.952000,-206.912003
979.903992,-7.808000,-228.384003
977.952026,-21.472000,-238.143997
962.335999,7.808000,-245.951996
974.047974,13.664000,-244.000000
964.288025,21.472000,-249.856003
976.000000,11.712000,-245.951996
960.383972,11.712000,-236.192001
966.239990,1.952000,-222.528000
974.047974,5.856000,-220.576004
956.479980,3.904000,-232.287994
954.528015,0.000000,-257.664001
946.719971,15.616000,-238.143997
952.575989,9.760000,-218.623993
977.952026,1.952000,-214.720001
968.192017,-7.808000,-212.768005
950.624023,0.000000,-226.432007
946.719971,-5.856000,-232.287994
942.815979,0.000000,-238.143997
950.624023,5.856000,-220.576004
952.575989,-5.856000,-224.479996
950.624023,0.000000,-224.479996
950.624023,7.808000,-228.384003
944.768005,19.520000,-220.576004
944.768005,21.472000,-230.335999
950.624023,17.568001,-220.576004
936.960022,19.520000,-214.720001
944.768005,9.760000,-226.432007
936.960022,1.952000,-212.768005
927.200012,7.808000,-232.287994
931.104004,-3.904000,-228.384003
929.151978,13.664000,-230.335999
942.815979,11.712000,-228.384003
933.056030,1.952000,-220.576004
933.056030,11.712000,-224.479996
929.151978,23.424000,-226.432007
925.247986,13.664000,-220.576004
933.056030,5.856000,-230.335999
919.392029,15.616000,-228.384003
919.392029,9.760000,-228.384003
931.104004,21.472000,-218.623993
931.104004,9.760000,-210.815994
931.104004,13.664000,-212.768005
923.296021,11.712000,-214.720001
919.392029,0.000000,-224.479996
921.343994,-1.952000,-228.384003
917.440002,0.000000,-226.432007
923.296021,7.808000,-226.432007
911.583984,7.808000,-226.432007
909.632019,-1.952000,-218.623993
911.583984,9.760000,-224.479996
913.536011,19.520000,-220.576004
919.392029,19.520000,-218.623993
919.392029,-7.808000,-220.576004
917.440002,7.808000,-216.671997
913.536011,7.808000,-222.528000
909.632019,11.712000,-212.768005
899.872009,21.472000,-226.432007
905.728027,17.568001,-226.432007
901.823975,11.712000,-204.960007
903.776001,13.664000,-218.623993
897.919983,0.000000,-220.576004
911.583984,-13.664000,-226.432007
907.679993,3.904000,-228.384003
894.015991,25.375999,-216.671997
907.679993,21.472000,-216.671997
897.919983,21.472000,-226.432007
895.968018,25.375999,-230.335999
895.968018,13.664000,-230.335999
892.064026,19.520000,-197.151993
897.919983,21.472000,-204.960007
909.632019,15.616000,-214.720001
897.919983,17.568001,-206.912003
907.679993,23.424000,-216.671997
895.968018,27.327999,-216.671997
882.304016,25.375999,-234.240005
888.159973,23.424000,-249.856003
884.255981,15.616000,-228.384003
886.208008,17.568001,-220.576004
897.919983,25.375999,-220.576004
899.872009,13.664000,-218.623993
903.776001,15.616000,-218.623993
886.208008,27.327999,-220.576004
901.823975,35.136002,-220.576004
899.872009,42.944000,-218.623993
894.015991,40.992001,-220.576004
894.015991,29.280001,-236.192001
895.968018,23.424000,-222.528000
901.823975,1.952000,-226.432007
905.728027,15.616000,-222.528000
909.632019,33.183998,-222.528000
915.487976,31.232000,-218.623993
917.440002,39.040001,-208.863998
903.776001,52.703999,-218.623993
901.823975,60.512001,-210.815994
905.728027,50.751999,-214.720001
909.632019,50.751999,-220.576004
911.583984,37.088001,-220.576004
919.392029,42.944000,-220.576004
913.536011,42.944000,-218.623993
921.343994,44.896000,-214.720001
923.296021,40.992001,-210.815994
929.151978,62.464001,-208.863998
921.343994,72.223999,-204.960007
915.487976,50.751999,-212.768005
919.392029,58.560001,-206.912003
921.343994,64.416000,-214.720001
923.296021,52.703999,-204.960007
925.247986,48.799999,-206.912003
923.296021,37.088001,-214.720001
925.247986,27.327999,-210.815994
909.632019,39.040001,-218.623993
915.487976,68.320000,-224.479996
909.632019,89.792000,-222.528000
911.583984,93.695999,-204.960007
917.440002,60.512001,-199.104004
931.104004,50.751999,-204.960007
938.911987,60.512001,-197.151993
923.296021,64.416000,-197.151993
913.536011,80.031998,-214.720001
919.392029,76.127998,-214.720001
915.487976,68.320000,-218.623993
919.392029,78.080002,-208.863998
917.440002,64.416000,-206.912003
921.343994,58.560001,-199.104004
923.296021,64.416000,-212.768005
923.296021,68.320000,-218.623993
907.679993,64.416000,-216.671997
919.392029,66.367996,-224.479996
923.296021,80.031998,-214.720001
921.343994,74.176003,-204.960007
927.200012,83.935997,-197.151993
927.200012,74.176003,-206.912003
923.296021,85.888000,-210.815994
917.440002,99.552002,-216.671997
915.487976,93.695999,-220.576004
905.728027,70.272003,-224.479996
907.679993,54.655998,-214.720001
901.823975,48.799999,-203.007996
911.583984,60.512001,-210.815994
907.679993,95.648003,-216.671997
899.872009,78.080002,-218.623993
909.632019,64.416000,-222.528000
919.392029,68.320000,-216.671997
915.487976,66.367996,-201.056000
915.487976,76.127998,-197.151993
907.679993,72.223999,-203.007996
901.823975,83.935997,-197.151993
899.872009,81.984001,-214.720001
895.968018,80.031998,-218.623993
905.728027,62.464001,-201.056000
911.583984,78.080002,-216.671997
905.728027,70.272003,-212.768005
899.872009,62.464001,-203.007996
923.296021,62.464001,-204.960007
921.343994,72.223999,-206.912003
915.487976,78.080002,-204.960007
905.728027,80.031998,-214.720001
903.776001,78.080002,-218.623993
907.679993,46.848000,-216.671997
925.247986,56.608002,-214.720001
929.151978,80.031998,-201.056000
917.440002,72.223999,-197.151993
913.536011,68.320000,-197.151993
929.151978,80.031998,-210.815994
919.392029,76.127998,-206.912003
919.392029,72.223999,-206.912003
931.104004,70.272003,-208.863998
913.536011,68.320000,-216.671997
917.440002,54.655998,-204.960007
927.200012,70.272003,-201.056000
929.151978,76.127998,-195.199997
929.151978,70.272003,-179.584000
931.104004,60.512001,-183.488007
921.343994,54.655998,-191.296005
915.487976,60.512001,-222.528000
915.487976,60.512001,-224.479996
919.392029,76.127998,-218.623993
927.200012,78.080002,-201.056000
925.247986,72.223999,-185.440002
931.104004,66.367996,-187.391998
935.007996,50.751999,-183.488007
923.296021,40.992001,-191.296005
915.487976,39.040001,-195.199997
915.487976,35.136002,-203.007996
909.632019,42.944000,-206.912003
915.487976,44.896000,-208.863998
911.583984,37.088001,-208.863998
919.392029,46.848000,-206.912003
909.632019,37.088001,-203.007996
913.536011,42.944000,-195.199997
919.392029,29.280001,-191.296005
905.728027,35.136002,-191.296005
903.776001,11.712000,-210.815994
903.776001,25.375999,-206.912003
911.583984,39.040001,-206.912003
917.440002,52.703999,-204.960007
911.583984,39.040001,-195.199997
915.487976,35.136002,-203.007996
915.487976,27.327999,-199.104004
909.632019,29.280001,-189.343994
909.632019,37.088001,-187.391998
907.679993,33.183998,-193.248001
899.872009,29.280001,-203.007996
903.776001,25.375999,-206.912003
905.728027,39.040001,-183.488007
905.728027,35.136002,-187.391998
915.487976,17.568001,-187.391998
913.536011,17.568001,-191.296005
901.823975,17.568001,-199.104004
895.968018,19.520000,-199.104004
899.872009,29.280001,-197.151993
909.632019,23.424000,-195.199997
909.632019,17.568001,-187.391998
905.728027,7.808000,-185.440002
911.583984,15.616000,-195.199997
899.872009,1.952000,-193.248001
894.015991,7.808000,-199.104004
897.919983,7.808000,-201.056000
895.968018,21.472000,-195.199997
899.872009,0.000000,-197.151993
905.728027,13.664000,-185.440002
901.823975,13.664000,-179.584000
909.632019,39.040001,-179.584000
907.679993,15.616000,-185.440002
901.823975,11.712000,-199.104004
907.679993,7.808000,-199.104004
911.583984,17.568001,-195.199997
897.919983,5.856000,-193.248001
897.919983,13.664000,-175.679993
901.823975,17.568001,-169.824005
901.823975,15.616000,-173.727997
907.679993,13.664000,-173.727997
903.776001,3.904000,-187.391998
897.919983,9.760000,-189.343994
905.728027,7.808000,-191.296005
903.776001,0.000000,-199.104004
897.919983,-3.904000,-189.343994
903.776001,3.904000,-187.391998
901.823975,1.952000,-189.343994
901.823975,1.952000,-185.440002
901.823975,15.616000,-189.343994
911.583984,15.616000,-191.296005
905.728027,15.616000,-187.391998
909.632019,11.712000,-173.727997
915.487976,15.616000,-171.776001
907.679993,17.568001,-177.632004
911.583984,15.616000,-185.440002
913.536011,15.616000,-173.727997
909.632019,15.616000,-177.632004
921.343994,13.664000,-171.776001
921.343994,9.760000,-171.776001
921.343994,13.664000,-173.727997
907.679993,17.568001,-181.535995
913.536011,5.856000,-189.343994
913.536011,5.856000,-195.199997
919.392029,5.856000,-191.296005
929.151978,15.616000,-169.824005
936.960022,25.375999,-171.776001
935.007996,29.280001,-171.776001
929.151978,23.424000,-171.776001
923.296021,19.520000,-173.727997
917.440002,9.760000,-169.824005
921.343994,15.616000,-183.488007
919.392029,7.808000,-177.632004
909.632019,3.904000,-171.776001
917.440002,11.712000,-165.919998
929.151978,17.568001,-162.016006
933.056030,23.424000,-163.968002
919.392029,35.136002,-171.776001
936.960022,19.520000,-177.632004
938.911987,11.712000,-173.727997
935.007996,11.712000,-163.968002
929.151978,7.808000,-167.871994
919.392029,17.568001,-165.919998
938.911987,7.808000,-173.727997
942.815979,9.760000,-169.824005
921.343994,19.520000,-163.968002
929.151978,17.568001,-167.871994
938.911987,13.664000,-163.968002
933.056030,-3.904000,-163.968002
935.007996,-1.952000,-165.919998
933.056030,17.568001,-173.727997
936.960022,19.520000,-179.584000
933.056030,29.280001,-177.632004
919.392029,15.616000,-171.776001
927.200012,17.568001,-173.727997
913.536011,9.760000,-171.776001
909.632019,5.856000,-165.919998
909.632019,1.952000,-171.776001
919.392029,9.760000,-173.727997
921.343994,15.616000,-165.919998
921.343994,19.520000,-158.112000
915.487976,19.520000,-162.016006
901.823975,17.568001,-173.727997
903.776001,21.472000,-187.391998
897.919983,13.664000,-175.679993
897.919983,3.904000,-179.584000
901.823975,11.712000,-167.871994
901.823975,11.712000,-169.824005
894.015991,7.808000,-183.488007
895.968018,11.712000,-179.584000
892.064026,13.664000,-183.488007
882.304016,11.712000,-195.199997
882.304016,17.568001,-185.440002
892.064026,15.616000,-181.535995
903.776001,9.760000,-187.391998
895.968018,7.808000,-173.727997
888.159973,9.760000,-175.679993
884.255981,15.616000,-179.584000
895.968018,19.520000,-181.535995
880.351990,17.568001,-177.632004
888.159973,15.616000,-171.776001
892.064026,15.616000,-187.391998
886.208008,19.520000,-183.488007
886.208008,19.520000,-187.391998
886.208008,11.712000,-189.343994
899.872009,5.856000,-175.679993
890.112000,3.904000,-169.824005
903.776001,3.904000,-162.016006
888.159973,15.616000,-171.776001
892.064026,15.616000,-187.391998
895.968018,21.472000,-195.199997
890.112000,23.424000,-181.535995
905.728027,23.424000,-173.727997
907.679993,17.568001,-169.824005
884.255981,9.760000,-165.919998
897.919983,9.760000,-173.727997
894.015991,15.616000,-187.391998
894.015991,13.664000,-181.535995
888.159973,25.375999,-181.535995
895.968018,17.568001,-179.584000
886.208008,11.712000,-183.488007
897.919983,3.904000,-183.488007
909.632019,13.664000,-175.679993
915.487976,17.568001,-173.727997
909.632019,21.472000,-163.968002
917.440002,19.520000,-165.919998
903.776001,29.280001,-171.776001
897.919983,19.520000,-175.679993
894.015991,21.472000,-173.727997
894.015991,15.616000,-179.584000
899.872009,25.375999,-173.727997
913.536011,27.327999,-171.776001
905.728027,23.424000,-167.871994
899.872009,27.327999,-165.919998
913.536011,19.520000,-177.632004
907.679993,17.568001,-179.584000
901.823975,21.472000,-185.440002
899.872009,21.472000,-181.535995
915.487976,17.568001,-173.727997
909.632019,15.616000,-173.727997
909.632019,17.568001,-175.679993
907.679993,19.520000,-175.679993
907.679993,23.424000,-195.199997
905.728027,11.712000,-193.248001
909.632019,29.280001,-183.488007
911.583984,29.280001,-179.584000
915.487976,35.136002,-177.632004
905.728027,29.280001,-179.584000
911.583984,21.472000,-181.535995
905.728027,15.616000,-181.535995
905.728027,11.712000,-179.584000
917.440002,17.568001,-183.488007
913.536011,21.472000,-173.727997
917.440002,40.992001,-177.632004
919.392029,33.183998,-179.584000
915.487976,31.232000,-195.199997
915.487976,27.327999,-187.391998
919.392029,21.472000,-177.632004
915.487976,23.424000,-181.535995
919.392029,33.183998,-175.679993
905.728027,25.375999,-173.727997
921.343994,23.424000,-187.391998
921.343994,27.327999,-189.343994
913.536011,31.232000,-185.440002
909.632019,19.520000,-193.248001
915.487976,27.327999,-191.296005
917.440002,31.232000,-185.440002
927.200012,33.183998,-187.391998
915.487976,29.280001,-187.391998
915.487976,37.088001,-191.296005
921.343994,29.280001,-193.248001
915.487976,40.992001,-183.488007
917.440002,31.232000,-191.296005
915.487976,19.520000,-181.535995
919.392029,31.232000,-195.199997
917.440002,27.327999,-193.248001
919.392029,33.183998,-203.007996
911.583984,37.088001,-195.199997
927.200012,29.280001,-197.151993
917.440002,33.183998,-201.056000
917.440002,21.472000,-193.248001
909.632019,23.424000,-185.440002
921.343994,29.280001,-181.535995
923.296021,19.520000,-177.632004
923.296021,15.616000,-187.391998
927.200012,29.280001,-189.343994
925.247986,37.088001,-195.199997
929.151978,33.183998,-195.199997
927.200012,33.183998,-185.440002
929.151978,23.424000,-177.632004
931.104004,15.616000,-181.535995
927.200012,17.568001,-179.584000
927.200012,15.616000,-175.679993
921.343994,19.520000,-181.535995
925.247986,19.520000,-191.296005
929.151978,27.327999,-195.199997
929.151978,33.183998,-191.296005
936.960022,33.183998,-185.440002
936.960022,29.280001,-181.535995
929.151978,21.472000,-185.440002
936.960022,19.520000,-183.488007
944.768005,17.568001,-183.488007
938.911987,15.616000,-183.488007
933.056030,21.472000,-185.440002
938.911987,21.472000,-195.199997
940.864014,27.327999,-193.248001
944.768005,29.280001,-201.056000
944.768005,27.327999,-199.104004
946.719971,25.375999,-191.296005
954.528015,13.664000,-187.391998
944.768005,19.520000,-185.440002
952.575989,21.472000,-183.488007
950.624023,15.616000,-173.727997
952.575989,23.424000,-185.440002
946.719971,25.375999,-187.391998
952.575989,31.232000,-189.343994
944.768005,25.375999,-199.104004
956.479980,25.375999,-173.727997
964.288025,19.520000,-169.824005
966.239990,17.568001,-171.776001
956.479980,7.808000,-167.871994
962.335999,11.712000,-181.535995
966.239990,3.904000,-191.296005
962.335999,13.664000,-191.296005
968.192017,7.808000,-171.776001
962.335999,7.808000,-177.632004
976.000000,13.664000,-173.727997
968.192017,0.000000,-177.632004
960.383972,5.856000,-179.584000
964.288025,3.904000,-181.535995
972.096008,7.808000,-175.679993
970.143982,7.808000,-179.584000
972.096008,7.808000,-179.584000
968.192017,-5.856000,-171.776001
981.856018,5.856000,-167.871994
976.000000,-3.904000,-169.824005
977.952026,-9.760000,-171.776001
974.047974,-5.856000,-183.488007
976.000000,-1.952000,-181.535995
968.192017,-3.904000,-177.632004
968.192017,-7.808000,-165.919998
972.096008,-5.856000,-165.919998
981.856018,-9.760000,-163.968002
981.856018,-5.856000,-158.112000
977.952026,-19.520000,-173.727997
968.192017,5.856000,-171.776001
970.143982,1.952000,-165.919998
964.288025,5.856000,-169.824005
962.335999,-1.952000,-173.727997
977.952026,-13.664000,-181.535995
964.288025,-25.375999,-173.727997
962.335999,-17.568001,-167.871994
960.383972,-25.375999,-179.584000
958.432007,-23.424000,-167.871994
958.432007,-23.424000,-171.776001
946.719971,-23.424000,-173.727997
944.768005,-15.616000,-173.727997
946.719971,-15.616000,-177.632004
938.911987,-15.616000,-183.488007
936.960022,-17.568001,-193.248001
944.768005,-23.424000,-185.440002
946.719971,-21.472000,-175.679993
946.719971,-35.136002,-187.391998
935.007996,-27.327999,-193.248001
919.392029,-23.424000,-195.199997
921.343994,-17.568001,-206.912003
927.200012,-25.375999,-203.007996
925.247986,-21.472000,-193.248001
919.392029,-15.616000,-203.007996
921.343994,-15.616000,-206.912003
923.296021,-5.856000,-214.720001
913.536011,-3.904000,-201.056000
917.440002,-5.856000,-201.056000
913.536011,-9.760000,-206.912003
923.296021,0.000000,-210.815994
913.536011,-7.808000,-204.960007
905.728027,-5.856000,-214.720001
911.583984,1.952000,-204.960007
923.296021,0.000000,-214.720001
913.536011,7.808000,-214.720001
905.728027,0.000000,-197.151993
919.392029,-7.808000,-199.104004
915.487976,-9.760000,-204.960007
917.440002,3.904000,-203.007996
913.536011,9.760000,-206.912003
913.536011,17.568001,-203.007996
919.392029,13.664000,-203.007996
927.200012,9.760000,-197.151993
935.007996,7.808000,-189.343994
929.151978,1.952000,-183.488007
931.104004,9.760000,-193.248001
927.200012,-1.952000,-185.440002
923.296021,17.568001,-195.199997
923.296021,29.280001,-210.815994
929.151978,17.568001,-199.104004
927.200012,19.520000,-206.912003
933.056030,17.568001,-193.248001
942.815979,7.808000,-181.535995
950.624023,5.856000,-185.440002
946.719971,9.760000,-203.007996
958.432007,13.664000,-204.960007
950.624023,21.472000,-203.007996
942.815979,19.520000,-206.912003
944.768005,23.424000,-201.056000
960.383972,25.375999,-191.296005
954.528015,13.664000,-189.343994
958.432007,21.472000,-191.296005
956.479980,15.616000,-193.248001
946.719971,15.616000,-197.151993
944.768005,17.568001,-197.151993
952.575989,19.520000,-204.960007
954.528015,15.616000,-193.248001
966.239990,21.472000,-185.440002
966.239990,29.280001,-189.343994
958.432007,40.992001,-197.151993
960.383972,33.183998,-195.199997
964.288025,21.472000,-191.296005
962.335999,33.183998,-185.440002
960.383972,27.327999,-193.248001
960.383972,27.327999,-195.199997
962.335999,29.280001,-195.199997
960.383972,33.183998,-185.440002
964.288025,33.183998,-185.440002
970.143982,25.375999,-191.296005
974.047974,17.568001,-195.199997
956.479980,23.424000,-197.151993
962.335999,15.616000,-193.248001
962.335999,21.472000,-191.296005
964.288025,33.183998,-185.440002
964.288025,21.472000,-195.199997
974.047974,23.424000,-193.248001
972.096008,23.424000,-191.296005
968.192017,15.616000,-191.296005
964.288025,21.472000,-195.199997
977.952026,23.424000,-179.584000
968.192017,17.568001,-187.391998
968.192017,11.712000,-191.296005
968.192017,15.616000,-193.248001
964.288025,29.280001,-197.151993
968.192017,25.375999,-203.007996
972.096008,23.424000,-199.104004
968.192017,15.616000,-193.248001
976.000000,3.904000,-191.296005
979.903992,15.616000,-195.199997
972.096008,33.183998,-191.296005
974.047974,31.232000,-183.488007
977.952026,31.232000,-189.343994
976.000000,42.944000,-197.151993
977.952026,19.520000,-185.440002
979.903992,15.616000,-183.488007
979.903992,7.808000,-185.440002
981.856018,17.568001,-185.440002
979.903992,17.568001,-195.199997
979.903992,23.424000,-204.960007
974.047974,25.375999,-204.960007
979.903992,27.327999,-210.815994
985.760010,27.327999,-199.104004
989.664001,33.183998,-191.296005
991.616028,29.280001,-183.488007
995.520020,25.375999,-189.343994
995.520020,19.520000,-199.104004
989.664001,21.472000,-203.007996
987.711975,21.472000,-199.104004
995.520020,27.327999,-189.343994
987.711975,25.375999,-185.440002
997.471985,33.183998,-185.440002
1009.184021,19.520000,-187.391998
1003.328003,15.616000,-183.488007
1007.231995,19.520000,-177.632004
1009.184021,40.992001,-183.488007
1001.375977,35.136002,-185.440002
995.520020,23.424000,-189.343994
1007.231995,25.375999,-195.199997
1007.231995,19.520000,-199.104004
