ACC_X,ACC_Y,ACC_Z
706.624023,378.687988,587.552002
710.528015,372.832001,593.408020
712.479980,372.832001,597.312012
710.528015,378.687988,589.504028
712.479980,384.544006,591.455994
702.719971,382.592010,589.504028
708.575989,376.735992,595.359985
708.575989,378.687988,595.359985
702.719971,368.928009,593.408020
698.815979,368.928009,593.408020
708.575989,372.832001,589.504028
708.575989,370.880005,585.599976
698.815979,380.640015,585.599976
700.768005,372.832001,591.455994
694.911987,374.783997,589.504028
708.575989,374.783997,589.504028
702.719971,374.783997,587.552002
706.624023,376.735992,579.744019
708.575989,376.735992,583.648010
704.671997,374.783997,577.791992
696.864014,374.783997,589.504028
702.719971,380.640015,585.599976
700.768005,378.687988,585.599976
700.768005,374.783997,589.504028
698.815979,374.783997,591.455994
700.768005,376.735992,599.263977
712.479980,374.783997,595.359985
706.624023,380.640015,595.359985
710.528015,372.832001,583.648010
700.768005,374.783997,595.359985
700.768005,372.832001,591.455994
710.528015,366.976013,585.599976
714.432007,370.880005,589.504028
708.575989,374.783997,587.552002
708.575989,366.976013,585.599976
702.719971,372.832001,587.552002
698.815979,370.880005,581.695984
712.479980,370.880005,587.552002
702.719971,376.735992,581.695984
706.624023,370.880005,577.791992
706.624023,374.783997,579.744019
702.719971,368.928009,589.504028
698.815979,376.735992,579.744019
704.671997,372.832001,566.080017
706.624023,376.735992,579.744019
710.528015,380.640015,569.984009
708.575989,378.687988,571.935974
704.671997,382.592010,577.791992
714.432007,384.544006,573.888000
706.624023,374.783997,577.791992
708.575989,380.640015,569.984009
706.624023,380.640015,585.599976
718.335999,386.496002,589.504028
706.624023,382.592010,589.504028
712.479980,378.687988,587.552002
704.671997,380.640015,595.359985
716.383972,376.735992,591.455994
720.288025,376.735992,595.359985
714.432007,378.687988,585.599976
718.335999,378.687988,599.263977
716.383972,380.640015,595.359985
712.479980,388.447998,583.648010
718.335999,390.399994,595.359985
722.239990,386.496002,595.359985
722.239990,388.447998,595.359985
726.143982,392.351990,587.552002
724.192017,380.640015,585.599976
718.335999,382.592010,589.504028
722.239990,380.640015,587.552002
718.335999,386.496002,591.455994
714.432007,376.735992,585.599976
714.432007,378.687988,589.504028
712.479980,382.592010,587.552002
714.432007,378.687988,589.504028
722.239990,390.399994,575.840027
714.432007,396.256012,585.599976
724.192017,382.592010,583.648010
724.192017,390.399994,581.695984
712.479980,396.256012,579.744019
722.239990,392.351990,591.455994
724.192017,384.544006,591.455994
716.383972,390.399994,595.359985
716.383972,384.544006,591.455994
718.335999,386.496002,593.408020
720.288025,390.399994,593.408020
724.192017,388.447998,591.455994
724.192017,396.256012,593.408020
728.096008,392.351990,597.312012
728.096008,388.447998,585.599976
718.335999,386.496002,593.408020
724.192017,394.303986,589.504028
732.000000,392.351990,591.455994
720.288025,400.160004,591.455994
716.383972,396.256012,585.599976
714.432007,396.256012,585.599976
722.239990,390.399994,585.599976
714.432007,396.256012,589.504028
722.239990,396.256012,585.599976
726.143982,400.160004,595.359985
722.239990,404.063995,587.552002
720.288025,404.063995,591.455994
722.239990,402.112000,581.695984
728.096008,406.015991,587.552002
722.239990,402.112000,583.648010
722.239990,411.872009,587.552002
722.239990,409.920013,589.504028
728.096008,411.872009,593.408020
720.288025,407.967987,585.599976
732.000000,407.967987,581.695984
728.096008,400.160004,591.455994
722.239990,402.112000,581.695984
724.192017,406.015991,585.599976
726.143982,411.872009,583.648010
730.047974,406.015991,587.552002
730.047974,417.727997,589.504028
728.096008,402.112000,587.552002
722.239990,406.015991,581.695984
726.143982,417.727997,585.599976
720.288025,409.920013,587.552002
732.000000,415.776001,577.791992
728.096008,417.727997,577.791992
726.143982,411.872009,583.648010
728.096008,417.727997,575.840027
726.143982,407.967987,573.888000
730.047974,421.631989,571.935974
728.096008,421.631989,566.080017
726.143982,409.920013,569.984009
722.239990,415.776001,571.935974
730.047974,415.776001,571.935974
730.047974,419.679993,577.791992
732.000000,415.776001,579.744019
728.096008,409.920013,583.648010
735.903992,411.872009,595.359985
730.047974,411.872009,585.599976
730.047974,407.967987,577.791992
735.903992,407.967987,581.695984
737.856018,409.920013,591.455994
743.711975,413.824005,591.455994
743.711975,409.920013,587.552002
743.711975,415.776001,587.552002
741.760010,415.776001,583.648010
747.616028,413.824005,593.408020
733.952026,425.536011,587.552002
737.856018,421.631989,581.695984
743.711975,421.631989,591.455994
743.711975,423.584015,575.840027
733.952026,415.776001,575.840027
737.856018,419.679993,587.552002
733.952026,415.776001,579.744019
739.807983,417.727997,581.695984
739.807983,419.679993,569.984009
737.856018,425.536011,573.888000
739.807983,417.727997,568.031982
743.711975,409.920013,579.744019
733.952026,409.920013,575.840027
741.760010,417.727997,568.031982
743.711975,411.872009,573.888000
745.664001,413.824005,569.984009
741.760010,423.584015,573.888000
747.616028,415.776001,581.695984
741.760010,423.584015,575.840027
745.664001,423.584015,569.984009
737.856018,419.679993,579.744019
741.760010,423.584015,577.791992
749.567993,409.920013,587.552002
745.664001,417.727997,581.695984
741.760010,413.824005,581.695984
739.807983,425.536011,587.552002
743.711975,415.776001,587.552002
741.760010,413.824005,581.695984
749.567993,419.679993,591.455994
741.760010,415.776001,587.552002
749.567993,409.920013,587.552002
743.711975,411.872009,585.599976
747.616028,415.776001,587.552002
741.760010,419.679993,573.888000
743.711975,417.727997,579.744019
737.856018,415.776001,581.695984
743.711975,421.631989,581.695984
737.856018,406.015991,577.791992
747.616028,421.631989,587.552002
741.760010,413.824005,573.888000
741.760010,419.679993,579.744019
745.664001,406.015991,573.888000
743.711975,415.776001,579.744019
743.711975,406.015991,583.648010
739.807983,413.824005,575.840027
739.807983,417.727997,579.744019
745.664001,411.872009,581.695984
737.856018,409.920013,585.599976
743.711975,423.584015,577.791992
741.760010,425.536011,585.599976
747.616028,419.679993,591.455994
739.807983,425.536011,587.552002
747.616028,431.391998,583.648010
743.711975,437.247986,583.648010
741.760010,427.488007,583.648010
745.664001,435.295990,583.648010
751.520020,423.584015,587.552002
751.520020,433.343994,589.504028
747.616028,429.440002,595.359985
747.616028,429.440002,597.312012
745.664001,433.343994,593.408020
747.616028,421.631989,587.552002
753.471985,431.391998,589.504028
745.664001,429.440002,597.312012
745.664001,423.584015,599.263977
747.616028,431.391998,603.168030
741.760010,435.295990,597.312012
743.711975,427.488007,603.168030
743.711975,425.536011,605.119995
737.856018,435.295990,609.023987
730.047974,431.391998,601.216003
735.903992,425.536011,605.119995
730.047974,429.440002,610.976013
730.047974,427.488007,599.263977
732.000000,441.152008,597.312012
718.335999,431.391998,607.072021
716.383972,437.247986,597.312012
718.335999,448.959991,601.216003
730.047974,439.200012,597.312012
739.807983,415.776001,595.359985
733.952026,427.488007,591.455994
732.000000,437.247986,593.408020
728.096008,429.440002,587.552002
726.143982,427.488007,599.263977
722.239990,421.631989,603.168030
712.479980,435.295990,603.168030
716.383972,427.488007,595.359985
718.335999,425.536011,603.168030
716.383972,423.584015,603.168030
720.288025,427.488007,595.359985
730.047974,417.727997,595.359985
724.192017,406.015991,603.168030
728.096008,415.776001,603.168030
720.288025,415.776001,605.119995
726.143982,423.584015,597.312012
722.239990,417.727997,603.168030
706.624023,427.488007,601.216003
712.479980,417.727997,593.408020
720.288025,441.152008,614.880005
714.432007,435.295990,603.168030
724.192017,421.631989,593.408020
710.528015,423.584015,603.168030
720.288025,427.488007,591.455994
714.432007,425.536011,603.168030
722.239990,417.727997,591.455994
726.143982,415.776001,595.359985
714.432007,417.727997,599.263977
714.432007,423.584015,601.216003
724.192017,407.967987,601.216003
718.335999,402.112000,610.976013
706.624023,398.208008,601.216003
716.383972,398.208008,607.072021
714.432007,404.063995,597.312012
714.432007,388.447998,609.023987
720.288025,392.351990,599.263977
722.239990,396.256012,603.168030
712.479980,396.256012,595.359985
710.528015,392.351990,601.216003
714.432007,392.351990,599.263977
706.624023,396.256012,599.263977
706.624023,398.208008,599.263977
710.528015,398.208008,593.408020
706.624023,390.399994,587.552002
700.768005,404.063995,599.263977
700.768005,411.872009,595.359985
700.768005,409.920013,597.312012
708.575989,407.967987,583.648010
694.911987,407.967987,581.695984
706.624023,411.872009,577.791992
700.768005,413.824005,595.359985
700.768005,406.015991,593.408020
698.815979,404.063995,595.359985
698.815979,394.303986,597.312012
702.719971,398.208008,599.263977
696.864014,392.351990,589.504028
704.671997,386.496002,595.359985
694.911987,386.496002,585.599976
694.911987,382.592010,587.552002
698.815979,386.496002,597.312012
694.911987,380.640015,589.504028
694.911987,374.783997,599.263977
696.864014,380.640015,589.504028
694.911987,380.640015,583.648010
696.864014,388.447998,573.888000
692.960022,384.544006,589.504028
687.104004,394.303986,575.840027
692.960022,386.496002,577.791992
691.007996,384.544006,573.888000
689.056030,388.447998,569.984009
685.151978,404.063995,571.935974
671.487976,402.112000,566.080017
681.247986,394.303986,569.984009
685.151978,390.399994,568.031982
681.247986,396.256012,558.271973
677.343994,390.399994,562.176025
685.151978,388.447998,562.176025
685.151978,388.447998,562.176025
683.200012,380.640015,566.080017
681.247986,384.544006,569.984009
681.247986,382.592010,579.744019
689.056030,374.783997,569.984009
687.104004,376.735992,579.744019
687.104004,388.447998,581.695984
683.200012,368.928009,575.840027
689.056030,361.119995,577.791992
696.864014,368.928009,581.695984
685.151978,370.880005,575.840027
687.104004,363.071991,577.791992
687.104004,370.880005,575.840027
687.104004,378.687988,568.031982
683.200012,380.640015,569.984009
692.960022,376.735992,575.840027
687.104004,384.544006,568.031982
681.247986,378.687988,562.176025
691.007996,376.735992,564.127991
683.200012,382.592010,568.031982
685.151978,378.687988,556.320007
683.200012,378.687988,560.223999
683.200012,382.592010,556.320007
687.104004,388.447998,560.223999
681.247986,382.592010,558.271973
683.200012,376.735992,554.367981
685.151978,388.447998,558.271973
685.151978,368.928009,564.127991
691.007996,366.976013,562.176025
685.151978,365.023987,566.080017
679.296021,370.880005,564.127991
683.200012,361.119995,569.984009
691.007996,363.071991,571.935974
691.007996,363.071991,562.176025
696.864014,370.880005,569.984009
689.056030,365.023987,577.791992
691.007996,363.071991,581.695984
692.960022,363.071991,577.791992
702.719971,363.071991,587.552002
696.864014,366.976013,575.840027
708.575989,372.832001,587.552002
700.768005,374.783997,591.455994
706.624023,382.592010,585.599976
698.815979,388.447998,585.599976
704.671997,396.256012,599.263977
694.911987,386.496002,595.359985
704.671997,382.592010,591.455994
702.719971,392.351990,589.504028
706.624023,378.687988,589.504028
704.671997,384.544006,595.359985
698.815979,384.544006,585.599976
706.624023,378.687988,585.599976
696.864014,380.640015,579.744019
700.768005,388.447998,583.648010
700.768005,376.735992,581.695984
696.864014,376.735992,583.648010
698.815979,380.640015,589.504028
698.815979,370.880005,579.744019
700.768005,363.071991,587.552002
706.624023,376.735992,581.695984
700.768005,374.783997,585.599976
698.815979,368.928009,581.695984
694.911987,376.735992,581.695984
692.960022,378.687988,579.744019
698.815979,376.735992,575.840027
694.911987,388.447998,583.648010
696.864014,378.687988,577.791992
696.864014,390.399994,583.648010
698.815979,396.256012,581.695984
704.671997,400.160004,579.744019
700.768005,388.447998,571.935974
696.864014,386.496002,575.840027
696.864014,396.256012,571.935974
696.864014,402.112000,575.840027
692.960022,396.256012,575.840027
696.864014,400.160004,581.695984
689.056030,396.256012,575.840027
691.007996,384.544006,575.840027
696.864014,382.592010,573.888000
698.815979,388.447998,579.744019
694.911987,384.544006,583.648010
700.768005,396.256012,577.791992
700.768005,400.160004,581.695984
698.815979,392.351990,583.648010
696.864014,388.447998,583.648010
696.864014,400.160004,581.695984
700.768005,409.920013,577.791992
698.815979,396.256012,577.791992
704.671997,398.208008,573.888000
704.671997,402.112000,577.791992
704.671997,406.015991,573.888000
698.815979,413.824005,583.648010
700.768005,407.967987,583.648010
704.671997,406.015991,579.744019
706.624023,407.967987,587.552002
704.671997,413.824005,587.552002
704.671997,411.872009,589.504028
696.864014,404.063995,589.504028
704.671997,402.112000,599.263977
704.671997,406.015991,589.504028
700.768005,398.208008,593.408020
712.479980,404.063995,597.312012
708.575989,400.160004,601.216003
698.815979,402.112000,597.312012
694.911987,396.256012,599.263977
708.575989,400.160004,597.312012
700.768005,398.208008,601.216003
702.719971,411.872009,601.216003
704.671997,404.063995,599.263977
702.719971,406.015991,593.408020
694.911987,411.872009,595.359985
702.719971,407.967987,585.599976
698.815979,419.679993,585.599976
706.624023,413.824005,587.552002
694.911987,413.824005,583.648010
694.911987,413.824005,585.599976
687.104004,413.824005,585.599976
696.864014,421.631989,583.648010
700.768005,417.727997,577.791992
694.911987,413.824005,585.599976
694.911987,423.584015,583.648010
692.960022,413.824005,583.648010
700.768005,409.920013,577.791992
694.911987,413.824005,583.648010
698.815979,421.631989,585.599976
692.960022,421.631989,587.552002
691.007996,417.727997,579.744019
694.911987,411.872009,583.648010
694.911987,413.824005,577.791992
691.007996,411.872009,573.888000
689.056030,407.967987,583.648010
689.056030,415.776001,571.935974
689.056030,423.584015,573.888000
692.960022,423.584015,577.791992
692.960022,427.488007,573.888000
694.911987,423.584015,566.080017
696.864014,417.727997,571.935974
687.104004,425.536011,566.080017
691.007996,421.631989,575.840027
689.056030,421.631989,566.080017
685.151978,421.631989,564.127991
687.104004,425.536011,573.888000
691.007996,427.488007,568.031982
691.007996,419.679993,573.888000
692.960022,423.584015,566.080017
691.007996,415.776001,573.888000
692.960022,413.824005,577.791992
691.007996,421.631989,575.840027
694.911987,415.776001,577.791992
700.768005,421.631989,575.840027
696.864014,409.920013,583.648010
698.815979,423.584015,583.648010
694.911987,413.824005,585.599976
691.007996,406.015991,581.695984
698.815979,425.536011,589.504028
694.911987,417.727997,585.599976
700.768005,423.584015,589.504028
700.768005,417.727997,593.408020
698.815979,423.584015,591.455994
704.671997,427.488007,599.263977
700.768005,421.631989,603.168030
700.768005,409.920013,603.168030
694.911987,421.631989,603.168030
702.719971,427.488007,593.408020
694.911987,423.584015,593.408020
694.911987,417.727997,597.312012
702.719971,423.584015,595.359985
704.671997,431.391998,593.408020
700.768005,425.536011,595.359985
698.815979,421.631989,597.312012
692.960022,423.584015,585.599976
694.911987,429.440002,589.504028
696.864014,425.536011,581.695984
704.671997,423.584015,585.599976
698.815979,413.824005,597.312012
698.815979,423.584015,595.359985
700.768005,423.584015,585.599976
694.911987,417.727997,589.504028
694.911987,417.727997,597.312012
694.911987,421.631989,595.359985
696.864014,425.536011,593.408020
704.671997,429.440002,593.408020
691.007996,429.440002,597.312012
704.671997,421.631989,603.168030
702.719971,423.584015,601.216003
696.864014,433.343994,605.119995
689.056030,437.247986,609.023987
698.815979,429.440002,603.168030
694.911987,429.440002,599.263977
694.911987,439.200012,601.216003
700.768005,439.200012,601.216003
685.151978,435.295990,597.312012
687.104004,433.343994,599.263977
677.343994,435.295990,585.599976
679.296021,427.488007,591.455994
691.007996,435.295990,589.504028
689.056030,421.631989,585.599976
689.056030,427.488007,589.504028
691.007996,431.391998,587.552002
696.864014,423.584015,593.408020
679.296021,421.631989,587.552002
685.151978,429.440002,589.504028
683.200012,425.536011,585.599976
687.104004,421.631989,581.695984
691.007996,427.488007,585.599976
687.104004,419.679993,587.552002
679.296021,423.584015,593.408020
679.296021,421.631989,593.408020
679.296021,427.488007,589.504028
689.056030,427.488007,585.599976
691.007996,433.343994,591.455994
683.200012,429.440002,577.791992
681.247986,435.295990,595.359985
683.200012,429.440002,595.359985
679.296021,433.343994,591.455994
683.200012,431.391998,595.359985
689.056030,427.488007,597.312012
687.104004,431.391998,597.312012
687.104004,429.440002,601.216003
681.247986,435.295990,601.216003
692.960022,427.488007,599.263977
685.151978,421.631989,589.504028
687.104004,425.536011,597.312012
687.104004,425.536011,603.168030
687.104004,425.536011,597.312012
683.200012,427.488007,597.312012
685.151978,417.727997,589.504028
692.960022,421.631989,597.312012
689.056030,425.536011,593.408020
694.911987,433.343994,605.119995
692.960022,435.295990,597.312012
696.864014,433.343994,593.408020
694.911987,425.536011,589.504028
692.960022,439.200012,601.216003
689.056030,439.200012,597.312012
687.104004,439.200012,601.216003
689.056030,439.200012,603.168030
691.007996,441.152008,601.216003
691.007996,437.247986,595.359985
683.200012,441.152008,593.408020
692.960022,437.247986,597.312012
696.864014,431.391998,593.408020
689.056030,443.104004,607.072021
692.960022,433.343994,605.119995
691.007996,431.391998,589.504028
687.104004,427.488007,605.119995
685.151978,421.631989,585.599976
689.056030,431.391998,591.455994
685.151978,425.536011,597.312012
681.247986,431.391998,595.359985
683.200012,433.343994,591.455994
685.151978,421.631989,585.599976
679.296021,433.343994,583.648010
669.536011,425.536011,587.552002
675.392029,427.488007,581.695984
673.440002,429.440002,579.744019
685.151978,427.488007,577.791992
679.296021,423.584015,579.744019
671.487976,421.631989,579.744019
673.440002,437.247986,575.840027
673.440002,429.440002,577.791992
663.679993,427.488007,579.744019
673.440002,431.391998,583.648010
675.392029,439.200012,579.744019
673.440002,439.200012,579.744019
667.583984,441.152008,575.840027
667.583984,429.440002,569.984009
665.632019,441.152008,571.935974
673.440002,427.488007,575.840027
671.487976,421.631989,571.935974
673.440002,425.536011,575.840027
667.583984,433.343994,575.840027
673.440002,435.295990,575.840027
671.487976,427.488007,573.888000
671.487976,429.440002,569.984009
679.296021,423.584015,569.984009
675.392029,425.536011,575.840027
675.392029,431.391998,577.791992
679.296021,429.440002,577.791992
685.151978,425.536011,571.935974
679.296021,431.391998,573.888000
673.440002,429.440002,568.031982
675.392029,427.488007,568.031982
663.679993,427.488007,573.888000
673.440002,431.391998,573.888000
675.392029,427.488007,569.984009
675.392029,421.631989,579.744019
673.440002,433.343994,569.984009
679.296021,425.536011,577.791992
669.536011,447.007996,575.840027
673.440002,437.247986,575.840027
675.392029,427.488007,579.744019
675.392029,435.295990,575.840027
675.392029,437.247986,583.648010
663.679993,431.391998,587.552002
675.392029,423.584015,591.455994
677.343994,429.440002,581.695984
677.343994,421.631989,577.791992
679.296021,421.631989,589.504028
681.247986,419.679993,581.695984
677.343994,421.631989,575.840027
671.487976,419.679993,579.744019
667.583984,423.584015,583.648010
673.440002,427.488007,577.791992
669.536011,421.631989,581.695984
671.487976,427.488007,577.791992
665.632019,429.440002,569.984009
663.679993,435.295990,566.080017
663.679993,433.343994,579.744019
669.536011,429.440002,569.984009
673.440002,429.440002,568.031982
663.679993,431.391998,569.984009
661.728027,435.295990,571.935974
667.583984,427.488007,575.840027
663.679993,429.440002,575.840027
663.679993,427.488007,569.984009
661.728027,417.727997,568.031982
651.968018,417.727997,569.984009
657.823975,413.824005,575.840027
665.632019,421.631989,573.888000
659.776001,419.679993,571.935974
657.823975,423.584015,568.031982
655.872009,425.536011,579.744019
663.679993,427.488007,571.935974
661.728027,431.391998,569.984009
659.776001,423.584015,569.984009
653.919983,425.536011,571.935974
653.919983,419.679993,562.176025
651.968018,423.584015,568.031982
653.919983,421.631989,568.031982
651.968018,413.824005,569.984009
648.064026,421.631989,566.080017
648.064026,423.584015,568.031982
648.064026,421.631989,562.176025
661.728027,423.584015,566.080017
657.823975,413.824005,569.984009
655.872009,427.488007,558.271973
655.872009,423.584015,566.080017
665.632019,425.536011,569.984009
657.823975,419.679993,571.935974
661.728027,427.488007,568.031982
655.872009,419.679993,566.080017
653.919983,421.631989,562.176025
651.968018,421.631989,569.984009
653.919983,423.584015,568.031982
651.968018,427.488007,566.080017
657.823975,423.584015,569.984009
648.064026,425.536011,569.984009
655.872009,425.536011,573.888000
659.776001,429.440002,564.127991
655.872009,431.391998,566.080017
655.872009,421.631989,569.984009
669.536011,423.584015,566.080017
659.776001,417.727997,573.888000
661.728027,423.584015,562.176025
657.823975,425.536011,569.984009
659.776001,421.631989,564.127991
663.679993,417.727997,566.080017
663.679993,423.584015,566.080017
669.536011,423.584015,569.984009
663.679993,423.584015,569.984009
659.776001,421.631989,571.935974
667.583984,421.631989,571.935974
665.632019,425.536011,562.176025
663.679993,421.631989,569.984009
665.632019,417.727997,571.935974
673.440002,419.679993,577.791992
667.583984,417.727997,566.080017
677.343994,411.872009,562.176025
663.679993,407.967987,569.984009
669.536011,413.824005,571.935974
667.583984,427.488007,579.744019
663.679993,413.824005,583.648010
667.583984,421.631989,579.744019
681.247986,423.584015,579.744019
683.200012,411.872009,575.840027
669.536011,409.920013,575.840027
675.392029,415.776001,573.888000
669.536011,413.824005,573.888000
671.487976,419.679993,583.648010
673.440002,407.967987,573.888000
671.487976,407.967987,581.695984
675.392029,407.967987,573.888000
669.536011,409.920013,577.791992
671.487976,409.920013,577.791992
685.151978,411.872009,566.080017
681.247986,413.824005,569.984009
675.392029,411.872009,577.791992
677.343994,415.776001,568.031982
677.343994,417.727997,569.984009
667.583984,413.824005,566.080017
671.487976,417.727997,575.840027
673.440002,411.872009,566.080017
677.343994,415.776001,571.935974
681.247986,406.015991,579.744019
671.487976,404.063995,562.176025
687.104004,394.303986,575.840027
681.247986,406.015991,569.984009
675.392029,407.967987,562.176025
689.056030,411.872009,569.984009
681.247986,406.015991,571.935974
685.151978,406.015991,571.935974
681.247986,404.063995,566.080017
681.247986,400.160004,566.080017
675.392029,404.063995,571.935974
681.247986,400.160004,577.791992
675.392029,400.160004,579.744019
675.392029,402.112000,568.031982
685.151978,404.063995,575.840027
681.247986,402.112000,573.888000
687.104004,402.112000,569.984009
679.296021,407.967987,568.031982
683.200012,404.063995,575.840027
683.200012,411.872009,569.984009
685.151978,415.776001,579.744019
687.104004,404.063995,573.888000
679.296021,400.160004,564.127991
681.247986,398.208008,571.935974
692.960022,406.015991,571.935974
671.487976,407.967987,571.935974
689.056030,402.112000,564.127991
677.343994,398.208008,558.271973
692.960022,404.063995,571.935974
687.104004,402.112000,566.080017
691.007996,404.063995,568.031982
687.104004,396.256012,579.744019
685.151978,400.160004,571.935974
681.247986,404.063995,573.888000
685.151978,402.112000,571.935974
681.247986,400.160004,579.744019
685.151978,398.208008,573.888000
687.104004,394.303986,571.935974
689.056030,398.208008,583.648010
679.296021,400.160004,583.648010
687.104004,394.303986,575.840027
687.104004,407.967987,581.695984
683.200012,390.399994,579.744019
687.104004,404.063995,585.599976
692.960022,392.351990,585.599976
687.104004,407.967987,587.552002
685.151978,394.303986,577.791992
681.247986,396.256012,581.695984
679.296021,396.256012,585.599976
681.247986,394.303986,577.791992
681.247986,394.303986,573.888000
685.151978,398.208008,585.599976
685.151978,398.208008,575.840027
681.247986,402.112000,583.648010
677.343994,400.160004,585.599976
669.536011,386.496002,577.791992
689.056030,392.351990,579.744019
677.343994,382.592010,573.888000
673.440002,384.544006,577.791992
675.392029,386.496002,585.599976
675.392029,382.592010,585.599976
675.392029,382.592010,587.552002
681.247986,382.592010,581.695984
669.536011,386.496002,591.455994
677.343994,392.351990,581.695984
675.392029,392.351990,585.599976
675.392029,388.447998,581.695984
675.392029,390.399994,587.552002
675.392029,402.112000,585.599976
681.247986,390.399994,589.504028
681.247986,390.399994,593.408020
683.200012,388.447998,595.359985
681.247986,384.544006,587.552002
685.151978,398.208008,583.648010
671.487976,388.447998,583.648010
675.392029,388.447998,587.552002
667.583984,382.592010,577.791992
675.392029,378.687988,595.359985
677.343994,388.447998,583.648010
679.296021,374.783997,583.648010
677.343994,378.687988,589.504028
679.296021,386.496002,581.695984
671.487976,374.783997,579.744019
669.536011,372.832001,589.504028
671.487976,372.832001,587.552002
669.536011,374.783997,581.695984
673.440002,374.783997,589.504028
669.536011,372.832001,581.695984
671.487976,374.783997,589.504028
679.296021,378.687988,591.455994
681.247986,388.447998,591.455994
681.247986,382.592010,601.216003
675.392029,386.496002,593.408020
681.247986,396.256012,595.359985
677.343994,382.592010,599.263977
675.392029,378.687988,601.216003
685.151978,404.063995,597.312012
681.247986,394.303986,607.072021
673.440002,388.447998,593.408020
671.487976,388.447998,603.168030
679.296021,388.447998,599.263977
681.247986,396.256012,597.312012
675.392029,378.687988,593.408020
675.392029,378.687988,591.455994
673.440002,380.640015,597.312012
671.487976,380.640015,587.552002
673.440002,384.544006,589.504028
669.536011,374.783997,589.504028
665.632019,394.303986,593.408020
663.679993,400.160004,585.599976
663.679993,392.351990,591.455994
663.679993,392.351990,583.648010
659.776001,390.399994,583.648010
661.728027,394.303986,577.791992
669.536011,398.208008,587.552002
663.679993,404.063995,579.744019
657.823975,400.160004,583.648010
661.728027,396.256012,577.791992
663.679993,400.160004,579.744019
665.632019,400.160004,581.695984
659.776001,400.160004,585.599976
669.536011,411.872009,583.648010
673.440002,404.063995,579.744019
669.536011,404.063995,587.552002
665.632019,394.303986,587.552002
659.776001,400.160004,581.695984
661.728027,396.256012,587.552002
663.679993,392.351990,583.648010
663.679993,390.399994,587.552002
669.536011,394.303986,583.648010
669.536011,390.399994,577.791992
667.583984,394.303986,581.695984
669.536011,390.399994,573.888000
663.679993,392.351990,583.648010
675.392029,392.351990,577.791992
673.440002,394.303986,577.791992
665.632019,388.447998,579.744019
679.296021,386.496002,575.840027
675.392029,394.303986,583.648010
679.296021,398.208008,589.504028
673.440002,404.063995,587.552002
669.536011,400.160004,591.455994
681.247986,402.112000,583.648010
679.296021,400.160004,583.648010
683.200012,398.208008,593.408020
687.104004,404.063995,597.312012
679.296021,396.256012,591.455994
681.247986,390.399994,599.263977
679.296021,400.160004,593.408020
685.151978,392.351990,601.216003
687.104004,396.256012,601.216003
689.056030,392.351990,610.976013
687.104004,392.351990,609.023987
689.056030,386.496002,601.216003
691.007996,392.351990,601.216003
689.056030,392.351990,605.119995
691.007996,392.351990,610.976013
689.056030,388.447998,605.119995
691.007996,388.447998,610.976013
689.056030,388.447998,607.072021
692.960022,396.256012,618.783997
696.864014,388.447998,607.072021
689.056030,392.351990,605.119995
692.960022,382.592010,609.023987
687.104004,396.256012,599.263977
696.864014,390.399994,601.216003
691.007996,388.447998,597.312012
683.200012,382.592010,599.263977
689.056030,394.303986,599.263977
689.056030,386.496002,601.216003
689.056030,382.592010,603.168030
691.007996,388.447998,601.216003
696.864014,382.592010,607.072021
689.056030,380.640015,599.263977
691.007996,380.640015,605.119995
700.768005,384.544006,603.168030
691.007996,382.592010,603.168030
689.056030,388.447998,607.072021
700.768005,382.592010,609.023987
696.864014,384.544006,614.880005
689.056030,384.544006,603.168030
696.864014,384.544006,605.119995
694.911987,392.351990,605.119995
694.911987,384.544006,607.072021
696.864014,380.640015,612.927979
692.960022,380.640015,616.831970
698.815979,396.256012,610.976013
696.864014,390.399994,614.880005
700.768005,394.303986,616.831970
710.528015,386.496002,601.216003
706.624023,394.303986,609.023987
702.719971,396.256012,614.880005
712.479980,394.303986,609.023987
710.528015,382.592010,610.976013
706.624023,390.399994,618.783997
710.528015,386.496002,610.976013
710.528015,388.447998,605.119995
708.575989,390.399994,603.168030
706.624023,394.303986,614.880005
710.528015,396.256012,614.880005
704.671997,392.351990,614.880005
714.432007,390.399994,610.976013
708.575989,392.351990,605.119995
712.479980,388.447998,618.783997
702.719971,390.399994,609.023987
708.575989,386.496002,612.927979
706.624023,390.399994,618.783997
712.479980,400.160004,609.023987
714.432007,394.303986,605.119995
710.528015,400.160004,614.880005
718.335999,398.208008,616.831970
720.288025,400.160004,618.783997
716.383972,400.160004,603.168030
716.383972,394.303986,609.023987
716.383972,400.160004,609.023987
724.192017,400.160004,597.312012
718.335999,404.063995,601.216003
724.192017,390.399994,603.168030
718.335999,398.208008,599.263977
716.383972,394.303986,603.168030
716.383972,394.303986,603.168030
712.479980,404.063995,607.072021
712.479980,386.496002,591.455994
714.432007,396.256012,593.408020
712.479980,407.967987,589.504028
710.528015,400.160004,583.648010
714.432007,398.208008,583.648010
710.528015,396.256012,585.599976
716.383972,398.208008,585.599976
710.528015,398.208008,595.359985
710.528015,404.063995,593.408020
710.528015,407.967987,595.359985
712.479980,409.920013,587.552002
710.528015,407.967987,591.455994
706.624023,411.872009,583.648010
712.479980,413.824005,591.455994
708.575989,421.631989,587.552002
716.383972,409.920013,589.504028
704.671997,417.727997,585.599976
712.479980,409.920013,595.359985
706.624023,411.872009,591.455994
706.624023,413.824005,585.599976
710.528015,400.160004,597.312012
708.575989,406.015991,587.552002
712.479980,409.920013,587.552002
704.671997,407.967987,581.695984
708.575989,402.112000,583.648010
702.719971,396.256012,585.599976
704.671997,396.256012,573.888000
700.768005,392.351990,581.695984
700.768005,388.447998,579.744019
696.864014,384.544006,579.744019
691.007996,396.256012,577.791992
702.719971,388.447998,577.791992
706.624023,388.447998,589.504028
698.815979,390.399994,577.791992
696.864014,384.544006,577.791992
700.768005,386.496002,577.791992
700.768005,390.399994,583.648010
696.864014,384.544006,571.935974
698.815979,384.544006,577.791992
700.768005,386.496002,577.791992
692.960022,388.447998,591.455994
692.960022,388.447998,589.504028
704.671997,388.447998,583.648010
710.528015,370.880005,589.504028
702.719971,376.735992,585.599976
712.479980,372.832001,583.648010
716.383972,376.735992,587.552002
716.383972,376.735992,585.599976
712.479980,378.687988,587.552002
716.383972,374.783997,583.648010
720.288025,376.735992,585.599976
712.479980,378.687988,587.552002
716.383972,374.783997,583.648010
720.288025,370.880005,585.599976
720.288025,378.687988,585.599976
716.383972,374.783997,575.840027
720.288025,374.783997,577.791992
718.335999,384.544006,593.408020
720.288025,370.880005,589.504028
726.143982,374.783997,591.455994
716.383972,368.928009,583.648010
720.288025,368.928009,583.648010
724.192017,376.735992,591.455994
728.096008,376.735992,577.791992
726.143982,374.783997,589.504028
722.239990,370.880005,585.599976
718.335999,359.167999,585.599976
728.096008,366.976013,581.695984
728.096008,366.976013,591.455994
728.096008,366.976013,595.359985
728.096008,372.832001,591.455994
726.143982,372.832001,589.504028
739.807983,366.976013,587.552002
737.856018,368.928009,603.168030
737.856018,355.264008,589.504028
741.760010,355.264008,593.408020
745.664001,359.167999,583.648010
739.807983,351.359985,591.455994
737.856018,353.312012,591.455994
741.760010,355.264008,575.840027
741.760010,351.359985,583.648010
745.664001,353.312012,581.695984
747.616028,355.264008,587.552002
743.711975,370.880005,577.791992
741.760010,366.976013,585.599976
739.807983,359.167999,583.648010
739.807983,368.928009,581.695984
739.807983,365.023987,577.791992
743.711975,363.071991,583.648010
739.807983,357.216003,585.599976
737.856018,353.312012,591.455994
743.711975,359.167999,591.455994
737.856018,355.264008,593.408020
743.711975,347.455994,591.455994
747.616028,359.167999,591.455994
735.903992,361.119995,603.168030
737.856018,351.359985,585.599976
743.711975,351.359985,589.504028
743.711975,345.503998,587.552002
737.856018,347.455994,581.695984
730.047974,351.359985,585.599976
737.856018,343.552002,575.840027
747.616028,357.216003,579.744019
741.760010,357.216003,575.840027
747.616028,363.071991,571.935974
743.711975,357.216003,568.031982
737.856018,363.071991,571.935974
735.903992,365.023987,569.984009
737.856018,368.928009,573.888000
741.760010,363.071991,566.080017
741.760010,363.071991,579.744019
741.760010,363.071991,569.984009
749.567993,366.976013,577.791992
749.567993,368.928009,579.744019
745.664001,361.119995,581.695984
753.471985,368.928009,587.552002
753.471985,372.832001,587.552002
755.424011,368.928009,591.455994
757.375977,363.071991,587.552002
767.135986,355.264008,591.455994
757.375977,355.264008,589.504028
761.280029,357.216003,585.599976
755.424011,351.359985,585.599976
759.328003,359.167999,583.648010
759.328003,368.928009,591.455994
765.184021,366.976013,585.599976
763.231995,372.832001,591.455994
759.328003,372.832001,581.695984
751.520020,376.735992,585.599976
753.471985,378.687988,583.648010
755.424011,382.592010,591.455994
755.424011,384.544006,581.695984
755.424011,378.687988,579.744019
759.328003,378.687988,575.840027
753.471985,388.447998,575.840027
759.328003,378.687988,583.648010
757.375977,376.735992,579.744019
753.471985,378.687988,577.791992
761.280029,392.351990,581.695984
759.328003,386.496002,577.791992
751.520020,386.496002,575.840027
759.328003,380.640015,587.552002
755.424011,382.592010,585.599976
767.135986,388.447998,593.408020
755.424011,378.687988,603.168030
757.375977,382.592010,595.359985
755.424011,376.735992,599.263977
759.328003,382.592010,591.455994
757.375977,386.496002,589.504028
749.567993,390.399994,593.408020
755.424011,384.544006,585.599976
759.328003,388.447998,593.408020
759.328003,392.351990,587.552002
767.135986,378.687988,581.695984
755.424011,392.351990,583.648010
747.616028,390.399994,581.695984
747.616028,392.351990,581.695984
741.760010,396.256012,583.648010
745.664001,386.496002,569.984009
753.471985,394.303986,581.695984
743.711975,400.160004,573.888000
733.952026,400.160004,569.984009
743.711975,400.160004,566.080017
741.760010,392.351990,569.984009
745.664001,392.351990,579.744019
747.616028,392.351990,579.744019
741.760010,384.544006,569.984009
745.664001,388.447998,568.031982
747.616028,396.256012,566.080017
743.711975,386.496002,569.984009
739.807983,384.544006,583.648010
743.711975,394.303986,575.840027
749.567993,394.303986,571.935974
747.616028,388.447998,587.552002
741.760010,384.544006,577.791992
747.616028,384.544006,581.695984
749.567993,390.399994,587.552002
747.616028,390.399994,589.504028
743.711975,390.399994,591.455994
743.711975,390.399994,581.695984
747.616028,394.303986,573.888000
735.903992,396.256012,581.695984
735.903992,398.208008,573.888000
735.903992,404.063995,577.791992
745.664001,392.351990,579.744019
737.856018,394.303986,571.935974
743.711975,388.447998,569.984009
735.903992,392.351990,577.791992
745.664001,386.496002,569.984009
737.856018,394.303986,575.840027
741.760010,392.351990,569.984009
739.807983,386.496002,571.935974
741.760010,380.640015,575.840027
745.664001,370.880005,585.599976
745.664001,370.880005,585.599976
743.711975,374.783997,575.840027
741.760010,372.832001,585.599976
745.664001,370.880005,585.599976
739.807983,365.023987,585.599976
737.856018,359.167999,589.504028
745.664001,366.976013,591.455994
745.664001,365.023987,585.599976
741.760010,372.832001,585.599976
741.760010,368.928009,591.455994
739.807983,376.735992,577.791992
745.664001,368.928009,585.599976
749.567993,363.071991,575.840027
743.711975,372.832001,583.648010
745.664001,376.735992,585.599976
743.711975,368.928009,583.648010
747.616028,363.071991,579.744019
733.952026,368.928009,585.599976
735.903992,361.119995,585.599976
741.760010,370.880005,587.552002
755.424011,365.023987,589.504028
747.616028,365.023987,585.599976
745.664001,361.119995,581.695984
737.856018,361.119995,589.504028
745.664001,355.264008,595.359985
743.711975,357.216003,593.408020
737.856018,363.071991,603.168030
747.616028,361.119995,599.263977
747.616028,366.976013,603.168030
753.471985,355.264008,603.168030
751.520020,363.071991,601.216003
755.424011,361.119995,595.359985
753.471985,357.216003,603.168030
749.567993,359.167999,599.263977
749.567993,359.167999,593.408020
751.520020,359.167999,599.263977
745.664001,365.023987,591.455994
743.711975,363.071991,603.168030
743.711975,357.216003,589.504028
741.760010,361.119995,593.408020
741.760010,361.119995,587.552002
753.471985,357.216003,581.695984
749.567993,355.264008,585.599976
737.856018,357.216003,587.552002
741.760010,361.119995,573.888000
737.856018,351.359985,589.504028
743.711975,351.359985,591.455994
732.000000,351.359985,591.455994
741.760010,349.407990,581.695984
745.664001,353.312012,587.552002
739.807983,361.119995,579.744019
759.328003,359.167999,577.791992
735.903992,353.312012,587.552002
737.856018,353.312012,591.455994
747.616028,353.312012,587.552002
743.711975,353.312012,587.552002
745.664001,353.312012,593.408020
737.856018,357.216003,585.599976
739.807983,359.167999,589.504028
741.760010,365.023987,589.504028
743.711975,357.216003,591.455994
745.664001,353.312012,591.455994
745.664001,361.119995,593.408020
747.616028,353.312012,599.263977
749.567993,343.552002,597.312012
751.520020,343.552002,603.168030
759.328003,349.407990,591.455994
761.280029,351.359985,591.455994
753.471985,343.552002,599.263977
757.375977,335.743988,599.263977
755.424011,345.503998,601.216003
751.520020,347.455994,597.312012
757.375977,349.407990,597.312012
759.328003,339.648010,601.216003
767.135986,343.552002,599.263977
759.328003,337.696014,593.408020
763.231995,331.839996,599.263977
763.231995,343.552002,591.455994
757.375977,349.407990,595.359985
765.184021,351.359985,601.216003
757.375977,345.503998,597.312012
767.135986,339.648010,603.168030
761.280029,345.503998,601.216003
757.375977,335.743988,610.976013
767.135986,339.648010,601.216003
763.231995,337.696014,593.408020
761.280029,341.600006,599.263977
771.039978,331.839996,599.263977
767.135986,341.600006,599.263977
771.039978,333.791992,595.359985
761.280029,345.503998,599.263977
759.328003,345.503998,599.263977
755.424011,327.936005,593.408020
757.375977,320.127991,595.359985
761.280029,320.127991,591.455994
759.328003,329.888000,593.408020
759.328003,327.936005,603.168030
763.231995,324.032013,593.408020
759.328003,325.984009,603.168030
757.375977,322.079987,595.359985
761.280029,329.888000,591.455994
763.231995,324.032013,587.552002
757.375977,325.984009,595.359985
757.375977,337.696014,599.263977
753.471985,322.079987,599.263977
761.280029,325.984009,595.359985
757.375977,337.696014,603.168030
761.280029,331.839996,597.312012
763.231995,331.839996,599.263977
757.375977,333.791992,599.263977
753.471985,329.888000,599.263977
759.328003,324.032013,591.455994
749.567993,320.127991,587.552002
749.567993,327.936005,587.552002
759.328003,327.936005,595.359985
759.328003,324.032013,595.359985
751.520020,324.032013,599.263977
749.567993,331.839996,591.455994
757.375977,333.791992,587.552002
757.375977,320.127991,589.504028
757.375977,320.127991,585.599976
755.424011,329.888000,585.599976
751.520020,333.791992,585.599976
753.471985,314.272003,585.599976
757.375977,329.888000,583.648010
753.471985,327.936005,577.791992
745.664001,327.936005,583.648010
759.328003,331.839996,591.455994
745.664001,324.032013,575.840027
745.664001,329.888000,577.791992
745.664001,331.839996,575.840027
741.760010,324.032013,581.695984
743.711975,329.888000,577.791992
737.856018,331.839996,577.791992
737.856018,324.032013,571.935974
741.760010,329.888000,581.695984
743.711975,316.223999,577.791992
745.664001,327.936005,585.599976
737.856018,331.839996,573.888000
741.760010,325.984009,579.744019
739.807983,324.032013,577.791992
737.856018,325.984009,575.840027
739.807983,324.032013,573.888000
733.952026,320.127991,573.888000
743.711975,322.079987,583.648010
741.760010,331.839996,575.840027
741.760010,322.079987,579.744019
743.711975,331.839996,581.695984
745.664001,318.175995,575.840027
747.616028,318.175995,571.935974
741.760010,331.839996,577.791992
741.760010,327.936005,577.791992
737.856018,324.032013,583.648010
741.760010,324.032013,575.840027
747.616028,322.079987,579.744019
733.952026,329.888000,579.744019
741.760010,324.032013,575.840027
747.616028,329.888000,573.888000
741.760010,318.175995,571.935974
735.903992,318.175995,560.223999
741.760010,329.888000,573.888000
737.856018,337.696014,571.935974
739.807983,333.791992,566.080017
737.856018,331.839996,571.935974
739.807983,327.936005,564.127991
743.711975,325.984009,568.031982
743.711975,324.032013,562.176025
741.760010,322.079987,568.031982
739.807983,325.984009,571.935974
732.000000,322.079987,566.080017
741.760010,324.032013,568.031982
741.760010,325.984009,568.031982
743.711975,322.079987,569.984009
741.760010,325.984009,579.744019
730.047974,324.032013,583.648010
732.000000,333.791992,573.888000
741.760010,324.032013,569.984009
741.760010,325.984009,562.176025
732.000000,333.791992,566.080017
743.711975,327.936005,562.176025
741.760010,333.791992,558.271973
737.856018,331.839996,571.935974
745.664001,333.791992,564.127991
745.664001,318.175995,573.888000
737.856018,327.936005,562.176025
741.760010,333.791992,558.271973
747.616028,347.455994,562.176025
743.711975,335.743988,571.935974
737.856018,331.839996,573.888000
743.711975,337.696014,566.080017
743.711975,335.743988,577.791992
745.664001,329.888000,573.888000
747.616028,337.696014,577.791992
747.616028,337.696014,575.840027
745.664001,337.696014,566.080017
747.616028,341.600006,575.840027
753.471985,337.696014,581.695984
749.567993,333.791992,569.984009
747.616028,335.743988,587.552002
743.711975,347.455994,587.552002
747.616028,343.552002,571.935974
749.567993,339.648010,575.840027
757.375977,339.648010,575.840027
747.616028,339.648010,577.791992
747.616028,349.407990,579.744019
751.520020,341.600006,573.888000
743.711975,341.600006,583.648010
737.856018,339.648010,579.744019
747.616028,331.839996,577.791992
747.616028,331.839996,575.840027
743.711975,341.600006,569.984009
747.616028,337.696014,583.648010
737.856018,339.648010,571.935974
737.856018,343.552002,573.888000
747.616028,343.552002,577.791992
737.856018,339.648010,575.840027
743.711975,341.600006,575.840027
743.711975,341.600006,575.840027
741.760010,335.743988,566.080017
747.616028,331.839996,575.840027
747.616028,337.696014,577.791992
745.664001,333.791992,583.648010
747.616028,329.888000,571.935974
747.616028,329.888000,571.935974
745.664001,329.888000,579.744019
745.664001,333.791992,583.648010
751.520020,333.791992,585.599976
745.664001,327.936005,581.695984
751.520020,331.839996,571.935974
757.375977,324.032013,585.599976
749.567993,327.936005,581.695984
749.567993,327.936005,581.695984
751.520020,331.839996,581.695984
755.424011,329.888000,585.599976
745.664001,320.127991,569.984009
753.471985,329.888000,573.888000
753.471985,325.984009,581.695984
757.375977,320.127991,595.359985
757.375977,318.175995,585.599976
751.520020,318.175995,579.744019
751.520020,322.079987,579.744019
755.424011,320.127991,581.695984
759.328003,320.127991,579.744019
753.471985,314.272003,583.648010
745.664001,318.175995,581.695984
759.328003,322.079987,575.840027
759.328003,320.127991,579.744019
751.520020,325.984009,577.791992
745.664001,329.888000,575.840027
751.520020,324.032013,579.744019
749.567993,318.175995,579.744019
759.328003,322.079987,577.791992
755.424011,312.320007,585.599976
755.424011,314.272003,577.791992
743.711975,318.175995,583.648010
751.520020,318.175995,577.791992
757.375977,310.368011,581.695984
741.760010,312.320007,575.840027
749.567993,316.223999,581.695984
755.424011,314.272003,575.840027
745.664001,312.320007,579.744019
749.567993,322.079987,585.599976
749.567993,310.368011,577.791992
751.520020,318.175995,569.984009
755.424011,316.223999,581.695984
751.520020,308.415985,587.552002
753.471985,324.032013,573.888000
751.520020,308.415985,577.791992
749.567993,314.272003,581.695984
747.616028,312.320007,573.888000
741.760010,318.175995,569.984009
747.616028,312.320007,575.840027
737.856018,314.272003,569.984009
745.664001,318.175995,569.984009
741.760010,308.415985,566.080017
745.664001,322.079987,568.031982
745.664001,318.175995,568.031982
745.664001,314.272003,566.080017
737.856018,312.320007,571.935974
741.760010,312.320007,573.888000
745.664001,324.032013,569.984009
745.664001,318.175995,569.984009
741.760010,304.511993,562.176025
745.664001,314.272003,566.080017
747.616028,312.320007,569.984009
749.567993,322.079987,562.176025
747.616028,318.175995,571.935974
741.760010,316.223999,562.176025
733.952026,314.272003,558.271973
741.760010,310.368011,564.127991
733.952026,310.368011,560.223999
737.856018,322.079987,564.127991
732.000000,320.127991,554.367981
743.711975,327.936005,556.320007
737.856018,320.127991,552.416016
739.807983,314.272003,552.416016
733.952026,316.223999,546.559998
737.856018,314.272003,550.463989
728.096008,324.032013,552.416016
728.096008,325.984009,542.656006
726.143982,310.368011,556.320007
728.096008,325.984009,548.512024
728.096008,322.079987,552.416016
728.096008,325.984009,552.416016
728.096008,316.223999,550.463989
722.239990,320.127991,544.607971
726.143982,314.272003,548.512024
732.000000,316.223999,546.559998
726.143982,320.127991,554.367981
726.143982,324.032013,554.367981
726.143982,318.175995,552.416016
732.000000,324.032013,554.367981
724.192017,318.175995,552.416016
726.143982,320.127991,552.416016
726.143982,318.175995,552.416016
722.239990,316.223999,552.416016
728.096008,327.936005,548.512024
730.047974,314.272003,546.559998
735.903992,308.415985,538.752014
726.143982,314.272003,538.752014
732.000000,322.079987,546.559998
732.000000,322.079987,542.656006
726.143982,314.272003,538.752014
726.143982,322.079987,546.559998
722.239990,329.888000,542.656006
724.192017,308.415985,548.512024
728.096008,316.223999,548.512024
732.000000,316.223999,546.559998
733.952026,318.175995,546.559998
728.096008,322.079987,540.703979
730.047974,318.175995,546.559998
732.000000,322.079987,546.559998
730.047974,310.368011,530.943970
735.903992,308.415985,538.752014
733.952026,316.223999,542.656006
730.047974,314.272003,548.512024
726.143982,312.320007,550.463989
726.143982,314.272003,548.512024
732.000000,322.079987,540.703979
733.952026,318.175995,546.559998
732.000000,316.223999,546.559998
726.143982,314.272003,548.512024
730.047974,312.320007,552.416016
735.903992,318.175995,552.416016
743.711975,316.223999,548.512024
733.952026,322.079987,546.559998
735.903992,318.175995,554.367981
735.903992,325.984009,554.367981
739.807983,316.223999,554.367981
735.903992,329.888000,546.559998
735.903992,318.175995,546.559998
741.760010,324.032013,550.463989
743.711975,322.079987,558.271973
737.856018,320.127991,556.320007
743.711975,322.079987,560.223999
743.711975,325.984009,558.271973
735.903992,320.127991,564.127991
737.856018,325.984009,562.176025
747.616028,325.984009,568.031982
743.711975,325.984009,558.271973
749.567993,325.984009,566.080017
745.664001,320.127991,568.031982
747.616028,320.127991,562.176025
737.856018,325.984009,568.031982
747.616028,327.936005,568.031982
743.711975,324.032013,568.031982
745.664001,318.175995,568.031982
747.616028,325.984009,562.176025
745.664001,325.984009,562.176025
741.760010,308.415985,554.367981
743.711975,324.032013,564.127991
747.616028,325.984009,568.031982
743.711975,314.272003,564.127991
745.664001,314.272003,566.080017
735.903992,325.984009,564.127991
741.760010,325.984009,569.984009
735.903992,322.079987,568.031982
743.711975,316.223999,564.127991
737.856018,329.888000,562.176025
730.047974,316.223999,569.984009
733.952026,322.079987,571.935974
741.760010,327.936005,566.080017
733.952026,325.984009,573.888000
739.807983,331.839996,569.984009
741.760010,324.032013,569.984009
739.807983,322.079987,579.744019
741.760010,324.032013,571.935974
741.760010,329.888000,573.888000
741.760010,329.888000,579.744019
730.047974,335.743988,573.888000
730.047974,335.743988,581.695984
735.903992,320.127991,583.648010
741.760010,333.791992,583.648010
730.047974,333.791992,579.744019
728.096008,327.936005,573.888000
733.952026,337.696014,587.552002
735.903992,337.696014,579.744019
733.952026,331.839996,579.744019
726.143982,341.600006,579.744019
724.192017,337.696014,581.695984
726.143982,335.743988,573.888000
737.856018,341.600006,583.648010
735.903992,339.648010,569.984009
732.000000,347.455994,577.791992
730.047974,341.600006,573.888000
732.000000,339.648010,569.984009
732.000000,347.455994,575.840027
722.239990,347.455994,577.791992
728.096008,339.648010,573.888000
720.288025,331.839996,575.840027
726.143982,337.696014,568.031982
726.143982,341.600006,569.984009
728.096008,343.552002,579.744019
730.047974,339.648010,568.031982
726.143982,341.600006,575.840027
728.096008,343.552002,581.695984
720.288025,357.216003,569.984009
726.143982,351.359985,575.840027
722.239990,351.359985,566.080017
732.000000,351.359985,566.080017
722.239990,345.503998,566.080017
732.000000,347.455994,571.935974
737.856018,349.407990,575.840027
735.903992,341.600006,569.984009
730.047974,359.167999,569.984009
732.000000,355.264008,575.840027
737.856018,349.407990,575.840027
733.952026,347.455994,571.935974
732.000000,347.455994,579.744019
737.856018,345.503998,581.695984
739.807983,343.552002,587.552002
735.903992,357.216003,585.599976
733.952026,357.216003,575.840027
745.664001,347.455994,587.552002
741.760010,341.600006,589.504028
743.711975,345.503998,583.648010
743.711975,353.312012,591.455994
743.711975,349.407990,589.504028
741.760010,345.503998,599.263977
745.664001,345.503998,589.504028
745.664001,341.600006,589.504028
747.616028,345.503998,593.408020
747.616028,337.696014,597.312012
747.616028,347.455994,593.408020
759.328003,339.648010,593.408020
757.375977,339.648010,599.263977
749.567993,349.407990,595.359985
759.328003,343.552002,587.552002
753.471985,339.648010,589.504028
749.567993,339.648010,585.599976
753.471985,339.648010,587.552002
759.328003,341.600006,587.552002
755.424011,347.455994,591.455994
751.520020,335.743988,595.359985
753.471985,339.648010,589.504028
759.328003,337.696014,593.408020
741.760010,335.743988,585.599976
751.520020,345.503998,583.648010
753.471985,339.648010,591.455994
755.424011,341.600006,579.744019
755.424011,329.888000,583.648010
745.664001,331.839996,579.744019
755.424011,333.791992,587.552002
757.375977,329.888000,595.359985
755.424011,331.839996,585.599976
741.760010,333.791992,587.552002
745.664001,333.791992,587.552002
755.424011,329.888000,583.648010
753.471985,333.791992,585.599976
749.567993,347.455994,587.552002
759.328003,337.696014,587.552002
757.375977,333.791992,579.744019
759.328003,324.032013,583.648010
765.184021,337.696014,585.599976
753.471985,333.791992,583.648010
765.184021,341.600006,573.888000
759.328003,333.791992,577.791992
753.471985,337.696014,577.791992
761.280029,331.839996,585.599976
755.424011,337.696014,587.552002
765.184021,337.696014,581.695984
759.328003,337.696014,581.695984
755.424011,335.743988,573.888000
757.375977,333.791992,573.888000
763.231995,335.743988,587.552002
761.280029,331.839996,577.791992
753.471985,333.791992,583.648010
759.328003,331.839996,581.695984
755.424011,333.791992,579.744019
759.328003,341.600006,579.744019
757.375977,327.936005,573.888000
755.424011,335.743988,579.744019
761.280029,333.791992,575.840027
759.328003,339.648010,581.695984
761.280029,345.503998,579.744019
757.375977,333.791992,579.744019
765.184021,325.984009,573.888000
767.135986,335.743988,581.695984
757.375977,333.791992,581.695984
765.184021,341.600006,585.599976
771.039978,343.552002,581.695984
765.184021,343.552002,587.552002
765.184021,331.839996,587.552002
761.280029,339.648010,581.695984
765.184021,343.552002,587.552002
765.184021,349.407990,573.888000
763.231995,343.552002,581.695984
763.231995,345.503998,573.888000
759.328003,343.552002,579.744019
774.943970,343.552002,575.840027
765.184021,353.312012,575.840027
765.184021,347.455994,579.744019
771.039978,347.455994,573.888000
765.184021,347.455994,583.648010
769.088013,347.455994,573.888000
769.088013,341.600006,575.840027
761.280029,345.503998,579.744019
759.328003,345.503998,583.648010
763.231995,343.552002,569.984009
761.280029,351.359985,562.176025
765.184021,353.312012,575.840027
759.328003,345.503998,571.935974
763.231995,339.648010,569.984009
757.375977,345.503998,569.984009
761.280029,353.312012,577.791992
761.280029,357.216003,571.935974
765.184021,355.264008,573.888000
767.135986,343.552002,577.791992
761.280029,345.503998,568.031982
763.231995,357.216003,577.791992
757.375977,357.216003,566.080017
763.231995,359.167999,571.935974
763.231995,357.216003,566.080017
767.135986,353.312012,568.031982
771.039978,357.216003,575.840027
774.943970,351.359985,568.031982
763.231995,359.167999,571.935974
761.280029,366.976013,569.984009
759.328003,357.216003,571.935974
761.280029,359.167999,575.840027
767.135986,357.216003,575.840027
765.184021,351.359985,569.984009
771.039978,347.455994,577.791992
769.088013,349.407990,573.888000
763.231995,343.552002,581.695984
763.231995,357.216003,571.935974
774.943970,363.071991,579.744019
778.848022,351.359985,579.744019
772.992004,351.359985,579.744019
776.895996,361.119995,577.791992
776.895996,353.312012,575.840027
780.799988,357.216003,581.695984
782.752014,365.023987,583.648010
771.039978,351.359985,579.744019
782.752014,347.455994,577.791992
778.848022,357.216003,581.695984
784.703979,357.216003,583.648010
782.752014,361.119995,581.695984
778.848022,359.167999,587.552002
784.703979,359.167999,583.648010
782.752014,357.216003,581.695984
774.943970,359.167999,581.695984
772.992004,361.119995,579.744019
778.848022,363.071991,579.744019
786.656006,349.407990,583.648010
784.703979,351.359985,573.888000
782.752014,347.455994,583.648010
776.895996,351.359985,575.840027
776.895996,349.407990,577.791992
784.703979,347.455994,583.648010
784.703979,359.167999,579.744019
782.752014,351.359985,579.744019
782.752014,347.455994,573.888000
784.703979,355.264008,579.744019
786.656006,351.359985,587.552002
786.656006,361.119995,585.599976
790.559998,353.312012,583.648010
790.559998,351.359985,589.504028
784.703979,361.119995,581.695984
792.512024,361.119995,589.504028
786.656006,355.264008,585.599976
784.703979,365.023987,593.408020
786.656006,357.216003,589.504028
778.848022,361.119995,581.695984
782.752014,355.264008,583.648010
786.656006,353.312012,587.552002
780.799988,361.119995,585.599976
772.992004,351.359985,581.695984
782.752014,349.407990,581.695984
790.559998,353.312012,575.840027
788.607971,343.552002,589.504028
786.656006,343.552002,583.648010
786.656006,347.455994,587.552002
776.895996,351.359985,579.744019
782.752014,345.503998,585.599976
769.088013,339.648010,577.791992
771.039978,343.552002,581.695984
780.799988,343.552002,577.791992
776.895996,349.407990,581.695984
772.992004,345.503998,583.648010
778.848022,343.552002,577.791992
774.943970,331.839996,583.648010
780.799988,331.839996,591.455994
774.943970,335.743988,577.791992
774.943970,349.407990,579.744019
772.992004,339.648010,585.599976
774.943970,341.600006,577.791992
774.943970,337.696014,583.648010
780.799988,343.552002,579.744019
774.943970,345.503998,579.744019
769.088013,341.600006,583.648010
776.895996,341.600006,585.599976
772.992004,333.791992,585.599976
767.135986,329.888000,575.840027
772.992004,327.936005,575.840027
782.752014,327.936005,571.935974
771.039978,329.888000,569.984009
774.943970,331.839996,571.935974
771.039978,322.079987,571.935974
772.992004,324.032013,575.840027
771.039978,324.032013,569.984009
771.039978,322.079987,566.080017
772.992004,320.127991,569.984009
769.088013,316.223999,569.984009
769.088013,314.272003,575.840027
771.039978,318.175995,573.888000
769.088013,316.223999,569.984009
771.039978,318.175995,573.888000
769.088013,304.511993,573.888000
774.943970,310.368011,577.791992
774.943970,312.320007,575.840027
774.943970,318.175995,583.648010
780.799988,316.223999,579.744019
776.895996,306.463989,585.599976
780.799988,308.415985,577.791992
776.895996,308.415985,585.599976
772.992004,312.320007,587.552002
778.848022,308.415985,583.648010
790.559998,312.320007,587.552002
784.703979,306.463989,581.695984
786.656006,302.559998,581.695984
778.848022,312.320007,583.648010
776.895996,304.511993,591.455994
776.895996,306.463989,585.599976
776.895996,308.415985,585.599976
776.895996,302.559998,591.455994
784.703979,300.608002,581.695984
780.799988,314.272003,581.695984
772.992004,304.511993,585.599976
784.703979,306.463989,589.504028
784.703979,304.511993,593.408020
776.895996,302.559998,585.599976
782.752014,312.320007,593.408020
780.799988,318.175995,597.312012
776.895996,314.272003,591.455994
782.752014,308.415985,589.504028
772.992004,314.272003,585.599976
780.799988,308.415985,585.599976
776.895996,308.415985,585.599976
772.992004,314.272003,595.359985
774.943970,314.272003,587.552002
774.943970,320.127991,585.599976
774.943970,314.272003,587.552002
772.992004,314.272003,589.504028
774.943970,314.272003,587.552002
784.703979,312.320007,589.504028
772.992004,314.272003,583.648010
776.895996,304.511993,585.599976
774.943970,308.415985,589.504028
782.752014,306.463989,581.695984
778.848022,316.223999,581.695984
767.135986,306.463989,569.984009
774.943970,308.415985,577.791992
769.088013,310.368011,573.888000
774.943970,306.463989,571.935974
769.088013,314.272003,566.080017
772.992004,314.272003,564.127991
771.039978,310.368011,575.840027
776.895996,310.368011,566.080017
767.135986,312.320007,571.935974
769.088013,320.127991,566.080017
765.184021,312.320007,568.031982
772.992004,312.320007,575.840027
767.135986,308.415985,568.031982
769.088013,312.320007,571.935974
778.848022,310.368011,573.888000
772.992004,312.320007,573.888000
774.943970,316.223999,581.695984
774.943970,316.223999,581.695984
772.992004,320.127991,579.744019
776.895996,320.127991,575.840027
772.992004,325.984009,577.791992
774.943970,318.175995,583.648010
778.848022,320.127991,581.695984
778.848022,316.223999,583.648010
782.752014,324.032013,571.935974
769.088013,333.791992,575.840027
771.039978,329.888000,569.984009
765.184021,327.936005,577.791992
772.992004,320.127991,579.744019
771.039978,329.888000,579.744019
772.992004,324.032013,573.888000
772.992004,329.888000,575.840027
765.184021,329.888000,575.840027
774.943970,329.888000,566.080017
763.231995,337.696014,568.031982
769.088013,329.888000,571.935974
767.135986,333.791992,568.031982
771.039978,327.936005,575.840027
774.943970,329.888000,566.080017
765.184021,331.839996,562.176025
761.280029,324.032013,566.080017
771.039978,324.032013,569.984009
767.135986,325.984009,571.935974
761.280029,316.223999,569.984009
761.280029,327.936005,566.080017
771.039978,329.888000,568.031982
771.039978,324.032013,562.176025
763.231995,325.984009,566.080017
763.231995,325.984009,568.031982
757.375977,322.079987,566.080017
761.280029,320.127991,571.935974
763.231995,324.032013,554.367981
749.567993,320.127991,560.223999
763.231995,318.175995,560.223999
759.328003,320.127991,564.127991
755.424011,329.888000,550.463989
749.567993,325.984009,560.223999
747.616028,325.984009,556.320007
743.711975,316.223999,560.223999
751.520020,322.079987,554.367981
751.520020,327.936005,560.223999
755.424011,320.127991,552.416016
759.328003,318.175995,550.463989
755.424011,318.175995,558.271973
759.328003,316.223999,552.416016
757.375977,320.127991,554.367981
753.471985,324.032013,548.512024
757.375977,322.079987,552.416016
757.375977,318.175995,560.223999
759.328003,312.320007,556.320007
763.231995,312.320007,560.223999
763.231995,316.223999,566.080017
761.280029,312.320007,558.271973
761.280029,310.368011,562.176025
761.280029,310.368011,560.223999
772.992004,308.415985,554.367981
765.184021,314.272003,562.176025
767.135986,314.272003,568.031982
765.184021,310.368011,558.271973
769.088013,310.368011,571.935974
765.184021,314.272003,566.080017
769.088013,308.415985,568.031982
774.943970,312.320007,566.080017
774.943970,310.368011,571.935974
774.943970,304.511993,571.935974
778.848022,310.368011,566.080017
772.992004,304.511993,566.080017
776.895996,300.608002,569.984009
778.848022,306.463989,575.840027
776.895996,300.608002,575.840027
780.799988,302.559998,579.744019
776.895996,298.656006,569.984009
782.752014,292.799988,569.984009
784.703979,296.704010,573.888000
788.607971,306.463989,569.984009
784.703979,302.559998,571.935974
786.656006,310.368011,569.984009
790.559998,294.752014,571.935974
790.559998,292.799988,566.080017
794.463989,290.847992,577.791992
802.271973,292.799988,569.984009
792.512024,294.752014,575.840027
796.416016,294.752014,571.935974
796.416016,296.704010,571.935974
796.416016,288.895996,575.840027
788.607971,298.656006,583.648010
792.512024,298.656006,575.840027
792.512024,284.992004,573.888000
790.559998,288.895996,585.599976
798.367981,290.847992,577.791992
802.271973,292.799988,573.888000
792.512024,286.944000,577.791992
800.320007,281.088013,577.791992
798.367981,288.895996,581.695984
798.367981,281.088013,577.791992
794.463989,279.135986,581.695984
802.271973,292.799988,579.744019
794.463989,283.040009,581.695984
800.320007,290.847992,587.552002
800.320007,281.088013,583.648010
792.512024,284.992004,583.648010
790.559998,275.231995,587.552002
798.367981,284.992004,583.648010
796.416016,281.088013,587.552002
796.416016,275.231995,581.695984
800.320007,290.847992,591.455994
796.416016,284.992004,577.791992
800.320007,284.992004,587.552002
798.367981,284.992004,569.984009
790.559998,279.135986,581.695984
792.512024,281.088013,585.599976
790.559998,288.895996,579.744019
796.416016,279.135986,587.552002
794.463989,281.088013,585.599976
794.463989,290.847992,583.648010
794.463989,284.992004,577.791992
794.463989,284.992004,583.648010
790.559998,284.992004,569.984009
786.656006,286.944000,583.648010
782.752014,292.799988,579.744019
780.799988,294.752014,579.744019
780.799988,281.088013,583.648010
786.656006,284.992004,587.552002
784.703979,288.895996,583.648010
776.895996,294.752014,575.840027
782.752014,286.944000,573.888000
782.752014,290.847992,579.744019
782.752014,286.944000,579.744019
774.943970,281.088013,577.791992
776.895996,273.279999,577.791992
772.992004,283.040009,566.080017
771.039978,290.847992,566.080017
765.184021,288.895996,579.744019
771.039978,290.847992,571.935974
763.231995,286.944000,571.935974
759.328003,288.895996,571.935974
765.184021,292.799988,569.984009
761.280029,277.183990,569.984009
765.184021,283.040009,566.080017
763.231995,281.088013,562.176025
757.375977,283.040009,571.935974
761.280029,284.992004,571.935974
765.184021,283.040009,566.080017
767.135986,283.040009,569.984009
765.184021,284.992004,566.080017
765.184021,284.992004,566.080017
774.943970,281.088013,571.935974
771.039978,286.944000,573.888000
767.135986,279.135986,575.840027
767.135986,284.992004,581.695984
767.135986,273.279999,569.984009
759.328003,283.040009,566.080017
763.231995,288.895996,577.791992
765.184021,290.847992,577.791992
765.184021,286.944000,571.935974
765.184021,284.992004,575.840027
763.231995,288.895996,566.080017
759.328003,296.704010,571.935974
761.280029,290.847992,577.791992
771.039978,292.799988,573.888000
776.895996,290.847992,566.080017
765.184021,294.752014,573.888000
771.039978,284.992004,573.888000
763.231995,290.847992,571.935974
765.184021,302.559998,575.840027
771.039978,298.656006,562.176025
763.231995,294.752014,579.744019
771.039978,298.656006,573.888000
763.231995,288.895996,573.888000
763.231995,296.704010,575.840027
769.088013,300.608002,566.080017
765.184021,292.799988,573.888000
763.231995,294.752014,573.888000
765.184021,304.511993,571.935974
761.280029,294.752014,575.840027
767.135986,300.608002,575.840027
759.328003,290.847992,569.984009
757.375977,302.559998,573.888000
761.280029,302.559998,575.840027
759.328003,306.463989,569.984009
757.375977,294.752014,569.984009
757.375977,302.559998,573.888000
747.616028,306.463989,577.791992
749.567993,300.608002,571.935974
755.424011,302.559998,568.031982
757.375977,294.752014,566.080017
755.424011,292.799988,568.031982
755.424011,302.559998,568.031982
743.711975,296.704010,562.176025
743.711975,296.704010,562.176025
743.711975,296.704010,558.271973
743.711975,290.847992,558.271973
737.856018,290.847992,562.176025
741.760010,302.559998,560.223999
741.760010,296.704010,558.271973
737.856018,302.559998,556.320007
735.903992,302.559998,556.320007
728.096008,306.463989,560.223999
728.096008,308.415985,550.463989
728.096008,304.511993,552.416016
730.047974,300.608002,556.320007
730.047974,298.656006,558.271973
722.239990,312.320007,562.176025
733.952026,304.511993,564.127991
732.000000,308.415985,556.320007
728.096008,314.272003,562.176025
728.096008,296.704010,552.416016
730.047974,298.656006,560.223999
728.096008,312.320007,556.320007
722.239990,310.368011,556.320007
708.575989,302.559998,554.367981
718.335999,308.415985,548.512024
710.528015,298.656006,550.463989
718.335999,310.368011,550.463989
716.383972,312.320007,552.416016
712.479980,308.415985,552.416016
720.288025,306.463989,556.320007
718.335999,310.368011,542.656006
712.479980,318.175995,552.416016
716.383972,316.223999,546.559998
720.288025,325.984009,540.703979
704.671997,312.320007,544.607971
710.528015,308.415985,546.559998
712.479980,312.320007,546.559998
714.432007,308.415985,544.607971
706.624023,318.175995,546.559998
712.479980,308.415985,546.559998
712.479980,312.320007,544.607971
712.479980,329.888000,546.559998
710.528015,318.175995,538.752014
698.815979,314.272003,550.463989
702.719971,306.463989,550.463989
714.432007,312.320007,552.416016
710.528015,310.368011,546.559998
706.624023,300.608002,546.559998
710.528015,314.272003,554.367981
716.383972,310.368011,546.559998
710.528015,300.608002,542.656006
714.432007,304.511993,554.367981
712.479980,300.608002,546.559998
710.528015,298.656006,550.463989
714.432007,302.559998,552.416016
710.528015,306.463989,552.416016
702.719971,302.559998,554.367981
712.479980,296.704010,556.320007
712.479980,300.608002,552.416016
716.383972,302.559998,558.271973
718.335999,300.608002,552.416016
722.239990,308.415985,558.271973
714.432007,294.752014,556.320007
718.335999,294.752014,556.320007
714.432007,290.847992,558.271973
714.432007,302.559998,554.367981
720.288025,296.704010,554.367981
724.192017,300.608002,558.271973
726.143982,302.559998,568.031982
730.047974,302.559998,566.080017
735.903992,296.704010,562.176025
733.952026,298.656006,566.080017
733.952026,294.752014,566.080017
732.000000,290.847992,566.080017
733.952026,288.895996,566.080017
733.952026,292.799988,569.984009
733.952026,290.847992,569.984009
728.096008,292.799988,569.984009
728.096008,290.847992,571.935974
733.952026,284.992004,575.840027
739.807983,292.799988,566.080017
739.807983,296.704010,571.935974
739.807983,292.799988,575.840027
733.952026,284.992004,571.935974
735.903992,286.944000,564.127991
733.952026,292.799988,558.271973
732.000000,296.704010,566.080017
730.047974,286.944000,554.367981
732.000000,284.992004,566.080017
735.903992,288.895996,564.127991
728.096008,283.040009,568.031982
728.096008,284.992004,575.840027
730.047974,296.704010,562.176025
726.143982,298.656006,564.127991
730.047974,296.704010,571.935974
724.192017,294.752014,564.127991
722.239990,294.752014,569.984009
722.239990,290.847992,571.935974
724.192017,292.799988,564.127991
724.192017,288.895996,568.031982
728.096008,290.847992,571.935974
728.096008,284.992004,566.080017
722.239990,286.944000,568.031982
720.288025,290.847992,571.935974
728.096008,294.752014,566.080017
724.192017,284.992004,569.984009
722.239990,288.895996,568.031982
722.239990,294.752014,569.984009
718.335999,284.992004,568.031982
718.335999,283.040009,562.176025
722.239990,292.799988,571.935974
724.192017,288.895996,566.080017
718.335999,284.992004,562.176025
718.335999,292.799988,560.223999
718.335999,294.752014,560.223999
716.383972,284.992004,568.031982
720.288025,296.704010,560.223999
724.192017,294.752014,564.127991
718.335999,292.799988,554.367981
718.335999,296.704010,562.176025
710.528015,302.559998,558.271973
716.383972,292.799988,560.223999
716.383972,288.895996,550.463989
712.479980,284.992004,562.176025
710.528015,284.992004,564.127991
718.335999,288.895996,558.271973
720.288025,298.656006,554.367981
712.479980,294.752014,560.223999
716.383972,294.752014,556.320007
714.432007,288.895996,548.512024
708.575989,298.656006,556.320007
712.479980,302.559998,556.320007
718.335999,296.704010,558.271973
720.288025,296.704010,552.416016
724.192017,292.799988,556.320007
718.335999,296.704010,556.320007
722.239990,296.704010,550.463989
720.288025,292.799988,556.320007
728.096008,300.608002,560.223999
728.096008,296.704010,568.031982
726.143982,296.704010,566.080017
712.479980,296.704010,556.320007
714.432007,294.752014,556.320007
724.192017,306.463989,554.367981
726.143982,298.656006,554.367981
718.335999,288.895996,556.320007
726.143982,292.799988,560.223999
737.856018,300.608002,564.127991
741.760010,302.559998,560.223999
730.047974,290.847992,564.127991
735.903992,304.511993,566.080017
733.952026,296.704010,564.127991
739.807983,300.608002,568.031982
743.711975,302.559998,568.031982
735.903992,304.511993,568.031982
739.807983,300.608002,577.791992
743.711975,306.463989,577.791992
743.711975,308.415985,575.840027
737.856018,306.463989,571.935974
737.856018,308.415985,569.984009
747.616028,312.320007,571.935974
741.760010,308.415985,566.080017
747.616028,312.320007,571.935974
743.711975,314.272003,569.984009
739.807983,312.320007,569.984009
741.760010,314.272003,566.080017
739.807983,308.415985,562.176025
730.047974,300.608002,560.223999
743.711975,302.559998,560.223999
743.711975,292.799988,562.176025
737.856018,306.463989,556.320007
749.567993,302.559998,558.271973
751.520020,304.511993,560.223999
747.616028,296.704010,560.223999
741.760010,306.463989,560.223999
751.520020,304.511993,566.080017
753.471985,304.511993,564.127991
757.375977,304.511993,568.031982
761.280029,302.559998,575.840027
761.280029,298.656006,566.080017
761.280029,292.799988,566.080017
757.375977,304.511993,573.888000
763.231995,304.511993,569.984009
769.088013,300.608002,571.935974
759.328003,302.559998,579.744019
757.375977,302.559998,575.840027
769.088013,310.368011,569.984009
763.231995,308.415985,581.695984
763.231995,318.175995,581.695984
761.280029,304.511993,569.984009
763.231995,314.272003,575.840027
765.184021,314.272003,577.791992
767.135986,312.320007,571.935974
759.328003,314.272003,575.840027
761.280029,316.223999,571.935974
761.280029,308.415985,569.984009
759.328003,312.320007,568.031982
753.471985,310.368011,566.080017
753.471985,320.127991,568.031982
753.471985,325.984009,577.791992
759.328003,316.223999,583.648010
757.375977,304.511993,569.984009
759.328003,314.272003,571.935974
767.135986,314.272003,569.984009
755.424011,316.223999,569.984009
753.471985,320.127991,581.695984
751.520020,316.223999,568.031982
753.471985,320.127991,573.888000
757.375977,314.272003,575.840027
759.328003,320.127991,573.888000
757.375977,316.223999,573.888000
753.471985,318.175995,573.888000
749.567993,318.175995,573.888000
755.424011,312.320007,566.080017
751.520020,322.079987,571.935974
743.711975,312.320007,569.984009
743.711975,310.368011,566.080017
741.760010,324.032013,569.984009
753.471985,316.223999,571.935974
745.664001,318.175995,569.984009
741.760010,320.127991,573.888000
739.807983,324.032013,566.080017
739.807983,318.175995,568.031982
735.903992,314.272003,568.031982
739.807983,322.079987,568.031982
737.856018,322.079987,562.176025
739.807983,320.127991,569.984009
737.856018,320.127991,566.080017
730.047974,314.272003,569.984009
730.047974,316.223999,569.984009
743.711975,320.127991,568.031982
728.096008,304.511993,568.031982
728.096008,318.175995,569.984009
735.903992,318.175995,566.080017
724.192017,312.320007,575.840027
732.000000,318.175995,568.031982
732.000000,320.127991,571.935974
726.143982,316.223999,571.935974
733.952026,316.223999,566.080017
732.000000,306.463989,569.984009
724.192017,308.415985,579.744019
732.000000,300.608002,562.176025
732.000000,296.704010,571.935974
732.000000,308.415985,569.984009
726.143982,318.175995,564.127991
726.143982,310.368011,562.176025
728.096008,306.463989,568.031982
728.096008,302.559998,569.984009
726.143982,302.559998,569.984009
733.952026,300.608002,562.176025
726.143982,298.656006,554.367981
724.192017,294.752014,554.367981
726.143982,292.799988,566.080017
732.000000,306.463989,562.176025
718.335999,298.656006,558.271973
724.192017,300.608002,562.176025
722.239990,300.608002,571.935974
733.952026,300.608002,556.320007
722.239990,288.895996,568.031982
730.047974,298.656006,564.127991
737.856018,286.944000,566.080017
733.952026,292.799988,558.271973
730.047974,288.895996,564.127991
743.711975,288.895996,562.176025
737.856018,288.895996,566.080017
743.711975,290.847992,568.031982
743.711975,290.847992,568.031982
751.520020,283.040009,562.176025
745.664001,292.799988,568.031982
747.616028,284.992004,560.223999
741.760010,292.799988,568.031982
745.664001,300.608002,571.935974
741.760010,290.847992,569.984009
737.856018,294.752014,562.176025
747.616028,286.944000,568.031982
745.664001,284.992004,566.080017
755.424011,286.944000,562.176025
747.616028,290.847992,568.031982
751.520020,288.895996,568.031982
749.567993,286.944000,566.080017
753.471985,288.895996,566.080017
763.231995,292.799988,571.935974
755.424011,290.847992,566.080017
749.567993,290.847992,568.031982
757.375977,298.656006,566.080017
761.280029,294.752014,571.935974
761.280029,279.135986,571.935974
757.375977,283.040009,573.888000
759.328003,290.847992,575.840027
753.471985,286.944000,575.840027
765.184021,284.992004,575.840027
753.471985,284.992004,568.031982
759.328003,281.088013,560.223999
757.375977,290.847992,566.080017
765.184021,292.799988,568.031982
757.375977,286.944000,566.080017
757.375977,286.944000,566.080017
763.231995,290.847992,566.080017
755.424011,290.847992,564.127991
757.375977,286.944000,558.271973
759.328003,281.088013,562.176025
753.471985,281.088013,558.271973
755.424011,279.135986,554.367981
757.375977,286.944000,554.367981
755.424011,283.040009,550.463989
757.375977,283.040009,550.463989
759.328003,281.088013,560.223999
755.424011,269.376007,546.559998
753.471985,277.183990,554.367981
757.375977,269.376007,554.367981
755.424011,273.279999,538.752014
749.567993,281.088013,540.703979
753.471985,283.040009,552.416016
755.424011,279.135986,550.463989
753.471985,277.183990,556.320007
757.375977,286.944000,556.320007
757.375977,284.992004,546.559998
755.424011,273.279999,548.512024
749.567993,281.088013,548.512024
761.280029,275.231995,550.463989
765.184021,267.424011,556.320007
771.039978,265.471985,542.656006
774.943970,275.231995,554.367981
763.231995,279.135986,556.320007
765.184021,273.279999,562.176025
772.992004,275.231995,564.127991
771.039978,265.471985,560.223999
771.039978,271.328003,558.271973
771.039978,273.279999,558.271973
769.088013,275.231995,571.935974
761.280029,275.231995,573.888000
767.135986,277.183990,568.031982
761.280029,279.135986,562.176025
769.088013,277.183990,566.080017
769.088013,290.847992,568.031982
767.135986,290.847992,577.791992
759.328003,284.992004,564.127991
757.375977,288.895996,562.176025
757.375977,298.656006,566.080017
753.471985,298.656006,560.223999
761.280029,298.656006,554.367981
759.328003,290.847992,552.416016
759.328003,300.608002,560.223999
757.375977,296.704010,542.656006
757.375977,290.847992,544.607971
761.280029,304.511993,538.752014
749.567993,302.559998,538.752014
747.616028,298.656006,534.848022
743.711975,300.608002,544.607971
741.760010,298.656006,536.799988
741.760010,298.656006,542.656006
741.760010,298.656006,536.799988
741.760010,298.656006,527.039978
733.952026,298.656006,530.943970
732.000000,298.656006,521.184021
743.711975,302.559998,528.992004
735.903992,298.656006,527.039978
730.047974,306.463989,523.135986
733.952026,310.368011,532.895996
732.000000,318.175995,534.848022
739.807983,306.463989,534.848022
739.807983,314.272003,532.895996
724.192017,314.272003,538.752014
726.143982,310.368011,536.799988
733.952026,322.079987,534.848022
730.047974,320.127991,534.848022
728.096008,322.079987,542.656006
728.096008,318.175995,548.512024
732.000000,320.127991,546.559998
726.143982,322.079987,554.367981
733.952026,312.320007,550.463989
724.192017,314.272003,538.752014
718.335999,308.415985,538.752014
722.239990,304.511993,530.943970
724.192017,304.511993,542.656006
716.383972,306.463989,540.703979
708.575989,318.175995,538.752014
714.432007,304.511993,534.848022
714.432007,298.656006,538.752014
710.528015,298.656006,546.559998
712.479980,294.752014,536.799988
712.479980,300.608002,538.752014
710.528015,304.511993,534.848022
708.575989,308.415985,527.039978
704.671997,306.463989,527.039978
706.624023,304.511993,536.799988
704.671997,308.415985,538.752014
710.528015,304.511993,532.895996
708.575989,302.559998,534.848022
712.479980,300.608002,534.848022
708.575989,292.799988,530.943970
708.575989,300.608002,536.799988
718.335999,294.752014,530.943970
714.432007,288.895996,538.752014
716.383972,288.895996,536.799988
714.432007,284.992004,536.799988
710.528015,277.183990,532.895996
706.624023,281.088013,540.703979
718.335999,269.376007,544.607971
718.335999,273.279999,542.656006
714.432007,275.231995,542.656006
710.528015,279.135986,538.752014
716.383972,273.279999,540.703979
718.335999,273.279999,540.703979
706.624023,271.328003,544.607971
716.383972,277.183990,548.512024
712.479980,277.183990,542.656006
716.383972,279.135986,544.607971
720.288025,275.231995,548.512024
728.096008,259.615997,544.607971
726.143982,261.567993,554.367981
728.096008,263.519989,546.559998
718.335999,261.567993,554.367981
716.383972,265.471985,552.416016
728.096008,269.376007,556.320007
730.047974,249.856003,556.320007
726.143982,257.664001,558.271973
722.239990,265.471985,566.080017
730.047974,261.567993,566.080017
730.047974,261.567993,560.223999
722.239990,269.376007,560.223999
726.143982,259.615997,554.367981
724.192017,253.759995,558.271973
732.000000,253.759995,566.080017
726.143982,255.712006,560.223999
735.903992,255.712006,558.271973
730.047974,255.712006,560.223999
732.000000,245.951996,562.176025
728.096008,255.712006,556.320007
724.192017,255.712006,564.127991
724.192017,251.807999,556.320007
726.143982,261.567993,566.080017
732.000000,267.424011,562.176025
728.096008,257.664001,571.935974
732.000000,257.664001,558.271973
728.096008,261.567993,546.559998
724.192017,265.471985,556.320007
726.143982,269.376007,554.367981
726.143982,271.328003,562.176025
728.096008,263.519989,554.367981
722.239990,273.279999,556.320007
722.239990,279.135986,550.463989
724.192017,271.328003,542.656006
728.096008,271.328003,548.512024
720.288025,273.279999,556.320007
718.335999,269.376007,552.416016
724.192017,259.615997,550.463989
728.096008,261.567993,542.656006
724.192017,275.231995,544.607971
735.903992,265.471985,548.512024
724.192017,273.279999,542.656006
728.096008,271.328003,540.703979
724.192017,288.895996,536.799988
724.192017,283.040009,542.656006
726.143982,283.040009,542.656006
724.192017,284.992004,542.656006
724.192017,284.992004,536.799988
718.335999,283.040009,548.512024
728.096008,277.183990,536.799988
733.952026,296.704010,540.703979
728.096008,298.656006,546.559998
726.143982,290.847992,542.656006
730.047974,292.799988,546.559998
728.096008,302.559998,546.559998
732.000000,296.704010,542.656006
732.000000,294.752014,542.656006
730.047974,290.847992,546.559998
730.047974,288.895996,534.848022
732.000000,284.992004,544.607971
726.143982,288.895996,552.416016
732.000000,288.895996,546.559998
733.952026,300.608002,542.656006
732.000000,292.799988,534.848022
737.856018,294.752014,540.703979
739.807983,288.895996,542.656006
739.807983,296.704010,546.559998
739.807983,296.704010,542.656006
732.000000,304.511993,544.607971
728.096008,300.608002,536.799988
741.760010,306.463989,534.848022
733.952026,310.368011,528.992004
728.096008,296.704010,532.895996
741.760010,304.511993,532.895996
730.047974,298.656006,532.895996
741.760010,302.559998,532.895996
737.856018,298.656006,534.848022
749.567993,306.463989,546.559998
751.520020,300.608002,538.752014
747.616028,296.704010,536.799988
749.567993,306.463989,544.607971
749.567993,304.511993,544.607971
747.616028,304.511993,540.703979
749.567993,302.559998,538.752014
759.328003,306.463989,536.799988
757.375977,296.704010,538.752014
741.760010,298.656006,548.512024
747.616028,300.608002,544.607971
755.424011,300.608002,544.607971
763.231995,292.799988,534.848022
761.280029,290.847992,548.512024
763.231995,284.992004,544.607971
759.328003,290.847992,544.607971
765.184021,290.847992,540.703979
757.375977,296.704010,544.607971
767.135986,298.656006,544.607971
767.135986,302.559998,538.752014
769.088013,286.944000,550.463989
771.039978,294.752014,552.416016
772.992004,288.895996,542.656006
774.943970,300.608002,546.559998
765.184021,296.704010,554.367981
774.943970,296.704010,556.320007
769.088013,290.847992,548.512024
769.088013,300.608002,552.416016
772.992004,306.463989,552.416016
772.992004,298.656006,550.463989
765.184021,292.799988,538.752014
767.135986,300.608002,560.223999
772.992004,308.415985,546.559998
774.943970,310.368011,544.607971
774.943970,300.608002,542.656006
757.375977,302.559998,540.703979
761.280029,310.368011,542.656006
765.184021,314.272003,527.039978
757.375977,304.511993,534.848022
757.375977,300.608002,523.135986
753.471985,304.511993,528.992004
759.328003,312.320007,525.088013
757.375977,310.368011,515.328003
759.328003,304.511993,511.424011
757.375977,304.511993,517.280029
761.280029,314.272003,511.424011
757.375977,314.272003,513.375977
747.616028,296.704010,525.088013
759.328003,304.511993,519.231995
763.231995,304.511993,511.424011
761.280029,320.127991,521.184021
767.135986,304.511993,517.280029
757.375977,296.704010,511.424011
753.471985,294.752014,509.471985
753.471985,294.752014,515.328003
751.520020,290.847992,513.375977
753.471985,292.799988,515.328003
757.375977,296.704010,509.471985
753.471985,298.656006,507.519989
753.471985,292.799988,507.519989
755.424011,308.415985,507.519989
757.375977,314.272003,505.567993
769.088013,314.272003,507.519989
767.135986,306.463989,509.471985
767.135986,304.511993,505.567993
769.088013,322.079987,497.760010
757.375977,329.888000,493.855988
771.039978,314.272003,495.808014
767.135986,318.175995,491.903992
765.184021,322.079987,484.096008
771.039978,316.223999,484.096008
772.992004,316.223999,489.951996
776.895996,318.175995,486.048004
776.895996,320.127991,486.048004
778.848022,312.320007,476.287994
788.607971,302.559998,476.287994
794.463989,302.559998,472.384003
806.176025,300.608002,472.384003
810.080017,288.895996,476.287994
819.840027,298.656006,470.432007
831.552002,298.656006,472.384003
843.263977,302.559998,476.287994
837.408020,304.511993,482.144012
849.119995,314.272003,480.191986
829.599976,314.272003,476.287994
813.984009,329.888000,484.096008
810.080017,335.743988,486.048004
806.176025,308.415985,499.712006
806.176025,304.511993,501.664001
796.416016,337.696014,507.519989
780.799988,337.696014,511.424011
800.320007,286.944000,503.615997
796.416016,277.183990,525.088013
778.848022,304.511993,519.231995
778.848022,318.175995,528.992004
780.799988,283.040009,525.088013
774.943970,279.135986,528.992004
769.088013,316.223999,540.703979
759.328003,331.839996,525.088013
765.184021,310.368011,532.895996
765.184021,292.799988,521.184021
751.520020,324.032013,515.328003
739.807983,351.359985,521.184021
747.616028,343.552002,511.424011
759.328003,273.279999,501.664001
767.135986,281.088013,484.096008
774.943970,349.407990,489.951996
772.992004,320.127991,476.287994
772.992004,257.664001,470.432007
757.375977,273.279999,458.720001
761.280029,312.320007,448.959991
759.328003,325.984009,447.007996
757.375977,290.847992,441.152008
759.328003,283.040009,435.295990
755.424011,324.032013,431.391998
757.375977,337.696014,421.631989
755.424011,316.223999,421.631989
772.992004,329.888000,413.824005
772.992004,331.839996,413.824005
788.607971,351.359985,398.208008
790.559998,363.071991,398.208008
790.559998,357.216003,398.208008
798.367981,359.167999,400.160004
788.607971,392.351990,415.776001
788.607971,406.015991,407.967987
800.320007,376.735992,413.824005
792.512024,365.023987,425.536011
798.367981,366.976013,425.536011
798.367981,363.071991,445.056000
796.416016,339.648010,447.007996
802.271973,308.415985,441.152008
806.176025,290.847992,435.295990
810.080017,294.752014,443.104004
810.080017,269.376007,441.152008
821.791992,251.807999,450.911987
821.791992,238.143997,462.623993
823.744019,238.143997,456.768005
823.744019,251.807999,450.911987
827.648010,269.376007,470.432007
821.791992,269.376007,474.335999
823.744019,290.847992,486.048004
817.888000,310.368011,486.048004
829.599976,325.984009,489.951996
815.935974,349.407990,488.000000
819.840027,351.359985,491.903992
823.744019,361.119995,491.903992
819.840027,384.544006,497.760010
823.744019,382.592010,497.760010
823.744019,380.640015,495.808014
837.408020,384.544006,493.855988
815.935974,372.832001,489.951996
831.552002,372.832001,489.951996
823.744019,347.455994,491.903992
827.648010,325.984009,484.096008
823.744019,322.079987,497.760010
831.552002,308.415985,488.000000
823.744019,292.799988,489.951996
831.552002,275.231995,488.000000
827.648010,275.231995,501.664001
827.648010,259.615997,501.664001
823.744019,267.424011,501.664001
827.648010,271.328003,501.664001
827.648010,275.231995,499.712006
829.599976,265.471985,503.615997
829.599976,290.847992,507.519989
835.455994,294.752014,507.519989
833.504028,302.559998,499.712006
835.455994,310.368011,491.903992
841.312012,302.559998,495.808014
835.455994,318.175995,499.712006
835.455994,329.888000,505.567993
841.312012,324.032013,497.760010
841.312012,325.984009,488.000000
841.312012,320.127991,488.000000
853.023987,316.223999,484.096008
845.216003,288.895996,488.000000
858.880005,279.135986,488.000000
847.168030,279.135986,493.855988
849.119995,263.519989,486.048004
851.072021,247.904007,489.951996
847.168030,234.240005,482.144012
849.119995,240.095993,476.287994
845.216003,218.623993,474.335999
843.263977,218.623993,472.384003
854.976013,216.671997,476.287994
845.216003,220.576004,466.528015
843.263977,212.768005,476.287994
835.455994,210.815994,470.432007
847.168030,214.720001,464.575989
839.359985,210.815994,472.384003
845.216003,208.863998,478.239990
843.263977,214.720001,472.384003
849.119995,214.720001,478.239990
853.023987,218.623993,474.335999
839.359985,224.479996,476.287994
843.263977,203.007996,474.335999
849.119995,204.960007,466.528015
853.023987,199.104004,476.287994
856.927979,203.007996,478.239990
856.927979,201.056000,478.239990
847.168030,195.199997,478.239990
854.976013,189.343994,482.144012
849.119995,191.296005,488.000000
841.312012,189.343994,497.760010
849.119995,185.440002,509.471985
851.072021,181.535995,517.280029
847.168030,169.824005,515.328003
858.880005,177.632004,521.184021
853.023987,165.919998,515.328003
847.168030,165.919998,515.328003
847.168030,160.063995,523.135986
849.119995,154.207993,527.039978
847.168030,156.160004,527.039978
849.119995,173.727997,528.992004
843.263977,169.824005,530.943970
841.312012,163.968002,536.799988
847.168030,162.016006,536.799988
841.312012,165.919998,532.895996
851.072021,158.112000,538.752014
841.312012,160.063995,530.943970
837.408020,150.304001,542.656006
841.312012,142.496002,544.607971
847.168030,148.352005,550.463989
849.119995,146.399994,538.752014
837.408020,150.304001,540.703979
841.312012,150.304001,540.703979
831.552002,128.832001,527.039978
831.552002,134.688004,525.088013
821.791992,140.544006,521.184021
831.552002,122.975998,513.375977
821.791992,124.928001,525.088013
823.744019,130.783997,521.184021
817.888000,128.832001,517.280029
825.695984,124.928001,517.280029
813.984009,126.879997,503.615997
821.791992,134.688004,509.471985
819.840027,136.639999,503.615997
802.271973,136.639999,509.471985
804.223999,140.544006,503.615997
810.080017,140.544006,497.760010
802.271973,142.496002,484.096008
794.463989,156.160004,486.048004
794.463989,165.919998,476.287994
788.607971,160.063995,480.191986
780.799988,156.160004,482.144012
782.752014,169.824005,466.528015
782.752014,179.584000,460.671997
776.895996,171.776001,460.671997
784.703979,177.632004,452.864014
774.943970,175.679993,448.959991
778.848022,185.440002,447.007996
771.039978,185.440002,433.343994
761.280029,189.343994,421.631989
759.328003,187.391998,431.391998
757.375977,195.199997,419.679993
751.520020,197.151993,407.967987
753.471985,193.248001,404.063995
749.567993,208.863998,394.303986
749.567993,204.960007,388.447998
745.664001,195.199997,380.640015
753.471985,210.815994,376.735992
739.807983,214.720001,376.735992
733.952026,206.912003,372.832001
735.903992,218.623993,376.735992
724.192017,214.720001,361.119995
728.096008,203.007996,361.119995
722.239990,193.248001,343.552002
724.192017,189.343994,331.839996
710.528015,175.679993,337.696014
700.768005,158.112000,314.272003
710.528015,146.399994,314.272003
716.383972,136.639999,294.752014
706.624023,119.071999,290.847992
704.671997,115.167999,288.895996
698.815979,74.176003,283.040009
687.104004,64.416000,273.279999
712.479980,60.512001,261.567993
689.056030,25.375999,251.807999
683.200012,-3.904000,234.240005
687.104004,-11.712000,222.528000
694.911987,-11.712000,208.863998
673.440002,-3.904000,197.151993
669.536011,9.760000,197.151993
655.872009,7.808000,193.248001
650.015991,3.904000,185.440002
651.968018,15.616000,173.727997
648.064026,15.616000,156.160004
648.064026,9.760000,156.160004
653.919983,-7.808000,142.496002
638.304016,5.856000,150.304001
648.064026,29.280001,148.352005
646.112000,23.424000,154.207993
642.208008,5.856000,140.544006
632.447998,9.760000,132.735992
622.687988,23.424000,136.639999
593.408020,99.552002,253.759995
568.031982,-7.808000,398.208008
324.032013,9.760000,445.056000
817.888000,-109.311996,384.544006
782.752014,-470.432007,353.312012
763.231995,-197.151993,501.664001
835.455994,148.352005,745.664001
813.984009,15.616000,790.559998
884.255981,-445.056000,704.671997
880.351990,-380.640015,679.296021
778.848022,-214.720001,653.919983
769.088013,-331.839996,530.943970
774.943970,-550.463989,447.007996
733.952026,-620.736023,404.063995
720.288025,-228.384003,341.600006
710.528015,314.272003,271.328003
741.760010,212.768005,214.720001
753.471985,-50.751999,214.720001
730.047974,238.143997,218.623993
689.056030,491.903992,212.768005
698.815979,349.407990,193.248001
726.143982,271.328003,167.871994
724.192017,394.303986,173.727997
704.671997,448.959991,181.535995
718.335999,435.295990,167.871994
743.711975,439.200012,146.399994
745.664001,484.096008,113.216003
743.711975,472.384003,70.272003
726.143982,423.584015,40.992001
718.335999,411.872009,11.712000
716.383972,366.976013,-13.664000
700.768005,257.664001,-31.232000
692.960022,-107.360001,-27.327999
737.856018,-503.615997,5.856000
763.231995,-698.815979,58.560001
784.703979,-683.200012,101.503998
806.176025,-448.959991,113.216003
812.031982,-91.744003,146.399994
804.223999,216.671997,152.255997
802.271973,411.872009,144.447998
806.176025,443.104004,128.832001
804.223999,324.032013,122.975998
821.791992,144.447998,107.360001
835.455994,40.992001,101.503998
845.216003,25.375999,113.216003
856.927979,107.360001,97.599998
854.976013,230.335999,85.888000
905.728027,150.304001,81.984001
864.736023,-284.992004,117.120003
866.687988,-482.144012,189.343994
868.640015,-68.320000,251.807999
876.447998,534.848022,298.656006
935.007996,964.288025,324.032013
942.815979,958.432007,341.600006
1028.703979,505.567993,335.743988
1085.312012,-189.343994,347.455994
1079.456055,-720.288025,384.544006
1073.599976,-815.935974,417.727997
1069.696045,-398.208008,437.247986
1106.784058,294.752014,445.056000
1077.504028,759.328003,443.104004
1057.984009,716.383972,448.959991
1057.984009,329.888000,433.343994
1011.135986,-52.703999,437.247986
1036.511963,-259.615997,400.160004
1046.271973,-189.343994,402.112000
1056.031982,21.472000,402.112000
1057.984009,288.895996,404.063995
1069.696045,409.920013,392.351990
1079.456055,357.216003,398.208008
1083.359985,214.720001,390.399994
1081.407959,52.703999,382.592010
1073.599976,-17.568001,382.592010
1118.495972,150.304001,374.783997
1110.687988,628.544006,437.247986
1106.784058,856.927979,521.184021
1083.359985,776.895996,575.840027
1114.592041,460.671997,605.119995
1153.631958,-9.760000,622.687988
1157.536011,-398.208008,624.640015
1163.391968,-417.727997,618.783997
1159.488037,-105.407997,626.591980
1157.536011,138.591995,636.351990
1114.592041,210.815994,661.728027
1112.640015,283.040009,683.200012
1130.208008,333.791992,691.007996
1114.592041,245.951996,683.200012
1149.728027,138.591995,685.151978
1159.488037,44.896000,667.583984
1143.871948,-5.856000,632.447998
1138.015991,0.000000,583.648010
1110.687988,89.792000,558.271973
1085.312012,232.287994,523.135986
1083.359985,331.839996,489.951996
1061.887939,390.399994,460.671997
1056.031982,392.351990,439.200012
1054.079956,349.407990,427.488007
1059.936035,253.759995,417.727997
1044.319946,179.584000,406.015991
1038.463989,162.016006,378.687988
1032.608032,206.912003,376.735992
1007.231995,296.704010,361.119995
979.903992,388.447998,343.552002
972.096008,419.679993,325.984009
958.432007,378.687988,312.320007
948.671997,325.984009,298.656006
952.575989,283.040009,283.040009
948.671997,249.856003,271.328003
938.911987,255.712006,259.615997
931.104004,269.376007,222.528000
921.343994,245.951996,208.863998
899.872009,201.056000,181.535995
892.064026,126.879997,167.871994
876.447998,37.088001,138.591995
858.880005,-5.856000,74.176003
845.216003,-15.616000,15.616000
819.840027,-25.375999,-21.472000
780.799988,3.904000,-62.464001
761.280029,33.183998,-93.695999
757.375977,27.327999,-107.360001
772.992004,-13.664000,-117.120003
763.231995,-25.375999,-138.591995
767.135986,-11.712000,-169.824005
763.231995,50.751999,-193.248001
765.184021,128.832001,-222.528000
732.000000,253.759995,-234.240005
728.096008,312.320007,-234.240005
726.143982,324.032013,-195.199997
741.760010,314.272003,-154.207993
749.567993,204.960007,-113.216003
780.799988,39.040001,-103.456001
798.367981,-107.360001,-111.264000
784.703979,-240.095993,-152.255997
765.184021,-318.175995,-183.488007
737.856018,-456.768005,-216.671997
728.096008,-591.455994,-203.007996
722.239990,-495.808014,-158.112000
722.239990,-111.264000,-128.832001
739.807983,314.272003,-109.311996
767.135986,538.752014,-121.024002
788.607971,560.223999,-126.879997
771.039978,450.911987,-150.304001
767.135986,247.904007,-189.343994
772.992004,158.112000,-236.192001
784.703979,199.104004,-275.231995
790.559998,331.839996,-320.127991
810.080017,404.063995,-374.783997
802.271973,347.455994,-419.679993
810.080017,160.063995,-456.768005
769.088013,31.232000,-505.567993
745.664001,-58.560001,-534.848022
735.903992,-17.568001,-509.471985
704.671997,228.384003,-445.056000
710.528015,359.167999,-384.544006
759.328003,185.440002,-325.984009
810.080017,-167.871994,-288.895996
886.208008,-488.000000,-320.127991
936.960022,-704.671997,-335.743988
935.007996,-890.112000,-286.944000
938.911987,-743.711975,-257.664001
899.872009,-327.936005,-251.807999
913.536011,160.063995,-263.519989
938.911987,601.216003,-298.656006
938.911987,888.159973,-343.552002
894.015991,882.304016,-390.399994
942.815979,681.247986,-486.048004
915.487976,341.600006,-546.559998
921.343994,19.520000,-607.072021
936.960022,-214.720001,-638.304016
858.880005,-429.440002,-513.375977
759.328003,-255.712006,-325.984009
790.559998,443.104004,-206.912003
931.104004,960.383972,-140.544006
1093.119995,1106.784058,-124.928001
1188.767944,689.056030,-107.360001
1171.199951,-27.327999,-109.311996
1139.968018,-716.383972,-142.496002
1089.215942,-1005.280029,-201.056000
987.711975,-776.895996,-325.984009
929.151978,222.528000,-456.768005
903.776001,1374.208008,-370.880005
1059.936035,2315.072021,-154.207993
1223.904053,2697.664062,17.568001
1173.151978,2326.783936,74.176003
1104.832031,275.231995,46.848000
1290.271973,-1994.943970,-85.888000
1440.576050,-2951.424072,-218.623993
1389.823975,-2248.704102,-251.807999
1239.520020,-368.928009,-236.192001
1169.248047,1251.232056,-236.192001
1280.511963,1477.663940,-290.847992
1303.936035,1036.511963,-203.007996
1177.056030,726.143982,-37.088001
1161.439941,812.031982,62.464001
1136.063965,644.159973,124.928001
1167.296021,27.327999,138.591995
1321.504028,-521.184021,40.992001
1296.128052,-743.711975,-27.327999
1325.407959,-566.080017,-126.879997
1323.456055,11.712000,-158.112000
1292.223999,667.583984,-187.391998
1272.703979,923.296021,-206.912003
1301.984009,689.056030,-273.279999
1300.031982,146.399994,-292.799988
1339.072021,-450.911987,-292.799988
1331.264038,-599.263977,-216.671997
1266.848022,-136.639999,-91.744003
1223.904053,439.200012,-11.712000
1192.671997,772.992004,-35.136002
1198.527954,780.799988,-87.839996
1218.047974,435.295990,-177.632004
1247.328003,-1.952000,-242.048004
1278.560059,-308.415985,-304.511993
1292.223999,-316.223999,-333.791992
1305.887939,-29.280001,-366.976013
1292.223999,351.359985,-411.872009
1274.656006,640.255981,-478.239990
1305.887939,765.184021,-532.895996
1270.751953,648.064026,-509.471985
1307.839966,251.807999,-427.488007
1411.296021,46.848000,-230.335999
1481.567993,279.135986,44.896000
1618.208008,493.855988,318.175995
1795.839966,458.720001,673.440002
2395.104004,-382.592010,1868.063965
4044.543945,-2740.607910,5545.631836
5631.520020,-4003.552002,8606.368164
6100.000000,-1981.280029,7837.279785
5344.576172,206.912003,4883.903809
3980.127930,810.080017,2264.320068
2352.159912,831.552002,423.584015
1173.151978,1218.047974,-1136.063965
495.808014,1495.232056,-2112.063965
138.591995,1581.119995,-2436.095947
85.888000,1788.031982,-2512.224121
163.968002,1955.904053,-2352.159912
402.112000,1994.943970,-1866.112061
806.176025,1813.407959,-1089.215942
1346.880005,1327.359985,-115.167999
1965.663940,741.760010,843.263977
2441.951904,302.559998,1503.040039
2574.687988,140.544006,1647.488037
2477.087891,216.671997,1282.463989
2277.983887,413.824005,708.575989
1948.095947,472.384003,191.296005
1649.439941,575.840027,-152.255997
1372.255981,722.239990,-351.359985
1179.008057,837.408020,-466.528015
1011.135986,911.583984,-519.231995
933.056030,888.159973,-501.664001
895.968018,823.744019,-491.903992
878.400024,663.679993,-478.239990
905.728027,462.623993,-482.144012
880.351990,87.839996,-425.536011
970.143982,-851.072021,-366.976013
1130.208008,-1397.631958,-394.303986
1208.287964,-1403.488037,-433.343994
1251.232056,-1239.520020,-398.208008
1323.456055,-806.176025,-244.000000
1399.583984,-376.735992,-35.136002
1462.047974,-91.744003,117.120003
1440.576050,222.528000,158.112000
1327.359985,528.992004,76.127998
1182.911987,759.328003,-70.272003
1087.264038,774.943970,-189.343994
1040.416016,739.807983,-244.000000
995.520020,607.072021,-244.000000
997.471985,527.039978,-242.048004
1034.560059,521.184021,-177.632004
1083.359985,187.391998,-85.888000
1069.696045,-339.648010,-44.896000
960.383972,-655.872009,-210.815994
890.112000,-769.088013,-413.824005
860.831970,-895.968018,-499.712006
899.872009,-892.064026,-460.671997
901.823975,-587.552002,-286.944000
1011.135986,42.944000,-93.695999
1112.640015,488.000000,113.216003
1223.904053,835.455994,214.720001
1251.232056,1110.687988,187.391998
1225.855957,1220.000000,105.407997
1202.432007,1192.671997,15.616000
1186.816040,995.520020,-5.856000
1167.296021,667.583984,-5.856000
1157.536011,308.415985,-9.760000
1118.495972,31.232000,-39.040001
1079.456055,-187.391998,-74.176003
1046.271973,-298.656006,-91.744003
1013.088013,-302.559998,-117.120003
997.471985,-177.632004,-140.544006
995.520020,-9.760000,-119.071999
1038.463989,134.688004,-76.127998
1052.128052,286.944000,-21.472000
1081.407959,357.216003,15.616000
1114.592041,404.063995,15.616000
1134.112061,382.592010,-3.904000
1132.160034,240.095993,-15.616000
1138.015991,76.127998,-21.472000
1104.832031,-66.367996,-50.751999
1054.079956,-142.496002,-85.888000
1054.079956,-212.768005,-117.120003
1032.608032,-304.511993,-126.879997
1018.943970,-310.368011,-142.496002
999.424011,-181.535995,-132.735992
1007.231995,-56.608002,-78.080002
1040.416016,29.280001,-17.568001
1077.504028,107.360001,19.520000
1098.975952,163.968002,33.183998
1116.543945,165.919998,39.040001
1122.400024,177.632004,15.616000
1114.592041,165.919998,-7.808000
1114.592041,113.216003,-15.616000
1100.927979,62.464001,-29.280001
1085.312012,33.183998,-25.375999
1083.359985,1.952000,-35.136002
1093.119995,-19.520000,-39.040001
1095.072021,-9.760000,-37.088001
1089.215942,13.664000,-39.040001
1085.312012,35.136002,-33.183998
1091.167969,54.655998,-35.136002
1110.687988,54.655998,-44.896000
1108.735962,39.040001,-56.608002
1108.735962,25.375999,-60.512001
1106.784058,7.808000,-80.031998
1098.975952,-1.952000,-95.648003
1087.264038,17.568001,-107.360001
1085.312012,17.568001,-115.167999
1081.407959,17.568001,-122.975998
1087.264038,9.760000,-124.928001
1083.359985,-5.856000,-132.735992
1091.167969,3.904000,-130.783997
1093.119995,-1.952000,-144.447998
1091.167969,13.664000,-158.112000
1098.975952,19.520000,-179.584000
1095.072021,0.000000,-193.248001
1087.264038,11.712000,-191.296005
1089.215942,29.280001,-162.016006
1091.167969,21.472000,-150.304001
1100.927979,23.424000,-136.639999
1102.880005,27.327999,-128.832001
1098.975952,35.136002,-126.879997
1100.927979,33.183998,-156.160004
1091.167969,15.616000,-156.160004
1093.119995,17.568001,-160.063995
1093.119995,29.280001,-177.632004
1093.119995,27.327999,-208.863998
1087.264038,42.944000,-181.535995
1106.784058,48.799999,-158.112000
1110.687988,44.896000,-128.832001
1118.495972,46.848000,-128.832001
1110.687988,48.799999,-138.591995
1098.975952,46.848000,-167.871994
1098.975952,48.799999,-193.248001
1091.167969,42.944000,-191.296005
1091.167969,46.848000,-179.584000
1106.784058,37.088001,-154.207993
1118.495972,46.848000,-138.591995
1124.352051,42.944000,-163.968002
1120.447998,56.608002,-163.968002
1104.832031,81.984001,-156.160004
1104.832031,97.599998,-142.496002
1102.880005,81.984001,-128.832001
1118.495972,66.367996,-136.639999
1116.543945,54.655998,-128.832001
1112.640015,54.655998,-121.024002
1104.832031,58.560001,-124.928001
1102.880005,62.464001,-136.639999
1102.880005,72.223999,-140.544006
1095.072021,85.888000,-163.968002
1091.167969,93.695999,-163.968002
1077.504028,103.456001,-146.399994
1081.407959,95.648003,-144.447998
1091.167969,76.127998,-121.024002
1091.167969,64.416000,-119.071999
1095.072021,54.655998,-136.639999
1071.647949,72.223999,-160.063995
1077.504028,74.176003,-163.968002
1079.456055,85.888000,-130.783997
1085.312012,91.744003,-144.447998
1079.456055,62.464001,-146.399994
1073.599976,58.560001,-136.639999
1093.119995,60.512001,-142.496002
1075.552002,50.751999,-156.160004
1063.839966,68.320000,-167.871994
1059.936035,76.127998,-199.104004
1054.079956,70.272003,-179.584000
1071.647949,64.416000,-156.160004
1091.167969,54.655998,-134.688004
1083.359985,60.512001,-140.544006
1073.599976,76.127998,-167.871994
1069.696045,72.223999,-189.343994
1059.936035,74.176003,-173.727997
1069.696045,74.176003,-162.016006
1061.887939,81.984001,-171.776001
1065.791992,83.935997,-193.248001
1065.791992,85.888000,-189.343994
1075.552002,66.367996,-165.919998
1065.791992,42.944000,-144.447998
1075.552002,29.280001,-138.591995
1067.744019,29.280001,-152.255997
1057.984009,33.183998,-156.160004
1056.031982,40.992001,-156.160004
1046.271973,52.703999,-162.016006
1038.463989,76.127998,-185.440002
1032.608032,83.935997,-197.151993
1040.416016,83.935997,-183.488007
1054.079956,80.031998,-162.016006
1065.791992,66.367996,-146.399994
1065.791992,58.560001,-154.207993
1056.031982,54.655998,-185.440002
1024.800049,56.608002,-185.440002
1020.895996,27.327999,-185.440002
995.520020,25.375999,-191.296005
979.903992,27.327999,-203.007996
970.143982,11.712000,-212.768005
968.192017,9.760000,-199.104004
972.096008,11.712000,-199.104004
995.520020,5.856000,-195.199997
1005.280029,21.472000,-165.919998
1003.328003,7.808000,-136.639999
995.520020,-1.952000,-111.264000
991.616028,-56.608002,-109.311996
995.520020,-97.599998,-142.496002
989.664001,-113.216003,-163.968002
993.567993,-107.360001,-181.535995
993.567993,-64.416000,-187.391998
1005.280029,-25.375999,-175.679993
1005.280029,-29.280001,-162.016006
1022.848022,-78.080002,-152.255997
1022.848022,-109.311996,-158.112000
1015.039978,-142.496002,-163.968002
1007.231995,-175.679993,-173.727997
997.471985,-189.343994,-216.671997
1003.328003,-146.399994,-228.384003
1016.992004,-113.216003,-230.335999
1020.895996,-72.223999,-242.048004
1024.800049,-23.424000,-245.951996
1013.088013,-3.904000,-263.519989
1011.135986,-19.520000,-286.944000
1011.135986,-19.520000,-312.320007
1034.560059,-27.327999,-310.368011
1038.463989,-17.568001,-316.223999
1052.128052,5.856000,-312.320007
1054.079956,40.992001,-314.272003
1063.839966,72.223999,-310.368011
1065.791992,103.456001,-322.079987
1067.744019,140.544006,-331.839996
1065.791992,158.112000,-322.079987
1075.552002,175.679993,-302.559998
1093.119995,199.104004,-304.511993
1114.592041,197.151993,-283.040009
1120.447998,210.815994,-271.328003
1134.112061,232.287994,-261.567993
1145.823975,249.856003,-247.904007
1151.680054,263.519989,-244.000000
1147.776001,302.559998,-242.048004
1177.056030,357.216003,-249.856003
1182.911987,341.600006,-230.335999
1182.911987,304.511993,-218.623993
1177.056030,261.567993,-234.240005
1173.151978,218.623993,-251.807999
1167.296021,193.248001,-251.807999
1171.199951,187.391998,-244.000000
1177.056030,191.296005,-245.951996
1163.391968,203.007996,-247.904007
1149.728027,218.623993,-265.471985
1155.583984,222.528000,-257.664001
1155.583984,212.768005,-271.328003
1145.823975,193.248001,-273.279999
1153.631958,177.632004,-259.615997
1151.680054,158.112000,-281.088013
1145.823975,156.160004,-283.040009
1139.968018,167.871994,-290.847992
1149.728027,183.488007,-302.559998
1143.871948,187.391998,-300.608002
1143.871948,193.248001,-300.608002
1145.823975,181.535995,-302.559998
1147.776001,167.871994,-308.415985
1155.583984,165.919998,-314.272003
1165.343994,173.727997,-312.320007
1165.343994,189.343994,-292.799988
1153.631958,203.007996,-314.272003
1157.536011,195.199997,-312.320007
1149.728027,203.007996,-312.320007
1167.296021,210.815994,-318.175995
1173.151978,206.912003,-310.368011
1180.959961,214.720001,-302.559998
1179.008057,214.720001,-302.559998
1175.104004,232.287994,-310.368011
1179.008057,242.048004,-310.368011
1171.199951,240.095993,-310.368011
1179.008057,228.384003,-306.463989
1196.576050,218.623993,-306.463989
1188.767944,242.048004,-296.704010
1186.816040,257.664001,-290.847992
1184.864014,253.759995,-314.272003
1175.104004,259.615997,-310.368011
1190.719971,261.567993,-302.559998
1200.479980,265.471985,-302.559998
1194.624023,245.951996,-298.656006
1186.816040,240.095993,-300.608002
1175.104004,234.240005,-316.223999
1180.959961,236.192001,-310.368011
1179.008057,236.192001,-298.656006
1190.719971,245.951996,-283.040009
1186.816040,249.856003,-288.895996
1190.719971,253.759995,-296.704010
1186.816040,259.615997,-283.040009
1173.151978,267.424011,-290.847992
1179.008057,249.856003,-294.752014
1177.056030,249.856003,-286.944000
1177.056030,245.951996,-284.992004
1188.767944,251.807999,-283.040009
1182.911987,251.807999,-284.992004
1180.959961,247.904007,-271.328003
1169.248047,251.807999,-286.944000
1165.343994,261.567993,-294.752014
1159.488037,257.664001,-298.656006
1155.583984,226.432007,-300.608002
1169.248047,238.143997,-300.608002
1159.488037,244.000000,-284.992004
1159.488037,247.904007,-281.088013
1155.583984,263.519989,-286.944000
1169.248047,277.183990,-300.608002
1165.343994,271.328003,-294.752014
1151.680054,261.567993,-292.799988
1157.536011,263.519989,-290.847992
1167.296021,255.712006,-284.992004
1159.488037,271.328003,-288.895996
1165.343994,273.279999,-281.088013
1155.583984,255.712006,-288.895996
1155.583984,253.759995,-286.944000
1157.536011,251.807999,-284.992004
1161.439941,263.519989,-279.135986
1155.583984,255.712006,-269.376007
1153.631958,263.519989,-275.231995
1157.536011,265.471985,-269.376007
1145.823975,261.567993,-277.183990
1153.631958,265.471985,-281.088013
1139.968018,257.664001,-275.231995
1128.255981,263.519989,-273.279999
1141.920044,265.471985,-263.519989
1143.871948,255.712006,-265.471985
1132.160034,251.807999,-255.712006
1136.063965,251.807999,-261.567993
1124.352051,259.615997,-277.183990
1124.352051,245.951996,-269.376007
1130.208008,240.095993,-267.424011
1116.543945,224.479996,-265.471985
1126.303955,232.287994,-259.615997
1120.447998,228.384003,-257.664001
1112.640015,236.192001,-259.615997
1110.687988,238.143997,-271.328003
1106.784058,234.240005,-269.376007
1097.024048,222.528000,-267.424011
1097.024048,218.623993,-267.424011
1095.072021,222.528000,-259.615997
1081.407959,210.815994,-259.615997
1087.264038,206.912003,-271.328003
1081.407959,212.768005,-263.519989
1083.359985,204.960007,-273.279999
1087.264038,208.863998,-281.088013
1079.456055,214.720001,-269.376007
1073.599976,204.960007,-265.471985
1071.647949,201.056000,-271.328003
1069.696045,204.960007,-277.183990
1071.647949,191.296005,-265.471985
1065.791992,199.104004,-265.471985
1059.936035,208.863998,-267.424011
1050.176025,185.440002,-265.471985
1050.176025,187.391998,-269.376007
1050.176025,187.391998,-265.471985
1056.031982,173.727997,-265.471985
1057.984009,173.727997,-265.471985
1050.176025,171.776001,-249.856003
1048.223999,169.824005,-253.759995
1046.271973,167.871994,-263.519989
1046.271973,167.871994,-263.519989
1044.319946,150.304001,-247.904007
1042.368042,144.447998,-245.951996
1042.368042,140.544006,-242.048004
1038.463989,136.639999,-245.951996
1038.463989,144.447998,-247.904007
1032.608032,136.639999,-261.567993
1034.560059,154.207993,-247.904007
1038.463989,134.688004,-247.904007
1034.560059,132.735992,-236.192001
1032.608032,126.879997,-245.951996
1030.656006,121.024002,-240.095993
1028.703979,124.928001,-238.143997
1024.800049,119.071999,-245.951996
1024.800049,117.120003,-234.240005
1028.703979,113.216003,-242.048004
1022.848022,109.311996,-245.951996
1040.416016,103.456001,-238.143997
1026.751953,105.407997,-230.335999
1028.703979,105.407997,-230.335999
1018.943970,101.503998,-245.951996
1026.751953,101.503998,-232.287994
1020.895996,87.839996,-249.856003
1020.895996,93.695999,-242.048004
1028.703979,89.792000,-240.095993
1024.800049,93.695999,-240.095993
1020.895996,83.935997,-245.951996
1011.135986,85.888000,-242.048004
1020.895996,78.080002,-247.904007
1007.231995,83.935997,-234.240005
1007.231995,74.176003,-226.432007
1009.184021,83.935997,-228.384003
1009.184021,72.223999,-238.143997
1003.328003,66.367996,-228.384003
1007.231995,64.416000,-238.143997
1005.280029,66.367996,-236.192001
995.520020,62.464001,-236.192001
1003.328003,58.560001,-228.384003
1005.280029,56.608002,-232.287994
1009.184021,42.944000,-228.384003
1003.328003,50.751999,-224.479996
1001.375977,52.703999,-234.240005
1001.375977,40.992001,-236.192001
999.424011,39.040001,-245.951996
995.520020,33.183998,-240.095993
995.520020,33.183998,-228.384003
995.520020,33.183998,-216.671997
1003.328003,31.232000,-218.623993
997.471985,29.280001,-236.192001
991.616028,11.712000,-236.192001
989.664001,15.616000,-228.384003
997.471985,21.472000,-230.335999
997.471985,3.904000,-224.479996
991.616028,5.856000,-232.287994
993.567993,7.808000,-236.192001
997.471985,13.664000,-224.479996
1003.328003,0.000000,-222.528000
991.616028,1.952000,-220.576004
995.520020,-7.808000,-214.720001
989.664001,-7.808000,-214.720001
989.664001,0.000000,-218.623993
997.471985,-9.760000,-220.576004
997.471985,1.952000,-226.432007
997.471985,-1.952000,-214.720001
1001.375977,-9.760000,-212.768005
991.616028,-11.712000,-210.815994
993.567993,-13.664000,-212.768005
993.567993,-7.808000,-214.720001
985.760010,-19.520000,-216.671997
985.760010,-21.472000,-218.623993
981.856018,-17.568001,-208.863998
983.807983,-15.616000,-216.671997
979.903992,-17.568001,-210.815994
970.143982,-25.375999,-201.056000
989.664001,-23.424000,-208.863998
972.096008,-17.568001,-206.912003
972.096008,-7.808000,-206.912003
968.192017,-27.327999,-218.623993
964.288025,-27.327999,-226.432007
960.383972,-13.664000,-224.479996
966.239990,-23.424000,-222.528000
968.192017,-25.375999,-218.623993
968.192017,-19.520000,-216.671997
966.239990,-19.520000,-222.528000
964.288025,-25.375999,-214.720001
976.000000,-11.712000,-218.623993
970.143982,-11.712000,-218.623993
962.335999,-15.616000,-212.768005
966.239990,-23.424000,-220.576004
952.575989,-23.424000,-224.479996
962.335999,-21.472000,-212.768005
968.192017,-23.424000,-212.768005
964.288025,-27.327999,-220.576004
960.383972,-15.616000,-210.815994
968.192017,-9.760000,-218.623993
970.143982,-13.664000,-212.768005
974.047974,-5.856000,-214.720001
968.192017,-9.760000,-210.815994
960.383972,-5.856000,-216.671997
960.383972,-7.808000,-216.671997
960.383972,-5.856000,-216.671997
976.000000,-5.856000,-220.576004
979.903992,-1.952000,-220.576004
962.335999,-3.904000,-208.863998
976.000000,5.856000,-224.479996
966.239990,5.856000,-234.240005
966.239990,11.712000,-220.576004
974.047974,11.712000,-216.671997
977.952026,7.808000,-220.576004
985.760010,21.472000,-218.623993
977.952026,23.424000,-218.623993
977.952026,15.616000,-216.671997
974.047974,9.760000,-222.528000
976.000000,11.712000,-226.432007
977.952026,19.520000,-222.528000
970.143982,23.424000,-218.623993
972.096008,29.280001,-220.576004
981.856018,29.280001,-212.768005
995.520020,27.327999,-214.720001
991.616028,27.327999,-208.863998
987.711975,27.327999,-206.912003
983.807983,46.848000,-208.863998
979.903992,44.896000,-208.863998
977.952026,42.944000,-214.720001
985.760010,40.992001,-216.671997
991.616028,48.799999,-212.768005
993.567993,44.896000,-210.815994
987.711975,54.655998,-201.056000
979.903992,58.560001,-210.815994
974.047974,58.560001,-212.768005
972.096008,60.512001,-224.479996
970.143982,46.848000,-212.768005
976.000000,52.703999,-210.815994
991.616028,50.751999,-210.815994
981.856018,66.367996,-204.960007
979.903992,66.367996,-212.768005
972.096008,62.464001,-224.479996
970.143982,58.560001,-226.432007
974.047974,72.223999,-224.479996
977.952026,68.320000,-220.576004
964.288025,76.127998,-216.671997
972.096008,66.367996,-214.720001
977.952026,72.223999,-234.240005
964.288025,80.031998,-224.479996
972.096008,80.031998,-222.528000
976.000000,74.176003,-218.623993
974.047974,66.367996,-212.768005
981.856018,70.272003,-212.768005
983.807983,74.176003,-220.576004
993.567993,87.839996,-204.960007
993.567993,87.839996,-208.863998
997.471985,85.888000,-201.056000
987.711975,81.984001,-201.056000
985.760010,74.176003,-208.863998
997.471985,85.888000,-214.720001
1005.280029,87.839996,-193.248001
1009.184021,99.552002,-181.535995
991.616028,99.552002,-179.584000
997.471985,99.552002,-191.296005
981.856018,87.839996,-201.056000
979.903992,89.792000,-204.960007
1001.375977,99.552002,-177.632004
995.520020,107.360001,-181.535995
1001.375977,105.407997,-187.391998
983.807983,101.503998,-199.104004
972.096008,107.360001,-214.720001
993.567993,93.695999,-206.912003
989.664001,93.695999,-191.296005
987.711975,103.456001,-191.296005
987.711975,111.264000,-204.960007
979.903992,109.311996,-214.720001
972.096008,105.407997,-204.960007
972.096008,103.456001,-208.863998
972.096008,87.839996,-214.720001
977.952026,95.648003,-218.623993
976.000000,115.167999,-212.768005
981.856018,111.264000,-212.768005
974.047974,105.407997,-216.671997
983.807983,95.648003,-214.720001
977.952026,91.744003,-212.768005
981.856018,95.648003,-201.056000
985.760010,95.648003,-204.960007
974.047974,93.695999,-197.151993
981.856018,97.599998,-203.007996
981.856018,103.456001,-197.151993
977.952026,93.695999,-193.248001
979.903992,89.792000,-204.960007
981.856018,93.695999,-185.440002
979.903992,89.792000,-189.343994
983.807983,93.695999,-193.248001
979.903992,101.503998,-189.343994
981.856018,91.744003,-187.391998
976.000000,99.552002,-191.296005
979.903992,105.407997,-189.343994
991.616028,109.311996,-189.343994
979.903992,107.360001,-183.488007
976.000000,111.264000,-185.440002
981.856018,99.552002,-181.535995
981.856018,111.264000,-183.488007
987.711975,103.456001,-187.391998
987.711975,107.360001,-191.296005
977.952026,105.407997,-189.343994
977.952026,103.456001,-197.151993
976.000000,99.552002,-187.391998
977.952026,93.695999,-189.343994
985.760010,105.407997,-189.343994
977.952026,101.503998,-210.815994
981.856018,101.503998,-195.199997
976.000000,93.695999,-189.343994
972.096008,85.888000,-193.248001
985.760010,87.839996,-183.488007
970.143982,93.695999,-187.391998
966.239990,99.552002,-197.151993
981.856018,97.599998,-197.151993
972.096008,81.984001,-191.296005
972.096008,83.935997,-189.343994
974.047974,80.031998,-181.535995
970.143982,85.888000,-187.391998
979.903992,81.984001,-187.391998
964.288025,91.744003,-185.440002
974.047974,99.552002,-185.440002
968.192017,97.599998,-191.296005
964.288025,81.984001,-191.296005
954.528015,80.031998,-195.199997
960.383972,93.695999,-187.391998
960.383972,83.935997,-193.248001
964.288025,85.888000,-195.199997
958.432007,78.080002,-189.343994
954.528015,76.127998,-193.248001
954.528015,72.223999,-185.440002
952.575989,80.031998,-187.391998
962.335999,66.367996,-191.296005
954.528015,76.127998,-193.248001
948.671997,74.176003,-191.296005
940.864014,68.320000,-189.343994
946.719971,72.223999,-204.960007
936.960022,64.416000,-199.104004
933.056030,72.223999,-199.104004
940.864014,68.320000,-193.248001
944.768005,80.031998,-197.151993
938.911987,68.320000,-210.815994
940.864014,74.176003,-201.056000
946.719971,74.176003,-204.960007
944.768005,74.176003,-197.151993
944.768005,54.655998,-201.056000
929.151978,62.464001,-201.056000
929.151978,74.176003,-201.056000
929.151978,72.223999,-203.007996
940.864014,58.560001,-189.343994
942.815979,66.367996,-187.391998
944.768005,74.176003,-183.488007
938.911987,68.320000,-187.391998
935.007996,66.367996,-191.296005
931.104004,62.464001,-195.199997
935.007996,60.512001,-183.488007
944.768005,66.367996,-173.727997
940.864014,72.223999,-175.679993
942.815979,62.464001,-179.584000
935.007996,70.272003,-179.584000
929.151978,56.608002,-185.440002
933.056030,54.655998,-179.584000
944.768005,62.464001,-158.112000
944.768005,74.176003,-154.207993
935.007996,64.416000,-162.016006
925.247986,58.560001,-175.679993
931.104004,50.751999,-177.632004
