ACC_X,ACC_Y,ACC_Z
698.815979,380.640015,534.848022
694.911987,386.496002,534.848022
694.911987,392.351990,542.656006
696.864014,384.544006,540.703979
700.768005,382.592010,538.752014
696.864014,384.544006,546.559998
704.671997,382.592010,534.848022
700.768005,384.544006,542.656006
698.815979,386.496002,530.943970
702.719971,386.496002,540.703979
696.864014,382.592010,540.703979
692.960022,372.832001,536.799988
700.768005,372.832001,530.943970
698.815979,376.735992,538.752014
702.719971,378.687988,532.895996
700.768005,378.687988,540.703979
700.768005,376.735992,534.848022
698.815979,378.687988,540.703979
712.479980,378.687988,550.463989
708.575989,380.640015,556.320007
698.815979,370.880005,538.752014
698.815979,378.687988,550.463989
702.719971,386.496002,544.607971
700.768005,384.544006,540.703979
704.671997,380.640015,540.703979
702.719971,382.592010,540.703979
700.768005,382.592010,542.656006
698.815979,378.687988,546.559998
704.671997,374.783997,540.703979
704.671997,384.544006,546.559998
694.911987,376.735992,538.752014
698.815979,374.783997,532.895996
696.864014,374.783997,530.943970
700.768005,376.735992,542.656006
692.960022,376.735992,542.656006
700.768005,376.735992,538.752014
692.960022,376.735992,530.943970
700.768005,376.735992,538.752014
700.768005,366.976013,540.703979
696.864014,378.687988,534.848022
691.007996,378.687988,534.848022
696.864014,374.783997,536.799988
694.911987,380.640015,534.848022
691.007996,380.640015,542.656006
691.007996,378.687988,544.607971
696.864014,384.544006,540.703979
700.768005,384.544006,534.848022
696.864014,382.592010,540.703979
704.671997,382.592010,542.656006
696.864014,370.880005,548.512024
700.768005,382.592010,542.656006
702.719971,378.687988,542.656006
700.768005,378.687988,546.559998
700.768005,384.544006,544.607971
700.768005,384.544006,544.607971
696.864014,384.544006,546.559998
704.671997,378.687988,550.463989
708.575989,388.447998,548.512024
702.719971,388.447998,546.559998
702.719971,388.447998,552.416016
706.624023,394.303986,544.607971
708.575989,386.496002,540.703979
694.911987,398.208008,548.512024
708.575989,388.447998,542.656006
708.575989,392.351990,550.463989
700.768005,390.399994,548.512024
704.671997,382.592010,552.416016
706.624023,392.351990,552.416016
706.624023,394.303986,548.512024
702.719971,390.399994,544.607971
712.479980,398.208008,542.656006
712.479980,390.399994,550.463989
706.624023,398.208008,552.416016
710.528015,402.112000,554.367981
708.575989,386.496002,542.656006
716.383972,394.303986,546.559998
720.288025,392.351990,538.752014
712.479980,390.399994,554.367981
720.288025,398.208008,546.559998
712.479980,400.160004,546.559998
706.624023,398.208008,548.512024
712.479980,394.303986,544.607971
708.575989,392.351990,544.607971
716.383972,390.399994,546.559998
710.528015,400.160004,538.752014
702.719971,396.256012,552.416016
712.479980,394.303986,542.656006
712.479980,390.399994,550.463989
712.479980,398.208008,548.512024
716.383972,388.447998,556.320007
694.911987,392.351990,552.416016
702.719971,398.208008,548.512024
704.671997,402.112000,546.559998
710.528015,400.160004,546.559998
710.528015,398.208008,534.848022
710.528015,392.351990,538.752014
712.479980,404.063995,546.559998
702.719971,396.256012,542.656006
706.624023,400.160004,540.703979
704.671997,406.015991,542.656006
712.479980,400.160004,546.559998
712.479980,411.872009,544.607971
712.479980,398.208008,540.703979
712.479980,406.015991,544.607971
702.719971,402.112000,544.607971
712.479980,398.208008,546.559998
710.528015,400.160004,554.367981
706.624023,394.303986,540.703979
706.624023,394.303986,544.607971
706.624023,398.208008,548.512024
708.575989,406.015991,546.559998
712.479980,400.160004,552.416016
706.624023,406.015991,546.559998
716.383972,406.015991,552.416016
714.432007,409.920013,554.367981
702.719971,404.063995,548.512024
712.479980,411.872009,548.512024
712.479980,409.920013,556.320007
716.383972,409.920013,556.320007
728.096008,406.015991,560.223999
712.479980,398.208008,560.223999
716.383972,407.967987,558.271973
726.143982,400.160004,564.127991
722.239990,409.920013,554.367981
712.479980,419.679993,556.320007
724.192017,413.824005,556.320007
720.288025,406.015991,562.176025
728.096008,406.015991,550.463989
724.192017,423.584015,564.127991
718.335999,415.776001,562.176025
714.432007,419.679993,562.176025
718.335999,415.776001,560.223999
726.143982,413.824005,558.271973
722.239990,407.967987,564.127991
722.239990,411.872009,560.223999
718.335999,421.631989,568.031982
724.192017,419.679993,562.176025
712.479980,421.631989,562.176025
720.288025,429.440002,558.271973
726.143982,423.584015,560.223999
720.288025,415.776001,568.031982
714.432007,421.631989,560.223999
716.383972,425.536011,546.559998
710.528015,431.391998,554.367981
718.335999,419.679993,556.320007
718.335999,423.584015,558.271973
722.239990,423.584015,556.320007
724.192017,427.488007,556.320007
718.335999,423.584015,554.367981
724.192017,417.727997,554.367981
716.383972,421.631989,556.320007
728.096008,431.391998,560.223999
724.192017,417.727997,554.367981
724.192017,421.631989,550.463989
716.383972,427.488007,550.463989
716.383972,427.488007,546.559998
712.479980,423.584015,552.416016
724.192017,419.679993,554.367981
714.432007,419.679993,550.463989
724.192017,429.440002,542.656006
714.432007,427.488007,540.703979
722.239990,425.536011,556.320007
714.432007,425.536011,550.463989
716.383972,431.391998,546.559998
710.528015,423.584015,542.656006
722.239990,423.584015,542.656006
718.335999,427.488007,546.559998
728.096008,421.631989,544.607971
726.143982,417.727997,552.416016
720.288025,423.584015,536.799988
722.239990,423.584015,538.752014
722.239990,429.440002,540.703979
712.479980,417.727997,548.512024
726.143982,419.679993,546.559998
726.143982,427.488007,542.656006
733.952026,415.776001,546.559998
726.143982,421.631989,544.607971
720.288025,413.824005,530.943970
728.096008,409.920013,544.607971
730.047974,415.776001,544.607971
733.952026,415.776001,534.848022
732.000000,421.631989,542.656006
735.903992,427.488007,544.607971
724.192017,425.536011,544.607971
733.952026,427.488007,540.703979
741.760010,423.584015,544.607971
739.807983,419.679993,534.848022
737.856018,421.631989,544.607971
743.711975,435.295990,544.607971
739.807983,423.584015,538.752014
741.760010,419.679993,544.607971
730.047974,421.631989,540.703979
743.711975,429.440002,546.559998
741.760010,429.440002,540.703979
743.711975,429.440002,546.559998
749.567993,425.536011,544.607971
747.616028,411.872009,552.416016
749.567993,423.584015,544.607971
749.567993,421.631989,536.799988
743.711975,423.584015,538.752014
753.471985,419.679993,534.848022
751.520020,415.776001,538.752014
751.520020,415.776001,542.656006
753.471985,421.631989,544.607971
751.520020,417.727997,538.752014
755.424011,421.631989,544.607971
741.760010,419.679993,548.512024
747.616028,421.631989,544.607971
745.664001,415.776001,538.752014
749.567993,427.488007,538.752014
759.328003,425.536011,556.320007
757.375977,429.440002,544.607971
753.471985,413.824005,540.703979
753.471985,415.776001,548.512024
751.520020,423.584015,550.463989
749.567993,421.631989,546.559998
753.471985,427.488007,554.367981
759.328003,425.536011,552.416016
759.328003,417.727997,552.416016
757.375977,423.584015,564.127991
755.424011,423.584015,558.271973
757.375977,417.727997,564.127991
757.375977,415.776001,560.223999
757.375977,417.727997,554.367981
753.471985,423.584015,550.463989
755.424011,417.727997,558.271973
753.471985,419.679993,550.463989
759.328003,425.536011,560.223999
745.664001,431.391998,554.367981
763.231995,415.776001,552.416016
755.424011,417.727997,552.416016
753.471985,423.584015,558.271973
753.471985,427.488007,552.416016
755.424011,429.440002,562.176025
755.424011,425.536011,542.656006
759.328003,425.536011,556.320007
749.567993,421.631989,556.320007
757.375977,423.584015,552.416016
749.567993,427.488007,556.320007
749.567993,421.631989,556.320007
753.471985,425.536011,556.320007
755.424011,427.488007,550.463989
757.375977,423.584015,552.416016
759.328003,425.536011,560.223999
759.328003,431.391998,556.320007
751.520020,425.536011,546.559998
753.471985,431.391998,560.223999
753.471985,417.727997,550.463989
749.567993,425.536011,546.559998
761.280029,427.488007,552.416016
767.135986,427.488007,548.512024
757.375977,421.631989,552.416016
753.471985,433.343994,556.320007
759.328003,421.631989,546.559998
757.375977,427.488007,546.559998
755.424011,425.536011,544.607971
759.328003,419.679993,552.416016
761.280029,415.776001,546.559998
761.280029,423.584015,556.320007
749.567993,407.967987,548.512024
763.231995,419.679993,552.416016
767.135986,413.824005,552.416016
757.375977,413.824005,554.367981
763.231995,427.488007,554.367981
765.184021,423.584015,554.367981
761.280029,413.824005,554.367981
763.231995,415.776001,554.367981
771.039978,413.824005,550.463989
772.992004,421.631989,554.367981
757.375977,423.584015,556.320007
761.280029,413.824005,556.320007
757.375977,417.727997,546.559998
761.280029,417.727997,552.416016
757.375977,413.824005,560.223999
759.328003,409.920013,552.416016
771.039978,406.015991,556.320007
761.280029,406.015991,552.416016
753.471985,409.920013,544.607971
759.328003,409.920013,546.559998
761.280029,407.967987,546.559998
767.135986,409.920013,556.320007
757.375977,398.208008,538.752014
759.328003,413.824005,534.848022
749.567993,402.112000,538.752014
761.280029,396.256012,550.463989
753.471985,407.967987,544.607971
757.375977,402.112000,538.752014
763.231995,390.399994,540.703979
759.328003,394.303986,536.799988
767.135986,404.063995,530.943970
759.328003,406.015991,536.799988
767.135986,406.015991,534.848022
757.375977,406.015991,525.088013
761.280029,406.015991,528.992004
763.231995,396.256012,530.943970
759.328003,398.208008,528.992004
759.328003,388.447998,534.848022
759.328003,400.160004,528.992004
759.328003,396.256012,517.280029
757.375977,392.351990,534.848022
759.328003,396.256012,523.135986
755.424011,396.256012,530.943970
757.375977,388.447998,527.039978
755.424011,388.447998,527.039978
767.135986,386.496002,523.135986
757.375977,396.256012,519.231995
759.328003,396.256012,521.184021
759.328003,392.351990,525.088013
757.375977,388.447998,525.088013
759.328003,392.351990,530.943970
761.280029,392.351990,527.039978
759.328003,394.303986,525.088013
769.088013,390.399994,530.943970
769.088013,392.351990,527.039978
763.231995,380.640015,536.799988
759.328003,390.399994,534.848022
761.280029,386.496002,534.848022
767.135986,380.640015,532.895996
767.135986,386.496002,528.992004
772.992004,386.496002,542.656006
761.280029,386.496002,527.039978
757.375977,382.592010,532.895996
757.375977,380.640015,527.039978
767.135986,384.544006,532.895996
759.328003,374.783997,528.992004
765.184021,388.447998,534.848022
757.375977,376.735992,536.799988
761.280029,382.592010,532.895996
755.424011,380.640015,523.135986
763.231995,388.447998,534.848022
749.567993,378.687988,528.992004
763.231995,384.544006,532.895996
763.231995,392.351990,530.943970
753.471985,388.447998,538.752014
763.231995,378.687988,540.703979
761.280029,382.592010,534.848022
769.088013,392.351990,540.703979
761.280029,382.592010,532.895996
761.280029,378.687988,538.752014
763.231995,378.687988,544.607971
759.328003,382.592010,548.512024
753.471985,392.351990,536.799988
759.328003,376.735992,540.703979
753.471985,384.544006,542.656006
753.471985,390.399994,542.656006
753.471985,386.496002,542.656006
757.375977,384.544006,540.703979
759.328003,384.544006,542.656006
751.520020,396.256012,534.848022
757.375977,392.351990,534.848022
745.664001,384.544006,538.752014
751.520020,400.160004,540.703979
757.375977,388.447998,534.848022
753.471985,386.496002,540.703979
745.664001,386.496002,538.752014
751.520020,388.447998,538.752014
753.471985,382.592010,538.752014
753.471985,390.399994,548.512024
741.760010,396.256012,532.895996
751.520020,388.447998,548.512024
745.664001,382.592010,544.607971
741.760010,396.256012,532.895996
749.567993,390.399994,530.943970
745.664001,386.496002,542.656006
743.711975,390.399994,530.943970
747.616028,386.496002,538.752014
751.520020,382.592010,538.752014
749.567993,382.592010,540.703979
745.664001,380.640015,538.752014
741.760010,372.832001,534.848022
743.711975,386.496002,536.799988
743.711975,390.399994,536.799988
747.616028,384.544006,542.656006
753.471985,388.447998,540.703979
747.616028,382.592010,540.703979
749.567993,380.640015,542.656006
745.664001,376.735992,534.848022
747.616028,388.447998,550.463989
741.760010,374.783997,546.559998
745.664001,382.592010,548.512024
747.616028,374.783997,540.703979
739.807983,392.351990,542.656006
743.711975,384.544006,542.656006
743.711975,376.735992,554.367981
745.664001,376.735992,554.367981
739.807983,380.640015,550.463989
741.760010,376.735992,564.127991
741.760010,366.976013,571.935974
751.520020,386.496002,581.695984
743.711975,374.783997,577.791992
755.424011,366.976013,577.791992
753.471985,365.023987,585.599976
767.135986,368.928009,587.552002
765.184021,363.071991,581.695984
771.039978,365.023987,583.648010
763.231995,353.312012,569.984009
759.328003,357.216003,566.080017
753.471985,355.264008,552.416016
757.375977,351.359985,544.607971
759.328003,359.167999,544.607971
747.616028,347.455994,525.088013
745.664001,353.312012,511.424011
739.807983,361.119995,519.231995
735.903992,351.359985,501.664001
737.856018,351.359985,493.855988
741.760010,357.216003,476.287994
733.952026,357.216003,486.048004
726.143982,361.119995,489.951996
726.143982,353.312012,489.951996
732.000000,357.216003,499.712006
726.143982,363.071991,525.088013
739.807983,357.216003,540.703979
745.664001,349.407990,550.463989
747.616028,351.359985,566.080017
763.231995,372.832001,581.695984
771.039978,368.928009,593.408020
761.280029,366.976013,599.263977
771.039978,361.119995,610.976013
774.943970,355.264008,610.976013
772.992004,365.023987,616.831970
776.895996,357.216003,610.976013
774.943970,359.167999,610.976013
776.895996,361.119995,605.119995
771.039978,353.312012,599.263977
769.088013,347.455994,591.455994
774.943970,345.503998,579.744019
774.943970,343.552002,571.935974
769.088013,335.743988,564.127991
771.039978,339.648010,552.416016
761.280029,327.936005,538.752014
757.375977,339.648010,536.799988
763.231995,339.648010,525.088013
757.375977,349.407990,527.039978
761.280029,343.552002,536.799988
763.231995,339.648010,540.703979
769.088013,347.455994,542.656006
772.992004,351.359985,544.607971
774.943970,343.552002,542.656006
778.848022,347.455994,560.223999
784.703979,345.503998,560.223999
776.895996,349.407990,569.984009
786.656006,345.503998,577.791992
786.656006,345.503998,569.984009
788.607971,343.552002,571.935974
786.656006,335.743988,569.984009
788.607971,339.648010,579.744019
784.703979,349.407990,579.744019
790.559998,351.359985,579.744019
786.656006,339.648010,569.984009
792.512024,347.455994,566.080017
784.703979,343.552002,562.176025
792.512024,339.648010,568.031982
794.463989,341.600006,564.127991
786.656006,343.552002,558.271973
792.512024,337.696014,568.031982
790.559998,341.600006,556.320007
792.512024,343.552002,564.127991
790.559998,349.407990,558.271973
798.367981,343.552002,554.367981
794.463989,351.359985,558.271973
794.463989,349.407990,564.127991
788.607971,351.359985,558.271973
792.512024,345.503998,569.984009
794.463989,359.167999,566.080017
788.607971,365.023987,579.744019
786.656006,365.023987,573.888000
796.416016,359.167999,566.080017
786.656006,365.023987,579.744019
782.752014,351.359985,573.888000
776.895996,355.264008,579.744019
778.848022,368.928009,583.648010
778.848022,366.976013,569.984009
782.752014,361.119995,573.888000
790.559998,357.216003,571.935974
790.559998,357.216003,569.984009
792.512024,345.503998,569.984009
784.703979,347.455994,571.935974
786.656006,349.407990,564.127991
786.656006,349.407990,560.223999
784.703979,347.455994,544.607971
778.848022,343.552002,534.848022
769.088013,331.839996,534.848022
763.231995,341.600006,525.088013
769.088013,337.696014,513.375977
771.039978,329.888000,511.424011
767.135986,331.839996,503.615997
753.471985,333.791992,495.808014
757.375977,341.600006,488.000000
751.520020,343.552002,497.760010
751.520020,353.312012,486.048004
741.760010,359.167999,488.000000
733.952026,357.216003,497.760010
747.616028,365.023987,495.808014
739.807983,355.264008,513.375977
747.616028,357.216003,507.519989
753.471985,357.216003,515.328003
751.520020,359.167999,523.135986
749.567993,353.312012,530.943970
749.567993,361.119995,544.607971
759.328003,347.455994,540.703979
763.231995,349.407990,534.848022
753.471985,345.503998,552.416016
751.520020,337.696014,548.512024
749.567993,335.743988,546.559998
757.375977,335.743988,542.656006
755.424011,339.648010,538.752014
743.711975,329.888000,538.752014
743.711975,329.888000,527.039978
751.520020,331.839996,519.231995
753.471985,333.791992,521.184021
749.567993,345.503998,511.424011
747.616028,331.839996,509.471985
745.664001,339.648010,501.664001
739.807983,347.455994,509.471985
739.807983,357.216003,509.471985
753.471985,357.216003,505.567993
749.567993,355.264008,505.567993
751.520020,359.167999,513.375977
759.328003,355.264008,513.375977
759.328003,343.552002,507.519989
759.328003,343.552002,519.231995
769.088013,349.407990,521.184021
767.135986,347.455994,527.039978
761.280029,341.600006,527.039978
759.328003,335.743988,544.607971
763.231995,331.839996,560.223999
767.135986,341.600006,548.512024
761.280029,335.743988,550.463989
774.943970,331.839996,544.607971
769.088013,335.743988,550.463989
765.184021,339.648010,540.703979
772.992004,345.503998,532.895996
772.992004,339.648010,523.135986
763.231995,349.407990,515.328003
749.567993,351.359985,511.424011
755.424011,359.167999,521.184021
745.664001,359.167999,505.567993
743.711975,370.880005,503.615997
745.664001,368.928009,503.615997
741.760010,368.928009,503.615997
743.711975,359.167999,495.808014
759.328003,368.928009,505.567993
749.567993,363.071991,517.280029
743.711975,368.928009,521.184021
753.471985,345.503998,523.135986
757.375977,351.359985,532.895996
757.375977,347.455994,536.799988
769.088013,345.503998,538.752014
774.943970,343.552002,542.656006
765.184021,353.312012,546.559998
771.039978,355.264008,548.512024
765.184021,365.023987,540.703979
763.231995,357.216003,534.848022
765.184021,363.071991,538.752014
763.231995,374.783997,528.992004
759.328003,365.023987,525.088013
757.375977,368.928009,519.231995
749.567993,365.023987,519.231995
749.567993,368.928009,513.375977
751.520020,376.735992,509.471985
745.664001,378.687988,493.855988
751.520020,376.735992,503.615997
745.664001,372.832001,503.615997
745.664001,363.071991,517.280029
759.328003,363.071991,525.088013
745.664001,370.880005,528.992004
745.664001,363.071991,536.799988
757.375977,365.023987,536.799988
759.328003,372.832001,538.752014
761.280029,368.928009,550.463989
765.184021,372.832001,556.320007
767.135986,380.640015,554.367981
759.328003,370.880005,558.271973
759.328003,380.640015,556.320007
759.328003,374.783997,556.320007
761.280029,376.735992,544.607971
767.135986,374.783997,542.656006
767.135986,374.783997,542.656006
759.328003,376.735992,540.703979
757.375977,374.783997,528.992004
765.184021,366.976013,530.943970
763.231995,372.832001,527.039978
755.424011,380.640015,521.184021
745.664001,378.687988,523.135986
755.424011,370.880005,521.184021
759.328003,372.832001,519.231995
753.471985,376.735992,527.039978
759.328003,366.976013,523.135986
751.520020,374.783997,525.088013
755.424011,374.783997,530.943970
747.616028,378.687988,530.943970
749.567993,378.687988,536.799988
755.424011,386.496002,536.799988
741.760010,382.592010,536.799988
751.520020,380.640015,542.656006
747.616028,390.399994,548.512024
737.856018,392.351990,554.367981
739.807983,392.351990,542.656006
745.664001,388.447998,538.752014
745.664001,390.399994,544.607971
745.664001,384.544006,548.512024
739.807983,384.544006,534.848022
743.711975,384.544006,527.039978
728.096008,374.783997,528.992004
730.047974,384.544006,532.895996
735.903992,378.687988,525.088013
730.047974,380.640015,521.184021
726.143982,382.592010,521.184021
728.096008,390.399994,515.328003
728.096008,388.447998,511.424011
722.239990,376.735992,509.471985
720.288025,388.447998,519.231995
720.288025,388.447998,513.375977
724.192017,390.399994,519.231995
728.096008,384.544006,511.424011
730.047974,388.447998,528.992004
726.143982,386.496002,525.088013
730.047974,382.592010,523.135986
726.143982,388.447998,527.039978
735.903992,384.544006,534.848022
732.000000,384.544006,542.656006
728.096008,384.544006,548.512024
743.711975,374.783997,542.656006
733.952026,376.735992,550.463989
733.952026,378.687988,546.559998
732.000000,363.071991,552.416016
732.000000,363.071991,550.463989
739.807983,363.071991,556.320007
735.903992,361.119995,558.271973
735.903992,363.071991,554.367981
728.096008,374.783997,550.463989
726.143982,372.832001,542.656006
732.000000,368.928009,556.320007
726.143982,370.880005,540.703979
733.952026,368.928009,536.799988
732.000000,366.976013,538.752014
735.903992,363.071991,532.895996
733.952026,370.880005,532.895996
730.047974,361.119995,527.039978
726.143982,365.023987,519.231995
733.952026,372.832001,525.088013
726.143982,363.071991,528.992004
732.000000,357.216003,521.184021
730.047974,355.264008,523.135986
737.856018,341.600006,513.375977
733.952026,351.359985,515.328003
730.047974,355.264008,515.328003
739.807983,343.552002,519.231995
733.952026,353.312012,521.184021
745.664001,345.503998,530.943970
745.664001,345.503998,525.088013
743.711975,347.455994,532.895996
745.664001,349.407990,542.656006
743.711975,343.552002,540.703979
745.664001,345.503998,552.416016
755.424011,347.455994,556.320007
757.375977,351.359985,560.223999
757.375977,353.312012,552.416016
755.424011,351.359985,554.367981
753.471985,343.552002,558.271973
751.520020,349.407990,548.512024
741.760010,341.600006,536.799988
741.760010,335.743988,523.135986
755.424011,341.600006,515.328003
747.616028,345.503998,525.088013
747.616028,343.552002,513.375977
735.903992,345.503998,507.519989
743.711975,343.552002,503.615997
743.711975,335.743988,495.808014
728.096008,343.552002,501.664001
730.047974,337.696014,499.712006
732.000000,341.600006,513.375977
730.047974,335.743988,505.567993
735.903992,339.648010,505.567993
737.856018,335.743988,515.328003
743.711975,331.839996,521.184021
753.471985,337.696014,525.088013
749.567993,339.648010,528.992004
751.520020,335.743988,532.895996
753.471985,324.032013,540.703979
757.375977,331.839996,540.703979
747.616028,341.600006,540.703979
737.856018,339.648010,542.656006
739.807983,339.648010,532.895996
741.760010,345.503998,528.992004
733.952026,347.455994,521.184021
735.903992,345.503998,513.375977
730.047974,337.696014,497.760010
733.952026,339.648010,488.000000
735.903992,337.696014,480.191986
712.479980,341.600006,482.144012
712.479980,339.648010,474.335999
704.671997,339.648010,480.191986
698.815979,339.648010,476.287994
704.671997,335.743988,476.287994
698.815979,343.552002,474.335999
694.911987,335.743988,476.287994
702.719971,353.312012,480.191986
704.671997,339.648010,486.048004
704.671997,331.839996,486.048004
710.528015,341.600006,491.903992
698.815979,349.407990,495.808014
712.479980,341.600006,509.471985
706.624023,329.888000,501.664001
704.671997,331.839996,509.471985
708.575989,349.407990,515.328003
720.288025,349.407990,507.519989
712.479980,343.552002,505.567993
710.528015,325.984009,513.375977
716.383972,335.743988,509.471985
710.528015,345.503998,495.808014
724.192017,333.791992,499.712006
712.479980,333.791992,505.567993
714.432007,333.791992,499.712006
716.383972,333.791992,501.664001
708.575989,335.743988,493.855988
710.528015,333.791992,491.903992
720.288025,331.839996,495.808014
724.192017,335.743988,484.096008
710.528015,331.839996,489.951996
712.479980,339.648010,489.951996
708.575989,345.503998,489.951996
712.479980,343.552002,489.951996
710.528015,357.216003,486.048004
708.575989,349.407990,486.048004
720.288025,351.359985,484.096008
726.143982,351.359985,497.760010
724.192017,351.359985,491.903992
722.239990,343.552002,497.760010
712.479980,343.552002,503.615997
728.096008,347.455994,509.471985
718.335999,335.743988,503.615997
726.143982,339.648010,507.519989
714.432007,339.648010,509.471985
718.335999,337.696014,503.615997
726.143982,333.791992,509.471985
718.335999,337.696014,509.471985
720.288025,345.503998,507.519989
728.096008,339.648010,505.567993
726.143982,339.648010,511.424011
726.143982,341.600006,507.519989
730.047974,339.648010,499.712006
730.047974,345.503998,505.567993
728.096008,343.552002,505.567993
733.952026,347.455994,509.471985
726.143982,355.264008,509.471985
735.903992,353.312012,501.664001
735.903992,343.552002,509.471985
739.807983,351.359985,517.280029
735.903992,359.167999,507.519989
739.807983,349.407990,515.328003
733.952026,343.552002,528.992004
735.903992,345.503998,513.375977
739.807983,343.552002,525.088013
743.711975,347.455994,527.039978
753.471985,345.503998,523.135986
751.520020,339.648010,523.135986
751.520020,345.503998,521.184021
753.471985,343.552002,525.088013
751.520020,331.839996,515.328003
753.471985,333.791992,530.943970
751.520020,341.600006,523.135986
747.616028,343.552002,521.184021
757.375977,355.264008,523.135986
755.424011,353.312012,523.135986
749.567993,359.167999,528.992004
755.424011,361.119995,532.895996
753.471985,353.312012,534.848022
759.328003,353.312012,548.512024
767.135986,363.071991,550.463989
769.088013,357.216003,550.463989
772.992004,359.167999,552.416016
772.992004,353.312012,552.416016
788.607971,355.264008,554.367981
784.703979,363.071991,556.320007
788.607971,357.216003,558.271973
790.559998,357.216003,546.559998
790.559998,359.167999,548.512024
794.463989,359.167999,540.703979
780.799988,363.071991,544.607971
784.703979,361.119995,544.607971
782.752014,351.359985,532.895996
784.703979,349.407990,519.231995
786.656006,353.312012,525.088013
792.512024,345.503998,517.280029
788.607971,341.600006,507.519989
792.512024,345.503998,505.567993
792.512024,337.696014,507.519989
788.607971,341.600006,507.519989
792.512024,343.552002,501.664001
788.607971,359.167999,521.184021
794.463989,365.023987,519.231995
792.512024,370.880005,519.231995
796.416016,366.976013,521.184021
788.607971,376.735992,519.231995
794.463989,384.544006,525.088013
798.367981,388.447998,523.135986
792.512024,388.447998,534.848022
806.176025,390.399994,530.943970
804.223999,384.544006,538.752014
804.223999,380.640015,536.799988
794.463989,368.928009,536.799988
794.463989,370.880005,538.752014
794.463989,368.928009,542.656006
792.512024,347.455994,544.607971
810.080017,361.119995,540.703979
804.223999,349.407990,538.752014
804.223999,347.455994,536.799988
800.320007,347.455994,538.752014
794.463989,347.455994,532.895996
792.512024,351.359985,530.943970
796.416016,357.216003,532.895996
802.271973,366.976013,532.895996
798.367981,372.832001,538.752014
800.320007,392.351990,552.416016
802.271973,384.544006,542.656006
800.320007,404.063995,542.656006
796.416016,404.063995,554.367981
808.127991,406.015991,546.559998
817.888000,411.872009,534.848022
813.984009,409.920013,546.559998
806.176025,402.112000,556.320007
815.935974,406.015991,562.176025
806.176025,409.920013,560.223999
808.127991,382.592010,562.176025
810.080017,386.496002,560.223999
804.223999,376.735992,554.367981
806.176025,363.071991,546.559998
808.127991,359.167999,554.367981
806.176025,351.359985,550.463989
812.031982,353.312012,538.752014
810.080017,343.552002,538.752014
798.367981,355.264008,530.943970
792.512024,355.264008,527.039978
786.656006,368.928009,519.231995
780.799988,384.544006,525.088013
776.895996,398.208008,527.039978
786.656006,398.208008,519.231995
780.799988,404.063995,532.895996
780.799988,409.920013,525.088013
780.799988,413.824005,525.088013
772.992004,409.920013,528.992004
774.943970,415.776001,528.992004
763.231995,400.160004,525.088013
771.039978,402.112000,523.135986
772.992004,407.967987,528.992004
772.992004,390.399994,528.992004
767.135986,372.832001,540.703979
753.471985,370.880005,528.992004
759.328003,361.119995,525.088013
765.184021,357.216003,527.039978
757.375977,355.264008,523.135986
749.567993,347.455994,530.943970
749.567993,353.312012,523.135986
747.616028,355.264008,527.039978
755.424011,368.928009,528.992004
751.520020,378.687988,532.895996
755.424011,376.735992,530.943970
757.375977,380.640015,534.848022
757.375977,382.592010,534.848022
755.424011,392.351990,554.367981
759.328003,396.256012,554.367981
759.328003,396.256012,568.031982
757.375977,390.399994,568.031982
753.471985,392.351990,564.127991
763.231995,386.496002,566.080017
761.280029,380.640015,564.127991
761.280029,380.640015,552.416016
763.231995,374.783997,554.367981
761.280029,365.023987,550.463989
757.375977,359.167999,538.752014
753.471985,361.119995,538.752014
753.471985,347.455994,534.848022
749.567993,355.264008,523.135986
747.616028,343.552002,509.471985
751.520020,349.407990,511.424011
741.760010,345.503998,501.664001
743.711975,353.312012,493.855988
737.856018,353.312012,493.855988
737.856018,341.600006,484.096008
745.664001,347.455994,493.855988
745.664001,351.359985,480.191986
747.616028,353.312012,486.048004
755.424011,355.264008,472.384003
749.567993,341.600006,482.144012
753.471985,349.407990,476.287994
753.471985,357.216003,482.144012
753.471985,349.407990,486.048004
761.280029,347.455994,489.951996
761.280029,351.359985,489.951996
755.424011,347.455994,493.855988
759.328003,347.455994,501.664001
759.328003,337.696014,505.567993
761.280029,327.936005,503.615997
772.992004,322.079987,505.567993
790.559998,325.984009,513.375977
778.848022,320.127991,511.424011
784.703979,325.984009,523.135986
786.656006,324.032013,528.992004
798.367981,329.888000,534.848022
798.367981,329.888000,534.848022
788.607971,320.127991,534.848022
792.512024,325.984009,540.703979
802.271973,337.696014,536.799988
812.031982,327.936005,530.943970
812.031982,331.839996,540.703979
819.840027,335.743988,536.799988
819.840027,333.791992,536.799988
829.599976,341.600006,536.799988
815.935974,343.552002,528.992004
823.744019,329.888000,532.895996
819.840027,341.600006,542.656006
825.695984,343.552002,538.752014
810.080017,324.032013,540.703979
810.080017,324.032013,538.752014
821.791992,325.984009,540.703979
815.935974,318.175995,536.799988
827.648010,312.320007,528.992004
831.552002,314.272003,536.799988
837.408020,310.368011,542.656006
837.408020,300.608002,544.607971
833.504028,300.608002,534.848022
841.312012,304.511993,534.848022
841.312012,308.415985,538.752014
839.359985,318.175995,538.752014
843.263977,310.368011,546.559998
843.263977,312.320007,552.416016
847.168030,316.223999,542.656006
853.023987,316.223999,540.703979
843.263977,316.223999,542.656006
853.023987,316.223999,552.416016
851.072021,316.223999,542.656006
851.072021,320.127991,546.559998
858.880005,320.127991,546.559998
853.023987,310.368011,550.463989
849.119995,302.559998,542.656006
845.216003,310.368011,554.367981
849.119995,292.799988,554.367981
841.312012,296.704010,550.463989
843.263977,296.704010,558.271973
835.455994,288.895996,550.463989
843.263977,300.608002,552.416016
847.168030,284.992004,546.559998
847.168030,281.088013,560.223999
849.119995,294.752014,556.320007
839.359985,281.088013,550.463989
853.023987,290.847992,546.559998
849.119995,292.799988,558.271973
847.168030,296.704010,552.416016
849.119995,298.656006,552.416016
841.312012,302.559998,558.271973
845.216003,318.175995,562.176025
835.455994,302.559998,558.271973
847.168030,296.704010,564.127991
845.216003,302.559998,566.080017
847.168030,304.511993,562.176025
849.119995,290.847992,560.223999
849.119995,296.704010,562.176025
849.119995,286.944000,558.271973
853.023987,279.135986,558.271973
841.312012,277.183990,571.935974
835.455994,283.040009,554.367981
835.455994,273.279999,554.367981
837.408020,275.231995,552.416016
823.744019,275.231995,558.271973
827.648010,269.376007,560.223999
831.552002,269.376007,571.935974
821.791992,267.424011,564.127991
837.408020,263.519989,560.223999
823.744019,267.424011,554.367981
825.695984,273.279999,562.176025
825.695984,267.424011,558.271973
829.599976,265.471985,556.320007
815.935974,273.279999,554.367981
821.791992,267.424011,556.320007
821.791992,265.471985,552.416016
815.935974,261.567993,556.320007
813.984009,265.471985,544.607971
810.080017,267.424011,536.799988
813.984009,267.424011,542.656006
804.223999,261.567993,538.752014
808.127991,261.567993,538.752014
802.271973,259.615997,540.703979
802.271973,261.567993,530.943970
790.559998,255.712006,528.992004
794.463989,269.376007,528.992004
786.656006,255.712006,523.135986
788.607971,249.856003,538.752014
782.752014,265.471985,540.703979
776.895996,257.664001,538.752014
772.992004,251.807999,532.895996
784.703979,242.048004,523.135986
784.703979,247.904007,532.895996
794.463989,245.951996,519.231995
796.416016,245.951996,525.088013
810.080017,247.904007,523.135986
800.320007,244.000000,521.184021
792.512024,267.424011,523.135986
786.656006,259.615997,519.231995
792.512024,263.519989,523.135986
786.656006,277.183990,513.375977
784.703979,286.944000,513.375977
780.799988,281.088013,509.471985
786.656006,284.992004,499.712006
769.088013,283.040009,499.712006
784.703979,273.279999,495.808014
772.992004,261.567993,507.519989
772.992004,263.519989,491.903992
778.848022,247.904007,503.615997
780.799988,240.095993,507.519989
780.799988,218.623993,511.424011
780.799988,240.095993,515.328003
788.607971,224.479996,523.135986
800.320007,216.671997,517.280029
800.320007,230.335999,544.607971
804.223999,234.240005,552.416016
800.320007,222.528000,556.320007
813.984009,242.048004,560.223999
800.320007,255.712006,583.648010
808.127991,257.664001,601.216003
812.031982,253.759995,601.216003
804.223999,261.567993,610.976013
817.888000,261.567993,618.783997
817.888000,269.376007,622.687988
825.695984,271.328003,622.687988
825.695984,249.856003,616.831970
837.408020,255.712006,626.591980
837.408020,249.856003,620.736023
829.599976,247.904007,607.072021
812.031982,242.048004,605.119995
817.888000,240.095993,587.552002
813.984009,238.143997,581.695984
810.080017,240.095993,573.888000
804.223999,224.479996,548.512024
804.223999,230.335999,542.656006
800.320007,232.287994,530.943970
790.559998,236.192001,515.328003
800.320007,244.000000,509.471985
790.559998,244.000000,499.712006
788.607971,240.095993,486.048004
778.848022,255.712006,476.287994
786.656006,253.759995,478.239990
780.799988,242.048004,478.239990
780.799988,263.519989,470.432007
788.607971,261.567993,462.623993
790.559998,249.856003,460.671997
784.703979,242.048004,460.671997
792.512024,245.951996,462.623993
782.752014,253.759995,462.623993
796.416016,234.240005,478.239990
802.271973,240.095993,489.951996
792.512024,240.095993,476.287994
794.463989,222.528000,484.096008
798.367981,228.384003,489.951996
798.367981,224.479996,503.615997
800.320007,230.335999,499.712006
802.271973,232.287994,511.424011
804.223999,226.432007,507.519989
804.223999,210.815994,523.135986
802.271973,222.528000,521.184021
808.127991,224.479996,519.231995
812.031982,220.576004,525.088013
815.935974,232.287994,530.943970
821.791992,236.192001,536.799988
817.888000,238.143997,544.607971
815.935974,238.143997,532.895996
827.648010,240.095993,538.752014
817.888000,244.000000,540.703979
819.840027,242.048004,544.607971
825.695984,234.240005,540.703979
815.935974,247.904007,536.799988
819.840027,244.000000,546.559998
821.791992,228.384003,540.703979
823.744019,228.384003,540.703979
827.648010,226.432007,544.607971
831.552002,228.384003,538.752014
833.504028,234.240005,534.848022
823.744019,236.192001,534.848022
831.552002,226.432007,530.943970
827.648010,222.528000,536.799988
837.408020,232.287994,527.039978
831.552002,230.335999,530.943970
837.408020,230.335999,528.992004
837.408020,240.095993,525.088013
831.552002,244.000000,534.848022
841.312012,242.048004,534.848022
835.455994,251.807999,532.895996
833.504028,251.807999,527.039978
841.312012,247.904007,534.848022
843.263977,247.904007,540.703979
845.216003,242.048004,546.559998
839.359985,244.000000,552.416016
835.455994,251.807999,546.559998
841.312012,242.048004,552.416016
851.072021,230.335999,554.367981
837.408020,238.143997,544.607971
847.168030,245.951996,552.416016
841.312012,236.192001,552.416016
839.359985,240.095993,558.271973
841.312012,244.000000,560.223999
839.359985,234.240005,556.320007
841.312012,242.048004,552.416016
843.263977,234.240005,552.416016
847.168030,232.287994,556.320007
843.263977,247.904007,548.512024
849.119995,244.000000,552.416016
853.023987,240.095993,546.559998
843.263977,251.807999,552.416016
843.263977,249.856003,546.559998
835.455994,251.807999,554.367981
841.312012,251.807999,558.271973
849.119995,255.712006,554.367981
839.359985,253.759995,560.223999
847.168030,257.664001,552.416016
843.263977,247.904007,554.367981
851.072021,242.048004,550.463989
849.119995,245.951996,548.512024
843.263977,244.000000,542.656006
839.359985,245.951996,552.416016
835.455994,249.856003,550.463989
831.552002,244.000000,546.559998
831.552002,259.615997,548.512024
833.504028,247.904007,542.656006
829.599976,234.240005,554.367981
837.408020,238.143997,544.607971
823.744019,242.048004,542.656006
819.840027,234.240005,538.752014
825.695984,238.143997,536.799988
827.648010,244.000000,536.799988
825.695984,249.856003,536.799988
821.791992,247.904007,528.992004
823.744019,247.904007,525.088013
817.888000,244.000000,519.231995
817.888000,251.807999,511.424011
821.791992,249.856003,525.088013
825.695984,253.759995,521.184021
817.888000,251.807999,517.280029
810.080017,247.904007,515.328003
815.935974,257.664001,521.184021
810.080017,255.712006,519.231995
813.984009,253.759995,515.328003
808.127991,245.951996,521.184021
817.888000,251.807999,517.280029
817.888000,245.951996,513.375977
812.031982,238.143997,513.375977
800.320007,247.904007,513.375977
806.176025,238.143997,513.375977
806.176025,242.048004,505.567993
813.984009,244.000000,501.664001
817.888000,249.856003,509.471985
808.127991,247.904007,501.664001
806.176025,253.759995,505.567993
802.271973,238.143997,505.567993
792.512024,240.095993,507.519989
804.223999,245.951996,509.471985
792.512024,251.807999,507.519989
806.176025,245.951996,509.471985
800.320007,255.712006,501.664001
798.367981,247.904007,509.471985
784.703979,257.664001,509.471985
780.799988,249.856003,501.664001
782.752014,255.712006,507.519989
784.703979,255.712006,499.712006
794.463989,247.904007,505.567993
786.656006,255.712006,501.664001
790.559998,255.712006,497.760010
792.512024,242.048004,493.855988
792.512024,240.095993,505.567993
778.848022,240.095993,501.664001
788.607971,245.951996,509.471985
772.992004,238.143997,509.471985
767.135986,242.048004,513.375977
765.184021,232.287994,513.375977
753.471985,240.095993,515.328003
749.567993,247.904007,517.280029
708.575989,240.095993,515.328003
732.000000,234.240005,525.088013
772.992004,228.384003,505.567993
774.943970,206.912003,515.328003
765.184021,247.904007,509.471985
763.231995,253.759995,509.471985
769.088013,253.759995,517.280029
798.367981,216.671997,515.328003
788.607971,232.287994,523.135986
815.935974,257.664001,521.184021
790.559998,290.847992,517.280029
786.656006,279.135986,521.184021
817.888000,210.815994,511.424011
839.359985,210.815994,505.567993
845.216003,296.704010,488.000000
835.455994,302.559998,486.048004
827.648010,206.912003,489.951996
837.408020,204.960007,493.855988
829.599976,261.567993,480.191986
825.695984,265.471985,484.096008
819.840027,230.335999,493.855988
806.176025,201.056000,497.760010
806.176025,204.960007,505.567993
800.320007,234.240005,503.615997
796.416016,232.287994,521.184021
792.512024,193.248001,511.424011
790.559998,171.776001,521.184021
788.607971,208.863998,528.992004
796.416016,238.143997,528.992004
788.607971,203.007996,538.752014
782.752014,189.343994,540.703979
784.703979,206.912003,548.512024
788.607971,236.192001,546.559998
780.799988,238.143997,552.416016
778.848022,214.720001,558.271973
771.039978,212.768005,560.223999
774.943970,238.143997,556.320007
784.703979,257.664001,548.512024
778.848022,230.335999,546.559998
786.656006,230.335999,554.367981
780.799988,249.856003,540.703979
772.992004,249.856003,542.656006
776.895996,236.192001,538.752014
772.992004,232.287994,536.799988
778.848022,222.528000,530.943970
772.992004,216.671997,523.135986
763.231995,214.720001,525.088013
776.895996,218.623993,519.231995
761.280029,199.104004,523.135986
772.992004,197.151993,509.471985
765.184021,204.960007,507.519989
763.231995,197.151993,501.664001
763.231995,181.535995,493.855988
763.231995,187.391998,493.855988
755.424011,183.488007,488.000000
745.664001,193.248001,478.239990
751.520020,201.056000,478.239990
749.567993,199.104004,472.384003
741.760010,193.248001,480.191986
747.616028,197.151993,468.480011
745.664001,218.623993,478.239990
737.856018,212.768005,476.287994
743.711975,216.671997,489.951996
735.903992,222.528000,482.144012
745.664001,226.432007,468.480011
747.616028,212.768005,464.575989
757.375977,208.863998,464.575989
743.711975,204.960007,460.671997
749.567993,208.863998,456.768005
753.471985,201.056000,448.959991
741.760010,199.104004,454.816010
743.711975,197.151993,456.768005
739.807983,197.151993,452.864014
741.760010,201.056000,464.575989
747.616028,191.296005,462.623993
737.856018,193.248001,458.720001
749.567993,183.488007,454.816010
737.856018,183.488007,454.816010
745.664001,187.391998,450.911987
747.616028,185.440002,458.720001
745.664001,173.727997,443.104004
753.471985,183.488007,462.623993
755.424011,177.632004,454.816010
751.520020,175.679993,456.768005
749.567993,189.343994,450.911987
747.616028,199.104004,462.623993
757.375977,208.863998,448.959991
753.471985,195.199997,452.864014
759.328003,187.391998,462.623993
761.280029,199.104004,460.671997
763.231995,210.815994,456.768005
774.943970,189.343994,470.432007
769.088013,181.535995,470.432007
771.039978,201.056000,474.335999
776.895996,199.104004,474.335999
782.752014,193.248001,486.048004
776.895996,183.488007,489.951996
792.512024,185.440002,488.000000
792.512024,187.391998,505.567993
798.367981,177.632004,505.567993
798.367981,179.584000,507.519989
806.176025,179.584000,515.328003
813.984009,177.632004,532.895996
821.791992,169.824005,530.943970
825.695984,167.871994,532.895996
823.744019,167.871994,532.895996
833.504028,179.584000,544.607971
823.744019,179.584000,538.752014
833.504028,167.871994,550.463989
837.408020,175.679993,542.656006
833.504028,175.679993,548.512024
829.599976,183.488007,548.512024
823.744019,179.584000,550.463989
831.552002,175.679993,546.559998
827.648010,175.679993,540.703979
827.648010,181.535995,530.943970
833.504028,177.632004,532.895996
825.695984,175.679993,536.799988
827.648010,185.440002,528.992004
825.695984,173.727997,525.088013
823.744019,171.776001,521.184021
821.791992,175.679993,525.088013
825.695984,167.871994,513.375977
821.791992,177.632004,509.471985
815.935974,163.968002,511.424011
825.695984,160.063995,515.328003
827.648010,169.824005,511.424011
821.791992,165.919998,515.328003
821.791992,163.968002,515.328003
817.888000,163.968002,523.135986
813.984009,165.919998,530.943970
815.935974,156.160004,528.992004
815.935974,177.632004,534.848022
821.791992,175.679993,525.088013
817.888000,171.776001,525.088013
813.984009,189.343994,521.184021
808.127991,185.440002,513.375977
804.223999,185.440002,503.615997
802.271973,189.343994,495.808014
806.176025,179.584000,501.664001
804.223999,181.535995,503.615997
800.320007,177.632004,501.664001
792.512024,171.776001,484.096008
806.176025,181.535995,489.951996
800.320007,179.584000,484.096008
808.127991,181.535995,482.144012
808.127991,185.440002,478.239990
808.127991,175.679993,476.287994
804.223999,175.679993,476.287994
810.080017,173.727997,480.191986
817.888000,158.112000,480.191986
810.080017,160.063995,476.287994
808.127991,162.016006,486.048004
815.935974,169.824005,484.096008
813.984009,167.871994,488.000000
812.031982,169.824005,491.903992
821.791992,171.776001,484.096008
813.984009,177.632004,497.760010
815.935974,175.679993,497.760010
812.031982,169.824005,499.712006
827.648010,167.871994,501.664001
829.599976,181.535995,505.567993
825.695984,189.343994,507.519989
831.552002,183.488007,511.424011
833.504028,189.343994,509.471985
841.312012,193.248001,511.424011
841.312012,181.535995,515.328003
847.168030,197.151993,511.424011
835.455994,197.151993,513.375977
845.216003,197.151993,517.280029
849.119995,187.391998,509.471985
849.119995,181.535995,515.328003
856.927979,193.248001,515.328003
843.263977,181.535995,509.471985
841.312012,193.248001,505.567993
853.023987,181.535995,499.712006
849.119995,173.727997,497.760010
860.831970,175.679993,495.808014
862.783997,171.776001,493.855988
851.072021,171.776001,493.855988
860.831970,177.632004,495.808014
860.831970,183.488007,495.808014
858.880005,181.535995,493.855988
864.736023,189.343994,501.664001
856.927979,175.679993,499.712006
864.736023,185.440002,505.567993
862.783997,189.343994,493.855988
866.687988,189.343994,509.471985
864.736023,197.151993,513.375977
866.687988,204.960007,505.567993
872.544006,204.960007,503.615997
870.591980,195.199997,505.567993
874.495972,201.056000,515.328003
866.687988,204.960007,503.615997
870.591980,199.104004,507.519989
870.591980,195.199997,507.519989
876.447998,193.248001,507.519989
874.495972,193.248001,507.519989
870.591980,195.199997,505.567993
874.495972,191.296005,493.855988
880.351990,197.151993,491.903992
888.159973,187.391998,493.855988
878.400024,179.584000,491.903992
884.255981,187.391998,493.855988
880.351990,185.440002,493.855988
888.159973,181.535995,497.760010
890.112000,177.632004,489.951996
884.255981,183.488007,493.855988
886.208008,185.440002,499.712006
886.208008,187.391998,495.808014
884.255981,197.151993,509.471985
886.208008,204.960007,501.664001
897.919983,195.199997,505.567993
895.968018,199.104004,505.567993
899.872009,195.199997,507.519989
903.776001,199.104004,505.567993
899.872009,204.960007,509.471985
895.968018,203.007996,503.615997
897.919983,195.199997,513.375977
901.823975,201.056000,509.471985
903.776001,193.248001,503.615997
894.015991,191.296005,507.519989
890.112000,197.151993,505.567993
894.015991,191.296005,505.567993
890.112000,183.488007,503.615997
886.208008,197.151993,497.760010
894.015991,191.296005,495.808014
890.112000,193.248001,486.048004
882.304016,181.535995,486.048004
884.255981,187.391998,488.000000
884.255981,173.727997,489.951996
890.112000,177.632004,484.096008
888.159973,185.440002,493.855988
895.968018,181.535995,493.855988
888.159973,187.391998,493.855988
888.159973,171.776001,484.096008
888.159973,177.632004,488.000000
884.255981,185.440002,493.855988
890.112000,185.440002,488.000000
895.968018,179.584000,493.855988
888.159973,173.727997,484.096008
892.064026,181.535995,480.191986
882.304016,183.488007,484.096008
886.208008,191.296005,486.048004
886.208008,179.584000,480.191986
888.159973,181.535995,486.048004
890.112000,183.488007,482.144012
880.351990,179.584000,480.191986
882.304016,179.584000,476.287994
886.208008,173.727997,464.575989
884.255981,175.679993,474.335999
882.304016,173.727997,472.384003
880.351990,167.871994,472.384003
876.447998,167.871994,474.335999
882.304016,171.776001,474.335999
895.968018,167.871994,478.239990
886.208008,169.824005,472.384003
890.112000,169.824005,482.144012
892.064026,177.632004,476.287994
886.208008,167.871994,484.096008
890.112000,171.776001,484.096008
890.112000,179.584000,491.903992
890.112000,171.776001,489.951996
899.872009,175.679993,484.096008
899.872009,179.584000,493.855988
897.919983,175.679993,501.664001
892.064026,181.535995,493.855988
897.919983,185.440002,493.855988
895.968018,181.535995,495.808014
894.015991,177.632004,497.760010
897.919983,185.440002,491.903992
892.064026,181.535995,493.855988
895.968018,177.632004,491.903992
895.968018,181.535995,491.903992
892.064026,173.727997,484.096008
899.872009,177.632004,488.000000
888.159973,175.679993,486.048004
894.015991,177.632004,488.000000
895.968018,173.727997,486.048004
897.919983,173.727997,488.000000
895.968018,183.488007,488.000000
895.968018,177.632004,484.096008
897.919983,173.727997,486.048004
886.208008,189.343994,482.144012
894.015991,185.440002,486.048004
899.872009,183.488007,482.144012
890.112000,177.632004,482.144012
899.872009,181.535995,484.096008
895.968018,195.199997,484.096008
895.968018,199.104004,484.096008
899.872009,187.391998,484.096008
895.968018,191.296005,488.000000
894.015991,187.391998,484.096008
886.208008,189.343994,486.048004
892.064026,204.960007,480.191986
892.064026,183.488007,486.048004
899.872009,187.391998,484.096008
899.872009,187.391998,484.096008
892.064026,189.343994,486.048004
888.159973,197.151993,489.951996
888.159973,189.343994,476.287994
892.064026,189.343994,476.287994
886.208008,183.488007,476.287994
892.064026,189.343994,486.048004
886.208008,185.440002,474.335999
876.447998,191.296005,476.287994
895.968018,187.391998,468.480011
882.304016,193.248001,470.432007
874.495972,193.248001,480.191986
880.351990,204.960007,472.384003
882.304016,197.151993,460.671997
882.304016,195.199997,472.384003
874.495972,193.248001,472.384003
874.495972,187.391998,472.384003
876.447998,187.391998,476.287994
872.544006,185.440002,478.239990
880.351990,183.488007,468.480011
870.591980,193.248001,476.287994
882.304016,197.151993,464.575989
886.208008,193.248001,474.335999
884.255981,197.151993,478.239990
882.304016,189.343994,468.480011
888.159973,189.343994,482.144012
880.351990,189.343994,476.287994
882.304016,193.248001,470.432007
892.064026,191.296005,468.480011
886.208008,185.440002,474.335999
882.304016,179.584000,476.287994
894.015991,183.488007,470.432007
890.112000,183.488007,464.575989
884.255981,179.584000,464.575989
892.064026,183.488007,468.480011
886.208008,185.440002,466.528015
882.304016,193.248001,468.480011
888.159973,179.584000,474.335999
884.255981,175.679993,474.335999
888.159973,187.391998,464.575989
892.064026,187.391998,472.384003
886.208008,177.632004,474.335999
892.064026,177.632004,476.287994
892.064026,189.343994,480.191986
888.159973,181.535995,474.335999
892.064026,179.584000,476.287994
895.968018,175.679993,476.287994
890.112000,185.440002,480.191986
899.872009,185.440002,478.239990
899.872009,185.440002,484.096008
899.872009,181.535995,484.096008
899.872009,175.679993,484.096008
897.919983,173.727997,486.048004
899.872009,175.679993,482.144012
903.776001,173.727997,482.144012
895.968018,173.727997,478.239990
897.919983,173.727997,482.144012
894.015991,185.440002,482.144012
903.776001,175.679993,486.048004
899.872009,165.919998,488.000000
899.872009,173.727997,486.048004
897.919983,177.632004,482.144012
905.728027,175.679993,484.096008
907.679993,169.824005,486.048004
901.823975,175.679993,484.096008
903.776001,171.776001,493.855988
911.583984,171.776001,497.760010
917.440002,169.824005,491.903992
915.487976,181.535995,495.808014
909.632019,177.632004,495.808014
911.583984,167.871994,491.903992
913.536011,167.871994,501.664001
923.296021,169.824005,493.855988
925.247986,173.727997,495.808014
909.632019,175.679993,499.712006
915.487976,167.871994,484.096008
909.632019,177.632004,486.048004
917.440002,173.727997,501.664001
913.536011,179.584000,486.048004
915.487976,169.824005,489.951996
915.487976,171.776001,484.096008
909.632019,171.776001,484.096008
919.392029,177.632004,486.048004
909.632019,169.824005,484.096008
911.583984,171.776001,491.903992
911.583984,167.871994,489.951996
897.919983,175.679993,484.096008
899.872009,169.824005,488.000000
903.776001,167.871994,488.000000
901.823975,171.776001,488.000000
901.823975,181.535995,476.287994
903.776001,163.968002,480.191986
903.776001,179.584000,484.096008
907.679993,171.776001,478.239990
897.919983,167.871994,476.287994
897.919983,165.919998,476.287994
895.968018,171.776001,489.951996
890.112000,165.919998,491.903992
886.208008,173.727997,488.000000
894.015991,171.776001,486.048004
909.632019,160.063995,489.951996
907.679993,158.112000,478.239990
909.632019,163.968002,484.096008
913.536011,162.016006,491.903992
911.583984,158.112000,486.048004
909.632019,156.160004,480.191986
907.679993,167.871994,488.000000
905.728027,156.160004,489.951996
919.392029,158.112000,486.048004
913.536011,152.255997,488.000000
913.536011,152.255997,486.048004
919.392029,150.304001,476.287994
923.296021,158.112000,488.000000
917.440002,152.255997,488.000000
927.200012,158.112000,491.903992
913.536011,162.016006,497.760010
909.632019,154.207993,495.808014
913.536011,158.112000,507.519989
919.392029,156.160004,493.855988
913.536011,165.919998,495.808014
917.440002,162.016006,497.760010
925.247986,162.016006,491.903992
923.296021,160.063995,497.760010
919.392029,162.016006,497.760010
915.487976,156.160004,499.712006
919.392029,154.207993,497.760010
923.296021,165.919998,503.615997
923.296021,165.919998,497.760010
919.392029,160.063995,503.615997
917.440002,162.016006,501.664001
927.200012,148.352005,501.664001
915.487976,152.255997,499.712006
927.200012,146.399994,503.615997
915.487976,148.352005,505.567993
921.343994,150.304001,501.664001
917.440002,142.496002,501.664001
919.392029,154.207993,507.519989
923.296021,148.352005,513.375977
919.392029,146.399994,515.328003
915.487976,152.255997,525.088013
915.487976,156.160004,525.088013
915.487976,152.255997,521.184021
911.583984,156.160004,521.184021
927.200012,158.112000,523.135986
913.536011,162.016006,528.992004
917.440002,163.968002,523.135986
917.440002,162.016006,532.895996
917.440002,162.016006,530.943970
911.583984,160.063995,536.799988
907.679993,158.112000,527.039978
901.823975,160.063995,532.895996
909.632019,158.112000,532.895996
911.583984,160.063995,536.799988
911.583984,163.968002,532.895996
935.007996,273.279999,536.799988
895.968018,366.976013,558.271973
903.776001,222.528000,583.648010
878.400024,183.488007,589.504028
899.872009,163.968002,591.455994
899.872009,158.112000,569.984009
905.728027,167.871994,562.176025
905.728027,126.879997,564.127991
919.392029,52.703999,562.176025
909.632019,64.416000,568.031982
915.487976,142.496002,550.463989
919.392029,152.255997,552.416016
911.583984,124.928001,554.367981
892.064026,158.112000,556.320007
884.255981,187.391998,560.223999
888.159973,175.679993,556.320007
892.064026,162.016006,566.080017
878.400024,154.207993,562.176025
890.112000,150.304001,564.127991
884.255981,150.304001,558.271973
890.112000,158.112000,558.271973
886.208008,128.832001,571.935974
880.351990,109.311996,575.840027
886.208008,60.512001,569.984009
872.544006,-189.343994,546.559998
950.624023,-327.936005,527.039978
895.968018,-81.984001,540.703979
884.255981,216.671997,552.416016
868.640015,318.175995,560.223999
854.976013,257.664001,554.367981
874.495972,56.608002,546.559998
895.968018,-97.599998,538.752014
897.919983,-39.040001,527.039978
880.351990,107.360001,534.848022
872.544006,212.768005,525.088013
860.831970,208.863998,521.184021
868.640015,121.024002,513.375977
872.544006,37.088001,497.760010
882.304016,44.896000,488.000000
874.495972,138.591995,488.000000
854.976013,189.343994,480.191986
851.072021,163.968002,476.287994
853.023987,103.456001,466.528015
856.927979,91.744003,462.623993
851.072021,115.167999,460.671997
853.023987,132.735992,460.671997
851.072021,134.688004,458.720001
853.023987,115.167999,456.768005
847.168030,95.648003,452.864014
851.072021,85.888000,456.768005
851.072021,97.599998,448.959991
843.263977,111.264000,439.200012
843.263977,107.360001,437.247986
841.312012,101.503998,433.343994
845.216003,85.888000,439.200012
853.023987,107.360001,435.295990
853.023987,122.975998,445.056000
847.168030,126.879997,447.007996
827.648010,103.456001,450.911987
845.216003,93.695999,447.007996
856.927979,105.407997,441.152008
843.263977,122.975998,447.007996
853.023987,121.024002,437.247986
839.359985,130.783997,445.056000
849.119995,128.832001,443.104004
851.072021,119.071999,450.911987
851.072021,121.024002,456.768005
858.880005,142.496002,452.864014
856.927979,132.735992,448.959991
841.312012,111.264000,448.959991
849.119995,107.360001,460.671997
854.976013,113.216003,462.623993
851.072021,134.688004,458.720001
843.263977,134.688004,462.623993
858.880005,126.879997,450.911987
854.976013,124.928001,458.720001
860.831970,121.024002,456.768005
866.687988,113.216003,456.768005
854.976013,105.407997,466.528015
860.831970,111.264000,468.480011
872.544006,103.456001,468.480011
860.831970,101.503998,472.384003
872.544006,117.120003,474.335999
868.640015,126.879997,470.432007
858.880005,119.071999,474.335999
862.783997,103.456001,474.335999
858.880005,95.648003,472.384003
860.831970,80.031998,470.432007
853.023987,72.223999,464.575989
845.216003,58.560001,470.432007
856.927979,21.472000,456.768005
854.976013,-5.856000,456.768005
853.023987,-21.472000,452.864014
866.687988,-17.568001,450.911987
868.640015,-11.712000,448.959991
866.687988,-11.712000,454.816010
864.736023,-15.616000,450.911987
866.687988,-25.375999,450.911987
876.447998,-39.040001,458.720001
851.072021,-19.520000,454.816010
853.023987,-13.664000,447.007996
858.880005,7.808000,454.816010
854.976013,15.616000,458.720001
851.072021,46.848000,460.671997
847.168030,74.176003,447.007996
854.976013,91.744003,456.768005
843.263977,83.935997,464.575989
856.927979,91.744003,462.623993
845.216003,85.888000,464.575989
839.359985,97.599998,466.528015
829.599976,138.591995,452.864014
815.935974,191.296005,472.384003
786.656006,308.415985,474.335999
772.992004,478.239990,460.671997
769.088013,612.927979,452.864014
776.895996,687.104004,462.623993
778.848022,737.856018,462.623993
810.080017,753.471985,462.623993
851.072021,642.208008,460.671997
851.072021,515.328003,470.432007
821.791992,443.104004,478.239990
819.840027,402.112000,476.287994
835.455994,376.735992,474.335999
835.455994,355.264008,488.000000
843.263977,331.839996,480.191986
839.359985,300.608002,480.191986
853.023987,290.847992,478.239990
853.023987,257.664001,484.096008
854.976013,244.000000,486.048004
856.927979,226.432007,478.239990
868.640015,228.384003,474.335999
872.544006,236.192001,480.191986
872.544006,275.231995,474.335999
866.687988,325.984009,470.432007
886.208008,380.640015,476.287994
892.064026,417.727997,484.096008
882.304016,407.967987,486.048004
813.984009,306.463989,484.096008
778.848022,154.207993,480.191986
769.088013,-19.520000,482.144012
763.231995,-138.591995,486.048004
767.135986,-283.040009,482.144012
620.736023,-1102.880005,474.335999
771.039978,-1155.583984,447.007996
1013.088013,-271.328003,454.816010
806.176025,91.744003,458.720001
843.263977,251.807999,480.191986
792.512024,214.720001,489.951996
806.176025,187.391998,493.855988
813.984009,193.248001,505.567993
786.656006,204.960007,509.471985
798.367981,78.080002,509.471985
788.607971,27.327999,499.712006
796.416016,150.304001,503.615997
804.223999,173.727997,488.000000
800.320007,54.655998,491.903992
802.271973,99.552002,497.760010
815.935974,226.432007,493.855988
825.695984,183.488007,482.144012
817.888000,122.975998,468.480011
817.888000,179.584000,478.239990
821.791992,218.623993,466.528015
808.127991,181.535995,466.528015
810.080017,193.248001,470.432007
815.935974,204.960007,470.432007
806.176025,162.016006,468.480011
808.127991,140.544006,476.287994
802.271973,169.824005,476.287994
808.127991,152.255997,476.287994
800.320007,99.552002,466.528015
798.367981,103.456001,474.335999
798.367981,128.832001,474.335999
794.463989,95.648003,482.144012
790.559998,66.367996,480.191986
806.176025,89.792000,480.191986
806.176025,81.984001,484.096008
796.416016,78.080002,472.384003
804.223999,103.456001,458.720001
833.504028,167.871994,439.200012
872.544006,226.432007,445.056000
812.031982,167.871994,466.528015
757.375977,117.120003,468.480011
755.424011,87.839996,482.144012
778.848022,91.744003,468.480011
790.559998,97.599998,472.384003
790.559998,101.503998,464.575989
794.463989,109.311996,460.671997
786.656006,103.456001,468.480011
782.752014,74.176003,470.432007
790.559998,-1.952000,452.864014
802.271973,-27.327999,458.720001
808.127991,29.280001,456.768005
794.463989,93.695999,460.671997
778.848022,93.695999,458.720001
782.752014,83.935997,460.671997
790.559998,80.031998,464.575989
778.848022,78.080002,466.528015
776.895996,76.127998,460.671997
778.848022,68.320000,454.816010
778.848022,70.272003,466.528015
771.039978,62.464001,454.816010
769.088013,60.512001,448.959991
769.088013,52.703999,445.056000
771.039978,42.944000,448.959991
769.088013,58.560001,447.007996
776.895996,54.655998,435.295990
776.895996,50.751999,445.056000
772.992004,54.655998,439.200012
786.656006,39.040001,427.488007
774.943970,46.848000,425.536011
780.799988,44.896000,423.584015
782.752014,35.136002,419.679993
765.184021,39.040001,406.015991
753.471985,52.703999,407.967987
757.375977,54.655998,394.303986
767.135986,64.416000,382.592010
753.471985,85.888000,382.592010
755.424011,103.456001,363.071991
751.520020,121.024002,363.071991
743.711975,152.255997,357.216003
751.520020,183.488007,343.552002
743.711975,203.007996,343.552002
739.807983,208.863998,337.696014
733.952026,212.768005,337.696014
733.952026,203.007996,333.791992
739.807983,212.768005,331.839996
735.903992,222.528000,327.936005
745.664001,238.143997,324.032013
747.616028,245.951996,325.984009
741.760010,267.424011,325.984009
747.616028,271.328003,312.320007
753.471985,247.904007,310.368011
751.520020,259.615997,308.415985
747.616028,259.615997,308.415985
741.760010,234.240005,314.272003
755.424011,224.479996,314.272003
761.280029,197.151993,304.511993
761.280029,187.391998,314.272003
763.231995,173.727997,304.511993
761.280029,163.968002,314.272003
765.184021,160.063995,322.079987
771.039978,156.160004,320.127991
772.992004,146.399994,325.984009
774.943970,132.735992,337.696014
774.943970,132.735992,343.552002
780.799988,126.879997,339.648010
776.895996,130.783997,351.359985
776.895996,117.120003,353.312012
784.703979,115.167999,366.976013
794.463989,122.975998,374.783997
786.656006,126.879997,386.496002
798.367981,134.688004,396.256012
806.176025,136.639999,400.160004
810.080017,144.447998,390.399994
800.320007,148.352005,394.303986
817.888000,171.776001,402.112000
821.791992,177.632004,415.776001
819.840027,185.440002,419.679993
819.840027,191.296005,421.631989
819.840027,204.960007,427.488007
825.695984,206.912003,431.391998
827.648010,204.960007,433.343994
825.695984,210.815994,437.247986
835.455994,210.815994,439.200012
833.504028,208.863998,441.152008
839.359985,195.199997,443.104004
837.408020,191.296005,443.104004
835.455994,189.343994,441.152008
837.408020,169.824005,443.104004
845.216003,179.584000,441.152008
847.168030,169.824005,445.056000
839.359985,163.968002,435.295990
839.359985,163.968002,445.056000
849.119995,169.824005,443.104004
847.168030,152.255997,435.295990
837.408020,165.919998,433.343994
835.455994,158.112000,431.391998
845.216003,162.016006,421.631989
841.312012,173.727997,423.584015
845.216003,171.776001,427.488007
845.216003,163.968002,419.679993
849.119995,183.488007,423.584015
839.359985,183.488007,421.631989
843.263977,185.440002,427.488007
849.119995,187.391998,429.440002
847.168030,187.391998,435.295990
843.263977,195.199997,439.200012
839.359985,197.151993,437.247986
847.168030,197.151993,439.200012
841.312012,203.007996,433.343994
853.023987,201.056000,450.911987
851.072021,203.007996,448.959991
847.168030,199.104004,447.007996
841.312012,187.391998,450.911987
849.119995,181.535995,445.056000
849.119995,185.440002,445.056000
837.408020,181.535995,448.959991
845.216003,175.679993,454.816010
843.263977,175.679993,450.911987
847.168030,165.919998,448.959991
841.312012,156.160004,447.007996
849.119995,158.112000,448.959991
847.168030,163.968002,445.056000
845.216003,167.871994,443.104004
839.359985,163.968002,443.104004
835.455994,160.063995,443.104004
841.312012,169.824005,431.391998
837.408020,169.824005,437.247986
837.408020,165.919998,431.391998
835.455994,173.727997,425.536011
837.408020,173.727997,419.679993
831.552002,167.871994,435.295990
833.504028,177.632004,435.295990
827.648010,177.632004,427.488007
827.648010,167.871994,429.440002
831.552002,175.679993,427.488007
823.744019,171.776001,425.536011
829.599976,167.871994,435.295990
823.744019,167.871994,427.488007
821.791992,165.919998,427.488007
821.791992,154.207993,425.536011
817.888000,158.112000,413.824005
812.031982,156.160004,417.727997
815.935974,148.352005,421.631989
810.080017,148.352005,415.776001
810.080017,150.304001,415.776001
812.031982,132.735992,409.920013
806.176025,138.591995,406.015991
806.176025,134.688004,406.015991
806.176025,140.544006,400.160004
802.271973,128.832001,390.399994
792.512024,142.496002,402.112000
802.271973,140.544006,386.496002
804.223999,142.496002,388.447998
790.559998,146.399994,382.592010
792.512024,138.591995,392.351990
790.559998,138.591995,378.687988
798.367981,130.783997,386.496002
794.463989,146.399994,374.783997
796.416016,150.304001,380.640015
796.416016,146.399994,378.687988
790.559998,136.639999,372.832001
790.559998,142.496002,380.640015
796.416016,140.544006,384.544006
788.607971,134.688004,378.687988
792.512024,134.688004,388.447998
798.367981,130.783997,398.208008
792.512024,128.832001,394.303986
808.127991,136.639999,392.351990
794.463989,138.591995,384.544006
802.271973,136.639999,386.496002
808.127991,124.928001,388.447998
800.320007,128.832001,392.351990
812.031982,142.496002,394.303986
804.223999,124.928001,390.399994
806.176025,138.591995,394.303986
808.127991,130.783997,390.399994
808.127991,132.735992,392.351990
808.127991,132.735992,394.303986
804.223999,136.639999,392.351990
804.223999,136.639999,394.303986
810.080017,138.591995,400.160004
815.935974,140.544006,398.208008
817.888000,142.496002,398.208008
808.127991,138.591995,392.351990
813.984009,134.688004,394.303986
813.984009,128.832001,396.256012
817.888000,138.591995,400.160004
821.791992,128.832001,396.256012
823.744019,130.783997,400.160004
821.791992,134.688004,388.447998
825.695984,132.735992,390.399994
819.840027,121.024002,390.399994
829.599976,121.024002,386.496002
823.744019,117.120003,386.496002
829.599976,121.024002,382.592010
829.599976,113.216003,386.496002
831.552002,117.120003,384.544006
823.744019,117.120003,392.351990
829.599976,121.024002,386.496002
839.359985,126.879997,382.592010
839.359985,117.120003,378.687988
831.552002,113.216003,384.544006
837.408020,119.071999,386.496002
847.168030,128.832001,390.399994
843.263977,122.975998,386.496002
860.831970,126.879997,392.351990
858.880005,128.832001,388.447998
854.976013,128.832001,396.256012
864.736023,128.832001,396.256012
866.687988,121.024002,398.208008
870.591980,121.024002,402.112000
866.687988,122.975998,407.967987
880.351990,121.024002,402.112000
878.400024,117.120003,404.063995
878.400024,119.071999,404.063995
882.304016,115.167999,413.824005
878.400024,105.407997,411.872009
890.112000,113.216003,409.920013
899.872009,113.216003,423.584015
897.919983,117.120003,427.488007
894.015991,119.071999,419.679993
901.823975,113.216003,421.631989
911.583984,115.167999,425.536011
911.583984,119.071999,419.679993
915.487976,105.407997,421.631989
913.536011,115.167999,417.727997
911.583984,111.264000,429.440002
915.487976,113.216003,425.536011
917.440002,107.360001,429.440002
913.536011,109.311996,425.536011
913.536011,115.167999,423.584015
915.487976,115.167999,419.679993
919.392029,109.311996,417.727997
923.296021,109.311996,421.631989
923.296021,115.167999,413.824005
921.343994,103.456001,421.631989
927.200012,107.360001,427.488007
917.440002,111.264000,429.440002
931.104004,113.216003,421.631989
927.200012,109.311996,419.679993
927.200012,97.599998,417.727997
935.007996,95.648003,429.440002
940.864014,99.552002,419.679993
936.960022,101.503998,409.920013
935.007996,93.695999,415.776001
929.151978,105.407997,419.679993
938.911987,101.503998,419.679993
933.056030,99.552002,421.631989
931.104004,91.744003,419.679993
933.056030,99.552002,417.727997
929.151978,99.552002,423.584015
929.151978,101.503998,423.584015
929.151978,95.648003,421.631989
921.343994,85.888000,419.679993
925.247986,78.080002,423.584015
925.247986,87.839996,419.679993
929.151978,80.031998,417.727997
917.440002,78.080002,413.824005
921.343994,72.223999,413.824005
927.200012,74.176003,421.631989
921.343994,83.935997,415.776001
921.343994,74.176003,413.824005
915.487976,72.223999,421.631989
915.487976,74.176003,415.776001
915.487976,66.367996,415.776001
919.392029,66.367996,417.727997
909.632019,76.127998,413.824005
909.632019,64.416000,407.967987
919.392029,68.320000,406.015991
921.343994,66.367996,415.776001
919.392029,62.464001,404.063995
925.247986,56.608002,415.776001
925.247986,54.655998,413.824005
907.679993,48.799999,402.112000
905.728027,54.655998,406.015991
897.919983,66.367996,407.967987
897.919983,52.703999,407.967987
895.968018,52.703999,402.112000
894.015991,48.799999,398.208008
888.159973,50.751999,400.160004
886.208008,48.799999,402.112000
886.208008,39.040001,398.208008
888.159973,31.232000,407.967987
895.968018,35.136002,407.967987
899.872009,40.992001,400.160004
901.823975,33.183998,409.920013
901.823975,27.327999,402.112000
890.112000,37.088001,411.872009
897.919983,37.088001,419.679993
899.872009,19.520000,415.776001
897.919983,21.472000,409.920013
894.015991,19.520000,415.776001
901.823975,17.568001,419.679993
899.872009,17.568001,417.727997
909.632019,11.712000,425.536011
913.536011,9.760000,421.631989
909.632019,13.664000,427.488007
909.632019,3.904000,417.727997
905.728027,3.904000,429.440002
915.487976,9.760000,427.488007
911.583984,11.712000,429.440002
921.343994,-1.952000,437.247986
913.536011,1.952000,443.104004
917.440002,5.856000,435.295990
925.247986,3.904000,431.391998
927.200012,3.904000,439.200012
929.151978,-3.904000,433.343994
923.296021,3.904000,443.104004
931.104004,9.760000,443.104004
923.296021,5.856000,441.152008
923.296021,3.904000,443.104004
923.296021,5.856000,439.200012
921.343994,-5.856000,431.391998
931.104004,-1.952000,439.200012
915.487976,15.616000,439.200012
925.247986,15.616000,433.343994
923.296021,11.712000,423.584015
915.487976,15.616000,427.488007
919.392029,9.760000,419.679993
919.392029,3.904000,417.727997
919.392029,11.712000,417.727997
919.392029,13.664000,417.727997
919.392029,13.664000,415.776001
919.392029,13.664000,415.776001
923.296021,5.856000,398.208008
917.440002,1.952000,406.015991
915.487976,3.904000,407.967987
919.392029,0.000000,404.063995
919.392029,0.000000,400.160004
913.536011,5.856000,400.160004
923.296021,1.952000,404.063995
911.583984,1.952000,394.303986
917.440002,5.856000,390.399994
917.440002,5.856000,398.208008
917.440002,-1.952000,390.399994
915.487976,9.760000,386.496002
919.392029,-7.808000,386.496002
921.343994,1.952000,382.592010
923.296021,-7.808000,386.496002
927.200012,9.760000,386.496002
919.392029,1.952000,384.544006
913.536011,0.000000,380.640015
917.440002,5.856000,372.832001
915.487976,5.856000,374.783997
915.487976,1.952000,380.640015
921.343994,0.000000,370.880005
919.392029,9.760000,384.544006
919.392029,5.856000,376.735992
919.392029,-7.808000,374.783997
913.536011,-13.664000,370.880005
909.632019,0.000000,368.928009
923.296021,3.904000,368.928009
915.487976,-1.952000,370.880005
919.392029,-1.952000,368.928009
915.487976,0.000000,368.928009
913.536011,0.000000,370.880005
909.632019,0.000000,368.928009
913.536011,0.000000,366.976013
907.679993,1.952000,366.976013
917.440002,-1.952000,359.167999
917.440002,-5.856000,363.071991
911.583984,-3.904000,363.071991
915.487976,0.000000,365.023987
919.392029,-7.808000,355.264008
911.583984,-5.856000,353.312012
925.247986,-11.712000,353.312012
923.296021,-19.520000,343.552002
929.151978,-9.760000,345.503998
927.200012,-13.664000,331.839996
925.247986,-11.712000,335.743988
929.151978,-9.760000,333.791992
933.056030,-13.664000,320.127991
935.007996,-23.424000,320.127991
935.007996,-21.472000,308.415985
935.007996,-17.568001,310.368011
942.815979,-23.424000,296.704010
936.960022,-17.568001,304.511993
948.671997,-31.232000,294.752014
946.719971,-17.568001,290.847992
944.768005,-27.327999,290.847992
946.719971,-27.327999,288.895996
940.864014,-21.472000,296.704010
950.624023,-29.280001,294.752014
948.671997,-39.040001,286.944000
960.383972,-33.183998,288.895996
950.624023,-42.944000,286.944000
952.575989,-46.848000,296.704010
956.479980,-40.992001,286.944000
964.288025,-35.136002,283.040009
958.432007,-33.183998,286.944000
968.192017,-40.992001,281.088013
956.479980,-39.040001,300.608002
976.000000,-50.751999,294.752014
964.288025,-40.992001,290.847992
972.096008,-42.944000,288.895996
972.096008,-31.232000,288.895996
976.000000,-29.280001,294.752014
974.047974,-37.088001,298.656006
981.856018,-37.088001,308.415985
991.616028,-29.280001,316.223999
993.567993,-31.232000,324.032013
991.616028,-23.424000,320.127991
995.520020,-19.520000,320.127991
995.520020,-13.664000,331.839996
1001.375977,-3.904000,337.696014
1009.184021,7.808000,343.552002
1016.992004,29.280001,355.264008
1007.231995,35.136002,355.264008
1009.184021,46.848000,351.359985
1009.184021,54.655998,353.312012
1013.088013,70.272003,357.216003
1018.943970,70.272003,366.976013
1018.943970,80.031998,359.167999
1032.608032,70.272003,361.119995
1022.848022,70.272003,370.880005
1024.800049,70.272003,368.928009
1036.511963,74.176003,366.976013
1032.608032,60.512001,374.783997
1032.608032,66.367996,384.544006
1026.751953,52.703999,384.544006
1044.319946,54.655998,384.544006
1044.319946,46.848000,378.687988
1046.271973,50.751999,374.783997
1042.368042,54.655998,380.640015
1040.416016,56.608002,374.783997
1040.416016,58.560001,382.592010
1044.319946,52.703999,392.351990
1063.839966,56.608002,404.063995
1046.271973,68.320000,394.303986
1050.176025,76.127998,406.015991
1050.176025,85.888000,406.015991
1059.936035,91.744003,402.112000
1050.176025,101.503998,407.967987
1056.031982,101.503998,415.776001
1052.128052,107.360001,409.920013
1056.031982,113.216003,409.920013
1056.031982,113.216003,409.920013
1059.936035,107.360001,411.872009
1063.839966,101.503998,423.584015
1063.839966,103.456001,427.488007
1065.791992,105.407997,423.584015
1052.128052,99.552002,425.536011
1071.647949,93.695999,431.391998
1057.984009,91.744003,433.343994
1050.176025,97.599998,439.200012
1054.079956,85.888000,435.295990
1052.128052,85.888000,439.200012
1052.128052,93.695999,431.391998
1040.416016,91.744003,429.440002
1038.463989,93.695999,431.391998
995.520020,95.648003,429.440002
1018.943970,70.272003,417.727997
1030.656006,15.616000,415.776001
1040.416016,21.472000,409.920013
1061.887939,33.183998,394.303986
1054.079956,-11.712000,388.447998
1050.176025,-5.856000,374.783997
1042.368042,31.232000,370.880005
1044.319946,19.520000,380.640015
1040.416016,35.136002,368.928009
1036.511963,101.503998,386.496002
1018.943970,113.216003,382.592010
999.424011,134.688004,380.640015
999.424011,162.016006,388.447998
1001.375977,165.919998,368.928009
1016.992004,175.679993,366.976013
1034.560059,191.296005,359.167999
1042.368042,181.535995,361.119995
1034.560059,167.871994,351.359985
1050.176025,179.584000,351.359985
1048.223999,177.632004,357.216003
1050.176025,185.440002,361.119995
1050.176025,165.919998,368.928009
1042.368042,165.919998,378.687988
1032.608032,152.255997,390.399994
1040.416016,136.639999,394.303986
1026.751953,113.216003,390.399994
1030.656006,91.744003,402.112000
1028.703979,64.416000,406.015991
1032.608032,48.799999,411.872009
1040.416016,27.327999,417.727997
1034.560059,15.616000,421.631989
1030.656006,11.712000,425.536011
1042.368042,11.712000,441.152008
1030.656006,7.808000,439.200012
1028.703979,15.616000,437.247986
1020.895996,40.992001,448.959991
1030.656006,62.464001,448.959991
1020.895996,78.080002,447.007996
1018.943970,99.552002,447.007996
1022.848022,109.311996,448.959991
1028.703979,122.975998,450.911987
1015.039978,146.399994,452.864014
1013.088013,146.399994,450.911987
1013.088013,148.352005,454.816010
1009.184021,165.919998,452.864014
1024.800049,156.160004,450.911987
1016.992004,154.207993,450.911987
1011.135986,146.399994,441.152008
1013.088013,132.735992,447.007996
1009.184021,122.975998,437.247986
1007.231995,105.407997,429.440002
999.424011,87.839996,423.584015
1005.280029,62.464001,429.440002
993.567993,56.608002,421.631989
991.616028,42.944000,417.727997
987.711975,31.232000,417.727997
995.520020,39.040001,417.727997
987.711975,29.280001,419.679993
977.952026,33.183998,411.872009
987.711975,35.136002,411.872009
968.192017,42.944000,400.160004
974.047974,50.751999,398.208008
972.096008,62.464001,400.160004
962.335999,78.080002,400.160004
974.047974,80.031998,396.256012
962.335999,93.695999,382.592010
966.239990,103.456001,380.640015
952.575989,107.360001,380.640015
954.528015,99.552002,370.880005
944.768005,105.407997,366.976013
952.575989,99.552002,361.119995
946.719971,85.888000,368.928009
944.768005,66.367996,351.359985
944.768005,68.320000,339.648010
936.960022,46.848000,335.743988
942.815979,48.799999,327.936005
938.911987,39.040001,322.079987
938.911987,35.136002,322.079987
938.911987,35.136002,308.415985
931.104004,29.280001,308.415985
935.007996,40.992001,308.415985
915.487976,39.040001,302.559998
917.440002,44.896000,296.704010
919.392029,54.655998,290.847992
915.487976,56.608002,286.944000
929.151978,68.320000,279.135986
921.343994,58.560001,267.424011
935.007996,70.272003,267.424011
944.768005,66.367996,269.376007
938.911987,74.176003,267.424011
946.719971,72.223999,259.615997
956.479980,70.272003,249.856003
962.335999,62.464001,253.759995
977.952026,50.751999,247.904007
1005.280029,46.848000,249.856003
1005.280029,54.655998,253.759995
1003.328003,50.751999,257.664001
991.616028,44.896000,247.904007
1001.375977,21.472000,259.615997
1022.848022,13.664000,255.712006
1007.231995,25.375999,255.712006
1024.800049,25.375999,263.519989
1015.039978,-7.808000,275.231995
1016.992004,-29.280001,281.088013
999.424011,-13.664000,281.088013
1009.184021,0.000000,286.944000
999.424011,-5.856000,294.752014
995.520020,-27.327999,314.272003
979.903992,-21.472000,320.127991
977.952026,-9.760000,329.888000
974.047974,-11.712000,331.839996
972.096008,-23.424000,353.312012
976.000000,-27.327999,351.359985
966.239990,-5.856000,365.023987
962.335999,5.856000,368.928009
952.575989,-3.904000,376.735992
940.864014,-7.808000,372.832001
940.864014,11.712000,386.496002
938.911987,11.712000,378.687988
935.007996,9.760000,368.928009
931.104004,9.760000,374.783997
923.296021,15.616000,361.119995
923.296021,19.520000,355.264008
913.536011,21.472000,357.216003
905.728027,17.568001,345.503998
901.823975,11.712000,337.696014
913.536011,5.856000,335.743988
901.823975,0.000000,324.032013
899.872009,0.000000,314.272003
897.919983,5.856000,298.656006
897.919983,-1.952000,284.992004
897.919983,-7.808000,275.231995
890.112000,-9.760000,259.615997
892.064026,-7.808000,236.192001
892.064026,3.904000,230.335999
888.159973,-5.856000,212.768005
886.208008,5.856000,220.576004
886.208008,9.760000,195.199997
888.159973,5.856000,185.440002
884.255981,5.856000,183.488007
892.064026,3.904000,185.440002
882.304016,5.856000,177.632004
892.064026,1.952000,173.727997
899.872009,0.000000,165.919998
886.208008,3.904000,160.063995
897.919983,5.856000,162.016006
897.919983,-3.904000,158.112000
903.776001,-7.808000,152.255997
897.919983,-9.760000,154.207993
901.823975,-5.856000,152.255997
903.776001,-21.472000,150.304001
901.823975,-15.616000,152.255997
903.776001,-15.616000,162.016006
903.776001,-27.327999,150.304001
905.728027,-37.088001,165.919998
907.679993,-29.280001,160.063995
909.632019,-29.280001,173.727997
905.728027,-35.136002,179.584000
915.487976,-39.040001,175.679993
919.392029,-40.992001,173.727997
921.343994,-37.088001,181.535995
935.007996,-33.183998,193.248001
940.864014,-46.848000,201.056000
933.056030,-44.896000,203.007996
942.815979,-46.848000,214.720001
936.960022,-46.848000,214.720001
944.768005,-39.040001,236.192001
944.768005,-39.040001,226.432007
952.575989,-29.280001,242.048004
944.768005,-29.280001,257.664001
946.719971,-29.280001,263.519989
952.575989,-33.183998,286.944000
958.432007,-33.183998,286.944000
962.335999,-37.088001,302.559998
964.288025,-37.088001,304.511993
960.383972,-54.655998,324.032013
962.335999,-42.944000,314.272003
972.096008,-37.088001,312.320007
972.096008,-37.088001,314.272003
968.192017,-50.751999,308.415985
974.047974,-52.703999,314.272003
977.952026,-37.088001,308.415985
981.856018,-37.088001,306.463989
993.567993,-46.848000,318.175995
979.903992,-39.040001,320.127991
989.664001,-33.183998,306.463989
983.807983,-31.232000,306.463989
983.807983,-25.375999,304.511993
985.760010,-21.472000,308.415985
985.760010,-25.375999,308.415985
983.807983,-35.136002,306.463989
983.807983,-23.424000,302.559998
993.567993,-27.327999,298.656006
987.711975,-29.280001,281.088013
985.760010,-27.327999,277.183990
991.616028,-33.183998,277.183990
970.143982,-27.327999,273.279999
983.807983,-42.944000,277.183990
976.000000,-33.183998,275.231995
985.760010,-33.183998,265.471985
985.760010,-37.088001,259.615997
981.856018,-29.280001,259.615997
979.903992,-40.992001,255.712006
972.096008,-37.088001,244.000000
987.711975,-19.520000,242.048004
976.000000,-23.424000,240.095993
983.807983,-19.520000,236.192001
976.000000,-3.904000,232.287994
976.000000,-11.712000,238.143997
979.903992,-19.520000,240.095993
979.903992,-7.808000,228.384003
979.903992,-17.568001,208.863998
981.856018,-9.760000,203.007996
989.664001,21.472000,203.007996
991.616028,1.952000,187.391998
993.567993,-1.952000,187.391998
989.664001,25.375999,195.199997
989.664001,17.568001,183.488007
993.567993,15.616000,187.391998
901.823975,-167.871994,288.895996
927.200012,-54.655998,454.816010
894.015991,284.992004,419.679993
925.247986,-5.856000,244.000000
1013.088013,-173.727997,105.407997
1056.031982,-74.176003,99.552002
1011.135986,-89.792000,181.535995
981.856018,58.560001,249.856003
954.528015,95.648003,263.519989
972.096008,-109.311996,226.432007
1001.375977,-5.856000,181.535995
1013.088013,93.695999,173.727997
944.768005,-7.808000,224.479996
1046.271973,-19.520000,318.175995
1108.735962,-93.695999,486.048004
1159.488037,-275.231995,679.296021
1180.959961,-456.768005,794.463989
1237.567993,-288.895996,772.992004
1229.760010,-197.151993,730.047974
1155.583984,-66.367996,663.679993
1097.024048,255.712006,536.799988
1040.416016,552.416016,423.584015
993.567993,626.591980,327.936005
979.903992,450.911987,273.279999
983.807983,249.856003,226.432007
987.711975,218.623993,195.199997
995.520020,195.199997,185.440002
993.567993,64.416000,203.007996
995.520020,7.808000,193.248001
983.807983,19.520000,163.968002
970.143982,19.520000,142.496002
962.335999,-13.664000,119.071999
940.864014,-56.608002,107.360001
942.815979,-76.127998,76.127998
935.007996,-97.599998,60.512001
929.151978,-140.544006,54.655998
915.487976,-148.352005,56.608002
919.392029,-124.928001,37.088001
917.440002,-103.456001,15.616000
905.728027,-76.127998,-1.952000
895.968018,-74.176003,-19.520000
888.159973,-29.280001,-31.232000
882.304016,5.856000,-54.655998
876.447998,40.992001,-56.608002
864.736023,58.560001,-64.416000
858.880005,42.944000,-64.416000
858.880005,35.136002,-64.416000
860.831970,33.183998,-74.176003
860.831970,29.280001,-74.176003
858.880005,27.327999,-60.512001
854.976013,44.896000,-52.703999
851.072021,64.416000,-35.136002
860.831970,42.944000,-9.760000
860.831970,-15.616000,3.904000
858.880005,-70.272003,27.327999
872.544006,-76.127998,46.848000
864.736023,-126.879997,46.848000
866.687988,-165.919998,46.848000
853.023987,-165.919998,3.904000
847.168030,-134.688004,-21.472000
856.927979,-40.992001,-64.416000
833.504028,11.712000,-93.695999
821.791992,7.808000,-115.167999
817.888000,17.568001,-140.544006
825.695984,15.616000,-152.255997
808.127991,40.992001,-146.399994
804.223999,40.992001,-142.496002
806.176025,19.520000,-134.688004
804.223999,1.952000,-136.639999
800.320007,1.952000,-134.688004
804.223999,42.944000,-140.544006
813.984009,-11.712000,-130.783997
843.263977,-91.744003,-109.311996
849.119995,-124.928001,-83.935997
868.640015,-191.296005,-95.648003
880.351990,-255.712006,-95.648003
862.783997,-294.752014,-103.456001
860.831970,-263.519989,-121.024002
833.504028,-160.063995,-130.783997
821.791992,-25.375999,-140.544006
806.176025,25.375999,-152.255997
806.176025,60.512001,-163.968002
620.736023,632.447998,-46.848000
722.239990,1305.887939,275.231995
847.168030,2114.016113,448.959991
1007.231995,2473.184082,513.375977
1052.128052,1891.488037,532.895996
1104.832031,54.655998,503.615997
1255.135986,-1684.576050,484.096008
1313.696045,-2348.256104,466.528015
1243.423950,-1901.248047,470.432007
1184.864014,-404.063995,448.959991
1169.248047,968.192017,398.208008
1149.728027,1397.631958,359.167999
1126.303955,1075.552002,329.888000
1102.880005,152.255997,286.944000
1087.264038,-739.807983,240.095993
1110.687988,-907.679993,204.960007
1079.456055,-439.200012,177.632004
1059.936035,29.280001,142.496002
1003.328003,284.992004,103.456001
944.768005,318.175995,50.751999
905.728027,214.720001,1.952000
884.255981,121.024002,-29.280001
872.544006,89.792000,-48.799999
890.112000,154.207993,-70.272003
923.296021,203.007996,-72.223999
923.296021,197.151993,-72.223999
921.343994,122.975998,-62.464001
919.392029,-9.760000,-50.751999
915.487976,-78.080002,-46.848000
919.392029,-27.327999,-15.616000
911.583984,126.879997,-9.760000
901.823975,279.135986,-3.904000
911.583984,335.743988,11.712000
905.728027,296.704010,31.232000
915.487976,160.063995,60.512001
917.440002,5.856000,58.560001
897.919983,-68.320000,64.416000
894.015991,-42.944000,62.464001
880.351990,19.520000,42.944000
866.687988,103.456001,15.616000
849.119995,224.479996,-11.712000
839.359985,388.447998,-44.896000
802.271973,536.799988,-29.280001
794.463989,601.216003,-11.712000
792.512024,468.480011,29.280001
817.888000,78.080002,42.944000
876.447998,-353.312012,46.848000
919.392029,-673.440002,23.424000
915.487976,-815.935974,-11.712000
882.304016,-931.104004,-35.136002
833.504028,-872.544006,-25.375999
792.512024,-458.720001,-9.760000
784.703979,111.264000,-13.664000
790.559998,466.528015,-29.280001
808.127991,525.088013,-80.031998
802.271973,304.511993,-144.447998
788.607971,-70.272003,-199.104004
778.848022,-273.279999,-259.615997
772.992004,-136.639999,-306.463989
765.184021,158.112000,-347.455994
741.760010,376.735992,-388.447998
751.520020,368.928009,-450.911987
728.096008,191.296005,-503.615997
698.815979,29.280001,-546.559998
673.440002,-29.280001,-593.408020
630.495972,31.232000,-614.880005
620.736023,251.807999,-605.119995
610.976013,527.039978,-525.088013
626.591980,501.664001,-431.391998
683.200012,-15.616000,-365.023987
769.088013,-579.744019,-318.175995
810.080017,-981.856018,-322.079987
837.408020,-1284.416016,-341.600006
790.559998,-1514.751953,-359.167999
735.903992,-1382.015991,-349.407990
669.536011,-841.312012,-363.071991
677.343994,-97.599998,-378.687988
724.192017,616.831970,-400.160004
739.807983,1030.656006,-425.536011
735.903992,1018.943970,-499.712006
726.143982,562.176025,-560.223999
765.184021,-27.327999,-607.072021
810.080017,-536.799988,-659.776001
874.495972,-851.072021,-659.776001
813.984009,-1015.039978,-566.080017
689.056030,-517.280029,-396.256012
614.880005,472.384003,-290.847992
650.015991,1100.927979,-234.240005
833.504028,1225.855957,-245.951996
917.440002,735.903992,-244.000000
942.815979,-316.223999,-232.287994
962.335999,-1264.895996,-257.664001
913.536011,-1711.904053,-259.615997
825.695984,-1446.432007,-361.119995
728.096008,-203.007996,-454.816010
689.056030,1311.744019,-366.976013
874.495972,2399.008057,-163.968002
1065.791992,2701.568115,33.183998
952.575989,1173.151978,130.783997
1126.303955,-1471.807983,19.520000
1305.887939,-3183.711914,-101.503998
1364.447998,-3267.647949,-201.056000
1188.767944,-1803.647949,-236.192001
1040.416016,322.079987,-267.424011
1020.895996,1641.631958,-298.656006
1190.719971,1801.696045,-390.399994
1179.008057,1067.744019,-361.119995
1059.936035,-612.927979,-224.479996
1102.880005,-1731.423950,-87.839996
1194.624023,-1508.895996,0.000000
1210.239990,-431.391998,37.088001
1196.576050,650.015991,66.367996
1229.760010,1108.735962,17.568001
1223.904053,796.416016,-58.560001
1214.144043,-46.848000,-113.216003
1262.943970,-892.064026,-165.919998
1290.271973,-1190.719971,-236.192001
1274.656006,-899.872009,-279.135986
1278.560059,-269.376007,-300.608002
1282.463989,308.415985,-333.791992
1298.079956,634.400024,-324.032013
1356.640015,597.312012,-325.984009
1430.816040,220.576004,-327.936005
1432.767944,-56.608002,-244.000000
1446.432007,-193.248001,-93.695999
1387.871948,-132.735992,5.856000
1434.719971,27.327999,5.856000
1432.767944,265.471985,-50.751999
1446.432007,365.023987,-103.456001
1452.287964,318.175995,-140.544006
1467.904053,216.671997,-163.968002
1475.712036,138.591995,-165.919998
1545.984009,62.464001,-204.960007
1590.880005,50.751999,-244.000000
1612.352051,64.416000,-251.807999
1544.031982,203.007996,-255.712006
1547.936035,378.687988,-245.951996
1510.848022,409.920013,-218.623993
1532.319946,255.712006,-183.488007
1553.791992,48.799999,-132.735992
1534.271973,66.367996,-19.520000
1508.895996,396.256012,64.416000
1501.088013,737.856018,101.503998
1514.751953,808.127991,87.839996
1493.280029,585.599976,23.424000
1532.319946,187.391998,-85.888000
1567.456055,-152.255997,-167.871994
1594.784058,-226.432007,-204.960007
1577.215942,5.856000,-206.912003
1614.303955,351.359985,-226.432007
1645.536011,665.632019,-230.335999
1665.056030,835.455994,-226.432007
1704.095947,794.463989,-208.863998
1725.567993,562.176025,-189.343994
1733.375977,290.847992,-165.919998
1764.608032,195.199997,-150.304001
1741.183960,226.432007,-132.735992
1721.663940,322.079987,-122.975998
1797.791992,552.416016,-126.879997
1840.735962,821.791992,-39.040001
1813.407959,942.815979,56.608002
1762.656006,874.495972,160.063995
1684.576050,601.216003,306.463989
1663.104004,167.871994,386.496002
1667.008057,-165.919998,433.343994
1692.384033,-286.944000,411.872009
1704.095947,-81.984001,368.928009
1715.807983,324.032013,310.368011
1719.712036,593.408020,236.192001
1696.287964,724.192017,179.584000
1704.095947,763.231995,103.456001
1702.144043,536.799988,48.799999
1694.336060,218.623993,25.375999
1674.816040,-23.424000,-9.760000
1626.015991,-128.832001,-54.655998
1618.208008,-128.832001,-121.024002
1577.215942,1.952000,-152.255997
1528.416016,201.056000,-195.199997
1469.855957,50.751999,-214.720001
1382.015991,-253.759995,-154.207993
1331.264038,-214.720001,-87.839996
1321.504028,203.007996,44.896000
1411.296021,462.623993,283.040009
1618.208008,-40.992001,894.015991
2369.728027,-2724.991943,3060.736084
3689.280029,-6418.175781,6578.240234
4202.655762,-5811.104004,7130.655762
4105.056152,-5280.160156,4538.399902
3661.951904,-3464.800049,1136.063965
2838.208008,-1786.079956,-909.632019
1784.128052,497.760010,-1686.527954
876.447998,2365.823975,-2030.079956
528.992004,2615.679932,-2268.224121
339.648010,2822.592041,-2180.384033
281.088013,2184.288086,-1493.280029
396.256012,1403.488037,-468.480011
581.695984,407.967987,349.407990
837.408020,-329.888000,509.471985
976.000000,-357.216003,203.007996
1063.839966,-597.312012,-87.839996
1038.463989,-612.927979,-325.984009
936.960022,-642.208008,-634.400024
851.072021,-491.903992,-958.432007
868.640015,316.223999,-1085.312012
886.208008,425.536011,-825.695984
931.104004,177.632004,-527.039978
979.903992,314.272003,-447.007996
983.807983,193.248001,-532.895996
964.288025,294.752014,-650.015991
968.192017,486.048004,-669.536011
942.815979,550.463989,-599.263977
907.679993,523.135986,-552.416016
892.064026,554.367981,-581.695984
728.096008,-119.071999,-521.184021
732.000000,-185.440002,-614.880005
759.328003,-17.568001,-735.903992
730.047974,-195.199997,-644.159973
858.880005,171.776001,-628.544006
876.447998,318.175995,-439.200012
985.760010,417.727997,-312.320007
977.952026,382.592010,-310.368011
917.440002,357.216003,-447.007996
843.263977,253.759995,-575.840027
841.312012,121.024002,-614.880005
890.112000,-5.856000,-546.559998
956.479980,-105.407997,-431.391998
1022.848022,-119.071999,-376.735992
1040.416016,-107.360001,-365.023987
1011.135986,-76.127998,-388.447998
968.192017,-23.424000,-427.488007
948.671997,37.088001,-462.623993
936.960022,44.896000,-443.104004
946.719971,60.512001,-435.295990
948.671997,62.464001,-419.679993
958.432007,101.503998,-413.824005
987.711975,52.703999,-404.063995
979.903992,27.327999,-402.112000
985.760010,52.703999,-413.824005
977.952026,48.799999,-454.816010
958.432007,56.608002,-476.287994
944.768005,54.655998,-452.864014
952.575989,46.848000,-411.872009
960.383972,1.952000,-353.312012
970.143982,-66.367996,-316.223999
983.807983,-93.695999,-331.839996
999.424011,-99.552002,-378.687988
981.856018,-144.447998,-322.079987
954.528015,-201.056000,-247.904007
940.864014,-191.296005,-265.471985
894.015991,-177.632004,-288.895996
876.447998,-204.960007,-314.272003
882.304016,-245.951996,-351.359985
935.007996,-226.432007,-400.160004
974.047974,-197.151993,-384.544006
1016.992004,-212.768005,-269.376007
1061.887939,-267.424011,-128.832001
1132.160034,-310.368011,-23.424000
1200.479980,-302.559998,-5.856000
1216.095947,-300.608002,-11.712000
1192.671997,-314.272003,-1.952000
1139.968018,-302.559998,-58.560001
1100.927979,-277.183990,-165.919998
1104.832031,-267.424011,-247.904007
1110.687988,-304.511993,-253.759995
1118.495972,-366.976013,-210.815994
1139.968018,-341.600006,-181.535995
1161.439941,-292.799988,-105.407997
1177.056030,-238.143997,-27.327999
1190.719971,-189.343994,-42.944000
1192.671997,-138.591995,-87.839996
1165.343994,-103.456001,-130.783997
1147.776001,-58.560001,-179.584000
1165.343994,-66.367996,-204.960007
1186.816040,-117.120003,-234.240005
1198.527954,-191.296005,-259.615997
1188.767944,-238.143997,-302.559998
1175.104004,-191.296005,-316.223999
1165.343994,-105.407997,-306.463989
1153.631958,-3.904000,-286.944000
1139.968018,54.655998,-290.847992
1139.968018,70.272003,-298.656006
1141.920044,81.984001,-318.175995
1136.063965,62.464001,-318.175995
1143.871948,60.512001,-333.791992
1161.439941,78.080002,-345.503998
1171.199951,107.360001,-341.600006
1190.719971,132.735992,-327.936005
1208.287964,156.160004,-298.656006
1223.904053,173.727997,-284.992004
1221.952026,175.679993,-273.279999
1221.952026,175.679993,-281.088013
1216.095947,163.968002,-281.088013
1196.576050,142.496002,-283.040009
1190.719971,115.167999,-286.944000
1192.671997,97.599998,-284.992004
1190.719971,81.984001,-281.088013
1196.576050,101.503998,-283.040009
1206.336060,191.296005,-310.368011
1198.527954,224.479996,-325.984009
1184.864014,158.112000,-324.032013
1182.911987,113.216003,-337.696014
1179.008057,9.760000,-347.455994
1155.583984,-58.560001,-349.407990
1141.920044,-97.599998,-386.496002
1112.640015,-115.167999,-413.824005
1114.592041,-109.311996,-423.584015
1114.592041,-89.792000,-429.440002
1108.735962,-83.935997,-427.488007
1120.447998,-85.888000,-407.967987
1139.968018,-80.031998,-384.544006
1151.680054,-91.744003,-370.880005
1153.631958,-87.839996,-361.119995
1145.823975,-68.320000,-353.312012
1147.776001,-42.944000,-343.552002
1132.160034,-15.616000,-341.600006
1139.968018,9.760000,-331.839996
1149.728027,5.856000,-327.936005
1163.391968,13.664000,-314.272003
1180.959961,25.375999,-290.847992
1180.959961,42.944000,-284.992004
1161.439941,68.320000,-292.799988
1163.391968,103.456001,-292.799988
1167.296021,134.688004,-298.656006
1167.296021,167.871994,-304.511993
1173.151978,187.391998,-296.704010
1177.056030,169.824005,-296.704010
1173.151978,148.352005,-296.704010
1157.536011,117.120003,-318.175995
1153.631958,74.176003,-333.791992
1143.871948,40.992001,-331.839996
1141.920044,40.992001,-345.503998
1139.968018,56.608002,-355.264008
1136.063965,76.127998,-359.167999
1145.823975,78.080002,-363.071991
1149.728027,78.080002,-365.023987
1147.776001,60.512001,-359.167999
1151.680054,40.992001,-363.071991
1155.583984,23.424000,-365.023987
1139.968018,15.616000,-361.119995
1128.255981,21.472000,-388.447998
1134.112061,1.952000,-390.399994
1136.063965,-5.856000,-378.687988
1138.015991,-3.904000,-368.928009
1136.063965,-7.808000,-357.216003
1149.728027,5.856000,-359.167999
1147.776001,5.856000,-357.216003
1153.631958,9.760000,-347.455994
1136.063965,17.568001,-351.359985
1143.871948,15.616000,-347.455994
1153.631958,15.616000,-335.743988
1157.536011,17.568001,-329.888000
1153.631958,31.232000,-327.936005
1147.776001,37.088001,-318.175995
1151.680054,27.327999,-320.127991
1145.823975,40.992001,-329.888000
1149.728027,35.136002,-318.175995
1139.968018,52.703999,-327.936005
1130.208008,37.088001,-318.175995
1130.208008,37.088001,-327.936005
1124.352051,44.896000,-314.272003
1122.400024,52.703999,-324.032013
1110.687988,44.896000,-333.791992
1106.784058,23.424000,-343.552002
1100.927979,19.520000,-341.600006
1104.832031,21.472000,-329.888000
1102.880005,27.327999,-324.032013
1104.832031,27.327999,-325.984009
1091.167969,35.136002,-343.552002
1079.456055,21.472000,-353.312012
1067.744019,17.568001,-365.023987
1065.791992,3.904000,-351.359985
1075.552002,-3.904000,-329.888000
1071.647949,-3.904000,-324.032013
1067.744019,7.808000,-341.600006
1061.887939,7.808000,-349.407990
1063.839966,13.664000,-351.359985
1079.456055,15.616000,-343.552002
1061.887939,13.664000,-347.455994
1061.887939,7.808000,-333.791992
1059.936035,17.568001,-325.984009
1057.984009,7.808000,-331.839996
1069.696045,1.952000,-325.984009
1063.839966,7.808000,-337.696014
1059.936035,13.664000,-343.552002
1059.936035,9.760000,-355.264008
1061.887939,-7.808000,-325.984009
1077.504028,11.712000,-300.608002
1087.264038,25.375999,-290.847992
1067.744019,33.183998,-296.704010
1061.887939,37.088001,-314.272003
1056.031982,23.424000,-327.936005
1057.984009,7.808000,-329.888000
1065.791992,-9.760000,-322.079987
1061.887939,-1.952000,-331.839996
1059.936035,-17.568001,-324.032013
1057.984009,-11.712000,-329.888000
1050.176025,-35.136002,-329.888000
1044.319946,-29.280001,-329.888000
1046.271973,-21.472000,-320.127991
1056.031982,-17.568001,-318.175995
1054.079956,-13.664000,-325.984009
1052.128052,-11.712000,-327.936005
1040.416016,-7.808000,-322.079987
1048.223999,1.952000,-327.936005
1054.079956,-5.856000,-310.368011
1056.031982,3.904000,-314.272003
1056.031982,-15.616000,-318.175995
1044.319946,-11.712000,-308.415985
1050.176025,-3.904000,-304.511993
1048.223999,-5.856000,-310.368011
1038.463989,-7.808000,-316.223999
1040.416016,-21.472000,-290.847992
1038.463989,-31.232000,-306.463989
1046.271973,-13.664000,-314.272003
1036.511963,-31.232000,-314.272003
1022.848022,-39.040001,-316.223999
1028.703979,-40.992001,-316.223999
1034.560059,-37.088001,-306.463989
1030.656006,-39.040001,-306.463989
1028.703979,-33.183998,-304.511993
1020.895996,-33.183998,-316.223999
1020.895996,-35.136002,-314.272003
1016.992004,-27.327999,-324.032013
1022.848022,-35.136002,-310.368011
1026.751953,-31.232000,-300.608002
1016.992004,-33.183998,-296.704010
1015.039978,-25.375999,-300.608002
1022.848022,-35.136002,-310.368011
1011.135986,-35.136002,-325.984009
1013.088013,-46.848000,-320.127991
1003.328003,-62.464001,-312.320007
999.424011,-60.512001,-312.320007
999.424011,-56.608002,-300.608002
1003.328003,-46.848000,-304.511993
997.471985,-52.703999,-306.463989
997.471985,-42.944000,-335.743988
983.807983,-64.416000,-316.223999
993.567993,-50.751999,-284.992004
1003.328003,-33.183998,-290.847992
1005.280029,-37.088001,-294.752014
979.903992,-52.703999,-290.847992
972.096008,-56.608002,-310.368011
966.239990,-56.608002,-302.559998
979.903992,-48.799999,-302.559998
989.664001,-60.512001,-290.847992
981.856018,-66.367996,-284.992004
979.903992,-52.703999,-286.944000
976.000000,-60.512001,-294.752014
970.143982,-68.320000,-286.944000
964.288025,-70.272003,-308.415985
950.624023,-80.031998,-300.608002
962.335999,-70.272003,-286.944000
956.479980,-60.512001,-300.608002
950.624023,-76.127998,-312.320007
958.432007,-78.080002,-308.415985
950.624023,-64.416000,-312.320007
946.719971,-78.080002,-304.511993
950.624023,-81.984001,-308.415985
933.056030,-76.127998,-300.608002
936.960022,-80.031998,-314.272003
929.151978,-72.223999,-310.368011
942.815979,-66.367996,-300.608002
942.815979,-66.367996,-302.559998
933.056030,-74.176003,-310.368011
931.104004,-83.935997,-318.175995
933.056030,-74.176003,-314.272003
933.056030,-70.272003,-308.415985
938.911987,-66.367996,-310.368011
925.247986,-60.512001,-306.463989
931.104004,-60.512001,-310.368011
927.200012,-64.416000,-302.559998
935.007996,-62.464001,-288.895996
940.864014,-76.127998,-284.992004
940.864014,-60.512001,-284.992004
933.056030,-60.512001,-283.040009
933.056030,-66.367996,-277.183990
935.007996,-58.560001,-286.944000
931.104004,-48.799999,-281.088013
936.960022,-58.560001,-275.231995
935.007996,-60.512001,-284.992004
929.151978,-58.560001,-279.135986
938.911987,-58.560001,-279.135986
933.056030,-66.367996,-279.135986
936.960022,-56.608002,-269.376007
942.815979,-58.560001,-275.231995
933.056030,-58.560001,-283.040009
933.056030,-52.703999,-281.088013
929.151978,-46.848000,-275.231995
936.960022,-52.703999,-273.279999
933.056030,-50.751999,-263.519989
935.007996,-66.367996,-281.088013
927.200012,-58.560001,-279.135986
927.200012,-62.464001,-292.799988
927.200012,-64.416000,-284.992004
921.343994,-58.560001,-283.040009
931.104004,-52.703999,-283.040009
933.056030,-48.799999,-284.992004
933.056030,-39.040001,-288.895996
931.104004,-44.896000,-286.944000
936.960022,-48.799999,-286.944000
940.864014,-66.367996,-279.135986
935.007996,-66.367996,-283.040009
942.815979,-48.799999,-281.088013
933.056030,-50.751999,-292.799988
933.056030,-46.848000,-290.847992
935.007996,-40.992001,-292.799988
946.719971,-58.560001,-296.704010
950.624023,-62.464001,-281.088013
952.575989,-40.992001,-271.328003
948.671997,-46.848000,-265.471985
948.671997,-46.848000,-271.328003
944.768005,-50.751999,-288.895996
944.768005,-50.751999,-283.040009
936.960022,-52.703999,-284.992004
946.719971,-40.992001,-271.328003
948.671997,-40.992001,-261.567993
944.768005,-39.040001,-261.567993
954.528015,-33.183998,-269.376007
944.768005,-48.799999,-271.328003
940.864014,-40.992001,-271.328003
948.671997,-33.183998,-273.279999
936.960022,-31.232000,-269.376007
933.056030,-31.232000,-275.231995
938.911987,-25.375999,-273.279999
946.719971,-37.088001,-277.183990
938.911987,-27.327999,-271.328003
942.815979,-33.183998,-267.424011
940.864014,-27.327999,-271.328003
935.007996,-33.183998,-271.328003
938.911987,-29.280001,-279.135986
944.768005,-35.136002,-275.231995
946.719971,-23.424000,-277.183990
946.719971,-21.472000,-277.183990
946.719971,-21.472000,-267.424011
946.719971,-11.712000,-265.471985
944.768005,-19.520000,-277.183990
938.911987,-21.472000,-271.328003
946.719971,-15.616000,-271.328003
944.768005,-17.568001,-273.279999
948.671997,-11.712000,-277.183990
942.815979,-13.664000,-271.328003
935.007996,-13.664000,-269.376007
940.864014,-7.808000,-279.135986
942.815979,-11.712000,-277.183990
940.864014,-19.520000,-269.376007
921.343994,-27.327999,-277.183990
935.007996,-13.664000,-273.279999
938.911987,-7.808000,-269.376007
942.815979,-5.856000,-267.424011
929.151978,-11.712000,-267.424011
935.007996,-1.952000,-265.471985
935.007996,-1.952000,-263.519989
935.007996,-7.808000,-265.471985
935.007996,-5.856000,-269.376007
933.056030,-13.664000,-267.424011
931.104004,-3.904000,-267.424011
925.247986,-3.904000,-263.519989
931.104004,-3.904000,-265.471985
929.151978,-1.952000,-265.471985
921.343994,-13.664000,-267.424011
921.343994,-1.952000,-253.759995
927.200012,-7.808000,-259.615997
923.296021,-3.904000,-261.567993
919.392029,-5.856000,-267.424011
923.296021,-5.856000,-271.328003
911.583984,-1.952000,-263.519989
913.536011,0.000000,-263.519989
911.583984,-3.904000,-265.471985
911.583984,7.808000,-253.759995
909.632019,0.000000,-263.519989
905.728027,-1.952000,-275.231995
903.776001,-3.904000,-269.376007
901.823975,5.856000,-261.567993
897.919983,5.856000,-269.376007
892.064026,-1.952000,-269.376007
895.968018,5.856000,-275.231995
892.064026,1.952000,-275.231995
894.015991,3.904000,-284.992004
886.208008,-3.904000,-275.231995
888.159973,7.808000,-269.376007
890.112000,3.904000,-277.183990
886.208008,7.808000,-271.328003
888.159973,3.904000,-275.231995
884.255981,7.808000,-271.328003
892.064026,0.000000,-271.328003
882.304016,3.904000,-267.424011
884.255981,13.664000,-271.328003
882.304016,13.664000,-257.664001
884.255981,11.712000,-259.615997
874.495972,7.808000,-255.712006
878.400024,9.760000,-261.567993
884.255981,-3.904000,-255.712006
876.447998,3.904000,-265.471985
878.400024,9.760000,-263.519989
886.208008,15.616000,-257.664001
884.255981,11.712000,-259.615997
882.304016,11.712000,-255.712006
882.304016,7.808000,-265.471985
884.255981,9.760000,-261.567993
880.351990,3.904000,-263.519989
884.255981,15.616000,-271.328003
888.159973,7.808000,-263.519989
870.591980,7.808000,-273.279999
872.544006,-1.952000,-269.376007
872.544006,0.000000,-259.615997
880.351990,-5.856000,-263.519989
876.447998,-1.952000,-259.615997
880.351990,7.808000,-257.664001
878.400024,5.856000,-267.424011
876.447998,-3.904000,-261.567993
872.544006,0.000000,-271.328003
882.304016,-1.952000,-265.471985
870.591980,1.952000,-251.807999
880.351990,15.616000,-255.712006
892.064026,3.904000,-257.664001
886.208008,11.712000,-259.615997
894.015991,15.616000,-255.712006
892.064026,7.808000,-251.807999
890.112000,13.664000,-245.951996
897.919983,13.664000,-261.567993
894.015991,13.664000,-245.951996
897.919983,9.760000,-249.856003
899.872009,13.664000,-253.759995
899.872009,11.712000,-247.904007
905.728027,15.616000,-249.856003
901.823975,0.000000,-236.192001
905.728027,13.664000,-242.048004
899.872009,11.712000,-249.856003
903.776001,3.904000,-244.000000
897.919983,17.568001,-242.048004
909.632019,11.712000,-238.143997
909.632019,3.904000,-240.095993
899.872009,13.664000,-244.000000
901.823975,11.712000,-236.192001
903.776001,5.856000,-242.048004
897.919983,13.664000,-242.048004
905.728027,19.520000,-240.095993
905.728027,11.712000,-240.095993
907.679993,13.664000,-236.192001
901.823975,11.712000,-236.192001
913.536011,9.760000,-245.951996
911.583984,17.568001,-249.856003
909.632019,13.664000,-245.951996
911.583984,17.568001,-245.951996
915.487976,13.664000,-240.095993
909.632019,13.664000,-240.095993
907.679993,7.808000,-244.000000
911.583984,11.712000,-242.048004
913.536011,15.616000,-236.192001
913.536011,11.712000,-245.951996
915.487976,9.760000,-245.951996
917.440002,1.952000,-242.048004
915.487976,7.808000,-247.904007
917.440002,1.952000,-236.192001
913.536011,7.808000,-245.951996
913.536011,3.904000,-232.287994
917.440002,-3.904000,-230.335999
923.296021,0.000000,-238.143997
917.440002,-3.904000,-242.048004
921.343994,3.904000,-238.143997
917.440002,-1.952000,-236.192001
917.440002,1.952000,-232.287994
917.440002,-1.952000,-230.335999
931.104004,-3.904000,-234.240005
927.200012,-1.952000,-230.335999
921.343994,-5.856000,-230.335999
935.007996,-11.712000,-228.384003
917.440002,-1.952000,-232.287994
925.247986,-1.952000,-240.095993
919.392029,-3.904000,-230.335999
927.200012,1.952000,-226.432007
923.296021,5.856000,-226.432007
927.200012,-3.904000,-220.576004
929.151978,-1.952000,-226.432007
925.247986,-5.856000,-216.671997
927.200012,1.952000,-222.528000
927.200012,-1.952000,-224.479996
917.440002,0.000000,-224.479996
927.200012,-5.856000,-230.335999
909.632019,1.952000,-228.384003
919.392029,3.904000,-234.240005
917.440002,-1.952000,-230.335999
917.440002,-11.712000,-220.576004
913.536011,-9.760000,-224.479996
915.487976,-11.712000,-220.576004
903.776001,-13.664000,-234.240005
903.776001,-5.856000,-236.192001
903.776001,-7.808000,-234.240005
903.776001,-9.760000,-236.192001
903.776001,-15.616000,-230.335999
897.919983,-19.520000,-234.240005
899.872009,-13.664000,-238.143997
895.968018,-19.520000,-228.384003
897.919983,-19.520000,-230.335999
899.872009,-17.568001,-224.479996
895.968018,-15.616000,-222.528000
890.112000,-25.375999,-228.384003
892.064026,-27.327999,-238.143997
895.968018,-23.424000,-224.479996
895.968018,-19.520000,-228.384003
899.872009,-21.472000,-218.623993
892.064026,-15.616000,-218.623993
894.015991,-27.327999,-218.623993
894.015991,-21.472000,-218.623993
886.208008,-27.327999,-212.768005
897.919983,-31.232000,-212.768005
894.015991,-27.327999,-220.576004
895.968018,-29.280001,-220.576004
895.968018,-31.232000,-224.479996
888.159973,-37.088001,-222.528000
890.112000,-37.088001,-220.576004
888.159973,-42.944000,-218.623993
888.159973,-37.088001,-216.671997
890.112000,-39.040001,-218.623993
886.208008,-42.944000,-220.576004
890.112000,-39.040001,-222.528000
886.208008,-48.799999,-220.576004
886.208008,-37.088001,-218.623993
884.255981,-37.088001,-230.335999
874.495972,-46.848000,-222.528000
882.304016,-40.992001,-210.815994
882.304016,-44.896000,-220.576004
874.495972,-48.799999,-212.768005
872.544006,-50.751999,-218.623993
868.640015,-44.896000,-216.671997
878.400024,-56.608002,-222.528000
882.304016,-58.560001,-210.815994
868.640015,-52.703999,-220.576004
872.544006,-58.560001,-216.671997
868.640015,-58.560001,-218.623993
870.591980,-54.655998,-210.815994
868.640015,-52.703999,-218.623993
862.783997,-58.560001,-232.287994
868.640015,-52.703999,-218.623993
868.640015,-58.560001,-220.576004
860.831970,-62.464001,-222.528000
866.687988,-56.608002,-224.479996
872.544006,-62.464001,-226.432007
866.687988,-70.272003,-222.528000
864.736023,-60.512001,-222.528000
868.640015,-64.416000,-226.432007
864.736023,-56.608002,-224.479996
862.783997,-74.176003,-226.432007
866.687988,-58.560001,-226.432007
868.640015,-60.512001,-220.576004
862.783997,-74.176003,-208.863998
874.495972,-62.464001,-226.432007
860.831970,-64.416000,-216.671997
872.544006,-78.080002,-212.768005
868.640015,-64.416000,-214.720001
866.687988,-68.320000,-220.576004
870.591980,-70.272003,-222.528000
872.544006,-64.416000,-214.720001
870.591980,-74.176003,-214.720001
872.544006,-68.320000,-214.720001
872.544006,-70.272003,-224.479996
870.591980,-64.416000,-222.528000
870.591980,-70.272003,-216.671997
878.400024,-70.272003,-212.768005
884.255981,-64.416000,-220.576004
882.304016,-68.320000,-224.479996
882.304016,-76.127998,-218.623993
886.208008,-76.127998,-218.623993
884.255981,-74.176003,-212.768005
892.064026,-70.272003,-212.768005
890.112000,-74.176003,-210.815994
892.064026,-64.416000,-208.863998
886.208008,-74.176003,-220.576004
895.968018,-78.080002,-214.720001
886.208008,-81.984001,-206.912003
899.872009,-68.320000,-208.863998
901.823975,-70.272003,-216.671997
894.015991,-68.320000,-208.863998
897.919983,-60.512001,-197.151993
905.728027,-56.608002,-206.912003
905.728027,-68.320000,-208.863998
907.679993,-64.416000,-214.720001
911.583984,-72.223999,-206.912003
901.823975,-66.367996,-208.863998
907.679993,-70.272003,-214.720001
911.583984,-76.127998,-216.671997
905.728027,-60.512001,-220.576004
907.679993,-70.272003,-208.863998
894.015991,-68.320000,-214.720001
907.679993,-76.127998,-212.768005
899.872009,-80.031998,-214.720001
895.968018,-60.512001,-222.528000
897.919983,-72.223999,-226.432007
901.823975,-60.512001,-222.528000
911.583984,-62.464001,-228.384003
909.632019,-68.320000,-222.528000
915.487976,-70.272003,-222.528000
915.487976,-74.176003,-224.479996
913.536011,-68.320000,-222.528000
909.632019,-68.320000,-220.576004
905.728027,-52.703999,-218.623993
923.296021,-56.608002,-228.384003
913.536011,-56.608002,-216.671997
923.296021,-50.751999,-214.720001
923.296021,-52.703999,-226.432007
919.392029,-48.799999,-208.863998
917.440002,-48.799999,-214.720001
917.440002,-50.751999,-216.671997
917.440002,-58.560001,-201.056000
915.487976,-58.560001,-208.863998
927.200012,-52.703999,-210.815994
919.392029,-60.512001,-212.768005
925.247986,-54.655998,-208.863998
923.296021,-44.896000,-220.576004
923.296021,-42.944000,-208.863998
919.392029,-46.848000,-210.815994
917.440002,-42.944000,-218.623993
919.392029,-39.040001,-222.528000
919.392029,-44.896000,-214.720001
917.440002,-50.751999,-216.671997
927.200012,-29.280001,-208.863998
927.200012,-29.280001,-216.671997
921.343994,-33.183998,-218.623993
923.296021,-44.896000,-216.671997
915.487976,-33.183998,-218.623993
927.200012,-33.183998,-220.576004
921.343994,-29.280001,-214.720001
933.056030,-39.040001,-226.432007
919.392029,-23.424000,-220.576004
909.632019,-31.232000,-224.479996
919.392029,-29.280001,-228.384003
925.247986,-21.472000,-220.576004
917.440002,-23.424000,-216.671997
923.296021,-23.424000,-216.671997
925.247986,-27.327999,-224.479996
913.536011,-19.520000,-228.384003
917.440002,-17.568001,-234.240005
913.536011,-13.664000,-226.432007
913.536011,-19.520000,-226.432007
927.200012,-29.280001,-228.384003
919.392029,-17.568001,-232.287994
911.583984,-15.616000,-232.287994
915.487976,-21.472000,-236.192001
913.536011,-21.472000,-226.432007
907.679993,-19.520000,-232.287994
909.632019,-15.616000,-234.240005
899.872009,-19.520000,-234.240005
915.487976,-21.472000,-228.384003
923.296021,-19.520000,-216.671997
919.392029,-17.568001,-228.384003
917.440002,-19.520000,-226.432007
911.583984,-19.520000,-220.576004
913.536011,-13.664000,-220.576004
919.392029,-11.712000,-212.768005
919.392029,-15.616000,-208.863998
915.487976,-7.808000,-212.768005
915.487976,-11.712000,-218.623993
913.536011,-19.520000,-216.671997
917.440002,-5.856000,-224.479996
915.487976,-13.664000,-218.623993
915.487976,-17.568001,-226.432007
919.392029,-13.664000,-220.576004
911.583984,-13.664000,-220.576004
909.632019,-15.616000,-228.384003
919.392029,-15.616000,-228.384003
913.536011,-9.760000,-230.335999
921.343994,-11.712000,-230.335999
913.536011,-5.856000,-232.287994
915.487976,-17.568001,-228.384003
921.343994,-19.520000,-228.384003
915.487976,-5.856000,-230.335999
919.392029,-3.904000,-230.335999
917.440002,1.952000,-230.335999
923.296021,-3.904000,-224.479996
931.104004,-1.952000,-234.240005
921.343994,-7.808000,-232.287994
927.200012,-3.904000,-230.335999
925.247986,-3.904000,-228.384003
929.151978,-7.808000,-228.384003
931.104004,1.952000,-230.335999
929.151978,-7.808000,-220.576004
935.007996,-3.904000,-222.528000
933.056030,-9.760000,-222.528000
933.056030,1.952000,-226.432007
935.007996,-9.760000,-224.479996
927.200012,-11.712000,-212.768005
927.200012,-13.664000,-222.528000
931.104004,-15.616000,-218.623993
931.104004,-3.904000,-228.384003
929.151978,-7.808000,-220.576004
936.960022,-1.952000,-214.720001
938.911987,3.904000,-226.432007
935.007996,-1.952000,-216.671997
935.007996,-5.856000,-228.384003
929.151978,-11.712000,-232.287994
933.056030,-15.616000,-226.432007
933.056030,-7.808000,-216.671997
929.151978,-7.808000,-220.576004
938.911987,-1.952000,-220.576004
931.104004,-13.664000,-220.576004
944.768005,-13.664000,-220.576004
940.864014,-1.952000,-218.623993
940.864014,-5.856000,-218.623993
942.815979,-3.904000,-228.384003
940.864014,-7.808000,-218.623993
936.960022,-9.760000,-220.576004
942.815979,-11.712000,-228.384003
942.815979,-5.856000,-228.384003
944.768005,-3.904000,-224.479996
936.960022,-15.616000,-220.576004
940.864014,-11.712000,-222.528000
944.768005,-7.808000,-224.479996
946.719971,-17.568001,-216.671997
935.007996,-3.904000,-216.671997
946.719971,-9.760000,-222.528000
938.911987,-11.712000,-222.528000
933.056030,-9.760000,-222.528000
942.815979,-19.520000,-224.479996
936.960022,-23.424000,-220.576004
942.815979,-15.616000,-224.479996
940.864014,-9.760000,-228.384003
936.960022,-15.616000,-222.528000
944.768005,-11.712000,-220.576004
935.007996,-9.760000,-226.432007
940.864014,-5.856000,-220.576004
950.624023,-13.664000,-224.479996
944.768005,-7.808000,-222.528000
942.815979,-5.856000,-216.671997
946.719971,-7.808000,-216.671997
944.768005,-13.664000,-220.576004
940.864014,-7.808000,-216.671997
940.864014,-7.808000,-216.671997
942.815979,-7.808000,-226.432007
946.719971,-3.904000,-230.335999
946.719971,-1.952000,-222.528000
942.815979,-3.904000,-218.623993
946.719971,-9.760000,-226.432007
940.864014,-7.808000,-228.384003
935.007996,-1.952000,-228.384003
936.960022,-11.712000,-226.432007
940.864014,-9.760000,-226.432007
938.911987,-1.952000,-220.576004
938.911987,-1.952000,-222.528000
935.007996,-1.952000,-228.384003
936.960022,1.952000,-224.479996
933.056030,-3.904000,-224.479996
938.911987,-9.760000,-226.432007
929.151978,-1.952000,-228.384003
936.960022,-5.856000,-234.240005
942.815979,-13.664000,-226.432007
933.056030,-7.808000,-226.432007
940.864014,-1.952000,-216.671997
940.864014,-1.952000,-220.576004
946.719971,-5.856000,-222.528000
935.007996,3.904000,-230.335999
942.815979,0.000000,-216.671997
946.719971,0.000000,-218.623993
946.719971,0.000000,-210.815994
940.864014,9.760000,-208.863998
946.719971,0.000000,-212.768005
940.864014,15.616000,-204.960007
942.815979,11.712000,-216.671997
942.815979,1.952000,-212.768005
940.864014,1.952000,-208.863998
935.007996,5.856000,-212.768005
946.719971,-1.952000,-218.623993
933.056030,3.904000,-216.671997
933.056030,1.952000,-220.576004
938.911987,-7.808000,-226.432007
931.104004,0.000000,-226.432007
929.151978,1.952000,-228.384003
927.200012,-9.760000,-226.432007
923.296021,-1.952000,-228.384003
931.104004,-3.904000,-234.240005
931.104004,-1.952000,-232.287994
933.056030,-9.760000,-228.384003
917.440002,5.856000,-224.479996
931.104004,3.904000,-226.432007
931.104004,0.000000,-226.432007
929.151978,-3.904000,-226.432007
933.056030,-3.904000,-218.623993
935.007996,-3.904000,-216.671997
929.151978,1.952000,-214.720001
935.007996,1.952000,-212.768005
938.911987,1.952000,-214.720001
933.056030,5.856000,-210.815994
931.104004,5.856000,-206.912003
927.200012,3.904000,-206.912003
929.151978,-7.808000,-216.671997
931.104004,-3.904000,-212.768005
933.056030,-11.712000,-214.720001
925.247986,-3.904000,-212.768005
929.151978,-13.664000,-210.815994
927.200012,0.000000,-201.056000
927.200012,-5.856000,-218.623993
927.200012,-7.808000,-214.720001
931.104004,-11.712000,-206.912003
923.296021,-9.760000,-212.768005
921.343994,-1.952000,-218.623993
925.247986,-3.904000,-214.720001
925.247986,-5.856000,-208.863998
931.104004,-1.952000,-208.863998
917.440002,-3.904000,-212.768005
913.536011,1.952000,-218.623993
919.392029,-1.952000,-222.528000
919.392029,-3.904000,-226.432007
921.343994,1.952000,-216.671997
919.392029,1.952000,-210.815994
927.200012,-5.856000,-218.623993
919.392029,-5.856000,-206.912003
917.440002,5.856000,-214.720001
909.632019,5.856000,-204.960007
915.487976,0.000000,-218.623993
921.343994,-7.808000,-216.671997
927.200012,-3.904000,-214.720001
925.247986,0.000000,-216.671997
921.343994,-7.808000,-216.671997
917.440002,-5.856000,-222.528000
927.200012,-15.616000,-214.720001
927.200012,-19.520000,-208.863998
931.104004,-21.472000,-212.768005
933.056030,-17.568001,-204.960007
933.056030,-13.664000,-210.815994
923.296021,-21.472000,-212.768005
931.104004,-25.375999,-208.863998
919.392029,-33.183998,-218.623993
925.247986,-25.375999,-214.720001
931.104004,-25.375999,-204.960007
931.104004,-31.232000,-204.960007
927.200012,-27.327999,-206.912003
929.151978,-17.568001,-206.912003
929.151978,-23.424000,-208.863998
935.007996,-25.375999,-210.815994
938.911987,-31.232000,-218.623993
933.056030,-31.232000,-208.863998
933.056030,-25.375999,-203.007996
931.104004,-25.375999,-204.960007
940.864014,-33.183998,-208.863998
935.007996,-25.375999,-212.768005
940.864014,-27.327999,-208.863998
935.007996,-27.327999,-212.768005
936.960022,-35.136002,-206.912003
933.056030,-39.040001,-214.720001
938.911987,-27.327999,-203.007996
933.056030,-29.280001,-216.671997
938.911987,-29.280001,-214.720001
938.911987,-33.183998,-212.768005
936.960022,-33.183998,-208.863998
929.151978,-35.136002,-216.671997
929.151978,-35.136002,-208.863998
931.104004,-31.232000,-208.863998
935.007996,-40.992001,-218.623993
938.911987,-33.183998,-212.768005
936.960022,-40.992001,-224.479996
938.911987,-39.040001,-216.671997
933.056030,-39.040001,-220.576004
931.104004,-39.040001,-214.720001
933.056030,-39.040001,-218.623993
929.151978,-33.183998,-214.720001
929.151978,-33.183998,-208.863998
942.815979,-42.944000,-220.576004
946.719971,-44.896000,-212.768005
940.864014,-42.944000,-212.768005
933.056030,-44.896000,-204.960007
