ACC_X,ACC_Y,ACC_Z,Time
-403.381348,392.395020,819.946289,0.000068
-404.479980,403.656006,808.776855,0.001250
-396.697998,393.585205,813.262939,0.002416
-398.071289,393.951416,798.065186,0.003575
-394.226074,391.937256,804.382324,0.004748
-393.585205,399.353027,802.001953,0.005911
-408.599854,397.796631,806.488037,0.007074
-410.888672,421.051025,807.769775,0.008271
-415.832520,399.444580,811.798096,0.009445
-413.452148,408.691406,815.002441,0.010620
-416.473389,401.824951,820.861816,0.011784
-417.755127,402.740479,812.072754,0.012949
-410.888672,408.782959,806.488037,0.014114
-417.846680,403.381348,801.910400,0.015277
-420.959473,409.332275,807.861328,0.016472
-414.916992,397.338867,810.424805,0.017641
-422.515869,406.494141,816.284180,0.018806
-427.459717,407.135010,815.460205,0.019966
-429.840088,409.149170,817.108154,0.021126
-427.276611,414.642334,811.798096,0.022303
-440.002441,406.311035,813.903809,0.023467
-436.431885,407.592773,809.967041,0.024633
-434.509277,409.149170,802.368164,0.025803
-437.988281,413.726807,803.924561,0.026967
-436.798096,410.247803,802.093506,0.028136
-426.086426,411.254883,804.931641,0.029301
-424.621582,407.684326,800.994873,0.030466
-431.762695,404.571533,802.368164,0.031643
-441.192627,405.303955,813.262939,0.032811
-431.579590,407.135010,813.903809,0.033976
-427.734375,409.057617,814.636230,0.035141
-429.199219,409.790039,817.840576,0.036304
-420.776367,407.958984,816.650391,0.037496
-415.191650,407.043457,807.952881,0.038665
-410.614014,402.191162,804.290771,0.039831
-407.592773,410.156250,809.875488,0.040997
-407.226562,397.247314,799.896240,0.042162
-404.388428,402.832031,808.685303,0.043333
-396.606445,401.916504,817.199707,0.044497
-402.191162,404.113770,814.910889,0.045661
-394.958496,405.670166,832.305908,0.046829
-396.240234,409.973145,832.855225,0.047993
-395.324707,406.219482,833.770752,0.049166
-394.775391,394.683838,833.770752,0.050326
-386.444092,397.705078,827.178955,0.051487
-386.077881,391.937256,811.340332,0.052668
-385.620117,402.099609,810.058594,0.053830
-385.711670,392.852783,810.058594,0.054991
-375.183105,383.422852,805.572510,0.056153
-383.514404,387.268066,809.417725,0.057347
-392.028809,389.099121,797.607422,0.058523
-388.641357,382.873535,801.818848,0.059689
-383.331299,383.972168,808.776855,0.060853
-387.634277,388.092041,810.241699,0.062012
-385.986328,378.570557,818.023682,0.063171
-387.451172,379.852295,804.931641,0.064342
-382.965088,377.014160,812.713623,0.065505
-383.789062,379.028320,803.466797,0.066669
-381.591797,376.373291,799.987793,0.067837
-387.268066,371.063232,805.664062,0.069006
-386.810303,366.485596,798.706055,0.070187
-383.331299,368.499756,797.882080,0.071353
-392.944336,369.506836,795.593262,0.072516
-393.127441,367.034912,796.783447,0.073680
-415.008545,370.513916,799.713135,0.074845
-401.733398,364.746094,774.993896,0.076016
-398.162842,377.929688,803.100586,0.077178
-401.641846,384.796143,800.170898,0.078158
-397.888184,381.591797,800.170898,0.079137
-398.803711,377.563477,795.501709,0.080110
-403.106689,399.627686,793.212891,0.081085
-410.888672,395.507812,792.388916,0.082063
-435.607910,391.021729,797.332764,0.083036
-424.621582,393.859863,804.382324,0.084010
-434.967041,396.057129,813.629150,0.084987
-429.473877,397.155762,820.495605,0.085961
-422.973633,403.930664,824.340820,0.086934
-418.670654,415.466309,828.643799,0.087919
-414.550781,414.276123,834.869385,0.088895
-419.494629,412.536621,824.981689,0.089870
-421.600342,407.775879,815.643311,0.090854
-422.973633,416.015625,811.431885,0.091827
-429.656982,412.261963,808.410645,0.092800
-438.995361,414.825439,794.311523,0.093772
-446.685791,407.684326,793.395996,0.094744
-443.023682,409.149170,804.382324,0.095717
-444.305420,408.599854,793.762207,0.096689
-445.312500,411.712646,800.537109,0.097662
-443.023682,411.071777,798.797607,0.098635
-445.861816,413.452148,797.973633,0.099608
-440.185547,417.663574,808.319092,0.100580
-437.438965,421.325684,806.121826,0.101552
-448.150635,409.515381,812.622070,0.102525
-449.340820,409.790039,809.875488,0.103497
-450.073242,414.367676,814.819336,0.104473
-446.868896,404.296875,802.185059,0.105496
-445.037842,409.149170,799.530029,0.106468
-436.981201,403.930664,800.170898,0.107441
-427.825928,403.472900,799.163818,0.108413
-422.973633,396.514893,799.987793,0.109386
-418.762207,394.134521,797.241211,0.110367
-409.149170,393.585205,806.121826,0.111341
-403.564453,395.050049,800.537109,0.112313
-408.966064,399.169922,801.269531,0.113291
-406.951904,388.916016,800.811768,0.114263
-403.198242,389.465332,797.515869,0.115234
-401.184082,384.796143,803.466797,0.116210
-405.578613,386.627197,795.959473,0.117182
-401.000977,392.669678,797.424316,0.118155
-399.353027,380.950928,805.572510,0.119145
-395.782471,391.021729,810.607910,0.120121
-395.690918,392.486572,811.157227,0.121095
-395.965576,389.739990,811.981201,0.122080
-394.226074,385.803223,807.037354,0.123055
-399.169922,385.162354,804.931641,0.124030
-400.268555,382.141113,811.431885,0.125007
-398.986816,378.753662,812.622070,0.125981
-395.874023,376.281738,804.290771,0.126955
-395.874023,384.613037,805.572510,0.127932
-391.754150,394.866943,805.847168,0.128904
-396.606445,376.007080,798.156738,0.129877
-384.063721,373.168945,796.325684,0.130861
-390.289307,368.499756,799.346924,0.131835
-393.127441,373.626709,788.818359,0.132807
-398.803711,365.203857,790.100098,0.133804
-384.155273,363.464355,791.107178,0.134779
-391.479492,369.140625,793.945312,0.135755
-385.162354,364.746094,793.304443,0.136739
-388.366699,361.816406,800.445557,0.137716
-385.986328,372.436523,798.065186,0.138692
-394.958496,366.302490,803.009033,0.139665
-391.662598,361.450195,804.290771,0.140657
-395.416260,367.034912,797.424316,0.141629
-395.507812,366.943359,796.051025,0.142598
-393.493652,365.020752,799.987793,0.143568
-394.226074,368.316650,794.769287,0.144542
-396.423340,368.591309,796.417236,0.145516
-394.042969,375.091553,789.642334,0.146490
-393.585205,366.760254,787.261963,0.147464
-414.276123,493.743896,773.712158,0.148438
-364.471436,581.085205,791.656494,0.149412
-298.919678,536.407471,825.073242,0.150393
-446.777344,372.253418,918.731689,0.151366
-455.291748,447.601318,927.429199,0.152339
-400.360107,493.743896,1002.410889,0.153322
-313.751221,509.216309,982.818604,0.154296
-367.309570,485.137939,1000.762939,0.155270
-401.367188,496.398926,884.765625,0.156247
-426.818848,416.107178,847.686768,0.157220
-471.954346,395.874023,772.247314,0.158194
-455.474854,384.704590,741.760254,0.159184
-431.854248,383.514404,713.287354,0.160159
-377.471924,393.493652,712.280273,0.161131
-324.005127,384.521484,719.879150,0.162109
-301.391602,381.134033,724.365234,0.163081
-317.230225,371.429443,729.217529,0.164053
-356.964111,364.837646,725.921631,0.165030
-386.810303,361.999512,731.781006,0.166001
-417.114258,357.788086,741.577148,0.166973
-433.868408,388.458252,766.296387,0.167950
-460.968018,400.817871,797.058105,0.168922
-433.685303,406.951904,830.841064,0.169894
-431.396484,407.409668,874.237061,0.170881
-416.564941,410.339355,870.941162,0.171853
-401.367188,407.226562,870.849609,0.172824
-381.591797,401.824951,846.405029,0.173804
-389.739990,405.120850,821.960449,0.174778
-390.014648,398.712158,786.804199,0.175752
-396.148682,403.747559,768.951416,0.176735
-403.747559,399.627686,762.542725,0.177710
-423.156738,385.345459,757.415771,0.178683
-419.311523,389.648438,765.380859,0.179667
-417.388916,401.092529,779.663086,0.180641
-401.733398,406.219482,807.128906,0.181614
-386.535645,414.550781,825.531006,0.182587
-382.690430,425.811768,834.960938,0.183560
-378.387451,431.671143,852.722168,0.184535
-404.754639,434.875488,861.053467,0.185507
-414.916992,434.326172,853.912354,0.186481
-437.438965,431.854248,846.496582,0.187453
-450.073242,432.769775,835.876465,0.188428
-447.143555,430.023193,834.320068,0.189401
-424.896240,429.931641,830.749512,0.190378
-407.501221,424.163818,827.087402,0.191353
-390.472412,434.783936,820.404053,0.192327
-382.965088,428.009033,818.481445,0.193302
-377.197266,437.988281,810.791016,0.194277
-389.007568,445.770264,810.058594,0.195252
-402.465820,456.390381,821.044922,0.196227
-443.115234,453.735352,832.946777,0.197204
-441.192627,466.644287,838.348389,0.198222
-433.685303,463.256836,853.179932,0.199202
-437.347412,475.708008,854.461670,0.200175
-429.199219,479.736328,862.976074,0.201153
-415.008545,486.419678,868.927002,0.202137
-402.099609,488.250732,878.448486,0.203112
-407.226562,496.307373,877.349854,0.204085
-411.254883,496.032715,871.582031,0.205062
-416.107178,494.018555,869.201660,0.206035
-438.446045,497.680664,865.814209,0.207009
-439.910889,496.856689,859.954834,0.207985
-445.861816,493.652344,856.567383,0.208957
-451.171875,499.420166,871.948242,0.209930
-448.883057,495.025635,872.222900,0.210905
-431.396484,498.596191,876.983643,0.211879
-426.635742,506.835938,882.568359,0.212853
-432.495117,508.850098,881.378174,0.213844
-439.270020,505.462646,874.053955,0.214818
-449.890137,505.645752,861.236572,0.215787
-456.115723,515.533447,854.461670,0.216772
-460.418701,511.596680,865.081787,0.217746
-455.017090,517.456055,862.701416,0.218720
-460.235596,528.442383,869.110107,0.219698
-451.812744,532.836914,871.124268,0.220671
-456.024170,534.484863,882.751465,0.221594
-463.165283,536.407471,890.075684,0.222536
-462.524414,541.625977,885.314941,0.223463
-462.707520,542.358398,896.942139,0.224388
-468.566895,538.879395,910.308838,0.225330
-460.601807,541.534424,900.787354,0.226256
-458.038330,542.266846,908.752441,0.227179
-463.714600,543.182373,904.815674,0.228106
-459.686279,532.653809,910.949707,0.229029
-458.038330,535.217285,904.815674,0.229952
-458.679199,535.400391,903.717041,0.230878
-448.333740,528.442383,896.301270,0.231801
-447.235107,522.674561,899.322510,0.232723
-446.868896,517.822266,889.343262,0.233659
-452.636719,509.765625,877.349854,0.234597
-445.220947,504.638672,865.356445,0.235526
-468.292236,491.180420,866.729736,0.236460
-446.411133,485.046387,864.990234,0.237387
-451.354980,479.461670,864.532471,0.238315
-447.601318,477.172852,864.532471,0.239241
-454.650879,468.383789,853.912354,0.240165
-443.756104,463.897705,856.750488,0.241088
-448.150635,453.002930,843.475342,0.242020
-440.734863,440.643311,848.968506,0.242946
-425.262451,446.777344,853.820801,0.243871
-410.522461,434.051514,841.461182,0.244802
-393.768311,428.924561,844.573975,0.245729
-399.169922,427.734375,834.960938,0.246654
-389.648438,419.494629,838.256836,0.247583
-395.690918,417.572021,845.947266,0.248509
-397.796631,407.775879,837.615967,0.249435
-395.233154,401.458740,825.897217,0.250362
-389.099121,401.824951,829.925537,0.251285
-384.063721,400.909424,836.151123,0.252209
-392.211914,397.064209,834.411621,0.253145
-393.127441,397.155762,838.256836,0.254074
-395.782471,375.366211,834.686279,0.254999
-404.113770,389.190674,829.467773,0.255934
-396.972656,389.190674,820.678711,0.256859
-391.204834,380.401611,814.636230,0.257783
-386.444092,373.718262,804.748535,0.258710
-386.718750,370.971680,803.833008,0.259633
-378.204346,366.760254,794.769287,0.260556
-387.084961,363.647461,781.219482,0.261483
-388.916016,351.654053,781.585693,0.262405
-388.092041,359.161377,776.275635,0.263329
-398.437500,352.020264,777.008057,0.264251
-393.493652,350.738525,778.747559,0.265175
-394.775391,354.675293,787.078857,0.266098
-393.310547,348.449707,795.135498,0.267021
-397.979736,356.323242,805.847168,0.267944
-391.113281,355.590820,803.100586,0.268868
-384.979248,353.118896,805.664062,0.269791
-389.923096,355.499268,805.938721,0.270715
-390.838623,356.964111,810.974121,0.271638
-393.310547,359.252930,817.474365,0.272565
-377.838135,359.344482,819.488525,0.273489
-365.478516,360.443115,809.417725,0.274433
-375.366211,365.478516,816.375732,0.275367
-363.006592,355.407715,813.079834,0.276290
-358.245850,355.407715,812.255859,0.277234
-350.463867,357.055664,815.185547,0.278175
-349.548340,351.928711,820.312500,0.279103
-335.357666,358.337402,823.150635,0.280031
-307.891846,359.893799,827.087402,0.280959
-322.448730,357.055664,829.650879,0.281883
-332.519531,360.076904,828.460693,0.282807
-330.322266,355.316162,835.601807,0.283738
-334.167480,360.992432,832.214355,0.284663
-338.104248,360.717773,834.777832,0.285589
-317.504883,357.421875,835.418701,0.286542
-328.674316,359.619141,830.841064,0.287472
-328.125000,362.640381,831.024170,0.288445
-327.392578,359.985352,828.369141,0.289379
-332.336426,358.886719,828.460693,0.290300
-330.596924,350.555420,835.968018,0.291275
-328.308105,345.428467,836.517334,0.292256
-328.765869,353.393555,828.002930,0.293229
-330.780029,356.048584,832.489014,0.294201
-333.251953,357.147217,833.496094,0.295194
-330.871582,363.281250,836.608887,0.296174
-330.596924,359.893799,861.694336,0.297152
-329.040527,331.054688,841.186523,0.298133
-326.934814,347.259521,836.791992,0.299110
-326.568604,344.604492,836.334229,0.300087
-325.561523,348.999023,829.833984,0.301071
-330.322266,339.569092,835.693359,0.302050
-332.794189,335.449219,832.031250,0.303026
-327.758789,328.216553,825.988770,0.304007
-330.871582,324.829102,821.411133,0.304985
-322.998047,320.068359,822.509766,0.305963
-324.645996,323.638916,814.178467,0.306939
-329.223633,320.343018,816.558838,0.307916
-337.554932,326.934814,808.502197,0.308894
-340.667725,312.469482,805.023193,0.309871
-348.724365,314.117432,796.966553,0.310848
-351.470947,312.377930,796.691895,0.311824
-352.020264,307.983398,793.487549,0.312802
-354.492188,308.441162,793.487549,0.313778
-350.097656,307.800293,793.579102,0.314757
-359.252930,312.927246,791.015625,0.315730
-357.330322,323.181152,790.191650,0.316703
-356.872559,322.448730,795.135498,0.317679
-357.788086,334.442139,805.206299,0.318652
-354.766846,330.139160,804.290771,0.319624
-354.217529,329.132080,816.833496,0.320601
-358.886719,331.512451,819.396973,0.321574
-358.795166,335.174561,818.115234,0.322547
-367.492676,333.343506,817.749023,0.323552
-361.633301,340.942383,816.741943,0.324529
-361.450195,334.808350,822.052002,0.325503
-349.914551,331.787109,807.586670,0.326505
-348.724365,329.956055,793.762207,0.327482
-344.238281,329.040527,776.733398,0.328455
-343.139648,330.139160,792.938232,0.329433
-348.724365,329.864502,793.487549,0.330408
-345.336914,328.033447,798.889160,0.331382
-352.661133,330.780029,803.649902,0.332361
-347.167969,334.533691,806.121826,0.333334
-359.161377,322.906494,808.593750,0.334307
-352.661133,325.103760,816.192627,0.335304
-364.562988,333.251953,816.009521,0.336284
-353.851318,325.836182,814.453125,0.337254
-347.625732,333.251953,809.783936,0.338245
-352.111816,324.554443,809.509277,0.339216
-347.534180,330.871582,810.333252,0.340200
-346.801758,326.568604,812.713623,0.341171
-343.688965,321.624756,806.213379,0.342140
-346.527100,323.547363,811.065674,0.343111
-342.773438,324.188232,810.974121,0.344080
-345.520020,322.082520,813.537598,0.345050
-350.097656,324.462891,825.164795,0.346020
-352.844238,321.075439,824.523926,0.346991
-360.809326,324.096680,825.988770,0.347960
-361.175537,327.484131,828.552246,0.348930
-365.661621,326.843262,828.186035,0.349901
-370.330811,330.139160,830.474854,0.350870
-371.887207,331.604004,820.129395,0.351843
-377.471924,325.469971,815.734863,0.352816
-379.577637,326.019287,815.093994,0.353802
-394.958496,335.266113,819.305420,0.354794
-372.802734,336.639404,819.580078,0.355777
-375.732422,337.554932,819.580078,0.356757
-377.929688,351.287842,827.911377,0.357739
-390.472412,357.055664,826.904297,0.358717
-388.549805,361.175537,832.489014,0.359695
-392.028809,358.703613,842.376709,0.360672
-393.859863,361.633301,838.806152,0.361644
-392.578125,363.739014,843.292236,0.362617
-396.514893,367.309570,845.581055,0.363595
-405.761719,365.753174,840.728760,0.364578
-401.550293,363.281250,839.447021,0.365555
-410.247803,373.809814,837.249756,0.366536
-409.881592,372.894287,829.101562,0.367514
-412.445068,360.626221,828.552246,0.368491
-410.797119,370.330811,822.784424,0.369471
-412.811279,368.408203,836.425781,0.370449
-417.205811,373.718262,833.679199,0.371426
-420.684814,397.338867,836.242676,0.372409
-444.946289,375.915527,842.468262,0.373387
-417.114258,380.493164,837.341309,0.374365
-421.234131,390.930176,847.778320,0.375348
-420.501709,389.923096,844.757080,0.376321
-422.973633,388.000488,843.750000,0.377307
-434.051514,397.155762,839.721680,0.378317
-441.833496,389.373779,848.419189,0.379298
-437.713623,394.134521,851.348877,0.380272
-443.481445,382.965088,848.693848,0.381320
-439.910889,389.648438,853.546143,0.382381
-441.284180,389.648438,845.947266,0.383369
-443.298340,395.874023,846.954346,0.384347
-442.565918,376.190186,846.679688,0.385337
-437.896729,372.344971,837.615967,0.386320
-439.453125,372.802734,829.467773,0.387298
-451.354980,371.978760,820.129395,0.388275
-422.607422,372.528076,826.171875,0.389259
-438.720703,366.851807,826.080322,0.390237
-436.523438,360.076904,822.509766,0.391215
-440.643311,366.394043,829.284668,0.392196
-444.763184,363.830566,829.559326,0.393174
-443.939209,367.858887,835.235596,0.394155
-433.685303,367.950439,841.552734,0.395131
-441.192627,366.119385,843.841553,0.396104
-438.629150,363.555908,848.144531,0.397076
-444.854736,372.985840,838.806152,0.398049
-443.664551,357.971191,837.432861,0.399023
-432.952881,362.274170,836.608887,0.399997
-435.424805,363.464355,841.094971,0.400970
-432.769775,358.245850,835.052490,0.401943
-432.220459,360.534668,833.312988,0.402916
-431.396484,367.492676,832.855225,0.403888
-422.882080,366.851807,837.982178,0.404861
-426.177979,357.238770,839.996338,0.405840
-420.135498,363.372803,831.939697,0.406815
-424.255371,358.428955,840.454102,0.407789
-425.811768,360.992432,834.045410,0.408762
-425.720215,362.823486,837.066650,0.409731
-415.740967,367.584229,835.968018,0.410702
-416.381836,367.950439,835.784912,0.411676
-412.078857,369.049072,837.707520,0.412650
-409.790039,370.880127,835.784912,0.413625
-406.127930,367.584229,838.989258,0.414601
-399.536133,370.422363,826.904297,0.415577
-400.085449,368.865967,834.869385,0.416555
-404.937744,374.450684,836.151123,0.417562
-405.487061,367.584229,834.594727,0.418552
-400.909424,370.971680,835.327148,0.419533
-403.289795,370.788574,829.559326,0.420519
-402.099609,376.922607,835.144043,0.421498
-399.078369,372.070312,828.918457,0.422475
-396.514893,372.894287,828.002930,0.423475
-395.507812,363.922119,822.052002,0.424452
-398.803711,372.619629,818.572998,0.425426
-396.514893,363.281250,813.537598,0.426406
-391.937256,360.809326,813.629150,0.427379
-397.064209,364.929199,810.607910,0.428352
-397.521973,364.379883,811.614990,0.429344
-400.726318,366.485596,808.502197,0.430319
-403.930664,364.013672,814.178467,0.431291
-397.155762,363.739014,814.727783,0.432292
-407.135010,360.809326,814.727783,0.433272
-399.536133,359.893799,823.150635,0.434153
-384.887695,367.401123,821.136475,0.434896
-393.493652,369.598389,827.362061,0.435631
-399.810791,360.534668,826.080322,0.436365
-398.986816,361.907959,822.509766,0.437101
-393.035889,368.408203,823.883057,0.437837
-392.028809,363.647461,811.981201,0.438572
-394.134521,358.703613,819.946289,0.439308
-399.536133,356.323242,817.749023,0.440046
-393.218994,351.470947,811.523438,0.440780
-393.035889,352.294922,811.706543,0.441515
-394.500732,352.752686,819.213867,0.442251
-396.057129,351.470947,823.150635,0.442986
-397.796631,345.153809,814.636230,0.443722
-393.493652,344.879150,811.889648,0.444459
-390.106201,339.935303,811.889648,0.445196
-385.894775,340.759277,808.685303,0.445928
-394.592285,342.224121,802.368164,0.446661
-392.852783,347.534180,805.938721,0.447393
-395.874023,341.033936,798.706055,0.448129
-392.578125,341.308594,791.107178,0.448864
-391.754150,338.287354,796.783447,0.449599
-386.444092,342.224121,796.691895,0.450343
-386.718750,340.301514,799.896240,0.451079
-388.000488,347.808838,796.417236,0.451815
-395.599365,344.787598,805.847168,0.452550
-390.838623,343.322754,802.734375,0.453303
-395.507812,345.703125,805.572510,0.454039
-394.409180,347.351074,809.783936,0.454777
-388.732910,355.224609,815.002441,0.455516
-397.064209,355.865479,810.516357,0.456252
-401.275635,349.456787,819.854736,0.456987
-398.162842,349.456787,817.016602,0.457722
-394.866943,349.548340,809.234619,0.458460
-400.634766,346.435547,813.629150,0.459196
-392.211914,346.618652,818.298340,0.459932
-385.620117,348.541260,815.093994,0.460667
-388.916016,350.189209,815.277100,0.461403
-389.465332,347.808838,808.502197,0.462140
-382.690430,345.153809,803.924561,0.462874
-388.275146,343.688965,803.741455,0.463611
-375.915527,342.590332,807.312012,0.464396
-375.915527,344.329834,798.156738,0.465136
-373.809814,341.857910,802.917480,0.465874
-351.837158,348.541260,812.164307,0.466611
-374.633789,344.879150,812.713623,0.467366
-373.352051,328.216553,812.713623,0.468113
-369.964600,343.597412,807.952881,0.468856
-377.471924,348.907471,823.516846,0.469593
-381.408691,345.886230,811.157227,0.470328
-379.119873,342.681885,816.925049,0.471064
-378.845215,344.879150,814.819336,0.471800
-376.373291,346.160889,813.995361,0.472536
-378.845215,340.850830,800.445557,0.473272
-381.317139,340.942383,806.030273,0.474019
-375.732422,341.857910,806.671143,0.474756
-385.162354,345.336914,800.170898,0.475491
-391.387939,336.364746,802.368164,0.476227
-382.049561,352.111816,778.289795,0.476967
-379.669189,343.872070,800.262451,0.477703
-379.394531,352.661133,799.713135,0.478449
-385.528564,351.013184,801.635742,0.479188
-385.253906,353.851318,804.199219,0.479924
-389.465332,358.245850,814.544678,0.480660
-392.120361,356.506348,815.551758,0.481396
-386.444092,353.759766,805.023193,0.482136
-380.218506,349.273682,809.600830,0.482872
-383.514404,351.745605,810.882568,0.483607
-384.338379,359.069824,808.135986,0.484343
-386.535645,356.414795,810.607910,0.485079
-382.781982,354.858398,803.649902,0.485814
-382.049561,350.738525,804.290771,0.486550
-380.126953,356.506348,805.938721,0.487289
-382.232666,356.231689,808.776855,0.488025
-384.704590,355.499268,804.748535,0.488761
-387.542725,355.407715,801.635742,0.489497
-385.894775,358.520508,803.283691,0.490233
-379.211426,363.922119,802.825928,0.490969
-380.950928,366.943359,805.572510,0.491705
-392.395020,372.436523,802.551270,0.492443
-385.437012,381.774902,804.656982,0.493180
-380.493164,383.331299,816.375732,0.493916
-391.937256,396.331787,817.291260,0.494652
-385.986328,407.958984,817.474365,0.495392
-379.577637,413.085938,822.692871,0.496128
-383.789062,421.142578,830.474854,0.496871
-381.774902,416.198730,821.960449,0.497609
-386.077881,421.875000,823.791504,0.498345
-381.317139,420.135498,821.502686,0.499081
-379.669189,427.459717,819.946289,0.499817
-381.866455,421.875000,816.009521,0.500558
-386.352539,434.051514,827.087402,0.501294
-388.366699,425.994873,827.545166,0.502030
-387.542725,431.488037,840.820312,0.502767
-389.007568,438.629150,852.264404,0.503504
-396.514893,441.009521,852.722168,0.504240
-399.719238,441.833496,856.842041,0.504977
-403.564453,448.242188,854.095459,0.505717
-410.430908,440.093994,860.229492,0.506453
-419.677734,445.678711,854.644775,0.507190
-407.409668,445.220947,854.003906,0.507926
-414.276123,446.136475,848.968506,0.508661
-412.445068,435.974121,835.784912,0.509397
-407.775879,441.101074,822.784424,0.510134
-399.993896,438.446045,816.650391,0.510872
-400.085449,430.938721,803.741455,0.511608
-404.296875,425.445557,792.572021,0.512344
-402.099609,423.706055,797.882080,0.513080
-406.677246,420.959473,790.557861,0.513835
-415.924072,416.656494,791.839600,0.514573
-413.452148,444.305420,787.170410,0.515308
-413.085938,427.459717,796.417236,0.516043
-412.445068,424.346924,802.459717,0.516778
-416.198730,427.734375,808.685303,0.517513
-420.227051,422.698975,808.776855,0.518248
-414.825439,428.924561,816.833496,0.519000
-419.219971,426.818848,822.418213,0.519737
-423.889160,421.875000,824.798584,0.520472
-427.551270,431.213379,834.045410,0.521206
-428.466797,430.480957,837.982178,0.521941
-425.079346,427.368164,828.094482,0.522676
-430.755615,425.445557,832.031250,0.523411
-431.945801,427.825928,824.798584,0.524150
-427.185059,427.093506,831.298828,0.524884
-432.128906,424.255371,825.164795,0.525619
-428.466797,426.544189,825.805664,0.526353
-420.684814,425.354004,827.270508,0.527088
-418.304443,418.212891,830.932617,0.527823
-420.684814,421.966553,821.685791,0.528558
-418.029785,417.938232,824.707031,0.529297
-414.550781,423.797607,821.228027,0.530031
-424.163818,415.100098,827.728271,0.530766
-416.015625,426.635742,829.650879,0.531500
-422.607422,412.902832,824.432373,0.532246
-427.917480,411.895752,816.101074,0.532981
-423.614502,406.860352,818.572998,0.533715
-426.177979,403.839111,817.565918,0.534487
-422.424316,409.332275,829.650879,0.535223
-422.241211,402.008057,823.425293,0.535959
-418.579102,397.521973,823.883057,0.536694
-418.121338,407.775879,823.699951,0.537433
-415.466309,397.247314,824.523926,0.538168
-417.388916,419.036865,821.685791,0.538904
-417.297363,402.648926,822.326660,0.539639
-419.219971,399.353027,826.171875,0.540377
-417.755127,398.254395,821.411133,0.541125
-425.445557,404.663086,824.432373,0.541862
-430.480957,407.409668,823.242188,0.542604
-437.072754,419.860840,829.650879,0.543340
-441.375732,400.817871,830.749512,0.544076
-433.776855,400.909424,835.235596,0.544812
-439.178467,398.162842,839.813232,0.545547
-435.333252,403.930664,838.623047,0.546294
-440.460205,405.303955,836.151123,0.547033
-432.952881,408.508301,824.707031,0.547784
-438.995361,407.135010,831.939697,0.548522
-434.417725,406.311035,816.101074,0.549258
-431.762695,404.022217,820.129395,0.550005
-433.959961,409.698486,809.417725,0.550753
-446.502686,411.712646,805.023193,0.551493
-436.981201,414.093018,809.143066,0.552231
-440.368652,415.557861,798.980713,0.552974
-431.762695,440.460205,807.403564,0.553712
-433.776855,431.488037,837.066650,0.554450
-436.340332,428.833008,814.178467,0.555188
-428.924561,432.495117,820.495605,0.555927
-427.917480,437.988281,828.918457,0.556664
-423.797607,443.664551,830.108643,0.557403
-429.840088,452.270508,824.615479,0.558144
-429.748535,457.855225,830.474854,0.558882
-429.016113,469.757080,823.059082,0.559620
-418.121338,469.573975,813.720703,0.560361
-411.987305,469.024658,816.741943,0.561099
-409.698486,477.722168,809.143066,0.561838
-405.212402,470.581055,806.854248,0.562577
-389.923096,481.567383,798.980713,0.563317
-385.620117,483.489990,796.691895,0.564055
-383.880615,482.116699,795.593262,0.564793
-354.766846,481.018066,795.684814,0.565531
-368.316650,475.067139,783.874512,0.566268
-367.401123,477.630615,790.649414,0.567012
-363.281250,466.827393,802.642822,0.567752
-356.140137,467.834473,811.065674,0.568495
-342.498779,461.425781,822.875977,0.569234
-341.491699,468.475342,837.982178,0.569973
-341.857910,464.721680,836.975098,0.570712
-336.730957,466.186523,821.685791,0.571454
-340.942383,452.362061,833.679199,0.572192
-342.224121,444.030762,834.411621,0.572931
-345.245361,437.805176,843.383789,0.573670
-342.773438,429.107666,834.777832,0.574406
-344.696045,423.797607,822.875977,0.575142
-346.893311,415.740967,828.186035,0.575879
-348.083496,416.656494,820.678711,0.576620
-341.674805,409.606934,816.467285,0.577359
-347.259521,402.740479,816.192627,0.578098
-345.977783,390.838623,809.967041,0.578836
-345.428467,393.585205,818.389893,0.579575
-342.681885,393.859863,820.587158,0.580314
-343.139648,385.711670,812.988281,0.581053
-348.724365,390.930176,816.101074,0.581795
-343.963623,388.458252,820.220947,0.582534
-343.688965,382.324219,820.953369,0.583273
-347.442627,390.289307,826.446533,0.584011
-344.238281,380.859375,833.862305,0.584750
-336.914062,381.774902,827.362061,0.585490
-339.477539,379.211426,834.045410,0.586228
-335.998535,384.063721,844.848633,0.586969
-330.230713,392.578125,838.348389,0.587709
-323.638916,399.536133,865.447998,0.588448
-320.434570,394.866943,845.306396,0.589187
-314.758301,399.810791,852.264404,0.589926
-318.145752,411.346436,856.658936,0.590665
-316.589355,412.994385,865.081787,0.591405
-314.392090,418.212891,871.765137,0.592147
-316.406250,421.417236,878.082275,0.592885
-314.483643,431.488037,880.371094,0.593625
-312.835693,431.121826,883.300781,0.594364
-313.659668,435.241699,886.322021,0.595104
-316.131592,439.086914,883.209229,0.595842
-305.694580,432.586670,886.596680,0.596581
-314.300537,439.910889,888.519287,0.597324
-311.645508,440.734863,883.300781,0.598062
-307.250977,455.108643,879.547119,0.598802
-312.103271,448.883057,866.180420,0.599541
-316.131592,452.453613,865.814209,0.600282
-324.920654,451.904297,857.666016,0.601021
-323.638916,451.721191,853.912354,0.601760
-328.216553,454.559326,863.525391,0.602502
-327.941895,453.277588,860.595703,0.603241
-332.153320,456.481934,871.215820,0.603980
-332.336426,454.925537,877.349854,0.604718
-332.061768,462.890625,875.244141,0.605494
-330.780029,468.658447,885.406494,0.606234
-339.569092,466.644287,885.772705,0.606974
-343.872070,468.933105,885.955811,0.607716
-351.928711,466.918945,890.899658,0.608455
-347.991943,447.967529,893.188477,0.609194
-343.505859,469.299316,886.688232,0.609933
-355.682373,473.693848,877.899170,0.610675
-350.189209,485.961914,877.807617,0.611414
-347.717285,476.165771,890.991211,0.612154
-341.766357,474.792480,886.047363,0.612893
-348.724365,470.947266,880.920410,0.613630
-344.512939,472.503662,880.096436,0.614366
-346.710205,463.623047,883.575439,0.615102
-344.238281,463.531494,882.568359,0.615853
-341.491699,461.608887,886.871338,0.616594
-345.245361,455.566406,878.448486,0.617342
-346.527100,443.664551,881.103516,0.618083
-350.280762,438.995361,875.610352,0.618822
-343.597412,436.798096,868.927002,0.619561
-345.886230,430.755615,857.757568,0.620301
-346.069336,421.966553,849.609375,0.621045
-335.815430,418.945312,850.341797,0.621793
-339.294434,411.346436,844.848633,0.622547
-334.716797,411.163330,839.630127,0.623288
-335.632324,404.479980,839.813232,0.624028
-329.589844,404.113770,839.447021,0.624767
-333.251953,401.458740,837.707520,0.625506
-338.470459,398.620605,840.911865,0.626249
-346.527100,395.599365,828.277588,0.626988
-339.385986,394.500732,837.249756,0.627727
-338.378906,386.993408,829.467773,0.628470
-335.357666,395.324707,840.637207,0.629209
-339.569092,396.514893,836.242676,0.629948
-342.590332,395.416260,835.144043,0.630687
-340.667725,399.719238,834.320068,0.631428
-345.977783,404.663086,840.087891,0.632167
-341.857910,405.120850,842.285156,0.632905
-345.062256,407.409668,847.686768,0.633644
-342.773438,412.170410,843.109131,0.634382
-342.132568,411.346436,842.285156,0.635122
-347.900391,412.078857,840.179443,0.635861
-345.794678,422.515869,846.771240,0.636605
-349.456787,417.297363,840.454102,0.637345
-349.456787,418.304443,846.679688,0.638087
-351.013184,424.896240,844.116211,0.638827
-347.900391,423.980713,846.221924,0.639563
-345.886230,426.177979,843.292236,0.640299
-347.991943,430.572510,821.319580,0.641035
-346.435547,429.473877,841.094971,0.641774
-358.062744,434.783936,846.679688,0.642509
-352.111816,437.713623,834.869385,0.643245
-348.632812,433.502197,831.481934,0.643982
-363.830566,434.234619,824.981689,0.644720
-370.513916,438.171387,828.735352,0.645456
-364.471436,443.023682,825.622559,0.646192
-369.964600,446.777344,822.601318,0.646925
-369.140625,440.185547,832.946777,0.647657
-380.767822,434.967041,824.249268,0.648389
-378.662109,449.890137,827.819824,0.649122
-380.035400,440.551758,816.558838,0.649871
-382.507324,447.052002,827.178955,0.650612
-384.796143,448.333740,827.087402,0.651351
-390.563965,446.228027,822.326660,0.652091
-390.930176,444.305420,827.911377,0.652830
-395.233154,451.995850,830.657959,0.653570
-397.613525,451.721191,831.481934,0.654309
-396.240234,446.960449,839.721680,0.655053
-376.281738,442.474365,835.601807,0.655792
-399.536133,449.249268,832.397461,0.656532
-395.507812,454.559326,829.467773,0.657271
-393.768311,448.883057,833.404541,0.658009
-396.697998,447.601318,824.340820,0.658749
-391.387939,442.108154,824.066162,0.659488
-392.852783,440.002441,819.122314,0.660231
-397.338867,436.614990,814.453125,0.660970
-392.944336,439.544678,842.834473,0.661709
-402.465820,432.861328,819.488525,0.662449
-407.135010,445.220947,818.664551,0.663188
-402.465820,444.671631,815.460205,0.663927
-401.916504,444.946289,825.439453,0.664666
-403.289795,446.319580,815.643311,0.665408
-397.888184,447.326660,821.777344,0.666147
-406.036377,446.319580,818.298340,0.666886
-406.402588,439.819336,826.171875,0.667625
-404.205322,438.720703,827.819824,0.668364
-397.430420,440.277100,835.693359,0.669103
-399.902344,436.340332,826.721191,0.669842
-396.972656,425.445557,838.348389,0.670584
-400.268555,426.635742,826.263428,0.671324
-392.761230,431.671143,831.481934,0.672061
-395.599365,419.128418,830.291748,0.672801
-394.500732,413.360596,833.221436,0.673543
-392.028809,418.029785,828.735352,0.674282
-387.725830,417.205811,829.193115,0.675021
-388.916016,416.381836,820.678711,0.675792
-383.697510,418.121338,822.875977,0.676528
-382.965088,410.522461,827.362061,0.677264
-380.401611,411.895752,833.404541,0.677999
-381.591797,404.663086,838.806152,0.678741
-372.985840,406.127930,830.474854,0.679480
-376.739502,408.050537,824.066162,0.680217
-366.210938,404.205322,824.523926,0.680952
-360.076904,399.261475,830.566406,0.681688
-361.999512,407.867432,827.453613,0.682424
-354.400635,399.078369,829.376221,0.683159
-356.048584,394.317627,826.721191,0.683899
-351.287842,390.380859,834.411621,0.684635
-349.456787,392.578125,833.587646,0.685371
-340.667725,395.141602,830.017090,0.686106
-338.653564,393.402100,833.312988,0.686839
-341.491699,389.739990,826.446533,0.687575
-331.054688,391.479492,821.228027,0.688313
-307.067871,390.747070,822.052002,0.689053
-323.822021,380.493164,812.072754,0.689789
-322.906494,386.901855,813.720703,0.690525
-323.822021,388.549805,816.741943,0.691261
-317.504883,393.035889,824.157715,0.691996
-320.251465,388.549805,824.249268,0.692732
-320.800781,389.648438,833.404541,0.693468
-318.969727,393.493652,827.178955,0.694208
-313.385010,391.021729,823.883057,0.694943
-316.864014,395.690918,822.967529,0.695679
-323.730469,390.380859,830.200195,0.696414
-321.533203,396.057129,826.263428,0.697170
-316.406250,380.035400,819.030762,0.697908
-324.096680,406.768799,820.495605,0.698643
-333.892822,398.986816,821.044922,0.699378
-340.484619,396.240234,811.706543,0.700114
-335.083008,398.895264,819.854736,0.700849
-338.012695,421.051025,814.636230,0.701584
-341.674805,398.620605,813.079834,0.702337
-339.477539,397.247314,802.459717,0.703082
-341.033936,405.212402,801.086426,0.703820
-339.385986,408.966064,804.656982,0.704564
-339.660645,413.085938,807.403564,0.705301
-347.808838,411.529541,810.241699,0.706040
-347.991943,418.670654,811.523438,0.706778
-352.661133,419.677734,811.065674,0.707515
-360.351562,420.318604,809.234619,0.708273
-353.668213,427.368164,812.255859,0.709010
-365.753174,432.220459,816.925049,0.709748
-366.577148,423.980713,816.467285,0.710486
-365.020752,429.748535,810.241699,0.711225
-365.661621,419.860840,810.241699,0.711963
-367.858887,431.579590,815.734863,0.712704
-372.253418,420.593262,819.488525,0.713442
-395.507812,427.459717,817.474365,0.714180
-369.232178,426.635742,819.213867,0.714919
-366.210938,426.269531,809.509277,0.715657
-369.598389,431.304932,814.910889,0.716395
-370.605469,431.762695,804.382324,0.717133
-372.436523,429.748535,806.579590,0.717875
-394.500732,436.614990,804.290771,0.718613
-381.225586,436.340332,803.924561,0.719351
-379.852295,433.227539,805.755615,0.720090
-384.979248,435.058594,804.199219,0.720828
-389.831543,450.897217,810.607910,0.721567
-396.789551,451.538086,816.467285,0.722305
-396.057129,462.615967,820.129395,0.723046
-397.247314,466.735840,822.784424,0.723784
-410.247803,465.820312,824.798584,0.724522
-400.360107,466.003418,833.129883,0.725261
-410.614014,475.433350,822.235107,0.726001
-411.071777,480.834961,821.777344,0.726739
-411.895752,481.109619,821.960449,0.727478
-414.459229,483.489990,825.714111,0.728218
-412.445068,488.983154,822.875977,0.728956
-418.029785,486.694336,824.798584,0.729694
-422.698975,496.490479,835.144043,0.730432
-416.748047,488.342285,838.165283,0.731173
-420.043945,488.708496,842.834473,0.731911
-414.276123,488.067627,834.320068,0.732650
-409.057617,496.032715,833.679199,0.733389
-414.825439,490.905762,828.735352,0.734128
-413.269043,491.912842,826.080322,0.734867
-416.107178,482.940674,820.129395,0.735606
-415.283203,490.356445,819.580078,0.736345
-418.670654,474.975586,812.988281,0.737081
-405.395508,479.370117,803.466797,0.737817
-405.578613,471.130371,812.896729,0.738552
-405.853271,466.369629,810.974121,0.739289
-404.296875,455.841064,807.769775,0.740025
-397.979736,459.960938,815.917969,0.740761
-398.803711,450.988770,817.474365,0.741504
-400.085449,448.699951,805.847168,0.742243
-389.465332,443.847656,822.326660,0.742982
-379.943848,441.467285,826.629639,0.743720
-386.627197,466.003418,828.460693,0.744456
-379.211426,437.164307,821.319580,0.745192
-375.366211,441.375732,835.144043,0.745959
-369.232178,430.847168,838.623047,0.746703
-364.837646,440.460205,834.320068,0.747441
-361.633301,430.023193,841.735840,0.748180
-351.104736,425.903320,840.362549,0.748920
-347.625732,423.614502,837.799072,0.749656
-341.491699,419.586182,841.918945,0.750392
-338.287354,416.198730,844.207764,0.751128
-321.441650,410.064697,848.144531,0.751869
-320.983887,414.367676,848.419189,0.752607
-321.350098,409.149170,843.200684,0.753345
-317.321777,400.085449,824.798584,0.754083
-315.673828,405.853271,848.785400,0.754824
-312.835693,400.360107,854.278564,0.755562
-314.300537,408.233643,858.673096,0.756300
-316.406250,409.790039,855.468750,0.757041
-307.434082,407.043457,860.321045,0.757794
-318.237305,404.296875,857.757568,0.758558
-313.751221,421.691895,861.053467,0.759299
-286.102295,453.826904,852.355957,0.760038
-298.553467,496.032715,854.827881,0.760777
-284.454346,489.166260,880.004883,0.761517
-314.483643,431.030273,889.434814,0.762263
-337.738037,413.726807,898.315430,0.763002
-323.455811,433.227539,899.230957,0.763741
-340.484619,460.693359,911.315918,0.764479
-307.250977,449.798584,911.407471,0.765218
-336.273193,465.545654,910.949707,0.765957
-318.328857,462.890625,880.371094,0.766696
-346.527100,447.235107,856.933594,0.767439
-354.217529,432.769775,837.249756,0.768178
-359.161377,429.290771,805.847168,0.768916
-345.886230,429.565430,795.593262,0.769655
-320.251465,432.403564,800.537109,0.770394
-302.398682,449.615479,809.326172,0.771133
-291.412354,455.841064,824.340820,0.771872
-294.799805,451.629639,833.038330,0.772613
-297.180176,452.911377,843.292236,0.773352
-325.378418,458.038330,848.876953,0.774091
-337.738037,463.439941,848.602295,0.774830
-372.436523,461.608887,848.052979,0.775566
-376.007080,486.877441,855.926514,0.776302
-376.007080,505.004883,869.567871,0.777039
-377.197266,530.731201,881.469727,0.777778
-364.471436,512.786865,908.111572,0.778515
-369.232178,513.702393,901.702881,0.779251
-356.781006,513.336182,901.062012,0.779987
-361.541748,506.011963,897.308350,0.780724
-351.196289,502.990723,890.350342,0.781460
-352.294922,503.906250,885.131836,0.782196
-354.858398,506.835938,858.856201,0.782932
-360.626221,507.385254,853.454590,0.783668
-364.379883,505.187988,833.953857,0.784404
-366.394043,514.892578,838.623047,0.785141
-369.506836,497.222900,842.742920,0.785879
-364.929199,494.018555,843.109131,0.786614
-367.401123,500.427246,851.348877,0.787350
-365.203857,513.244629,861.785889,0.788086
-365.844727,521.942139,871.856689,0.788822
-353.576660,520.385742,881.378174,0.789558
-359.344482,507.476807,892.730713,0.790294
-361.999512,511.688232,899.505615,0.791040
-367.034912,509.765625,904.907227,0.791777
-365.203857,508.758545,905.090332,0.792513
-366.485596,502.532959,898.223877,0.793249
-368.957520,503.173828,894.378662,0.793984
-374.450684,491.455078,888.793945,0.794721
-373.901367,488.067627,872.131348,0.795456
-378.021240,471.130371,862.609863,0.796209
-372.894287,465.637207,850.250244,0.796947
-366.943359,466.644287,839.813232,0.797682
-355.682373,452.087402,838.714600,0.798417
-349.639893,440.734863,837.890625,0.799158
-347.808838,438.903809,839.538574,0.799893
-355.773926,435.607910,831.848145,0.800628
-358.428955,423.248291,827.819824,0.801363
-370.239258,410.705566,831.939697,0.802101
-377.288818,405.578613,822.052002,0.802836
-380.310059,399.810791,827.362061,0.803571
-387.817383,396.881104,819.580078,0.804309
-378.295898,393.768311,822.692871,0.805044
-365.295410,395.782471,822.784424,0.805778
-355.407715,394.775391,822.784424,0.806513
-348.632812,388.458252,823.242188,0.807248
-334.259033,383.697510,823.059082,0.807983
-332.794189,373.168945,823.791504,0.808718
-337.188721,366.027832,800.994873,0.809469
-345.703125,357.971191,816.375732,0.810208
-348.632812,340.942383,812.530518,0.810944
-348.175049,335.632324,796.051025,0.811681
-350.738525,350.189209,802.185059,0.812414
-339.385986,323.272705,817.382812,0.813147
-337.005615,326.477051,800.628662,0.813880
-327.575684,321.350098,796.966553,0.814624
-325.836182,303.863525,792.938232,0.815365
-326.751709,301.574707,786.163330,0.816131
-313.293457,313.018799,782.592773,0.816870
-313.568115,302.215576,775.543213,0.817634
-314.300537,298.828125,793.670654,0.818374
-317.687988,288.757324,768.402100,0.819114
-324.829102,296.081543,770.416260,0.819857
-337.646484,286.834717,762.634277,0.820595
-333.892822,289.398193,761.260986,0.821334
-339.202881,285.095215,759.887695,0.822072
-347.625732,298.095703,756.317139,0.822813
-339.569092,302.307129,767.303467,0.823551
-342.224121,306.243896,764.923096,0.824290
-340.850830,310.821533,773.712158,0.825029
-346.618652,315.582275,782.135010,0.825766
-347.076416,327.301025,787.078857,0.826502
-350.189209,331.970215,790.191650,0.827239
-352.020264,345.794678,800.354004,0.827989
-360.626221,352.661133,809.234619,0.828741
-357.971191,360.534668,812.805176,0.829482
-368.316650,374.816895,824.981689,0.830222
-365.020752,379.577637,839.263916,0.830981
-364.471436,398.712158,841.827393,0.831774
-364.288330,406.860352,845.764160,0.832532
-358.337402,405.487061,844.116211,0.833271
-331.237793,420.501709,842.010498,0.834007
-351.196289,416.656494,845.214844,0.834757
-351.470947,415.008545,837.799072,0.835498
-353.210449,422.698975,836.883545,0.836237
-342.681885,425.079346,829.650879,0.836975
-357.696533,418.762207,822.143555,0.837717
-330.688477,417.205811,824.523926,0.838455
-352.661133,417.938232,821.685791,0.839199
-340.118408,415.649414,822.418213,0.839938
-342.864990,415.374756,822.143555,0.840676
-349.365234,424.163818,820.312500,0.841412
-353.759766,420.867920,825.073242,0.842155
-349.273682,419.586182,828.369141,0.842902
-351.379395,421.142578,826.354980,0.843639
-348.449707,420.593262,827.453613,0.844376
-353.485107,407.775879,825.164795,0.845113
-354.125977,405.029297,821.228027,0.845849
-373.718262,404.846191,809.692383,0.846585
-354.217529,402.008057,805.755615,0.847321
-352.111816,391.937256,800.537109,0.848062
-354.309082,397.338867,807.952881,0.848799
-349.639893,383.056641,799.255371,0.849535
-346.069336,383.880615,801.361084,0.850271
-340.942383,380.401611,798.156738,0.851004
-345.703125,384.338379,801.635742,0.851737
-354.583740,381.774902,804.107666,0.852469
-357.330322,380.126953,808.044434,0.853213
-367.309570,377.014160,808.319092,0.853948
-366.210938,395.874023,812.622070,0.854682
-368.957520,380.401611,813.812256,0.855427
-383.056641,367.675781,795.135498,0.856170
-384.155273,362.731934,801.361084,0.856906
-395.782471,369.232178,800.445557,0.857643
-392.120361,363.830566,793.212891,0.858380
-388.092041,357.513428,793.762207,0.859118
-383.331299,362.182617,786.804199,0.859863
-378.112793,350.646973,780.853271,0.860603
-385.345459,343.963623,787.261963,0.861345
-384.521484,352.111816,785.339355,0.862082
-385.986328,349.273682,784.698486,0.862828
-384.246826,345.428467,788.085938,0.863567
-401.092529,345.886230,783.599854,0.864312
-400.817871,342.407227,788.909912,0.865064
-400.268555,349.273682,796.051025,0.865802
-402.191162,345.520020,794.403076,0.866551
-404.846191,342.773438,789.642334,0.867287
-403.747559,348.999023,802.185059,0.868024
-399.078369,345.153809,804.199219,0.868762
-395.782471,339.843750,773.986816,0.869499
-396.972656,339.202881,778.472900,0.870251
-391.296387,348.083496,790.191650,0.870993
-389.465332,342.590332,779.846191,0.871736
-386.901855,344.787598,781.677246,0.872472
-387.908936,344.238281,773.071289,0.873208
-394.409180,367.492676,769.409180,0.873948
-389.190674,354.125977,775.360107,0.874685
-390.106201,349.090576,782.318115,0.875420
-385.437012,355.957031,786.621094,0.876156
-382.965088,361.999512,800.811768,0.876896
-386.627197,365.570068,796.966553,0.877632
-386.718750,361.633301,803.283691,0.878369
-376.373291,364.288330,807.312012,0.879111
-382.415771,362.823486,799.987793,0.879849
-377.655029,369.689941,795.867920,0.880588
-398.345947,370.513916,800.445557,0.881326
-376.647949,366.668701,793.395996,0.882066
-363.739014,371.978760,792.022705,0.882811
-364.471436,367.950439,779.846191,0.883566
-354.492188,361.724854,772.796631,0.884307
-350.097656,367.858887,783.050537,0.885055
-350.646973,370.513916,785.614014,0.885791
-346.069336,366.668701,782.043457,0.886524
-346.893311,366.302490,793.395996,0.887295
-348.266602,373.352051,795.318604,0.888031
-348.358154,377.014160,791.748047,0.888768
-355.773926,381.225586,798.248291,0.889517
-347.900391,387.451172,806.945801,0.890255
-352.294922,383.514404,805.297852,0.890990
-353.302002,389.465332,807.495117,0.891726
-360.443115,392.120361,806.030273,0.892468
-362.640381,384.246826,810.058594,0.893203
-360.443115,394.134521,813.079834,0.893938
-356.048584,395.782471,810.699463,0.894672
-359.527588,386.901855,809.051514,0.895406
-366.394043,400.543213,819.580078,0.896141
-361.907959,397.888184,820.678711,0.896923
-370.147705,417.572021,808.502197,0.897672
-364.288330,404.479980,815.551758,0.898412
-369.049072,397.338867,813.629150,0.899147
-375.732422,395.690918,824.523926,0.899882
-372.802734,404.846191,824.890137,0.900617
-375.823975,395.599365,827.728271,0.901355
-371.154785,396.606445,830.474854,0.902091
-378.204346,395.416260,831.939697,0.902832
-373.168945,394.592285,826.538086,0.903566
-371.154785,398.986816,826.080322,0.904301
-381.408691,394.866943,824.340820,0.905036
-388.549805,391.662598,829.925537,0.905772
-388.916016,403.289795,826.629639,0.906506
-393.951416,399.902344,834.503174,0.907242
-396.423340,398.162842,835.235596,0.907992
-402.008057,397.155762,827.362061,0.908729
-392.211914,389.190674,834.136963,0.909472
-385.986328,399.810791,834.594727,0.910210
-384.063721,402.740479,830.657959,0.910955
-378.662109,391.845703,824.981689,0.911694
-379.486084,398.254395,818.572998,0.912466
-384.429932,388.549805,818.206787,0.913203
-379.394531,388.916016,815.826416,0.913939
-387.634277,385.620117,811.340332,0.914673
-391.845703,388.549805,816.558838,0.915415
-385.986328,382.598877,813.262939,0.916149
-388.641357,388.092041,821.777344,0.916883
-381.225586,386.810303,823.791504,0.917618
-385.803223,389.831543,825.622559,0.918352
-389.648438,387.084961,829.376221,0.919111
-392.028809,381.774902,827.636719,0.919851
-384.246826,386.077881,826.904297,0.920592
-383.789062,384.338379,824.066162,0.921338
-379.211426,380.767822,826.721191,0.922077
-384.704590,386.810303,798.431396,0.922816
-388.000488,385.711670,825.347900,0.923554
-386.444092,384.063721,819.305420,0.924292
-380.493164,383.880615,827.087402,0.925030
-386.352539,385.894775,831.024170,0.925771
-386.077881,386.627197,820.037842,0.926509
-371.520996,389.556885,827.453613,0.927247
-369.964600,387.817383,821.777344,0.927986
-372.070312,395.233154,827.087402,0.928724
-354.675293,390.106201,831.848145,0.929462
-370.239258,384.338379,823.425293,0.930201
-377.563477,386.718750,824.981689,0.930940
-368.041992,396.789551,820.495605,0.931679
-364.929199,402.282715,821.044922,0.932417
-368.499756,384.063721,823.333740,0.933155
-367.309570,391.754150,818.389893,0.933893
-360.260010,389.007568,812.072754,0.934631
-358.337402,393.951416,815.185547,0.935370
-353.485107,398.712158,823.608398,0.936110
-344.879150,396.697998,818.847656,0.936848
-349.822998,404.479980,821.411133,0.937585
-350.006104,403.289795,826.171875,0.938324
-347.442627,402.099609,820.770264,0.939061
-338.287354,401.092529,820.495605,0.939800
-347.351074,400.543213,826.812744,0.940537
-345.062256,403.198242,829.742432,0.941279
-347.534180,399.902344,827.728271,0.942017
-345.794678,404.205322,822.235107,0.942754
-342.315674,405.212402,820.678711,0.943493
-334.625244,407.043457,824.615479,0.944233
-329.315186,399.719238,820.404053,0.944971
-318.328857,398.895264,823.699951,0.945709
-322.265625,404.022217,820.129395,0.946447
-326.568604,411.071777,818.664551,0.947186
-330.047607,401.824951,798.431396,0.947924
-321.075439,404.479980,815.643311,0.948661
-319.976807,412.353516,819.122314,0.949402
-322.631836,407.135010,819.213867,0.950145
-323.547363,402.465820,828.277588,0.950885
-317.962646,411.529541,823.150635,0.951623
-317.962646,408.691406,823.242188,0.952362
-317.321777,405.853271,826.446533,0.953099
-314.483643,404.571533,830.749512,0.953837
-318.969727,402.923584,829.284668,0.954579
-323.455811,396.331787,827.819824,0.955317
-321.990967,399.902344,820.770264,0.956056
-324.829102,404.479980,815.643311,0.956794
-328.857422,399.902344,809.783936,0.957574
-325.836182,396.423340,812.896729,0.958315
-328.857422,397.979736,817.382812,0.959053
-330.230713,399.536133,811.523438,0.959796
-336.456299,398.437500,809.509277,0.960534
-335.174561,395.782471,803.100586,0.961272
-328.399658,415.191650,804.840088,0.962013
-351.013184,407.867432,808.319092,0.962751
-346.160889,406.219482,811.157227,0.963489
-359.619141,394.226074,801.818848,0.964228
-363.830566,384.979248,817.932129,0.964969
-355.865479,372.253418,821.594238,0.965706
-355.682373,355.499268,825.531006,0.966444
-351.928711,364.837646,834.045410,0.967181
-350.738525,371.429443,833.496094,0.967962
-344.970703,362.182617,830.566406,0.968703
-342.315674,364.471436,824.798584,0.969442
-326.202393,361.267090,805.206299,0.970187
-314.758301,347.717285,804.748535,0.970925
-309.631348,339.202881,803.558350,0.971665
-328.216553,334.167480,790.740967,0.972404
-328.857422,334.350586,787.902832,0.973142
-344.421387,339.111328,786.529541,0.973880
-366.668701,331.420898,786.712646,0.974618
-356.689453,332.885742,779.846191,0.975357
-389.007568,346.527100,788.818359,0.976091
-378.936768,329.498291,779.846191,0.976826
-390.930176,335.357666,788.909912,0.977560
-377.471924,325.103760,787.078857,0.978295
-370.605469,321.716309,788.909912,0.979029
-353.393555,315.673828,777.832031,0.979764
-329.406738,318.786621,750.091553,0.980501
-314.941406,324.920654,767.761230,0.981237
-305.877686,323.638916,771.331787,0.981971
-304.870605,326.568604,764.099121,0.982706
-300.201416,319.335938,754.577637,0.983441
-317.230225,318.511963,758.972168,0.984175
-319.519043,326.751709,746.887207,0.984911
-342.864990,328.582764,750.915527,0.985649
-337.463379,336.822510,747.985840,0.986389
-334.442139,344.238281,766.113281,0.987124
-339.660645,359.619141,779.479980,0.987859
-331.420898,361.816406,783.966064,0.988612
-312.744141,372.253418,793.670654,0.989350
-300.567627,378.112793,799.713135,0.990084
-299.926758,385.070801,808.044434,0.990841
-278.228760,389.099121,806.945801,0.991578
-272.918701,397.430420,796.691895,0.992314
-275.024414,396.057129,794.311523,0.993050
-280.700684,393.859863,784.515381,0.993789
-270.996094,408.782959,776.641846,0.994524
-277.038574,409.057617,768.768311,0.995259
-282.348633,407.775879,757.598877,0.995995
-281.707764,418.853760,753.753662,0.996729
-274.383545,416.656494,751.373291,0.997464
-273.193359,431.304932,762.908936,0.998200
-269.073486,438.446045,758.605957,0.998937
-245.178223,443.115234,779.022217,0.999672
-242.980957,462.432861,786.163330,1.000407
-236.389160,467.926025,790.740967,1.001141
-236.480713,468.841553,795.043945,1.001876
-256.530762,467.102051,787.353516,1.002611
-245.361328,475.250244,781.494141,1.003346
-240.509033,477.172852,792.114258,1.004085
-253.051758,477.905273,780.303955,1.004819
-260.650635,472.503662,771.972656,1.005553
-266.967773,465.270996,779.754639,1.006288
-272.735596,474.884033,768.676758,1.007025
-269.714355,475.891113,762.542725,1.007760
-278.503418,480.010986,758.789062,1.008495
-267.700195,475.250244,757.415771,1.009231
-272.369385,477.996826,758.239746,1.009966
-275.848389,488.342285,756.500244,1.010701
-271.453857,486.602783,757.781982,1.011436
-282.531738,488.159180,755.859375,1.012187
-290.039062,488.983154,750.457764,1.012923
-285.644531,484.130859,760.986328,1.013657
-291.046143,491.729736,757.507324,1.014392
-302.032471,491.638184,770.141602,1.015127
-306.518555,488.800049,769.317627,1.015862
-302.764893,502.075195,771.331787,1.016597
-302.124023,498.596191,769.317627,1.017336
-308.532715,499.145508,772.888184,1.018070
-313.018799,507.110596,780.487061,1.018805
-304.046631,505.737305,784.149170,1.019540
-309.631348,511.230469,788.452148,1.020274
-308.349609,517.913818,795.684814,1.021009
-309.997559,513.427734,800.354004,1.021744
-313.385010,510.772705,810.791016,1.022482
-316.589355,507.568359,811.431885,1.023216
-319.793701,508.483887,818.481445,1.023950
-329.772949,518.188477,820.587158,1.024685
-321.624756,514.709473,825.622559,1.025422
-320.983887,512.512207,823.333740,1.026157
-319.885254,503.997803,823.883057,1.026891
-319.335938,508.300781,816.833496,1.027679
-331.054688,507.934570,818.847656,1.028418
-326.477051,491.455078,810.791016,1.029155
-330.139160,491.638184,801.818848,1.029894
-330.230713,488.525391,804.748535,1.030634
-331.054688,485.137939,805.114746,1.031367
-330.322266,484.680176,805.664062,1.032102
-327.484131,469.390869,805.938721,1.032837
-331.054688,472.229004,799.987793,1.033572
-336.639404,466.003418,795.410156,1.034306
-326.385498,455.200195,800.170898,1.035041
-331.695557,458.679199,792.846680,1.035780
-330.230713,446.777344,789.093018,1.036516
-328.948975,451.446533,790.191650,1.037250
-337.188721,453.643799,789.825439,1.037985
-336.639404,448.150635,792.205811,1.038718
-335.723877,440.917969,788.360596,1.039451
-326.385498,426.452637,788.635254,1.040206
-329.406738,426.269531,784.515381,1.040953
-327.941895,418.212891,787.078857,1.041691
-318.878174,413.818359,777.923584,1.042429
-315.490723,401.733398,781.311035,1.043167
-309.265137,375.915527,767.120361,1.043905
-309.814453,395.324707,763.916016,1.044642
-300.842285,392.120361,761.810303,1.045377
-295.715332,383.422852,747.802734,1.046117
-284.729004,379.394531,739.837646,1.046853
-286.285400,379.669189,731.323242,1.047588
-282.073975,378.662109,739.196777,1.048324
-281.433105,376.831055,742.492676,1.049059
-274.932861,379.760742,736.816406,1.049793
-267.333984,383.880615,738.098145,1.050528
-270.629883,384.063721,740.203857,1.051266
-270.538330,379.486084,729.675293,1.052005
-282.440186,397.979736,731.597900,1.052740
-292.877197,386.260986,721.984863,1.053475
-299.011230,390.014648,716.400146,1.054226
-304.046631,384.521484,710.449219,1.054964
-295.898438,375.274658,709.350586,1.055698
-302.032471,370.330811,713.287354,1.056450
-290.679932,364.837646,708.709717,1.057186
-285.003662,355.407715,717.041016,1.057921
-284.454346,350.555420,708.801270,1.058657
-274.475098,353.759766,717.041016,1.059395
-266.143799,364.929199,703.765869,1.060129
-251.403809,367.767334,679.687500,1.060869
-243.072510,378.204346,696.075439,1.061605
-253.692627,385.528564,695.434570,1.062341
-214.141846,384.887695,699.005127,1.063077
-233.001709,358.612061,719.879150,1.063812
-221.923828,350.921631,704.406738,1.064552
-212.951660,353.759766,736.633301,1.065288
-173.492432,389.190674,735.717773,1.066023
-158.020020,423.522949,744.140625,1.066761
-147.583008,430.664062,761.810303,1.067496
-134.582520,429.840088,777.099609,1.068232
-134.948730,395.233154,780.212402,1.068967
-137.603760,379.760742,782.135010,1.069717
-134.216309,361.907959,785.247803,1.070454
-131.378174,374.359131,772.247314,1.071188
-135.223389,378.936768,766.296387,1.071923
-151.153564,447.052002,716.400146,1.072674
-150.238037,424.621582,684.448242,1.073411
-212.677002,390.472412,677.490234,1.074152
-224.670410,379.394531,624.664307,1.074897
-230.072021,364.471436,610.473633,1.075636
-257.720947,368.041992,607.727051,1.076376
-242.980957,370.056152,619.628906,1.077115
-200.134277,384.704590,634.368896,1.077857
-168.182373,402.008057,672.454834,1.078596
-123.687744,415.008545,707.702637,1.079335
-106.475830,422.790527,733.886719,1.080074
-86.975098,430.572510,727.020264,1.080813
-87.524414,417.755127,724.914551,1.081552
-97.412109,409.698486,716.308594,1.082292
-113.342285,422.058105,686.737061,1.083030
-124.877930,431.671143,656.799316,1.083766
-133.026123,429.565430,633.178711,1.084498
-161.682129,434.417725,611.022949,1.085233
-174.682617,427.368164,622.283936,1.085969
-193.084717,432.769775,626.495361,1.086705
-195.465088,434.509277,631.622314,1.087441
-227.050781,459.136963,646.911621,1.088179
-249.755859,462.341309,673.095703,1.088915
-279.510498,478.363037,676.391602,1.089651
-310.546875,486.694336,697.998047,1.090386
-315.673828,497.497559,728.118896,1.091122
-323.730469,506.652832,743.682861,1.091857
-333.435059,500.335693,774.810791,1.092592
-347.534180,510.681152,784.698486,1.093327
-350.006104,510.864258,787.353516,1.094060
-349.731445,517.272949,813.995361,1.094792
-359.619141,515.899658,816.009521,1.095525
-362.274170,516.723633,819.305420,1.096263
-358.703613,514.343262,811.340332,1.096997
-389.648438,523.040771,804.473877,1.097730
-396.697998,507.751465,790.008545,1.098500
-436.798096,511.962891,769.592285,1.099234
-438.079834,505.096436,745.239258,1.099969
-451.446533,503.082275,735.900879,1.100703
-465.728760,512.420654,723.266602,1.101454
-469.757080,519.378662,724.548340,1.102190
-468.292236,516.174316,743.865967,1.102925
-462.707520,521.759033,756.042480,1.103660
-461.975098,528.442383,772.247314,1.104395
-457.489014,512.420654,782.684326,1.105131
-454.193115,506.378174,796.325684,1.105866
-452.087402,495.025635,794.952393,1.106605
-450.988770,497.222900,789.642334,1.107340
-462.890625,492.553711,772.888184,1.108074
-461.334229,486.785889,766.113281,1.108809
-474.975586,463.897705,750.457764,1.109543
-473.144531,453.918457,726.196289,1.110300
-461.059570,442.291260,697.814941,1.111043
-431.488037,430.664062,682.983398,1.111799
-424.346924,417.938232,666.412354,1.112537
-388.366699,402.923584,647.094727,1.113272
-363.555908,388.000488,644.348145,1.114007
-339.752197,373.809814,643.981934,1.114742
-334.991455,365.753174,622.833252,1.115486
-321.350098,366.027832,620.635986,1.116226
-315.216064,358.612061,611.480713,1.116979
-310.363770,354.400635,629.974365,1.117717
-316.864014,348.632812,595.001221,1.118454
-312.561035,353.118896,591.339111,1.119202
-317.047119,359.252930,587.768555,1.119943
-312.744141,354.949951,576.873779,1.120682
-305.328369,364.196777,563.964844,1.121421
-300.292969,373.260498,568.267822,1.122163
-296.173096,374.633789,556.915283,1.122903
-291.412354,367.950439,558.654785,1.123642
-290.039062,378.479004,558.288574,1.124381
-247.650146,384.979248,569.732666,1.125123
-257.171631,393.402100,579.986572,1.125862
-240.875244,402.374268,608.367920,1.126602
-220.733643,419.403076,597.381592,1.127344
-197.021484,437.438965,619.354248,1.128084
-170.654297,459.960938,636.840820,1.128822
-166.809082,477.630615,659.545898,1.129561
-134.582520,492.004395,681.335449,1.130302
-115.539551,522.399902,688.201904,1.131042
-103.912354,543.731689,699.554443,1.131789
-89.172363,550.689697,697.723389,1.132536
-85.693359,575.134277,708.251953,1.133274
-80.566406,594.726562,717.773438,1.134013
-86.883545,599.945068,733.612061,1.134753
-89.721680,619.903564,734.344482,1.135495
-104.003906,648.101807,758.605957,1.136234
-109.405518,690.765381,781.127930,1.136973
-157.104492,719.512939,790.649414,1.137712
-177.520752,722.076416,795.867920,1.138450
-238.494873,720.703125,797.515869,1.139189
-289.123535,728.668213,798.522949,1.139928
-309.539795,732.147217,780.120850,1.140666
-317.413330,728.302002,772.430420,1.141401
-314.025879,729.858398,769.409180,1.142137
-315.216064,740.020752,787.353516,1.142890
-271.820068,743.774414,810.882568,1.143629
-227.050781,779.663086,817.199707,1.144368
-156.097412,801.452637,841.278076,1.145107
-118.377686,820.404053,864.807129,1.145848
-108.856201,847.778320,876.892090,1.146587
-103.912354,856.842041,888.885498,1.147326
-109.039307,868.560791,910.675049,1.148065
-128.997803,862.884521,921.203613,1.148805
-162.231445,870.025635,943.908691,1.149543
-188.873291,861.694336,969.177246,1.150282
-238.861084,856.567383,994.720459,1.151025
-246.093750,861.602783,1017.608643,1.151765
-274.291992,862.335205,1054.412842,1.152505
-280.700684,861.968994,1023.651123,1.153244
-279.876709,852.355957,1017.059326,1.153983
-291.595459,832.763672,984.558105,1.154722
-290.863037,806.854248,954.986572,1.155461
-302.215576,793.853760,908.294678,1.156203
-312.103271,785.797119,863.067627,1.156941
-305.603027,769.683838,850.891113,1.157676
-301.391602,747.802734,807.037354,1.158412
-303.314209,739.288330,770.324707,1.159150
-282.440186,738.555908,727.386475,1.159886
-281.066895,733.245850,702.484131,1.160622
-271.362305,727.111816,656.433105,1.161359
-261.566162,720.336914,630.615234,1.162095
-262.939453,702.667236,611.755371,1.162831
-270.904541,699.371338,591.979980,1.163566
-270.355225,681.335449,579.528809,1.164316
-265.319824,674.652100,582.183838,1.165054
-262.390137,646.820068,576.324463,1.165788
-261.291504,641.510010,581.359863,1.166534
-257.446289,641.235352,571.746826,1.167273
-250.946045,634.643555,580.261230,1.168011
-245.178223,627.960205,582.824707,1.168786
-244.995117,632.629395,579.711914,1.169534
-232.910156,622.192383,581.268311,1.170273
-254.608154,615.875244,570.556641,1.171012
-240.966797,620.910645,565.063477,1.171785
-245.544434,621.093750,551.147461,1.172525
-238.677979,610.290527,545.196533,1.173264
-239.776611,619.354248,529.998779,1.174004
-248.382568,629.974365,529.724121,1.174746
-240.783691,636.108398,515.716553,1.175485
-236.114502,645.446777,508.575439,1.176224
-242.248535,649.017334,497.406006,1.176963
-218.261719,659.454346,497.680664,1.177702
-228.149414,666.778564,493.743896,1.178440
-217.712402,687.652588,514.434814,1.179180
-194.366455,712.738037,496.032715,1.179931
-183.105469,720.703125,493.835449,1.180671
-166.168213,727.478027,496.673584,1.181416
-140.441895,745.422363,500.427246,1.182165
-139.709473,752.838135,500.976562,1.182905
-130.279541,774.993896,503.723145,1.183669
-111.785889,780.944824,502.166748,1.184434
-117.004395,780.303955,484.954834,1.185175
-127.166748,790.832520,474.792480,1.185913
-135.223389,779.754639,467.193604,1.186652
-131.927490,788.177490,447.509766,1.187393
-145.660400,793.762207,440.277100,1.188132
-148.315430,785.614014,422.424316,1.188871
-149.230957,797.973633,413.635254,1.189610
-144.470215,807.678223,407.684326,1.190345
-167.083740,803.741455,382.598877,1.191080
-121.765137,811.157227,367.218018,1.191815
-50.079346,807.678223,328.765869,1.192554
-32.684326,818.664551,303.314209,1.193289
12.268066,821.044922,283.721924,1.194023
27.832031,829.833984,272.644043,1.194759
25.268555,836.791992,275.207520,1.195496
30.395508,836.425781,279.602051,1.196234
33.508301,837.341309,277.770996,1.196968
24.536133,863.616943,287.841797,1.197709
11.993408,871.124268,311.737061,1.198444
-16.021729,877.624512,355.224609,1.199179
-50.079346,887.786865,369.689941,1.199914
-61.523438,906.188965,381.408691,1.200689
-95.306396,902.160645,397.430420,1.201428
-124.053955,904.815674,410.430908,1.202167
-146.759033,917.541504,437.988281,1.202912
-180.908203,923.400879,453.369141,1.203650
-212.585449,917.816162,490.814209,1.204389
-221.649170,941.986084,490.356445,1.205128
-238.677979,946.105957,511.779785,1.205869
-232.086182,946.472168,539.154053,1.206608
-229.431152,968.353271,552.062988,1.207346
-216.064453,984.741211,550.506592,1.208083
-196.838379,1002.502441,559.844971,1.208818
-174.316406,997.650146,552.429199,1.209553
-177.703857,1008.087158,535.766602,1.210288
-152.343750,1020.904541,512.969971,1.211026
-150.970459,1053.955078,512.237549,1.211761
-129.272461,1026.306152,510.589600,1.212496
-140.441895,1019.348145,507.476807,1.213231
-135.314941,1056.060791,508.117676,1.213966
-173.126221,1061.279297,540.710449,1.214701
-183.654785,1050.567627,548.126221,1.215436
-217.712402,1043.151855,554.077148,1.216174
-208.740234,1062.103271,560.028076,1.216908
-217.163086,1078.674316,550.140381,1.217644
-210.937500,1079.040527,546.661377,1.218378
-222.290039,1120.697021,538.604736,1.219116
-199.310303,1101.104736,582.000732,1.219851
-221.466064,1047.637939,601.501465,1.220587
-198.852539,1018.157959,618.713379,1.221338
-157.836914,1021.728516,642.242432,1.222076
-127.075195,1045.349121,650.482178,1.222824
-108.032227,1077.484131,660.919189,1.223561
-92.102051,1058.441162,634.826660,1.224299
-90.454102,1071.075439,637.023926,1.225033
-94.390869,1102.935791,603.149414,1.225768
-89.996338,1115.661621,586.120605,1.226503
-76.904297,1102.294922,573.852539,1.227238
-96.679688,1113.189697,567.260742,1.227972
-90.545654,1123.992920,571.014404,1.228707
-127.532959,1126.281738,574.127197,1.229445
-125.793457,1114.929199,592.254639,1.230180
-148.864746,1117.309570,596.282959,1.230915
-168.182373,1120.056152,602.142334,1.231650
-174.865723,1101.196289,600.677490,1.232385
-191.253662,1081.329346,584.106445,1.233120
-184.204102,1065.582275,555.908203,1.233854
-186.035156,1058.074951,521.392822,1.234592
-168.182373,1052.215576,489.257812,1.235327
-154.998779,1047.821045,467.651367,1.236062
-152.069092,1029.418945,436.157227,1.236797
-154.724121,1013.397217,418.212891,1.237551
-160.034180,1012.390137,409.332275,1.238289
-160.125732,1002.227783,414.642334,1.239067
-158.386230,981.811523,425.720215,1.239807
-132.019043,985.839844,424.530029,1.240542
-141.540527,977.966309,431.121826,1.241277
-110.229492,969.451904,442.474365,1.242012
-120.758057,963.500977,447.052002,1.242749
-124.420166,967.712402,433.685303,1.243484
-124.969482,941.711426,427.825928,1.244219
-128.265381,925.048828,417.388916,1.244956
-123.413086,905.548096,409.606934,1.245691
-130.554199,897.674561,399.169922,1.246426
-120.208740,894.378662,373.535156,1.247161
-122.863770,875.427246,368.957520,1.247903
-107.208252,861.053467,351.379395,1.248642
-89.813232,848.785400,343.231201,1.249377
-84.594727,840.362549,319.702148,1.250123
-67.291260,848.785400,288.757324,1.250862
-65.093994,837.249756,259.094238,1.251606
-49.255371,832.489014,222.747803,1.252345
-46.142578,818.847656,212.310791,1.253111
-39.184570,831.665039,190.521240,1.253853
-45.135498,838.073730,175.231934,1.254592
-31.677246,844.207764,169.189453,1.255335
-18.951416,862.060547,159.576416,1.256073
-30.303955,877.899170,158.752441,1.256810
-39.825439,881.195068,145.294189,1.257548
-58.959961,888.519287,143.371582,1.258286
-62.988281,903.991699,143.463135,1.259024
-68.664551,934.936523,134.399414,1.259761
-77.911377,930.816650,131.378174,1.260503
-111.419678,959.197998,128.173828,1.261238
-108.398438,1019.256592,102.355957,1.261972
-158.843994,1002.044678,71.960449,1.262707
-146.575928,989.593506,74.615479,1.263443
-128.265381,1009.094238,59.051514,1.264178
-187.408447,999.847412,50.079346,1.264912
-157.470703,984.191895,45.043945,1.265650
-184.204102,991.149902,38.269043,1.266385
-196.929932,978.332520,58.959961,1.267120
-173.126221,991.699219,79.650879,1.267855
-181.091309,1030.151367,72.143555,1.268591
-148.132324,1049.652100,67.840576,1.269326
-96.405029,1078.125000,128.997803,1.270061
-90.545654,1078.857422,199.676514,1.270795
-78.186035,1087.738037,286.743164,1.271531
-18.127441,1123.809814,307.342529,1.272267
-49.438477,1163.635254,339.935303,1.273001
-17.852783,1204.101562,362.548828,1.273739
-53.741455,1240.539551,354.858398,1.274473
-72.967529,1275.878906,296.356201,1.275207
-107.849121,1252.899170,150.970459,1.275942
-154.907227,1250.976562,111.053467,1.276677
-137.969971,1241.821289,47.058105,1.277412
-187.133789,1280.731201,20.599365,1.278146
-139.251709,1294.281006,15.289307,1.278884
-125.518799,1295.745850,80.566406,1.279618
-98.510742,1327.239990,129.455566,1.280353
-23.986816,1327.789307,237.854004,1.281088
94.482422,1373.199463,278.869629,1.281841
-8.880615,1380.157471,273.284912,1.282579
-123.870850,1370.910645,283.630371,1.283313
-49.438477,1375.488281,281.433105,1.284069
-182.647705,1364.044189,300.750732,1.284806
-199.035645,1344.177246,310.546875,1.285541
-234.100342,1330.718994,305.145264,1.286276
-249.938965,1315.429688,324.279785,1.287026
-273.284912,1289.703369,335.540771,1.287765
-304.412842,1278.167725,373.809814,1.288504
-325.103760,1245.666504,366.760254,1.289245
-296.630859,1288.787842,403.289795,1.289984
-274.841309,1297.119141,431.762695,1.290721
-234.191895,1309.020996,401.550293,1.291459
-33.508301,1324.493408,319.519043,1.292200
8.605957,1298.034668,302.307129,1.292937
-0.091553,1197.326660,271.270752,1.293675
-675.109863,1220.672607,286.560059,1.294413
29.663086,1295.196533,257.629395,1.295151
200.592041,1321.105957,250.488281,1.295889
-89.447021,1289.611816,277.954102,1.296626
-288.299561,1275.787354,290.863037,1.297366
58.685303,1280.364990,260.467529,1.298104
-196.105957,1266.906738,239.318848,1.298842
-190.155029,1047.454834,312.103271,1.299581
303.497314,1302.246094,458.770752,1.300319
-146.850586,1070.526123,451.812744,1.301056
215.698242,1234.863281,433.593750,1.301793
-125.885010,1159.515381,422.332764,1.302534
119.384766,1226.531982,399.810791,1.303273
56.762695,1195.770264,344.512939,1.304011
-14.739990,1152.740479,297.912598,1.304749
50.079346,1261.047363,270.812988,1.305487
30.670166,1207.672119,252.136230,1.306225
63.812256,1269.378662,242.156982,1.306964
1.098633,1259.399414,246.551514,1.307704
10.437012,1252.258301,252.868652,1.308441
25.451660,1287.506104,238.311768,1.309223
-2.288818,1249.511719,211.578369,1.309962
16.845703,1279.083252,208.282471,1.310699
-20.782471,1223.968506,185.577393,1.311438
1.739502,1220.764160,180.175781,1.312176
9.613037,1231.018066,173.492432,1.312917
24.444580,1211.883545,176.330566,1.313655
79.925537,1229.187012,163.330078,1.314394
58.135986,1218.383789,151.611328,1.315132
143.646240,1219.116211,139.892578,1.315871
106.109619,1197.143555,167.083740,1.316609
169.921875,1233.398438,195.281982,1.317347
146.392822,1187.530518,239.685059,1.318087
98.327637,1148.803711,252.410889,1.318824
97.961426,1173.156738,234.191895,1.319571
51.452637,1169.219971,497.589111,1.320346
-589.691162,833.496094,1018.890381,1.321088
997.833252,1191.833496,435.791016,1.321840
-0.091553,1217.834473,2.655029,1.322582
-553.710938,1118.133545,320.068359,1.323327
343.688965,1012.023926,378.387451,1.324067
-67.932129,1141.204834,686.828613,1.324806
-860.229492,1285.491943,864.898682,1.325547
-621.643066,1516.937256,791.564941,1.326286
-584.747314,1515.472412,670.440674,1.327038
-625.946045,1395.446777,535.308838,1.327784
-588.317871,1305.633545,343.048096,1.328535
-353.942871,1026.489258,418.121338,1.329275
2999.908447,1385.284424,556.549072,1.330013
1713.409424,1277.618408,459.869385,1.330752
-1236.877441,1303.070068,440.185547,1.331491
-1282.379150,1363.861084,333.343506,1.332230
373.626709,1330.627441,169.464111,1.332969
1198.150635,1323.303223,84.594727,1.333711
358.428955,1251.983643,59.875488,1.334450
-939.422607,1170.043945,61.431885,1.335190
-865.539551,1145.324707,92.102051,1.335929
496.765137,1227.172852,57.312012,1.336665
465.454102,1304.351807,23.437500,1.337400
-47.424316,1247.955322,-48.065186,1.338136
-425.628662,1185.424805,-154.174805,1.338879
30.670166,1155.029297,-210.662842,1.339618
40.466309,1121.154785,-263.122559,1.340356
-324.737549,1070.709229,-296.722412,1.341095
-327.575684,1030.792236,-324.371338,1.341837
-78.277588,1076.751709,-355.957031,1.342576
75.439453,1150.268555,-354.675293,1.343315
-84.045410,1151.458740,-383.422852,1.344059
-225.311279,1232.940674,-395.233154,1.344798
-490.631104,1139.099121,20.507812,1.345537
-783.508301,1229.187012,205.169678,1.346276
-886.688232,1244.659424,241.058350,1.347014
609.008789,1365.783691,202.972412,1.347749
1109.069824,1454.864502,165.069580,1.348485
-342.773438,1327.148438,191.253662,1.349225
-607.727051,1312.408447,83.770752,1.349965
-40.466309,1398.834229,-83.496094,1.350704
808.685303,1389.495850,-183.197021,1.351442
-40.466309,1288.787842,-187.408447,1.352181
-781.311035,1198.791504,-222.381592,1.352917
-274.383545,1195.129395,-303.222656,1.353654
73.059082,1242.370605,-372.802734,1.354391
445.770264,1231.109619,-178.070068,1.355130
305.603027,1089.660645,254.699707,1.355878
-1900.177002,1024.566650,290.130615,1.356620
-205.993652,1152.923584,119.110107,1.357361
1248.138428,1291.442871,-32.318115,1.358100
473.876953,1194.122314,-65.826416,1.358839
-1163.085938,1157.867432,-84.686279,1.359575
-370.513916,1222.045898,-131.286621,1.360311
323.913574,1323.944092,-146.026611,1.361047
-627.410889,1268.005371,-92.193604,1.361783
-975.036621,1244.293213,-109.130859,1.362522
-730.773926,1294.830322,-107.940674,1.363257
-41.107178,1307.830811,-164.062500,1.363993
-263.397217,1240.814209,-228.881836,1.364728
-1177.001953,963.317871,83.770752,1.365461
-170.013428,1023.376465,308.807373,1.366193
476.898193,1298.492432,298.187256,1.366926
97.320557,1298.583984,289.672852,1.367667
-864.074707,1196.685791,259.460449,1.368403
-459.594727,1202.911377,94.940186,1.369139
278.137207,1226.989746,-18.768311,1.369875
2192.687988,2092.437744,1873.260498,1.370613
2999.908447,2276.000977,2027.252197,1.371349
2999.908447,2326.171875,2287.261963,1.372085
2169.891357,1630.371094,1005.798340,1.372843
267.608643,1127.014160,659.454346,1.373581
-1084.625244,1057.891846,468.566895,1.374317
-1594.573975,929.260254,141.174316,1.375053
-2332.031250,768.127441,-305.328369,1.375792
-2095.825195,608.459473,-565.063477,1.376528
-1337.310791,550.415039,-671.447754,1.377263
-931.823730,604.156494,-679.321289,1.377999
-664.031982,729.400635,-230.346680,1.378766
-216.522217,855.377197,250.122070,1.379502
91.461182,1050.750732,333.343506,1.380237
196.289062,1082.427979,352.203369,1.380975
183.746338,978.240967,132.202148,1.381711
208.099365,876.251221,-67.932129,1.382446
156.738281,808.410645,-261.016846,1.383181
89.721680,686.187744,-333.801270,1.383915
-189.788818,597.930908,-524.871826,1.384649
-361.633301,649.475098,-540.985107,1.385395
46.142578,818.481445,664.215088,1.386173
485.229492,1165.374756,491.180420,1.386911
877.258301,942.077637,96.496582,1.387647
656.066895,903.259277,-184.295654,1.388383
368.041992,969.085693,-138.244629,1.389129
-43.212891,1087.646484,-86.517334,1.389866
-248.474121,1088.928223,-181.365967,1.390628
-369.781494,1088.287354,-227.783203,1.391377
-317.504883,1141.845703,-80.291748,1.392119
-377.014160,1232.299805,69.671631,1.392856
-171.661377,1249.511719,61.065674,1.393593
-23.803711,1164.550781,-44.769287,1.394329
-4.394531,1078.399658,-237.030029,1.395065
4.577637,1074.462891,-168.640137,1.395816
-43.487549,1118.041992,-64.270020,1.396558
3.662109,1139.831543,-10.894775,1.397294
-59.692383,1103.942871,-140.258789,1.398030
-149.871826,1036.834717,-153.167725,1.398766
-255.340576,1041.137695,-103.271484,1.399503
-346.435547,1074.829102,-39.825439,1.400240
-396.057129,1052.490234,-128.540039,1.400976
-416.473389,1043.334961,-152.618408,1.401716
-360.260010,1039.764404,-164.703369,1.402452
-309.997559,1064.575195,-110.229492,1.403188
-227.050781,1068.420410,-95.214844,1.403924
-204.895020,1059.722900,-135.955811,1.404669
-184.661865,1059.082031,-130.828857,1.405408
-261.932373,1071.350098,-54.107666,1.406146
-314.392090,1070.159912,-43.853760,1.406885
-260.467529,1077.850342,-36.987305,1.407624
-191.436768,1074.737549,-85.418701,1.408363
-135.864258,1063.385010,-135.223389,1.409102
-93.475342,1066.589355,-116.180420,1.409845
-34.790039,1057.159424,-130.096436,1.410585
-37.536621,1058.624268,-110.961914,1.411324
-82.305908,1036.193848,-117.553711,1.412064
-121.215820,1026.031494,-148.773193,1.412802
-126.159668,1047.912598,-103.088379,1.413541
-41.564941,1037.017822,-101.898193,1.414280
-2.105713,1041.870117,-106.475830,1.415021
8.605957,1028.594971,-126.342773,1.415760
4.119873,1009.002686,-140.899658,1.416499
8.697510,1015.960693,-118.286133,1.417238
26.184082,1021.545410,-88.531494,1.417977
53.192139,1041.229248,-80.566406,1.418716
63.262939,1068.328857,-80.291748,1.419455
17.669678,1070.892334,-97.686768,1.420197
-4.302979,1062.927246,-85.968018,1.420936
-54.656982,987.030029,-103.546143,1.421676
-161.132812,849.151611,-217.712402,1.422415
-197.204590,733.612061,-217.437744,1.423154
-5.310059,873.596191,-56.304932,1.423892
197.845459,1041.595459,-59.600830,1.424631
233.367920,1045.623779,-202.514648,1.425372
57.312012,978.240967,-310.180664,1.426112
-185.028076,818.847656,-315.032959,1.426858
-229.888916,813.812256,-270.263672,1.427598
-183.013916,891.357422,-138.244629,1.428341
-137.237549,922.393799,-118.743896,1.429080
-92.285156,935.760498,-208.374023,1.429818
-83.770752,902.984619,-273.284912,1.430557
-121.307373,883.117676,-239.776611,1.431296
-71.319580,911.773682,-143.188477,1.432035
0.732422,951.599121,-89.538574,1.432773
23.803711,937.316895,-103.454590,1.433515
43.212891,934.570312,-173.583984,1.434255
-31.311035,927.703857,-184.661865,1.434993
-89.996338,930.633545,-149.230957,1.435732
-128.265381,947.204590,-96.038818,1.436471
-91.461182,956.176758,-81.207275,1.437210
-45.318604,940.704346,-77.362061,1.437949
15.930176,940.155029,-116.729736,1.438690
29.296875,951.873779,-105.651855,1.439428
29.846191,930.633545,-118.011475,1.440167
9.887695,916.900635,-123.321533,1.440906
-13.366699,922.027588,-107.849121,1.441645
-33.691406,926.055908,-83.496094,1.442383
-46.875000,925.231934,-108.215332,1.443123
-49.346924,915.802002,-99.884033,1.443863
-44.311523,898.406982,-120.574951,1.444602
-5.767822,886.962891,-137.145996,1.445340
-19.042969,881.835938,-135.589600,1.446080
-6.591797,880.554199,-132.385254,1.446818
0.091553,884.124756,-119.018555,1.447557
-28.930664,880.737305,-121.398926,1.448296
-40.283203,867.736816,-131.286621,1.449076
-77.270508,860.137939,-147.583008,1.449814
-90.087891,865.447998,-122.314453,1.450550
-86.334229,868.743896,-120.025635,1.451285
-68.847656,864.257812,-143.829346,1.452024
-49.346924,852.172852,-152.435303,1.452760
-43.121338,842.468262,-152.984619,1.453495
-27.099609,837.615967,-169.189453,1.454231
-16.479492,839.080811,-170.562744,1.454966
-0.183105,834.228516,-178.894043,1.455701
-18.035889,826.904297,-182.006836,1.456437
-46.875000,819.396973,-169.006348,1.457173
-27.099609,839.355469,-192.352295,1.457906
-14.556885,818.298340,-209.197998,1.458638
1.922607,810.882568,-195.007324,1.459373
27.191162,803.741455,-206.359863,1.460109
30.212402,792.297363,-205.627441,1.460847
36.071777,803.100586,-197.113037,1.461584
23.986816,809.143066,-165.527344,1.462337
-13.000488,820.495605,-176.055908,1.463073
-86.059570,811.981201,-186.401367,1.463808
-130.462646,797.058105,-190.979004,1.464549
-150.878906,814.910889,-193.267822,1.465291
-146.026611,801.910400,-194.549561,1.466030
-147.125244,793.579102,-210.754395,1.466767
-110.412598,802.551270,-204.620361,1.467505
-65.002441,805.664062,-198.394775,1.468240
-60.241699,807.037354,-203.247070,1.468975
-62.805176,802.185059,-214.050293,1.469710
-92.834473,808.959961,-217.712402,1.470447
-124.603271,841.094971,-224.029541,1.471183
-336.730957,867.370605,-223.480225,1.471918
-449.798584,858.032227,-169.464111,1.472653
-467.285156,855.102539,-167.724609,1.473387
-272.186279,854.003906,-181.182861,1.474122
4.852295,859.588623,-200.683594,1.474857
173.126221,852.355957,-196.746826,1.475612
192.810059,871.398926,-165.710449,1.476350
105.560303,873.321533,-130.187988,1.477086
-65.551758,886.871338,-128.082275,1.477820
-664.398193,855.743408,20.507812,1.478555
-773.254395,863.250732,-16.296387,1.479290
-465.545654,955.169678,-12.451172,1.480025
-154.815674,991.607666,60.791016,1.480780
133.117676,977.691650,54.290771,1.481520
83.862305,951.873779,29.571533,1.482259
-88.623047,956.359863,32.592773,1.482996
-192.993164,973.663330,73.150635,1.483744
-158.020020,1006.988525,78.002930,1.484482
-118.011475,1005.157471,85.876465,1.485217
-86.425781,985.107422,77.453613,1.485957
-139.709473,990.692139,76.354980,1.486693
-171.478271,994.995117,64.636230,1.487429
-141.265869,974.761963,31.402588,1.488164
-92.742920,939.605713,-26.092529,1.488902
-60.241699,895.935059,-69.946289,1.489637
-44.403076,906.372070,-80.017090,1.490373
-34.881592,893.280029,-77.545166,1.491106
-19.775391,873.596191,-102.081299,1.491839
-43.029785,869.201660,-98.968506,1.492571
-33.416748,862.976074,-111.877441,1.493303
-54.656982,860.321045,-109.771729,1.494059
-45.501709,841.735840,-117.004395,1.494796
-25.909424,837.707520,-125.885010,1.495531
0.823975,835.968018,-111.602783,1.496265
4.302979,838.989258,-100.158691,1.497016
-5.859375,841.735840,-101.257324,1.497756
-5.401611,842.468262,-101.715088,1.498494
2.838135,828.826904,-95.306396,1.499238
1.373291,836.334229,-80.841064,1.499977
10.528564,841.735840,-61.431885,1.500714
8.239746,836.883545,-58.319092,1.501455
19.226074,835.693359,-70.404053,1.502194
24.627686,830.932617,-72.143555,1.502932
27.740479,837.158203,-61.431885,1.503671
30.120850,831.848145,-63.171387,1.504412
38.360596,819.671631,-67.749023,1.505152
40.008545,813.629150,-72.967529,1.505891
36.712646,791.564941,-87.249756,1.506629
29.388428,808.959961,-84.869385,1.507370
38.818359,792.938232,-103.088379,1.508108
48.156738,795.135498,-117.828369,1.508842
50.079346,773.437500,-123.504639,1.509580
46.051025,804.290771,-137.329102,1.510316
30.212402,796.234131,-128.265381,1.511052
34.881592,780.120850,-145.202637,1.511787
33.508301,777.282715,-144.927979,1.512525
34.149170,777.557373,-136.047363,1.513261
17.578125,785.156250,-157.287598,1.513997
-7.690430,771.148682,-147.033691,1.514732
10.986328,784.057617,-147.125244,1.515467
13.549805,783.599854,-133.666992,1.516206
-16.662598,802.917480,-128.082275,1.516942
-14.282227,803.192139,-124.237061,1.517690
-19.500732,811.614990,-128.631592,1.518424
-32.409668,816.925049,-128.814697,1.519156
-47.973633,817.840576,-124.969482,1.519908
-36.163330,830.841064,-124.511719,1.520685
-66.833496,835.418701,-121.398926,1.521422
-54.565430,831.390381,-128.631592,1.522157
-60.699463,818.206787,-135.223389,1.522896
-57.037354,812.164307,-141.448975,1.523631
-69.122314,817.840576,-147.857666,1.524366
-90.637207,814.178467,-146.759033,1.525100
-73.425293,812.164307,-158.660889,1.525835
-63.537598,803.100586,-169.372559,1.526570
-60.333252,797.241211,-184.570312,1.527305
-83.038330,805.480957,-167.907715,1.528044
-111.602783,797.241211,-168.457031,1.528778
-94.207764,801.910400,-180.084229,1.529512
-94.573975,806.854248,-179.534912,1.530247
-98.510742,799.346924,-180.541992,1.531018
-108.215332,801.544189,-166.168213,1.531765
-104.095459,805.114746,-162.780762,1.532506
-95.947266,810.424805,-160.034180,1.533249
-101.348877,818.756104,-158.660889,1.533988
-100.341797,841.369629,-158.294678,1.534726
-93.109131,832.580566,-162.872314,1.535463
-90.454102,829.742432,-167.449951,1.536204
-84.960938,849.334717,-157.470703,1.536942
-76.538086,850.524902,-161.224365,1.537682
-73.974609,854.919434,-165.344238,1.538425
-67.565918,856.201172,-156.372070,1.539163
-75.164795,859.405518,-161.407471,1.539901
-64.178467,871.032715,-155.639648,1.540638
-56.762695,877.441406,-156.646729,1.541379
-57.312012,887.054443,-145.294189,1.542117
-59.234619,897.949219,-143.188477,1.542854
-65.826416,898.864746,-147.399902,1.543592
-61.981201,908.020020,-138.427734,1.544329
-59.326172,915.435791,-135.131836,1.545067
-54.473877,928.070068,-123.321533,1.545804
-49.621582,926.330566,-134.307861,1.546544
-54.748535,927.062988,-119.201660,1.547282
-46.966553,934.478760,-120.391846,1.548020
-45.318604,938.323975,-113.891602,1.548757
-43.762207,950.866699,-110.504150,1.549496
-39.459229,946.472168,-114.624023,1.550234
-37.719727,942.718506,-114.898682,1.550972
-37.078857,948.303223,-119.018555,1.551712
-36.346436,954.895020,-107.482910,1.552449
-40.557861,948.760986,-108.947754,1.553212
-25.085449,949.493408,-112.518311,1.553957
-3.295898,958.465576,-114.990234,1.554695
-9.979248,962.127686,-111.419678,1.555433
-7.232666,965.881348,-108.581543,1.556171
-4.577637,963.592529,-111.877441,1.556912
3.387451,971.557617,-109.313965,1.557651
0.457764,966.888428,-112.518311,1.558389
14.648438,966.430664,-111.694336,1.559126
12.908936,962.036133,-109.497070,1.559864
16.204834,967.712402,-121.856689,1.560604
24.719238,968.078613,-112.518311,1.561343
6.500244,969.909668,-95.397949,1.562084
19.042969,970.092773,-117.553711,1.562821
30.395508,956.909180,-119.201660,1.563560
33.966064,954.986572,-119.384766,1.564298
27.832031,955.718994,-122.039795,1.565036
25.085449,958.007812,-121.765137,1.565775
19.775391,955.993652,-115.539551,1.566514
29.663086,950.958252,-122.863770,1.567255
30.212402,955.352783,-124.420166,1.567993
5.676270,959.106445,-131.927490,1.568731
26.275635,956.634521,-129.272461,1.569469
16.845703,949.859619,-133.117676,1.570208
16.754150,952.056885,-135.772705,1.570945
16.021729,943.725586,-137.237549,1.571683
32.592773,934.570312,-139.068604,1.572425
27.832031,936.035156,-139.801025,1.573163
36.346436,935.577393,-144.927979,1.573901
30.670166,932.189941,-148.864746,1.574639
26.641846,924.224854,-154.724121,1.575380
21.148682,918.182373,-155.548096,1.576118
27.832031,927.703857,-161.865234,1.576856
34.332275,921.936035,-165.618896,1.577594
28.381348,920.288086,-176.971436,1.578333
30.395508,919.830322,-174.591064,1.579071
21.606445,921.020508,-164.794922,1.579809
24.719238,914.794922,-178.894043,1.580549
28.930664,910.949707,-172.302246,1.581287
24.993896,916.351318,-171.020508,1.582024
14.190674,916.442871,-169.738770,1.582763
20.324707,926.055908,-167.541504,1.583501
11.993408,922.576904,-165.527344,1.584239
4.486084,924.316406,-167.907715,1.584976
-0.183105,927.062988,-173.767090,1.585717
-1.098633,931.549072,-167.999268,1.586455
-1.922607,937.774658,-141.632080,1.587193
0.457764,941.528320,-159.027100,1.587931
-5.035400,942.169189,-158.843994,1.588668
-12.084961,957.183838,-159.667969,1.589406
-16.204834,948.303223,-158.660889,1.590144
-23.803711,953.613281,-152.343750,1.590884
-23.162842,946.380615,-157.379150,1.591622
-17.486572,953.063965,-160.491943,1.592400
-18.676758,954.254150,-163.696289,1.593138
-9.613037,956.726074,-165.344238,1.593876
-70.312500,957.458496,-163.970947,1.594613
-57.495117,959.106445,-166.442871,1.595351
11.444092,967.437744,-172.668457,1.596092
-0.549316,965.423584,-178.710938,1.596829
-48.522949,975.769043,-164.886475,1.597567
-32.958984,967.529297,-182.739258,1.598305
-40.924072,978.240967,-175.048828,1.599043
-33.966064,987.030029,-161.956787,1.599781
-33.691406,984.100342,-173.675537,1.600519
-22.888184,988.403320,-175.323486,1.601259
-48.980713,989.044189,-176.971436,1.601996
-40.191650,995.269775,-162.506104,1.602752
-21.881104,996.185303,-171.295166,1.603495
-41.564941,987.487793,-171.936035,1.604234
-28.106689,992.706299,-179.168701,1.604969
-20.599365,987.304688,-174.224854,1.605704
-50.170898,990.692139,-173.034668,1.606451
-37.078857,990.600586,-172.393799,1.607187
-46.966553,985.382080,-173.858643,1.607923
-44.677734,983.459473,-173.858643,1.608662
-34.606934,964.691162,-184.753418,1.609398
-38.177490,982.818604,-164.703369,1.610134
-45.318604,983.367920,-182.739258,1.610869
-40.740967,984.741211,-193.634033,1.611606
-34.698486,983.642578,-182.281494,1.612343
-27.099609,990.509033,-186.035156,1.613078
-34.881592,991.607666,-189.880371,1.613814
-37.811279,979.064941,-192.718506,1.614552
-36.254883,982.269287,-185.668945,1.615289
-29.571533,993.621826,-180.999756,1.616024
-28.656006,999.298096,-175.781250,1.616762
-20.599365,1000.305176,-172.210693,1.617497
-25.451660,997.650146,-167.724609,1.618233
-41.839600,1008.911133,-168.823242,1.618969
-32.135010,1009.643555,-161.865234,1.619708
-41.931152,1010.925293,-157.745361,1.620443
-41.290283,1003.143311,-165.802002,1.621179
-41.656494,1008.819580,-163.146973,1.621914
-33.325195,1009.918213,-166.900635,1.622649
-36.804199,993.438721,-183.837891,1.623384
-38.818359,988.403320,-175.323486,1.624120
-38.177490,997.100830,-175.689697,1.624886
-31.677246,995.452881,-178.894043,1.625625
-32.775879,984.191895,-190.155029,1.626361
-34.423828,985.748291,-190.338135,1.627098
-28.106689,981.445312,-189.788818,1.627833
-31.951904,984.100342,-180.084229,1.628569
-22.888184,990.142822,-174.957275,1.629304
-24.078369,994.445801,-172.119141,1.630045
-24.627686,998.840332,-175.231934,1.630781
-24.444580,1007.080078,-162.872314,1.631516
-26.092529,1003.601074,-158.660889,1.632252
-18.768311,1001.770020,-158.660889,1.632989
-14.373779,996.002197,-163.604736,1.633721
-12.634277,995.452881,-159.484863,1.634453
-7.232666,995.086670,-158.203125,1.635210
-4.669189,983.642578,-167.999268,1.635948
2.929688,971.923828,-167.907715,1.636682
0.366211,973.388672,-163.879395,1.637419
8.422852,977.600098,-186.492920,1.638172
12.359619,971.466064,-177.886963,1.638921
14.373779,960.845947,-179.168701,1.639658
20.050049,965.240479,-172.027588,1.640394
13.824463,962.036133,-175.689697,1.641129
18.402100,955.352783,-166.625977,1.641864
9.613037,956.176758,-168.273926,1.642599
21.606445,959.930420,-166.900635,1.643336
21.057129,959.747314,-158.660889,1.644072
21.881104,954.986572,-160.583496,1.644806
20.233154,951.782227,-155.456543,1.645541
28.106689,960.479736,-156.829834,1.646276
22.338867,954.162598,-148.498535,1.647009
18.127441,963.958740,-146.026611,1.647754
37.445068,953.155518,-146.850586,1.648510
35.888672,958.374023,-140.899658,1.649247
30.944824,966.522217,-141.815186,1.649984
33.508301,963.958740,-145.019531,1.650720
25.726318,962.219238,-141.632080,1.651457
26.275635,958.465576,-135.223389,1.652190
32.684326,961.395264,-140.258789,1.652923
29.022217,965.515137,-138.610840,1.653661
23.254395,963.958740,-136.962891,1.654393
29.663086,965.698242,-146.667480,1.655126
21.331787,961.578369,-143.188477,1.655859
26.733398,968.261719,-144.561768,1.656598
23.345947,967.895508,-145.477295,1.657331
9.613037,963.775635,-139.251709,1.658063
13.183594,973.022461,-135.040283,1.658800
22.064209,971.008301,-137.237549,1.659532
15.655518,968.719482,-140.625000,1.660264
11.444092,968.902588,-144.195557,1.660997
14.831543,974.395752,-142.364502,1.661737
6.225586,977.142334,-135.314941,1.662474
12.176514,975.860596,-140.808105,1.663250
11.352539,979.980469,-140.899658,1.663989
1.373291,981.719971,-139.709473,1.664725
-2.746582,978.240967,-148.315430,1.665461
-2.197266,981.262207,-141.815186,1.666197
-0.457764,978.240967,-143.554688,1.666942
-7.690430,978.881836,-137.603760,1.667679
-15.472412,980.895996,-143.280029,1.668415
-17.761230,981.628418,-142.272949,1.669163
-20.965576,977.691650,-145.019531,1.669901
-21.148682,973.846436,-135.406494,1.670637
-18.676758,973.297119,-147.308350,1.671373
-22.155762,977.325439,-145.019531,1.672114
-20.050049,974.395752,-146.301270,1.672850
-25.177002,983.734131,-141.632080,1.673586
-29.296875,981.353760,-145.385742,1.674334
-36.621094,978.424072,-141.632080,1.675088
-31.036377,980.255127,-144.744873,1.675828
-30.761719,979.614258,-152.893066,1.676576
-33.142090,970.367432,-150.512695,1.677336
-32.318115,977.416992,-151.519775,1.678083
-37.536621,969.085693,-148.956299,1.678825
-38.543701,979.248047,-143.920898,1.679564
-37.536621,978.881836,-152.893066,1.680308
-44.219971,974.121094,-151.519775,1.681047
-49.438477,972.015381,-158.843994,1.681784
-52.917480,969.268799,-160.766602,1.682522
-27.648926,974.304199,-152.435303,1.683269
-41.198730,971.374512,-157.928467,1.684014
-46.691895,963.775635,-157.470703,1.684753
-49.255371,959.838867,-159.851074,1.685491
-49.621582,961.303711,-158.294678,1.686231
-51.269531,958.374023,-161.315918,1.686975
-51.086426,961.395264,-154.174805,1.687715
-50.262451,961.486816,-147.766113,1.688453
-58.868408,952.239990,-149.047852,1.689193
-55.480957,956.726074,-151.062012,1.689929
-65.093994,957.000732,-142.456055,1.690664
-64.453125,962.127686,-149.505615,1.691421
-63.995361,961.761475,-153.808594,1.692170
-65.551758,958.740234,-150.787354,1.692915
-63.262939,959.014893,-153.076172,1.693654
-56.854248,959.747314,-152.526855,1.694392
-54.565430,962.127686,-157.928467,1.695136
-58.227539,966.247559,-150.695801,1.695879
-68.939209,956.817627,-154.815674,1.696614
-57.312012,963.134766,-152.343750,1.697349
-59.967041,968.902588,-143.737793,1.698094
-62.255859,965.698242,-147.857666,1.698847
-63.720703,938.964844,-147.125244,1.699599
-64.178467,956.268311,-157.745361,1.700336
-66.284180,958.190918,-154.266357,1.701072
-63.262939,968.078613,-150.970459,1.701807
-58.135986,965.240479,-146.118164,1.702549
-56.396484,966.430664,-156.463623,1.703286
-56.304932,953.338623,-154.998779,1.704029
-63.903809,951.416016,-160.125732,1.704774
-62.896729,954.162598,-155.181885,1.705517
-56.945801,957.275391,-152.618408,1.706256
-45.684814,964.416504,-156.921387,1.706995
-43.579102,959.564209,-156.280518,1.707738
-48.522949,957.000732,-162.506104,1.708477
-51.177979,960.205078,-161.315918,1.709217
-54.473877,968.811035,-162.689209,1.709955
-55.389404,977.050781,-145.935059,1.710694
-47.241211,978.149414,-144.653320,1.711429
-44.952393,973.205566,-151.245117,1.712165
-51.910400,973.480225,-149.047852,1.712904
-39.184570,980.621338,-146.301270,1.713643
-36.254883,976.593018,-147.399902,1.714382
-38.909912,977.142334,-150.054932,1.715121
-37.353516,980.163574,-158.020020,1.715862
-39.825439,1002.777100,-148.132324,1.716602
-43.579102,988.128662,-154.815674,1.717340
-39.550781,988.403320,-156.372070,1.718078
-37.353516,984.924316,-160.400391,1.718814
-31.860352,979.064941,-160.675049,1.719550
-34.606934,986.480713,-149.871826,1.720285
-38.726807,986.206055,-142.456055,1.721021
-39.916992,987.670898,-156.372070,1.721754
-34.332275,985.382080,-151.336670,1.722486
-31.860352,985.015869,-149.322510,1.723238
-35.522461,994.079590,-155.456543,1.723977
-33.966064,988.769531,-156.829834,1.724716
-33.416748,996.276855,-159.759521,1.725463
-32.501221,991.424561,-158.020020,1.726203
-30.578613,996.551514,-149.871826,1.726941
-31.860352,990.875244,-159.484863,1.727684
-34.057617,989.868164,-155.181885,1.728425
-42.755127,984.832764,-153.442383,1.729160
-28.839111,995.819092,-153.076172,1.729894
-33.325195,994.537354,-151.611328,1.730630
-32.226562,986.846924,-150.787354,1.731370
-29.571533,984.191895,-148.956299,1.732107
-39.184570,1007.446289,-148.681641,1.732852
-47.882080,976.043701,-152.160645,1.733628
-39.916992,979.431152,-146.209717,1.734365
-40.649414,985.656738,-150.878906,1.735103
-50.079346,976.043701,-139.617920,1.735842
-26.092529,977.142334,-140.716553,1.736582
-42.846680,973.205566,-146.209717,1.737336
-40.740967,975.036621,-148.040771,1.738075
-40.557861,974.853516,-144.287109,1.738818
-40.924072,972.198486,-145.111084,1.739556
-39.550781,978.424072,-135.772705,1.740293
-40.466309,979.064941,-147.583008,1.741037
-45.135498,971.466064,-146.484375,1.741783
-52.001953,961.761475,-145.477295,1.742525
-41.564941,967.895508,-140.808105,1.743264
-37.170410,962.860107,-143.188477,1.744009
-33.599854,967.712402,-134.857178,1.744748
-43.029785,974.487305,-161.773682,1.745506
-46.142578,964.965820,-141.540527,1.746259
-48.339844,965.606689,-149.597168,1.746998
-42.938232,970.001221,-141.723633,1.747736
-47.607422,965.789795,-135.955811,1.748473
-38.543701,962.677002,-140.533447,1.749211
-42.297363,967.071533,-159.393311,1.749949
-52.551270,965.698242,-144.470215,1.750687
-45.227051,966.705322,-134.399414,1.751430
-41.564941,964.141846,-140.075684,1.752168
-49.438477,965.148926,-139.068604,1.752905
-42.297363,960.571289,-136.962891,1.753643
-48.339844,967.071533,-137.237549,1.754379
-46.783447,963.500977,-140.808105,1.755114
-41.473389,971.649170,-144.378662,1.755855
-49.713135,969.360352,-150.146484,1.756601
-46.783447,965.881348,-150.787354,1.757338
-43.762207,976.593018,-139.068604,1.758076
-52.459717,967.803955,-147.491455,1.758814
-45.318604,974.670410,-137.237549,1.759556
-43.304443,974.487305,-137.878418,1.760292
-24.902344,970.916748,-140.899658,1.761026
-42.572021,966.796875,-145.843506,1.761767
-45.776367,968.353271,-147.216797,1.762507
-43.304443,976.226807,-147.399902,1.763245
-44.403076,972.564697,-139.251709,1.763984
-45.684814,974.212646,-134.307861,1.764724
-44.494629,979.064941,-139.892578,1.765469
-49.163818,980.072021,-140.075684,1.766217
-42.297363,983.184814,-163.787842,1.766961
-41.564941,984.649658,-136.138916,1.767699
-45.593262,985.382080,-138.244629,1.768442
-46.051025,981.262207,-134.948730,1.769183
-39.825439,982.452393,-140.625000,1.769924
-43.579102,981.262207,-140.167236,1.770661
-45.227051,981.262207,-142.639160,1.771396
-45.501709,976.867676,-145.660400,1.772134
-47.332764,968.811035,-146.118164,1.772872
-48.522949,973.480225,-145.111084,1.773609
-53.283691,967.071533,-143.280029,1.774356
-41.381836,975.036621,-136.047363,1.775105
-46.600342,975.860596,-159.210205,1.775842
-46.508789,975.128174,-139.984131,1.776577
-40.374756,968.811035,-138.610840,1.777314
-52.093506,973.480225,-146.575928,1.778059
-46.508789,967.437744,-144.104004,1.778796
-37.078857,970.733643,-142.639160,1.779532
-35.064697,975.585938,-142.456055,1.780272
-41.656494,964.050293,-144.744873,1.781008
-43.121338,964.691162,-141.723633,1.781749
-45.410156,970.275879,-144.744873,1.782497
-42.114258,966.156006,-154.815674,1.783235
-39.184570,967.987061,-146.667480,1.783972
-69.671631,972.564697,-146.942139,1.784707
-44.494629,974.304199,-152.709961,1.785450
-52.185059,964.874268,-150.054932,1.786186
-46.325684,970.184326,-141.540527,1.786921
-46.508789,966.888428,-152.069092,1.787657
-45.135498,977.142334,-139.434814,1.788393
-69.580078,978.332520,-138.244629,1.789128
-45.684814,977.142334,-143.829346,1.789863
-38.543701,988.769531,-158.843994,1.790606
-43.212891,977.325439,-145.843506,1.791344
-41.381836,977.874756,-141.265869,1.792083
-44.677734,983.459473,-151.977539,1.792821
-44.403076,984.832764,-144.287109,1.793559
-38.818359,989.868164,-144.104004,1.794297
-38.726807,975.952148,-144.836426,1.795034
-34.606934,982.910156,-142.181396,1.795775
-43.945312,981.719971,-145.568848,1.796513
-40.466309,987.121582,-144.561768,1.797251
-38.085938,982.910156,-140.899658,1.797988
-33.782959,983.184814,-139.984131,1.798727
-36.895752,985.931396,-145.019531,1.799464
-40.557861,987.945557,-147.125244,1.800201
-36.987305,993.072510,-145.111084,1.800942
-42.114258,986.663818,-129.821777,1.801680
-33.050537,966.156006,-140.716553,1.802418
-43.487549,986.480713,-147.949219,1.803154
-41.564941,996.276855,-146.484375,1.803918
-46.691895,982.818604,-147.491455,1.804653
-47.882080,983.459473,-142.639160,1.805387
-44.403076,978.973389,-147.674561,1.806124
-36.895752,976.867676,-149.871826,1.806859
-45.227051,980.529785,-144.287109,1.807594
-46.142578,981.811523,-141.815186,1.808329
-44.219971,978.057861,-141.448975,1.809066
-45.501709,977.325439,-142.181396,1.809801
-37.170410,976.776123,-138.793945,1.810536
-44.036865,985.931396,-137.695312,1.811271
-41.198730,984.649658,-132.843018,1.812007
-40.283203,979.980469,-136.688232,1.812742
-36.712646,988.769531,-141.174316,1.813476
-34.515381,971.923828,-135.589600,1.814222
-30.303955,961.486816,-135.223389,1.814966
-37.353516,980.346680,-120.025635,1.815703
-44.494629,970.367432,-134.033203,1.816438
-35.705566,978.149414,-125.701904,1.817173
-37.628174,985.656738,-128.997803,1.817908
-36.163330,975.860596,-134.399414,1.818643
-37.628174,972.839355,-134.765625,1.819385
-37.445068,979.156494,-133.026123,1.820122
-40.924072,979.705811,-143.005371,1.820857
-40.557861,974.487305,-137.237549,1.821592
-44.494629,968.261719,-136.596680,1.822326
-34.881592,959.564209,-137.878418,1.823060
-31.219482,972.747803,-139.801025,1.823795
-26.275635,966.613770,-147.583008,1.824534
-25.909424,962.951660,-143.829346,1.825270
-24.810791,966.247559,-137.969971,1.826004
-21.057129,964.965820,-137.695312,1.826738
-21.423340,971.832275,-135.864258,1.827473
-18.035889,971.099854,-141.998291,1.828207
-17.486572,973.022461,-139.068604,1.828942
-18.310547,972.015381,-126.159668,1.829678
-19.409180,971.557617,-128.906250,1.830413
-19.317627,978.973389,-121.490479,1.831148
-17.486572,975.952148,-129.180908,1.831882
-23.620605,979.064941,-121.215820,1.832638
-21.881104,967.712402,-130.279541,1.833382
-19.866943,970.184326,-128.173828,1.834120
-16.571045,974.029541,-128.723145,1.834858
-19.226074,969.085693,-133.758545,1.835599
-8.148193,964.141846,-139.892578,1.836362
-17.395020,956.542969,-139.984131,1.837105
-13.366699,963.958740,-137.329102,1.837849
-16.845703,964.141846,-142.456055,1.838588
-14.190674,962.677002,-141.357422,1.839327
-13.916016,967.529297,-146.667480,1.840065
-19.500732,958.831787,-141.174316,1.840804
-21.057129,963.500977,-137.969971,1.841548
-15.655518,966.339111,-133.483887,1.842287
-17.395020,969.818115,-135.955811,1.843029
-22.155762,963.592529,-136.596680,1.843768
-24.810791,974.945068,-128.997803,1.844507
-17.761230,970.275879,-128.173828,1.845243
-21.057129,976.043701,-133.300781,1.845978
-22.430420,972.290039,-130.737305,1.846714
-46.600342,968.811035,-127.716064,1.847452
-26.275635,963.317871,-128.631592,1.848196
-24.810791,972.015381,-134.399414,1.848936
-24.169922,974.578857,-138.610840,1.849675
-22.430420,968.719482,-133.026123,1.850413
-27.923584,971.099854,-137.969971,1.851152
-23.712158,960.388184,-136.779785,1.851891
-23.345947,981.994629,-131.652832,1.852629
-32.501221,972.930908,-138.702393,1.853367
-34.240723,972.290039,-146.026611,1.854103
-37.902832,968.170166,-132.934570,1.854836
-32.226562,976.318359,-133.300781,1.855580
-34.057617,974.304199,-135.406494,1.856319
-36.163330,971.740723,-135.040283,1.857057
-40.740967,976.959229,-135.955811,1.857796
-43.029785,980.804443,-129.272461,1.858538
-43.945312,975.860596,-131.927490,1.859279
-52.276611,972.106934,-129.638672,1.860018
-46.783447,974.761963,-126.068115,1.860757
-47.607422,973.114014,-134.582520,1.861496
-42.663574,973.022461,-128.631592,1.862235
-52.551270,973.754883,-133.666992,1.862973
-47.058105,969.360352,-126.708984,1.863715
-27.099609,967.254639,-135.040283,1.864453
-48.065186,966.339111,-118.377686,1.865192
-51.818848,965.881348,-132.110596,1.865931
-53.100586,964.782715,-144.927979,1.866669
-44.677734,976.501465,-144.470215,1.867406
-47.515869,963.409424,-141.815186,1.868142
-43.395996,960.571289,-139.343262,1.868883
-47.241211,971.740723,-143.280029,1.869623
-48.248291,974.212646,-132.751465,1.870361
-44.586182,958.374023,-138.519287,1.871100
-54.656982,962.402344,-138.519287,1.871844
-57.037354,963.226318,-136.596680,1.872584
-55.114746,969.543457,-139.526367,1.873323
-50.994873,965.148926,-137.145996,1.874062
-53.833008,975.769043,-133.941650,1.874850
-61.981201,969.177246,-138.977051,1.875590
-52.459717,977.142334,-130.462646,1.876326
-52.276611,977.783203,-136.962891,1.877063
-53.833008,971.374512,-141.265869,1.877796
-48.156738,981.994629,-134.216309,1.878529
-41.748047,985.107422,-136.596680,1.879264
-46.875000,978.149414,-141.998291,1.879999
-47.424316,980.072021,-135.864258,1.880734
-42.755127,977.142334,-145.111084,1.881468
-38.909912,976.043701,-135.864258,1.882206
-50.170898,978.149414,-143.463135,1.882940
-52.185059,972.747803,-149.139404,1.883675
-39.916992,974.304199,-142.456055,1.884409
-45.867920,981.719971,-134.948730,1.885143
-40.924072,981.903076,-133.941650,1.885894
-39.825439,984.924316,-131.744385,1.886637
-44.677734,978.057861,-130.462646,1.887383
-43.945312,976.226807,-133.941650,1.888123
-49.163818,976.867676,-128.448486,1.888863
-43.212891,974.212646,-135.406494,1.889604
-41.839600,979.888916,-133.026123,1.890343
-41.015625,978.607178,-130.187988,1.891081
-42.022705,977.783203,-126.525879,1.891820
-50.811768,972.930908,-130.096436,1.892564
-45.135498,972.015381,-126.708984,1.893303
-43.487549,974.487305,-129.547119,1.894042
-47.241211,973.937988,-115.539551,1.894780
-43.945312,972.473145,-123.870850,1.895518
-51.635742,968.994141,-125.152588,1.896256
-39.184570,973.480225,-128.356934,1.896995
-42.297363,969.726562,-123.687744,1.897735
-42.938232,971.740723,-136.871338,1.898473
-36.621094,970.642090,-128.906250,1.899210
-37.536621,968.627930,-123.870850,1.899948
-40.283203,970.458984,-125.152588,1.900686
-34.423828,963.958740,-127.166748,1.901421
-30.029297,962.768555,-114.990234,1.902156
-35.339355,960.754395,-128.356934,1.902893
-31.585693,962.036133,-124.145508,1.903628
-31.677246,965.789795,-121.032715,1.904363
-33.508301,959.747314,-114.990234,1.905098
-30.487061,952.239990,-119.567871,1.905837
-32.501221,946.197510,-123.413086,1.906573
-33.416748,948.852539,-120.391846,1.907310
-26.000977,940.338135,-125.701904,1.908046
-26.916504,942.626953,-122.955322,1.908782
-28.656006,939.239502,-133.209229,1.909518
-26.367188,939.147949,-127.899170,1.910254
-2.838135,931.732178,-136.047363,1.910994
-18.493652,916.809082,-135.864258,1.911729
-23.254395,935.668945,-133.666992,1.912465
-20.324707,937.225342,-133.300781,1.913201
-21.148682,934.112549,-136.138916,1.913937
-18.951416,940.155029,-130.554199,1.914672
-26.000977,944.549561,-129.730225,1.915408
-26.184082,950.775146,-128.356934,1.916148
-31.677246,954.620361,-124.786377,1.916885
-15.655518,953.521729,-131.835938,1.917620
-22.064209,948.028564,-122.955322,1.918359
-23.162842,952.972412,-122.497559,1.919116
-27.557373,952.697754,-125.610352,1.919853
-23.529053,953.247070,-124.786377,1.920589
-30.212402,960.205078,-131.652832,1.921345
-27.008057,962.036133,-118.560791,1.922086
-28.839111,960.296631,-124.694824,1.922825
-29.022217,959.289551,-117.553711,1.923565
-26.000977,966.979980,-129.821777,1.924304
-33.782959,967.163086,-128.814697,1.925040
-30.944824,967.163086,-128.997803,1.925775
-37.170410,967.803955,-128.723145,1.926517
-40.649414,968.536377,-123.321533,1.927254
-42.480469,964.324951,-131.469727,1.927992
-44.586182,962.585449,-128.631592,1.928730
-45.318604,968.261719,-125.061035,1.929470
-51.727295,959.838867,-132.843018,1.930208
-44.586182,970.458984,-133.209229,1.930946
-51.727295,957.824707,-133.117676,1.931685
-50.720215,966.705322,-132.843018,1.932422
-55.023193,959.747314,-133.666992,1.933161
-43.670654,968.811035,-126.434326,1.933899
-54.107666,961.212158,-137.329102,1.934639
-54.016113,959.106445,-139.251709,1.935377
-59.417725,969.635010,-134.857178,1.936115
-59.600830,967.437744,-135.131836,1.936855
-61.889648,967.437744,-137.786865,1.937592
-61.523438,969.177246,-132.019043,1.938337
-67.840576,972.839355,-125.061035,1.939077
-56.671143,973.114014,-130.096436,1.939819
-61.706543,971.923828,-132.659912,1.940558
-72.692871,972.381592,-135.314941,1.941296
-61.981201,987.854004,-128.631592,1.942035
-58.868408,983.276367,-132.019043,1.942773
-61.523438,981.170654,-136.505127,1.943512
-68.115234,981.262207,-133.575439,1.944250
-58.319092,984.741211,-129.455566,1.945036
-52.734375,984.466553,-127.441406,1.945776
-49.987793,987.121582,-138.885498,1.946514
-56.854248,987.213135,-138.977051,1.947252
-51.452637,984.832764,-144.104004,1.947989
-47.241211,989.959717,-139.068604,1.948727
-42.938232,982.818604,-134.857178,1.949465
-48.248291,989.776611,-146.575928,1.950206
-46.966553,987.213135,-151.336670,1.950943
-44.860840,979.156494,-139.251709,1.951681
-38.269043,988.861084,-144.195557,1.952419
-38.818359,988.586426,-145.660400,1.953154
-45.318604,991.149902,-143.463135,1.953889
-44.677734,989.135742,-142.364502,1.954624
-47.515869,989.318848,-162.780762,1.955361
-38.543701,988.037109,-139.434814,1.956124
-34.149170,993.713379,-138.244629,1.956876
-35.156250,987.213135,-147.766113,1.957630
-37.902832,985.290527,-149.505615,1.958369
-34.698486,988.494873,-145.935059,1.959108
-47.058105,985.198975,-145.660400,1.959846
-47.882080,977.600098,-141.998291,1.960583
-39.184570,973.114014,-142.913818,1.961321
-35.339355,977.416992,-133.117676,1.962059
-64.361572,983.825684,-148.498535,1.962801
-53.100586,976.867676,-147.857666,1.963553
-56.854248,976.959229,-149.139404,1.964304
-46.508789,982.910156,-139.160156,1.965044
-52.185059,979.614258,-144.195557,1.965782
-46.875000,984.008789,-138.153076,1.966520
-57.312012,981.079102,-142.730713,1.967258
-59.783936,984.100342,-148.498535,1.968001
-54.473877,970.001221,-141.632080,1.968744
-57.769775,1007.446289,-137.695312,1.969487
-64.544678,982.360840,-125.793457,1.970225
-62.713623,987.670898,-134.948730,1.970963
-60.150146,987.579346,-140.441895,1.971701
-70.861816,986.938477,-143.920898,1.972440
-69.580078,993.164062,-137.786865,1.973184
-73.150635,991.699219,-133.117676,1.973923
-78.735352,989.135742,-126.342773,1.974662
-76.446533,998.565674,-138.061523,1.975401
-73.425293,981.719971,-139.160156,1.976142
-76.812744,989.318848,-138.336182,1.976889
-82.397461,992.340088,-144.104004,1.977630
-77.178955,990.142822,-132.293701,1.978373
-81.115723,985.382080,-134.948730,1.979112
-77.362061,991.790771,-139.709473,1.979851
-88.165283,986.022949,-130.828857,1.980589
-82.214355,987.579346,-130.371094,1.981330
-90.637207,991.607666,-131.011963,1.982069
-86.334229,985.839844,-126.159668,1.982808
-88.439941,995.361328,-133.300781,1.983549
-90.545654,979.431152,-132.385254,1.984288
-85.876465,990.692139,-126.525879,1.985027
-83.312988,984.558105,-130.187988,1.985766
-87.615967,980.804443,-133.941650,1.986507
-84.411621,987.304688,-136.596680,1.987246
-91.003418,975.128174,-131.286621,1.987985
-89.721680,979.888916,-130.096436,1.988722
-83.404541,981.994629,-130.371094,1.989458
-78.094482,973.388672,-122.314453,1.990194
-81.665039,973.205566,-128.814697,1.990930
-89.630127,984.191895,-122.497559,1.991681
-80.566406,979.522705,-126.617432,1.992420
-79.193115,981.445312,-119.018555,1.993157
-79.467773,978.607178,-125.061035,1.993896
-81.024170,972.930908,-128.723145,1.994634
-77.636719,975.585938,-128.906250,1.995371
-76.629639,976.684570,-128.540039,1.996109
-77.087402,976.776123,-123.413086,1.996851
-67.108154,976.043701,-125.976562,1.997589
-91.003418,975.494385,-128.906250,1.998327
-73.059082,976.867676,-131.286621,1.999065
-76.171875,975.036621,-125.885010,1.999804
-68.664551,974.304199,-136.779785,2.000542
-62.988281,974.212646,-131.286621,2.001281
-63.903809,969.085693,-130.187988,2.002023
-70.312500,972.290039,-131.103516,2.002761
-72.509766,974.945068,-128.265381,2.003499
-68.847656,973.297119,-129.364014,2.004237
-69.580078,977.600098,-134.399414,2.004973
-69.030762,974.761963,-136.047363,2.005715
-56.396484,973.297119,-132.476807,2.006453
-59.234619,972.564697,-132.476807,2.007197
-59.417725,973.937988,-131.469727,2.007934
-54.199219,984.466553,-136.688232,2.008672
-51.177979,983.734131,-127.166748,2.009410
-55.664062,986.938477,-122.772217,2.010150
-53.649902,986.480713,-130.187988,2.010890
-49.438477,994.812012,-131.561279,2.011628
-44.311523,992.797852,-124.328613,2.012368
-47.515869,989.501953,-124.328613,2.013106
-46.417236,996.276855,-124.603271,2.013844
-42.938232,991.333008,-126.892090,2.014582
-51.635742,1001.129150,-123.962402,2.015363
-24.993896,996.093750,-123.779297,2.016099
-40.557861,1003.692627,-127.624512,2.016834
-47.424316,999.023438,-123.779297,2.017572
-43.579102,996.734619,-120.117188,2.018307
-40.283203,996.734619,-124.420166,2.019041
-43.029785,987.030029,-137.878418,2.019777
-42.846680,1001.312256,-130.187988,2.020514
-45.318604,996.917725,-137.237549,2.021249
-42.846680,990.234375,-135.040283,2.021984
-35.705566,993.255615,-138.885498,2.022719
-32.592773,990.234375,-137.329102,2.023454
-32.684326,996.185303,-138.244629,2.024189
-41.381836,987.487793,-129.821777,2.024924
-36.254883,978.698730,-137.329102,2.025662
-37.078857,986.206055,-117.736816,2.026415
-34.606934,986.480713,-130.096436,2.027165
-35.705566,982.727051,-142.730713,2.027917
-35.156250,984.558105,-137.786865,2.028656
-32.318115,989.776611,-135.681152,2.029396
-41.564941,992.523193,-124.053955,2.030136
-36.621094,997.009277,-129.638672,2.030877
-43.395996,992.156982,-132.110596,2.031615
-46.142578,984.741211,-133.392334,2.032352
-50.720215,991.424561,-135.406494,2.033091
-52.093506,992.065430,-138.885498,2.033829
-48.431396,990.142822,-141.815186,2.034568
-46.508789,983.917236,-139.434814,2.035307
-45.959473,993.072510,-135.589600,2.036050
-43.029785,994.537354,-129.638672,2.036789
-47.882080,985.656738,-139.709473,2.037529
-25.085449,982.818604,-141.815186,2.038268
-46.600342,987.213135,-133.209229,2.039004
-52.459717,987.762451,-119.201660,2.039739
-49.438477,983.825684,-136.779785,2.040475
-46.783447,983.917236,-129.272461,2.041215
-57.586670,986.572266,-124.969482,2.041951
-61.523438,986.480713,-130.737305,2.042686
-61.523438,993.713379,-127.624512,2.043424
-62.713623,994.812012,-127.166748,2.044163
-73.699951,995.910645,-130.554199,2.044902
-68.023682,991.699219,-123.870850,2.045641
-71.044922,982.727051,-134.674072,2.046378
-70.129395,983.642578,-131.835938,2.047113
-81.207275,978.881836,-129.913330,2.047846
-73.883057,992.248535,-136.138916,2.048580
-74.707031,978.240967,-136.138916,2.049321
-81.573486,981.536865,-136.413574,2.050055
-76.354980,978.607178,-133.026123,2.050788
-75.714111,979.980469,-142.822266,2.051528
-82.489014,972.290039,-149.597168,2.052262
-82.122803,972.473145,-136.962891,2.052998
-85.784912,970.275879,-135.406494,2.053733
-86.059570,976.043701,-130.279541,2.054470
-86.151123,968.902588,-128.631592,2.055206
-83.404541,979.431152,-123.870850,2.055941
-84.136963,973.388672,-129.821777,2.056676
-88.531494,973.480225,-127.349854,2.057410
-72.326660,968.536377,-126.342773,2.058146
-84.686279,967.529297,-134.674072,2.058881
-94.299316,973.022461,-126.342773,2.059618
-91.186523,970.458984,-130.371094,2.060353
-87.982178,968.444824,-129.455566,2.061088
-90.911865,973.022461,-130.187988,2.061823
-89.538574,969.360352,-135.498047,2.062558
-93.841553,962.219238,-127.258301,2.063293
-95.764160,961.853027,-131.835938,2.064028
-92.651367,955.718994,-125.061035,2.064785
-98.144531,966.339111,-130.828857,2.065524
-96.496582,961.944580,-128.723145,2.066261
-96.405029,966.979980,-130.828857,2.066997
-93.658447,965.148926,-129.638672,2.067737
-94.299316,963.592529,-136.688232,2.068473
-86.883545,958.374023,-128.997803,2.069205
-90.728760,960.021973,-132.568359,2.069942
-93.750000,976.684570,-125.427246,2.070682
-99.517822,958.648682,-130.462646,2.071419
-87.341309,962.127686,-127.624512,2.072154
-88.439941,968.170166,-128.540039,2.072893
-90.637207,963.684082,-134.124756,2.073628
-82.397461,967.437744,-135.223389,2.074363
-85.418701,964.874268,-138.427734,2.075099
-86.883545,970.550537,-137.145996,2.075834
-79.925537,977.874756,-136.779785,2.076570
-79.193115,977.783203,-136.962891,2.077305
-82.122803,983.642578,-131.561279,2.078054
-79.925537,975.769043,-135.040283,2.078792
-75.439453,981.994629,-137.420654,2.079529
-68.939209,990.600586,-134.033203,2.080266
-77.270508,983.734131,-129.547119,2.081001
-76.080322,982.635498,-131.195068,2.081737
-74.249268,981.353760,-134.765625,2.082473
-78.643799,986.572266,-133.483887,2.083214
-70.587158,999.206543,-125.610352,2.083949
-71.685791,999.664307,-128.631592,2.084686
-62.164307,993.988037,-122.863770,2.085452
-65.093994,991.607666,-124.237061,2.086192
-62.713623,998.931885,-124.053955,2.086928
-63.354492,994.354248,-118.927002,2.087664
-58.319092,993.164062,-122.497559,2.088400
-58.959961,995.544434,-126.983643,2.089136
-57.312012,990.325928,-132.568359,2.089872
-52.093506,987.030029,-129.821777,2.090608
-53.558350,993.804932,-132.476807,2.091348
-48.065186,994.812012,-128.631592,2.092084
-51.269531,992.889404,-129.364014,2.092821
-41.748047,984.832764,-120.849609,2.093556
-45.410156,988.403320,-121.307373,2.094292
-42.205811,995.452881,-120.758057,2.095029
-41.748047,987.945557,-124.237061,2.095765
-39.093018,984.832764,-124.145508,2.096504
-33.325195,987.396240,-124.420166,2.097259
-39.093018,984.100342,-122.497559,2.098003
-37.261963,988.128662,-117.187500,2.098741
-34.149170,979.431152,-122.131348,2.099476
-46.966553,976.593018,-119.476318,2.100210
-32.226562,978.881836,-121.856689,2.100946
-33.691406,975.036621,-124.877930,2.101689
-33.966064,970.825195,-124.603271,2.102424
-37.628174,968.627930,-120.849609,2.103158
-30.120850,963.134766,-124.420166,2.103903
-30.212402,964.874268,-123.138428,2.104646
-32.043457,964.599609,-122.680664,2.105385
-30.029297,962.768555,-115.997314,2.106124
-25.543213,967.437744,-123.321533,2.106867
-26.733398,962.585449,-118.927002,2.107605
-28.839111,967.895508,-117.370605,2.108343
-36.895752,955.352783,-118.835449,2.109083
-26.641846,956.176758,-124.603271,2.109821
-27.191162,961.578369,-119.384766,2.110563
-26.367188,959.838867,-122.589111,2.111302
-17.669678,963.867188,-121.765137,2.112044
-28.015137,961.120605,-119.567871,2.112781
-22.888184,959.381104,-129.913330,2.113520
-21.423340,956.176758,-120.666504,2.114257
-25.726318,954.162598,-115.539551,2.114999
-23.895264,952.606201,-117.187500,2.115737
-30.487061,957.183838,-119.842529,2.116475
-31.311035,953.521729,-117.645264,2.117217
-28.839111,956.634521,-107.574463,2.117956
-25.085449,952.972412,-113.891602,2.118695
-28.289795,957.458496,-108.673096,2.119432
-29.388428,957.916260,-118.835449,2.120172
-28.198242,951.782227,-120.300293,2.120909
-31.311035,959.655762,-116.638184,2.121650
-27.648926,955.902100,-118.560791,2.122391
-29.479980,954.711914,-126.434326,2.123127
-28.381348,958.374023,-123.229980,2.123863
-23.071289,944.183350,-118.194580,2.124599
-19.775391,954.437256,-132.293701,2.125344
-21.057129,955.444336,-128.631592,2.126081
-27.923584,949.676514,-130.462646,2.126816
-21.972656,960.845947,-129.089355,2.127551
-26.458740,968.627930,-130.279541,2.128286
-33.233643,955.535889,-133.666992,2.129021
-32.958984,959.197998,-134.765625,2.129756
-25.909424,964.416504,-134.124756,2.130493
-31.219482,969.543457,-127.807617,2.131228
-28.015137,976.135254,-131.286621,2.131962
-21.057129,974.487305,-138.885498,2.132696
-25.543213,977.600098,-139.343262,2.133437
-28.015137,974.029541,-135.498047,2.134175
-33.691406,977.691650,-134.216309,2.134916
-33.325195,964.782715,-139.068604,2.135655
-39.001465,978.973389,-138.885498,2.136390
-36.346436,985.198975,-130.737305,2.137125
-34.606934,991.973877,-128.356934,2.137878
-34.790039,996.826172,-132.934570,2.138616
-36.529541,991.790771,-130.187988,2.139352
-44.586182,992.523193,-130.187988,2.140087
-49.163818,991.790771,-132.385254,2.140836
-42.022705,995.910645,-130.554199,2.141571
-37.353516,997.009277,-133.300781,2.142304
-43.579102,995.361328,-132.293701,2.143040
-47.515869,993.713379,-132.934570,2.143776
-48.431396,990.142822,-143.280029,2.144511
-47.973633,995.544434,-141.082764,2.145248
-46.417236,993.164062,-136.688232,2.145999
-52.368164,996.734619,-143.188477,2.146736
-55.206299,987.579346,-144.378662,2.147471
-50.079346,986.114502,-147.216797,2.148206
-53.741455,984.558105,-143.188477,2.148941
-50.354004,987.762451,-131.103516,2.149676
-53.009033,987.304688,-137.329102,2.150411
-58.319092,988.952637,-134.124756,2.151149
-56.488037,990.783691,-134.765625,2.151884
-64.270020,993.164062,-128.448486,2.152619
-56.579590,988.677979,-132.019043,2.153354
-56.304932,980.346680,-137.054443,2.154091
-55.114746,991.241455,-138.610840,2.154825
-55.572510,992.065430,-132.385254,2.155559
-58.685303,990.692139,-134.857178,2.156350
-59.967041,979.431152,-134.033203,2.157088
-53.741455,988.494873,-140.167236,2.157826
-53.924561,978.881836,-135.223389,2.158564
-57.769775,983.551025,-136.505127,2.159304
-60.058594,982.360840,-133.850098,2.160039
-63.537598,977.600098,-136.688232,2.160778
-56.854248,977.416992,-139.801025,2.161525
-48.065186,979.614258,-141.815186,2.162260
-61.431885,971.557617,-137.969971,2.163002
-55.114746,980.712891,-140.808105,2.163745
-56.304932,972.839355,-137.878418,2.164488
-53.283691,977.416992,-141.540527,2.165226
-53.741455,975.860596,-138.885498,2.165965
-59.509277,974.212646,-138.977051,2.166715
-56.030273,976.226807,-136.413574,2.167455
-51.727295,972.106934,-133.026123,2.168198
-56.762695,968.078613,-137.603760,2.168937
-49.072266,963.043213,-137.786865,2.169681
-57.586670,974.945068,-132.843018,2.170420
-58.868408,970.642090,-139.160156,2.171158
-52.001953,974.029541,-135.314941,2.171900
-53.466797,964.050293,-138.885498,2.172638
-50.628662,966.979980,-141.998291,2.173375
-57.403564,966.430664,-136.230469,2.174117
-61.157227,967.071533,-134.582520,2.174865
-59.051514,967.437744,-137.054443,2.175605
