ACC_X,ACC_Y,ACC_Z,Time
-451.171875,553.253174,688.568115,0.000049
-455.474854,544.006348,691.406250,0.000789
-456.024170,557.189941,691.864014,0.001524
-454.101562,552.978516,686.553955,0.002267
-462.066650,547.668457,678.497314,0.003002
-461.517334,554.168701,681.518555,0.003736
-459.777832,554.168701,682.708740,0.004472
-457.489014,545.013428,683.624268,0.005206
-449.340820,544.189453,687.561035,0.005940
-454.833984,551.422119,685.638428,0.006675
-457.763672,551.696777,685.638428,0.007413
-454.925537,550.231934,686.553955,0.008147
-454.650879,547.576904,684.631348,0.008888
-453.826904,552.886963,687.377930,0.009634
-452.911377,549.591064,688.201904,0.010369
-458.770752,553.710938,687.377930,0.011102
-450.256348,549.957275,686.279297,0.011836
-450.622559,556.457520,693.511963,0.012575
-447.418213,547.210693,689.117432,0.013309
-452.636719,547.393799,690.765381,0.014042
-454.284668,549.041748,695.343018,0.014776
-450.073242,549.041748,692.413330,0.015509
-450.439453,545.379639,688.659668,0.016242
-448.516846,543.640137,687.286377,0.016975
-451.446533,548.126221,689.666748,0.017727
-450.714111,549.224854,688.385010,0.018471
-454.101562,547.302246,688.659668,0.019207
-446.411133,545.837402,691.680908,0.019954
-443.847656,539.794922,685.272217,0.020687
-448.425293,561.859131,693.878174,0.021420
-446.502686,535.583496,690.032959,0.022152
-448.791504,537.689209,681.976318,0.022906
-437.713623,538.421631,692.596436,0.023643
-438.079834,535.491943,685.821533,0.024379
-443.572998,536.224365,689.300537,0.025113
-446.411133,533.843994,690.490723,0.025853
-448.150635,538.513184,688.568115,0.026586
-449.432373,538.970947,686.279297,0.027332
-452.453613,543.548584,688.842773,0.028071
-456.115723,538.970947,679.779053,0.028809
-455.749512,536.407471,681.793213,0.029548
-459.045410,542.449951,681.884766,0.030286
-456.298828,542.083740,680.328369,0.031031
-445.953369,543.365479,683.349609,0.031770
-449.890137,535.675049,684.448242,0.032509
-453.369141,543.273926,686.004639,0.033249
-456.939697,535.583496,685.729980,0.033987
-458.312988,544.189453,680.603027,0.034726
-459.228516,539.886475,680.877686,0.035465
-459.136963,552.154541,685.363770,0.036203
-459.869385,545.104980,682.617188,0.036939
-459.686279,548.400879,681.793213,0.037674
-455.932617,545.562744,683.532715,0.038410
-464.447021,547.393799,680.145264,0.039145
-458.587646,545.654297,681.518555,0.039879
-456.848145,550.781250,682.617188,0.040615
-462.158203,557.556152,683.166504,0.041358
-458.312988,551.971436,699.920654,0.042092
-457.214355,558.563232,681.060791,0.042825
-466.644287,558.654785,684.814453,0.043558
-459.503174,559.844971,689.208984,0.044292
-462.432861,557.830811,684.173584,0.045026
-469.482422,553.527832,683.258057,0.045759
-460.784912,560.119629,685.089111,0.046496
-455.749512,552.795410,680.694580,0.047229
-457.672119,560.577393,684.356689,0.047962
-456.298828,560.943604,685.272217,0.048696
-459.136963,562.500000,691.864014,0.049444
-448.883057,560.760498,687.744141,0.050181
-461.700439,569.000244,688.476562,0.050917
-458.679199,564.239502,691.314697,0.051652
-449.890137,559.112549,689.025879,0.052387
-459.320068,557.281494,692.230225,0.053123
-461.425781,557.830811,689.208984,0.053858
-457.122803,565.795898,692.321777,0.054597
-458.770752,562.408447,689.025879,0.055332
-451.354980,563.964844,690.032959,0.056067
-454.833984,574.035645,697.906494,0.056802
-455.200195,566.528320,690.216064,0.057537
-458.770752,562.591553,690.307617,0.058273
-461.791992,567.535400,700.561523,0.059008
-462.341309,567.718506,689.575195,0.059747
-462.982178,565.612793,685.363770,0.060481
-460.327148,568.908691,690.307617,0.061216
-454.101562,570.556641,693.328857,0.061951
-456.848145,567.535400,696.075439,0.062691
-457.855225,571.472168,691.589355,0.063423
-458.038330,570.465088,695.983887,0.064156
-456.024170,570.281982,695.251465,0.064891
-460.418701,563.507080,693.328857,0.065628
-467.468262,566.986084,694.519043,0.066363
-446.228027,567.169189,699.371338,0.067098
-470.123291,585.113525,690.765381,0.067840
-464.447021,569.549561,701.477051,0.068573
-473.602295,559.478760,691.131592,0.069317
-465.087891,561.126709,693.054199,0.070115
-467.834473,557.647705,689.758301,0.070853
-467.010498,549.865723,686.004639,0.071589
-465.179443,562.408447,690.399170,0.072329
-462.615967,563.598633,693.054199,0.073065
-489.074707,565.246582,692.047119,0.073799
-465.637207,563.598633,692.230225,0.074535
-467.834473,565.246582,692.138672,0.075274
-463.806152,565.521240,694.519043,0.076009
-472.412109,561.218262,692.779541,0.076745
-471.130371,567.993164,690.399170,0.077480
-474.700928,567.810059,684.906006,0.078223
-470.123291,585.113525,698.455811,0.078961
-463.989258,560.943604,698.730469,0.079700
-466.094971,561.401367,687.377930,0.080437
-464.813232,556.091309,685.272217,0.081176
-470.306396,546.569824,685.363770,0.081913
-474.151611,556.365967,679.687500,0.082651
-471.405029,552.337646,679.687500,0.083392
-470.947266,552.612305,675.750732,0.084129
-468.383789,550.506592,675.659180,0.084867
-471.221924,550.781250,691.131592,0.085605
-491.180420,553.710938,680.603027,0.086343
-472.595215,544.921875,680.694580,0.087081
-469.024658,552.337646,684.722900,0.087820
-467.742920,549.957275,684.539795,0.088560
-462.158203,548.675537,691.314697,0.089299
-463.714600,542.724609,689.117432,0.090036
-488.983154,543.090820,682.891846,0.090771
-469.116211,546.295166,688.385010,0.091506
-469.299316,546.386719,680.694580,0.092240
-466.918945,543.548584,683.715820,0.092975
-468.566895,543.090820,682.159424,0.093712
-446.411133,540.161133,678.955078,0.094447
-469.207764,549.041748,682.067871,0.095181
-476.348877,541.717529,676.300049,0.095915
-472.229004,548.034668,682.342529,0.096650
-475.891113,548.400879,684.082031,0.097385
-473.052979,551.055908,686.004639,0.098120
-472.045898,546.844482,689.575195,0.098857
-469.390869,543.365479,688.385010,0.099592
-466.278076,545.837402,689.300537,0.100326
-469.757080,547.668457,688.018799,0.101061
-466.094971,550.231934,683.624268,0.101799
-468.109131,545.837402,689.666748,0.102534
-466.278076,546.295166,684.906006,0.103269
-460.510254,556.091309,694.152832,0.104004
-461.425781,555.541992,687.469482,0.104738
-461.334229,553.894043,687.927246,0.105473
-463.531494,557.739258,688.110352,0.106208
-467.010498,552.886963,687.469482,0.106961
-468.566895,557.464600,686.920166,0.107699
-458.587646,560.577393,691.772461,0.108434
-467.742920,559.936523,684.906006,0.109170
-457.946777,558.563232,699.279785,0.109905
-465.454102,540.710449,694.610596,0.110640
-457.855225,555.541992,686.004639,0.111375
-465.454102,558.013916,688.018799,0.112115
-453.186035,557.189941,684.356689,0.112850
-453.826904,561.584473,682.159424,0.113585
-455.383301,559.387207,682.525635,0.114320
-461.059570,561.767578,685.729980,0.115072
-460.327148,566.070557,679.962158,0.115809
-454.833984,563.323975,689.575195,0.116544
-451.995850,569.366455,692.504883,0.117284
-450.531006,571.472168,687.927246,0.118019
-452.819824,567.443848,689.117432,0.118753
-457.855225,569.183350,689.300537,0.119488
-455.108643,567.535400,696.533203,0.120231
-455.108643,564.697266,690.673828,0.120969
-454.833984,565.612793,688.659668,0.121705
-460.968018,568.176270,689.208984,0.122440
-455.657959,570.648193,689.117432,0.123174
-461.975098,566.619873,684.082031,0.123909
-455.291748,568.359375,684.814453,0.124644
-453.643799,567.077637,688.385010,0.125381
-456.390381,572.387695,689.025879,0.126116
-458.404541,573.669434,698.822021,0.126850
-450.988770,568.908691,697.448730,0.127585
-457.580566,567.169189,690.307617,0.128320
-451.629639,563.323975,691.589355,0.129054
-448.150635,565.979004,697.357178,0.129789
-447.509766,571.289062,684.631348,0.130535
-466.461182,568.359375,681.976318,0.131282
-456.848145,567.352295,684.356689,0.132032
-458.038330,571.746826,687.103271,0.132771
-454.742432,566.528320,690.582275,0.133510
-447.967529,563.690186,692.779541,0.134249
-451.629639,563.690186,690.948486,0.134987
-444.580078,568.634033,689.117432,0.135732
-451.538086,561.676025,687.469482,0.136472
-450.805664,561.401367,690.032959,0.137211
-450.439453,562.225342,692.687988,0.137950
-448.150635,561.584473,691.314697,0.138687
-448.150635,563.598633,692.047119,0.139422
-445.587158,556.274414,697.265625,0.140189
-451.446533,555.267334,686.920166,0.140932
-443.756104,563.049316,690.307617,0.141676
-448.974609,566.070557,690.765381,0.142415
-442.291260,552.978516,695.251465,0.143153
-443.572998,552.703857,694.610596,0.143891
-452.728271,550.964355,683.898926,0.144629
-451.354980,552.520752,686.645508,0.145376
-455.566406,546.203613,684.082031,0.146120
-451.995850,551.330566,692.687988,0.146858
-448.974609,546.752930,692.596436,0.147597
-451.080322,541.534424,686.187744,0.148335
-452.911377,546.752930,684.722900,0.149073
-458.953857,549.407959,684.356689,0.149810
-458.496094,537.414551,690.124512,0.150552
-455.657959,541.442871,691.772461,0.151305
-465.637207,541.625977,681.335449,0.152044
-465.637207,538.787842,684.631348,0.152786
-462.799072,544.830322,679.687500,0.153526
-462.707520,538.238525,687.194824,0.154265
-463.348389,537.048340,684.906006,0.155014
-447.326660,543.823242,687.744141,0.155753
-468.017578,519.104004,684.906006,0.156499
-465.911865,540.802002,679.779053,0.157237
-462.524414,543.548584,688.842773,0.157975
-465.728760,550.048828,687.286377,0.158712
-463.165283,542.907715,687.011719,0.159454
-464.630127,548.492432,680.419922,0.160190
-470.489502,547.119141,682.525635,0.160935
-470.764160,546.752930,683.898926,0.161678
-474.517822,546.203613,680.511475,0.162415
-465.728760,549.774170,678.222656,0.163154
-467.285156,551.055908,680.419922,0.163893
-463.348389,541.351318,684.631348,0.164632
-475.524902,539.611816,686.004639,0.165370
-468.933105,551.330566,684.631348,0.166108
-468.292236,551.696777,695.800781,0.166850
-469.390869,542.358398,690.216064,0.167589
-469.848633,543.548584,691.223145,0.168327
-469.482422,546.936035,685.180664,0.169068
-478.729248,543.640137,685.729980,0.169805
-480.102539,542.541504,682.342529,0.170543
-475.433350,546.295166,685.821533,0.171285
-476.440430,549.774170,686.645508,0.172037
-473.876953,548.767090,684.997559,0.172780
-477.447510,547.668457,682.800293,0.173516
-477.722168,541.809082,689.117432,0.174253
-483.764648,547.027588,681.427002,0.174992
-478.271484,551.147461,679.229736,0.175731
-478.820801,553.070068,684.722900,0.176469
-473.144531,552.978516,676.300049,0.177210
-479.644775,551.971436,685.272217,0.177954
-475.708008,549.407959,682.617188,0.178700
-478.454590,554.443359,686.737061,0.179441
-478.637695,558.471680,687.286377,0.180181
-479.827881,548.767090,691.406250,0.180917
-481.750488,554.443359,694.702148,0.181653
-478.637695,553.070068,698.364258,0.182394
-477.172852,556.274414,697.723389,0.183133
-476.440430,568.450928,699.096680,0.183874
-482.025146,562.500000,698.913574,0.184612
-474.975586,564.605713,696.166992,0.185360
-471.954346,563.781738,698.822021,0.186101
-473.876953,539.611816,703.948975,0.186841
-478.179932,556.640625,701.385498,0.187578
-457.946777,565.429688,688.934326,0.188314
-462.158203,561.126709,694.244385,0.189049
-454.101562,559.661865,690.216064,0.189785
-459.136963,557.830811,684.997559,0.190526
-461.700439,553.894043,681.427002,0.191262
-457.397461,556.091309,687.286377,0.191998
-466.094971,557.830811,681.610107,0.192735
-467.376709,550.689697,683.807373,0.193471
-469.757080,558.471680,695.251465,0.194206
-471.130371,553.985596,696.350098,0.194941
-470.031738,551.696777,718.322754,0.195680
-469.665527,559.661865,702.667236,0.196414
-475.524902,558.929443,698.272705,0.197153
-489.898682,560.394287,697.723389,0.197892
-475.433350,557.830811,691.864014,0.198630
-471.954346,559.844971,696.075439,0.199364
-469.482422,558.013916,691.772461,0.200100
-466.461182,552.062988,687.561035,0.200840
-464.630127,555.541992,684.631348,0.201575
-460.510254,555.358887,685.821533,0.202313
-468.475342,557.373047,687.011719,0.203049
-468.017578,552.429199,680.969238,0.203787
-465.179443,555.450439,692.596436,0.204522
-473.327637,551.055908,691.314697,0.205257
-470.581055,557.464600,687.652588,0.205992
-470.123291,548.767090,695.709229,0.206731
-474.243164,554.260254,687.835693,0.207468
-464.904785,555.725098,696.807861,0.208203
-468.658447,562.408447,692.047119,0.208959
-465.728760,555.267334,696.350098,0.209697
-467.926025,554.077148,692.504883,0.210434
-463.806152,557.373047,694.427490,0.211216
-468.658447,554.443359,693.695068,0.211953
-460.693359,555.725098,692.779541,0.212688
-471.405029,553.802490,688.201904,0.213423
-465.270996,555.908203,691.223145,0.214163
-466.186523,555.725098,695.892334,0.214898
-469.848633,559.844971,697.723389,0.215633
-461.608887,564.880371,690.216064,0.216369
-460.693359,567.535400,696.350098,0.217103
-460.693359,565.521240,696.350098,0.217839
-461.151123,569.000244,695.983887,0.218573
-462.890625,566.802979,717.590332,0.219312
-469.207764,568.359375,701.568604,0.220046
-464.721680,573.120117,706.146240,0.220779
-464.721680,562.042236,701.934814,0.221528
-456.573486,572.479248,699.829102,0.222264
-455.841064,564.971924,704.315186,0.223003
-466.827393,570.373535,717.315674,0.223738
-466.003418,577.880859,716.308594,0.224479
-468.017578,569.366455,716.308594,0.225214
-468.475342,576.599121,718.872070,0.225949
-471.038818,579.162598,722.625732,0.226688
-464.721680,575.866699,725.280762,0.227435
-466.186523,580.444336,712.005615,0.228173
-472.961426,585.937500,720.794678,0.228909
-467.651367,588.226318,709.991455,0.229649
-475.158691,586.212158,705.047607,0.230385
-470.123291,595.825195,706.878662,0.231121
-468.750000,593.719482,700.286865,0.231857
-475.067139,600.494385,707.336426,0.232609
-475.982666,593.627930,714.385986,0.233346
-475.616455,594.085693,721.710205,0.234081
-478.271484,587.219238,730.407715,0.234818
-472.503662,592.987061,723.999023,0.235552
-468.200684,586.669922,722.442627,0.236288
-463.714600,575.683594,714.202881,0.237023
-461.883545,582.366943,706.054688,0.237765
-460.601807,582.366943,688.934326,0.238501
-463.165283,573.394775,685.821533,0.239236
-471.679688,570.465088,684.265137,0.239971
-467.559814,568.176270,685.913086,0.240705
-464.630127,571.746826,684.539795,0.241439
-468.292236,585.388184,687.652588,0.242174
-465.270996,585.296631,694.793701,0.242913
-468.292236,575.683594,695.434570,0.243669
-475.158691,582.641602,696.075439,0.244407
-483.947754,582.458496,692.596436,0.245142
-480.651855,578.063965,687.286377,0.245876
-489.715576,576.324463,685.913086,0.246609
-480.834961,577.056885,688.201904,0.247343
-482.849121,570.648193,690.582275,0.248100
-470.947266,579.711914,692.504883,0.248839
-467.834473,577.606201,705.596924,0.249575
-466.094971,581.359863,703.857422,0.250311
-456.573486,584.289551,706.604004,0.251048
-469.848633,581.817627,706.512451,0.251781
-479.919434,580.261230,700.195312,0.252514
-494.750977,577.880859,692.687988,0.253247
-497.497559,578.887939,691.772461,0.253980
-496.124268,581.726074,706.878662,0.254712
-492.004395,583.374023,716.400146,0.255444
-485.595703,587.493896,720.886230,0.256195
-475.524902,593.444824,723.815918,0.256930
-469.573975,592.712402,729.949951,0.257662
-465.911865,593.811035,718.780518,0.258397
-473.510742,590.972900,708.892822,0.259132
-471.679688,600.494385,712.646484,0.259867
-479.736328,594.543457,717.224121,0.260602
-478.363037,590.515137,704.681396,0.261339
-484.954834,586.212158,702.484131,0.262074
-484.680176,605.895996,706.237793,0.262809
-482.482910,587.677002,710.815430,0.263543
-475.616455,585.021973,717.498779,0.264287
-483.581543,592.803955,719.512939,0.265023
-477.996826,592.529297,721.069336,0.265759
-480.194092,582.550049,717.681885,0.266498
-485.961914,579.986572,714.385986,0.267234
-479.370117,584.747314,717.681885,0.267970
-480.010986,586.853027,701.110840,0.268705
-479.095459,580.902100,694.244385,0.269450
-477.355957,584.106445,696.990967,0.270189
-471.405029,592.163086,706.146240,0.270927
-464.813232,585.479736,715.850830,0.271665
-462.707520,588.317871,716.308594,0.272403
-463.989258,594.268799,726.837158,0.273141
-466.186523,608.917236,726.104736,0.273879
-466.644287,605.346680,726.196289,0.274621
-470.672607,608.276367,728.027344,0.275359
-471.679688,613.128662,738.830566,0.276097
-476.989746,614.227295,734.344482,0.276835
-474.060059,619.628906,738.464355,0.277573
-476.806641,617.706299,752.014160,0.278310
-471.588135,620.819092,752.746582,0.279049
-472.595215,624.298096,771.606445,0.279790
-467.651367,632.080078,753.204346,0.280528
-462.982178,627.593994,757.141113,0.281308
-458.404541,626.586914,756.866455,0.282047
-458.129883,629.241943,763.000488,0.282785
-448.699951,630.706787,760.711670,0.283523
-455.291748,633.178711,757.598877,0.284261
-460.052490,631.439209,758.789062,0.285004
-456.390381,636.474609,752.929688,0.285742
-452.728271,631.439209,762.908936,0.286478
-445.312500,635.925293,768.035889,0.287212
-442.199707,634.277344,760.803223,0.287946
-444.213867,634.002686,757.507324,0.288682
-436.981201,628.875732,756.866455,0.289417
-435.424805,635.925293,763.641357,0.290154
-434.143066,636.932373,757.049561,0.290889
-433.319092,634.735107,756.866455,0.291623
-429.840088,640.686035,760.345459,0.292359
-427.276611,629.241943,757.507324,0.293121
-424.621582,625.122070,749.450684,0.293860
-429.748535,621.185303,759.887695,0.294597
-426.086426,610.748291,749.359131,0.295343
-403.839111,597.839355,747.619629,0.296079
-420.684814,601.593018,722.717285,0.296815
-415.466309,599.761963,724.822998,0.297551
-413.452148,595.275879,714.294434,0.298305
-414.459229,570.556641,707.611084,0.299044
-407.867432,576.873779,709.533691,0.299779
-410.522461,576.141357,720.794678,0.300520
-424.896240,574.035645,725.738525,0.301254
-416.198730,580.718994,731.140137,0.301999
-416.290283,580.078125,737.915039,0.302745
-415.466309,579.162598,735.809326,0.303489
-444.946289,577.423096,745.147705,0.304236
-422.882080,583.831787,750.640869,0.304976
-422.698975,574.401855,753.204346,0.305715
-421.966553,568.176270,751.556396,0.306453
-434.417725,571.380615,748.535156,0.307188
-433.227539,564.971924,747.894287,0.307925
-422.149658,541.442871,745.788574,0.308663
-415.466309,558.197021,740.936279,0.309399
-414.459229,549.224854,734.344482,0.310134
-413.726807,549.499512,737.915039,0.310870
-440.917969,552.520752,728.118896,0.311605
-421.417236,556.182861,735.626221,0.312341
-427.093506,552.795410,730.682373,0.313076
-426.635742,541.717529,749.267578,0.313844
-428.924561,549.682617,731.964111,0.314583
-436.157227,548.675537,733.428955,0.315318
-436.614990,539.062500,737.365723,0.316052
-431.671143,539.794922,734.069824,0.316787
-435.607910,538.421631,705.780029,0.317522
-434.509277,539.154053,727.844238,0.318257
-433.959961,542.449951,712.646484,0.318996
-432.037354,543.731689,712.921143,0.319730
-432.495117,534.301758,718.048096,0.320465
-436.065674,533.752441,708.435059,0.321200
-443.572998,531.646729,702.667236,0.321939
-436.798096,533.111572,708.892822,0.322676
-442.657471,528.259277,706.054688,0.323411
-444.030762,524.139404,700.012207,0.324147
-443.847656,526.245117,701.202393,0.324883
-444.580078,516.265869,703.765869,0.325618
-442.840576,525.238037,702.301025,0.326354
-444.305420,520.202637,704.040527,0.327093
-442.932129,521.026611,694.702148,0.327829
-444.671631,523.590088,689.666748,0.328564
-437.713623,510.864258,688.659668,0.329300
-447.509766,509.216309,686.279297,0.330033
-443.206787,509.948730,685.089111,0.330765
-443.847656,504.821777,685.821533,0.331497
-438.171387,508.758545,692.504883,0.332249
-433.868408,505.737305,692.871094,0.332986
-446.136475,508.758545,688.568115,0.333720
-444.396973,513.427734,685.180664,0.334455
-443.756104,512.237549,694.976807,0.335194
-437.347412,514.617920,700.286865,0.335929
-446.044922,506.835938,702.484131,0.336665
-448.242188,511.688232,698.272705,0.337414
-433.685303,522.949219,698.547363,0.338150
-448.150635,514.160156,700.744629,0.338890
-441.284180,514.801025,701.019287,0.339626
-450.164795,517.639160,693.878174,0.340366
-434.783936,531.280518,696.350098,0.341101
-446.502686,535.583496,692.230225,0.341836
-449.798584,535.125732,705.596924,0.342571
-447.967529,540.893555,707.611084,0.343305
-458.770752,545.013428,714.843750,0.344048
-457.946777,566.070557,733.062744,0.344797
-464.904785,568.634033,738.098145,0.345534
-462.890625,571.472168,754.852295,0.346270
-467.742920,588.592529,757.690430,0.347007
-463.531494,591.247559,761.352539,0.347747
-476.257324,591.522217,764.648438,0.348483
-489.532471,604.156494,774.627686,0.349219
-469.299316,597.198486,772.796631,0.349965
-462.707520,613.311768,777.740479,0.350701
-464.172363,612.304688,795.410156,0.351494
-473.785400,623.291016,800.903320,0.352233
-465.728760,623.199463,810.516357,0.352979
-467.742920,631.164551,813.720703,0.353717
-463.806152,641.235352,822.418213,0.354456
-462.432861,639.038086,822.601318,0.355196
-464.630127,634.094238,825.897217,0.355932
-473.327637,645.355225,833.129883,0.356667
-475.982666,647.735596,844.940186,0.357402
-472.503662,643.890381,835.510254,0.358144
-469.299316,649.658203,847.595215,0.358880
-475.067139,643.157959,827.087402,0.359615
-474.609375,647.460938,845.489502,0.360349
-471.221924,646.087646,844.757080,0.361083
-487.335205,648.651123,831.756592,0.361818
-455.841064,651.214600,826.446533,0.362578
-455.200195,642.517090,825.897217,0.363327
-468.658447,650.390625,826.721191,0.364063
-457.122803,649.932861,825.988770,0.364799
-469.573975,641.052246,825.897217,0.365539
-459.686279,630.432129,824.615479,0.366277
-458.221436,629.150391,827.270508,0.367013
-456.207275,627.593994,831.665039,0.367750
-460.784912,633.178711,829.010010,0.368489
-464.080811,629.058838,827.453613,0.369226
-455.474854,627.777100,834.045410,0.369962
-460.144043,616.424561,823.333740,0.370698
-467.376709,614.227295,823.425293,0.371433
-463.073730,602.416992,818.389893,0.372169
-469.665527,612.854004,808.776855,0.372905
-459.136963,600.769043,801.361084,0.373644
-462.524414,591.796875,801.361084,0.374380
-463.806152,567.993164,792.297363,0.375116
-459.136963,575.134277,780.303955,0.375852
-466.186523,558.471680,774.902344,0.376590
-451.171875,553.436279,766.479492,0.377326
-459.503174,536.041260,753.662109,0.378062
-450.347900,530.731201,743.865967,0.378798
-454.559326,525.604248,738.555908,0.379534
-455.108643,516.632080,735.717773,0.380270
-444.671631,505.920410,732.604980,0.381006
-446.319580,496.582031,724.548340,0.381757
-442.291260,488.708496,727.569580,0.382492
-426.727295,496.490479,731.414795,0.383224
-432.495117,490.631104,733.062744,0.384000
-437.530518,476.715088,732.238770,0.384742
-429.748535,479.644775,734.893799,0.385477
-444.854736,469.940186,729.675293,0.386214
-437.805176,467.193604,719.329834,0.386953
-455.200195,446.777344,724.822998,0.387689
-440.917969,468.841553,720.611572,0.388425
-453.826904,465.820312,716.766357,0.389160
-444.854736,459.594727,718.872070,0.389896
-454.467773,459.411621,716.125488,0.390631
-461.608887,458.312988,719.238281,0.391367
-454.376221,461.883545,722.534180,0.392103
-458.953857,454.833984,723.449707,0.392836
-464.904785,462.524414,721.343994,0.393569
-456.115723,456.024170,724.639893,0.394302
-457.763672,448.974609,725.189209,0.395066
-468.933105,450.164795,725.555420,0.395803
-469.757080,447.509766,732.788086,0.396538
-483.673096,438.812256,708.068848,0.397295
-492.279053,426.910400,695.617676,0.398033
-495.300293,432.403564,683.624268,0.398767
-493.286133,429.290771,680.511475,0.399502
-503.540039,418.487549,673.736572,0.400252
-485.778809,412.445068,679.687500,0.400994
-483.489990,406.951904,680.694580,0.401734
-470.764160,397.613525,679.870605,0.402471
-469.299316,389.556885,673.370361,0.403207
-462.890625,395.874023,665.588379,0.403944
-460.601807,394.317627,670.715332,0.404681
-467.102051,385.711670,652.404785,0.405421
-470.031738,385.711670,648.284912,0.406157
-469.390869,383.239746,655.059814,0.406893
-470.581055,379.302979,668.701172,0.407628
-468.841553,384.429932,675.750732,0.408361
-458.496094,393.310547,696.258545,0.409094
-459.686279,394.134521,697.540283,0.409826
-456.848145,387.725830,704.589844,0.410578
-452.728271,389.648438,716.766357,0.411316
-449.432373,391.571045,720.062256,0.412050
-461.975098,381.134033,704.589844,0.412786
-473.144531,365.295410,695.709229,0.413521
-447.967529,365.753174,685.180664,0.414256
-465.087891,369.964600,680.694580,0.414991
-449.432373,375.732422,683.258057,0.415735
-454.010010,370.605469,686.553955,0.416471
-442.932129,366.302490,690.124512,0.417206
-468.750000,358.612061,699.005127,0.417941
-444.213867,364.562988,699.645996,0.418679
-440.093994,366.119385,711.639404,0.419414
-445.861816,368.591309,718.322754,0.420149
-448.059082,369.964600,718.231201,0.420885
-462.341309,370.971680,728.485107,0.421620
-461.700439,375.183105,736.083984,0.422388
-469.573975,377.014160,732.513428,0.423122
-458.496094,378.387451,747.528076,0.423861
-440.826416,385.070801,748.260498,0.424596
-445.404053,383.148193,752.746582,0.425332
-432.403564,383.422852,755.310059,0.426066
-427.825928,383.331299,754.486084,0.426802
-428.558350,391.479492,756.408691,0.427537
-436.798096,385.528564,753.570557,0.428272
-437.530518,388.732910,762.542725,0.429010
-433.502197,389.190674,764.923096,0.429744
-434.143066,398.620605,773.620605,0.430479
-428.833008,408.416748,777.557373,0.431215
-438.537598,417.205811,786.895752,0.431949
-446.777344,408.599854,780.029297,0.432683
-458.496094,406.585693,763.458252,0.433440
-449.066162,419.952393,761.627197,0.434195
-465.087891,407.684326,752.197266,0.434934
-468.566895,424.896240,759.613037,0.435671
-463.806152,420.959473,758.880615,0.436408
-486.785889,431.396484,751.098633,0.437147
-466.461182,443.389893,764.007568,0.437883
-462.799072,427.642822,768.585205,0.438619
-469.024658,435.699463,757.232666,0.439360
-464.996338,423.339844,759.521484,0.440097
-477.539062,419.036865,751.464844,0.440834
-490.905762,420.501709,754.119873,0.441570
-469.573975,407.318115,749.633789,0.442307
-499.237061,402.648926,735.443115,0.443043
-466.003418,403.015137,743.316650,0.443779
-482.757568,400.817871,732.604980,0.444535
-476.715088,387.542725,735.260010,0.445273
-450.347900,383.331299,731.140137,0.446008
-469.757080,378.295898,731.231689,0.446744
-446.960449,377.655029,739.105225,0.447479
-473.327637,376.739502,739.105225,0.448213
-460.968018,351.470947,739.013672,0.448948
-454.650879,355.041504,716.766357,0.449690
-468.475342,354.858398,798.248291,0.450425
-395.233154,358.062744,837.524414,0.451160
-411.529541,384.521484,823.608398,0.451894
-388.183594,381.134033,811.798096,0.452645
-362.457275,337.280273,780.029297,0.453381
-490.539551,326.202393,715.118408,0.454114
-437.072754,319.976807,693.511963,0.454874
-491.821289,307.067871,668.701172,0.455615
-456.848145,289.306641,663.391113,0.456354
-477.905273,289.489746,654.693604,0.457094
-493.469238,288.757324,651.580811,0.457836
-447.784424,287.109375,691.864014,0.458575
-437.255859,290.496826,699.096680,0.459314
-417.938232,315.124512,723.907471,0.460052
-404.388428,304.046631,742.401123,0.460791
-423.156738,303.771973,733.428955,0.461530
-436.065674,282.440186,705.688477,0.462268
-486.236572,295.623779,696.899414,0.463008
-524.322510,281.066895,679.229736,0.463745
-533.935547,265.960693,672.180176,0.464482
-539.154053,264.770508,670.989990,0.465234
-494.567871,276.214600,688.751221,0.465973
-479.736328,283.538818,705.505371,0.466711
-441.101074,289.672852,715.576172,0.467448
-421.966553,288.665771,725.463867,0.468188
-426.818848,284.912109,718.231201,0.468931
-435.516357,274.658203,715.759277,0.469671
-449.798584,256.713867,694.885254,0.470411
-467.834473,234.466553,692.687988,0.471149
-486.328125,251.678467,686.828613,0.471886
-484.039307,258.819580,703.857422,0.472623
-466.461182,261.016846,731.323242,0.473364
-441.833496,266.876221,762.176514,0.474102
-422.973633,273.925781,829.101562,0.474841
-371.246338,282.531738,853.454590,0.475580
-374.176025,285.736084,860.687256,0.476318
-341.766357,280.426025,842.651367,0.477056
-388.549805,259.002686,819.580078,0.477794
-373.901367,245.178223,787.628174,0.478535
-380.218506,247.100830,765.930176,0.479274
-366.485596,231.628418,747.253418,0.480013
-372.619629,228.149414,734.893799,0.480753
-378.936768,234.558105,719.604492,0.481495
-368.682861,227.050781,723.541260,0.482232
-387.084961,228.332520,733.612061,0.482970
-362.274170,237.213135,741.851807,0.483710
-364.105225,242.980957,769.683838,0.484448
-351.379395,252.044678,757.415771,0.485186
-369.598389,257.995605,762.359619,0.485923
-374.450684,255.706787,750.000000,0.486663
-386.260986,250.579834,740.844727,0.487400
-415.374756,245.635986,742.492676,0.488136
-417.388916,252.777100,744.049072,0.488875
-419.586182,256.622314,743.591309,0.489612
-415.832520,263.214111,749.633789,0.490350
-413.360596,269.622803,749.267578,0.491087
-399.078369,286.468506,763.458252,0.491828
-391.387939,286.193848,773.620605,0.492597
-383.697510,290.222168,795.593262,0.493335
-363.647461,294.250488,783.233643,0.494071
-386.810303,291.320801,780.670166,0.494806
-419.860840,289.123535,787.170410,0.495541
-411.804199,285.369873,777.740479,0.496275
-433.044434,280.242920,776.824951,0.497019
-434.875488,276.947021,768.859863,0.497759
-432.128906,287.658691,778.381348,0.498498
-411.346436,291.046143,790.740967,0.499238
-404.937744,294.891357,795.959473,0.499977
-385.986328,327.209473,800.628662,0.500716
-372.711182,313.934326,807.952881,0.501455
-379.302979,313.293457,800.537109,0.502198
-405.487061,311.645508,790.924072,0.502936
-425.720215,309.173584,774.261475,0.503689
-448.059082,309.814453,781.951904,0.504433
-456.115723,307.159424,776.367188,0.505174
-459.869385,314.117432,777.008057,0.505911
-467.102051,318.969727,788.635254,0.506649
-460.052490,325.744629,793.579102,0.507395
-444.030762,336.639404,804.565430,0.508134
-439.636230,340.209961,808.959961,0.508872
-434.417725,331.695557,808.959961,0.509613
-442.291260,338.928223,798.156738,0.510350
-459.686279,344.787598,792.938232,0.511089
-471.862793,341.033936,777.923584,0.511827
-489.074707,342.132568,774.902344,0.512568
-497.131348,340.393066,763.183594,0.513306
-505.828857,343.688965,767.578125,0.514044
-502.899170,346.252441,792.114258,0.514782
-500.427246,350.189209,778.472900,0.515520
-491.912842,358.795166,791.381836,0.516258
-485.229492,355.590820,803.375244,0.516996
-488.067627,363.830566,800.445557,0.517737
-479.736328,363.464355,798.065186,0.518475
-506.652832,360.076904,777.557373,0.519213
-505.371094,357.788086,794.677734,0.519951
-521.209717,352.203369,784.149170,0.520692
-523.315430,356.048584,773.986816,0.521430
-529.907227,348.907471,780.120850,0.522168
-521.301270,349.822998,784.698486,0.522908
-519.287109,347.625732,775.634766,0.523646
-511.871338,353.851318,788.818359,0.524384
-503.997803,351.013184,789.367676,0.525123
-503.265381,353.485107,797.973633,0.525864
-509.307861,374.725342,789.184570,0.526601
-514.617920,354.858398,790.557861,0.527340
-522.674561,354.309082,777.740479,0.528078
-532.653809,347.442627,772.979736,0.528816
-533.752441,343.780518,770.690918,0.529554
-540.069580,346.069336,768.585205,0.530292
-535.400391,328.399658,772.888184,0.531035
-531.280518,353.485107,775.817871,0.531773
-527.893066,349.182129,776.275635,0.532511
-512.512207,348.907471,785.064697,0.533249
-517.822266,347.442627,787.719727,0.533987
-516.998291,347.351074,780.670166,0.534733
-516.998291,350.189209,786.804199,0.535472
-528.442383,340.393066,780.761719,0.536214
-522.491455,340.393066,784.332275,0.536953
-524.963379,346.618652,792.388916,0.537690
-492.462158,347.259521,783.508301,0.538427
-506.011963,339.477539,785.614014,0.539165
-512.420654,340.576172,789.825439,0.539903
-498.870850,348.724365,784.332275,0.540642
-495.666504,342.681885,793.945312,0.541381
-489.807129,337.371826,799.621582,0.542118
-486.968994,336.730957,800.628662,0.542860
-490.631104,341.125488,789.550781,0.543601
-486.328125,330.047607,790.740967,0.544340
-480.285645,331.329346,794.036865,0.545078
-481.933594,327.117920,793.121338,0.545818
-480.834961,327.758789,803.466797,0.546561
-475.891113,332.244873,808.410645,0.547300
-470.855713,333.526611,812.622070,0.548039
-455.017090,329.406738,815.002441,0.548778
-455.932617,325.653076,806.762695,0.549520
-454.284668,332.519531,808.502197,0.550260
-452.087402,331.329346,809.234619,0.550999
-445.953369,326.019287,802.825928,0.551744
-446.502686,323.089600,802.093506,0.552483
-447.784424,312.011719,817.199707,0.553222
-440.002441,319.519043,812.255859,0.553961
-438.446045,317.413330,815.277100,0.554703
-428.009033,320.343018,819.030762,0.555441
-436.798096,319.244385,824.066162,0.556180
-432.952881,311.187744,828.369141,0.556919
-419.311523,317.504883,824.249268,0.557658
-421.325684,322.814941,830.200195,0.558397
-418.304443,323.181152,824.798584,0.559135
-420.867920,323.272705,816.650391,0.559877
-417.480469,317.962646,820.037842,0.560615
-421.966553,315.856934,810.791016,0.561353
-422.698975,314.758301,811.981201,0.562089
-425.903320,310.913086,814.910889,0.562860
-432.586670,315.307617,818.298340,0.563596
-435.241699,312.835693,820.587158,0.564332
-437.530518,316.223145,815.277100,0.565071
-444.396973,317.321777,818.298340,0.565807
-438.446045,321.441650,819.122314,0.566542
-445.129395,320.800781,825.439453,0.567278
-442.840576,325.195312,822.875977,0.568013
-448.516846,325.469971,815.460205,0.568749
-442.474365,319.793701,812.713623,0.569485
-450.622559,316.680908,814.819336,0.570221
-443.023682,322.174072,807.952881,0.570954
-445.312500,329.956055,803.100586,0.571687
-444.122314,328.765869,805.206299,0.572419
-457.397461,333.343506,802.276611,0.573157
-452.178955,337.463379,803.466797,0.573893
-460.052490,335.906982,789.093018,0.574630
-467.193604,342.132568,789.733887,0.575386
-468.841553,350.372314,792.114258,0.576125
-467.559814,353.576660,791.839600,0.576861
-473.236084,350.463867,816.833496,0.577597
-479.644775,352.020264,803.283691,0.578339
-477.630615,351.013184,804.931641,0.579075
-484.588623,361.816406,818.664551,0.579812
-481.933594,367.767334,814.178467,0.580564
-483.306885,364.105225,811.431885,0.581316
-491.088867,366.210938,809.509277,0.582058
-482.849121,366.760254,809.417725,0.582797
-486.877441,364.654541,811.798096,0.583543
-485.229492,364.013672,807.128906,0.584282
-481.292725,360.717773,796.142578,0.585021
-479.370117,361.999512,801.727295,0.585760
-468.566895,349.548340,799.804688,0.586499
-467.285156,350.280762,798.797607,0.587238
-468.841553,345.520020,790.191650,0.587977
-461.883545,345.703125,792.480469,0.588716
-462.524414,349.914551,783.050537,0.589452
-464.538574,344.787598,786.621094,0.590188
-465.820312,344.238281,788.177490,0.590925
-466.918945,336.364746,785.430908,0.591668
-476.531982,348.815918,789.276123,0.592407
-477.172852,341.583252,790.100098,0.593145
-473.876953,349.548340,789.916992,0.593884
-475.433350,353.393555,800.354004,0.594623
-477.905273,368.682861,808.410645,0.595367
-473.876953,353.759766,801.910400,0.596111
-471.588135,355.316162,801.269531,0.596850
-474.975586,350.830078,810.058594,0.597589
-471.954346,379.486084,797.241211,0.598329
-471.313477,416.931152,806.213379,0.599067
-465.087891,434.143066,839.630127,0.599803
-463.623047,407.592773,901.153564,0.600538
-487.518311,371.246338,913.970947,0.601277
-492.553711,391.479492,878.173828,0.602016
-491.180420,401.184082,852.630615,0.602756
-491.455078,399.902344,835.968018,0.603494
-492.370605,398.437500,812.347412,0.604233
-485.595703,388.916016,798.339844,0.604968
-495.941162,379.943848,779.754639,0.605704
-472.229004,371.887207,789.459229,0.606440
-490.722656,363.830566,777.099609,0.607175
-474.975586,373.077393,778.839111,0.607911
-448.242188,368.408203,783.325195,0.608646
-457.031250,373.809814,776.824951,0.609397
-448.242188,383.331299,796.691895,0.610135
-477.722168,375.823975,815.368652,0.610874
-489.898682,377.563477,816.467285,0.611612
-493.377686,377.380371,823.333740,0.612353
-507.293701,378.112793,823.791504,0.613089
-508.850098,370.788574,825.714111,0.613831
-510.040283,372.070312,819.580078,0.614573
-495.574951,380.859375,816.741943,0.615312
-500.701904,380.035400,811.798096,0.616051
-477.813721,375.183105,810.699463,0.616789
-470.031738,369.323730,805.572510,0.617530
-474.426270,367.218018,801.452637,0.618270
-478.363037,355.041504,788.543701,0.619009
-486.968994,351.654053,779.937744,0.619745
-485.046387,351.287842,779.022217,0.620480
-488.983154,347.442627,775.543213,0.621216
-478.912354,350.189209,778.289795,0.621952
-479.736328,352.661133,787.902832,0.622695
-472.869873,340.576172,796.508789,0.623433
-477.355957,342.590332,809.051514,0.624172
-480.377197,341.400146,806.488037,0.624911
-475.433350,339.935303,802.917480,0.625649
-479.278564,339.202881,804.107666,0.626388
-478.546143,322.357178,796.600342,0.627126
-466.644287,324.645996,790.649414,0.627867
-471.130371,322.814941,786.621094,0.628606
-467.102051,321.533203,783.416748,0.629344
-460.784912,317.504883,782.958984,0.630082
-449.432373,316.680908,791.748047,0.630819
-444.763184,310.546875,792.388916,0.631554
-449.523926,309.906006,801.544189,0.632289
-457.763672,296.447754,799.072266,0.633078
-455.108643,303.039551,801.269531,0.633816
-453.643799,301.391602,796.417236,0.634554
-455.383301,295.440674,803.375244,0.635293
-460.235596,295.166016,798.980713,0.636031
-457.580566,287.475586,791.473389,0.636775
-454.833984,284.088135,782.775879,0.637515
-450.073242,277.404785,768.676758,0.638257
-451.080322,283.630371,760.345459,0.638996
-453.277588,274.108887,757.415771,0.639735
-458.953857,267.333984,744.506836,0.640477
-469.299316,267.242432,745.513916,0.641216
-466.003418,268.249512,745.880127,0.641955
-466.003418,273.193359,741.210938,0.642693
-464.263916,273.834229,733.703613,0.643436
-464.813232,269.622803,738.098145,0.644187
-478.363037,281.707764,753.387451,0.644942
-473.236084,291.870117,759.246826,0.645690
-472.686768,290.039062,769.592285,0.646429
-476.074219,302.673340,775.177002,0.647184
-490.356445,310.821533,787.261963,0.647941
-482.757568,311.828613,784.515381,0.648682
-496.673584,320.251465,789.733887,0.649421
-491.821289,332.244873,805.023193,0.650160
-491.638184,331.146240,805.480957,0.650899
-484.405518,341.949463,808.868408,0.651637
-484.680176,346.252441,807.952881,0.652376
-489.715576,347.167969,808.135986,0.653118
-484.130859,354.949951,801.452637,0.653854
-493.927002,359.985352,803.649902,0.654589
-489.257812,363.922119,804.290771,0.655325
-494.110107,365.020752,798.156738,0.656068
-501.525879,363.281250,800.079346,0.656807
-498.779297,359.436035,792.388916,0.657546
-491.729736,359.802246,787.719727,0.658288
-497.314453,363.739014,778.656006,0.659026
-490.173340,367.492676,785.430908,0.659766
-487.518311,361.724854,785.430908,0.660505
-496.124268,373.535156,788.818359,0.661248
-490.997314,372.161865,787.261963,0.661986
-492.370605,370.239258,789.916992,0.662724
-497.772217,374.908447,789.001465,0.663463
-499.237061,374.908447,784.149170,0.664199
-498.046875,372.253418,784.790039,0.664934
-496.948242,370.971680,795.684814,0.665670
-493.286133,376.007080,791.015625,0.666413
-496.307373,382.415771,789.825439,0.667152
-497.772217,373.809814,796.417236,0.667890
-492.095947,353.210449,799.621582,0.668629
-496.307373,372.344971,787.170410,0.669368
-498.596191,377.014160,795.135498,0.670112
-487.976074,378.387451,804.107666,0.670850
-489.715576,389.648438,801.727295,0.671591
-469.757080,382.873535,810.516357,0.672326
-498.138428,380.767822,800.079346,0.673061
-495.849609,381.317139,800.903320,0.673797
-499.237061,377.838135,806.304932,0.674533
-501.159668,378.021240,804.382324,0.675269
-499.694824,376.556396,801.269531,0.676004
-495.849609,377.014160,782.226562,0.676752
-501.983643,373.809814,782.043457,0.677488
-501.159668,366.577148,789.093018,0.678224
-510.498047,362.915039,787.353516,0.678962
-509.948730,362.274170,788.085938,0.679701
-508.941650,358.520508,783.782959,0.680439
-508.941650,363.006592,789.733887,0.681178
-509.857178,367.675781,793.579102,0.681919
-508.117676,361.999512,795.135498,0.682658
-511.596680,359.619141,787.994385,0.683397
-508.300781,365.020752,791.290283,0.684139
-503.356934,359.252930,789.093018,0.684878
-500.061035,356.597900,794.036865,0.685617
-491.363525,363.647461,801.544189,0.686356
-484.130859,357.513428,798.065186,0.687097
-480.194092,359.527588,806.762695,0.687835
-482.025146,349.548340,806.213379,0.688573
-480.926514,350.189209,813.995361,0.689312
-472.961426,360.443115,812.622070,0.690050
-470.031738,354.766846,815.734863,0.690785
-466.644287,356.689453,804.840088,0.691521
-459.869385,352.020264,813.812256,0.692263
-463.073730,342.498779,804.199219,0.693001
-463.348389,342.681885,800.262451,0.693740
-458.496094,344.787598,798.248291,0.694478
-453.369141,335.357666,792.388916,0.695220
-442.016602,332.427979,788.085938,0.695958
-441.375732,325.836182,803.375244,0.696699
-429.565430,326.934814,794.586182,0.697439
-430.847168,327.392578,799.987793,0.698178
-428.100586,324.005127,801.361084,0.698916
-416.381836,331.054688,798.339844,0.699656
-419.128418,331.146240,791.381836,0.700398
-422.424316,327.117920,795.318604,0.701137
-423.614502,328.125000,798.248291,0.701876
-423.431396,304.870605,797.882080,0.702614
-406.951904,333.343506,798.614502,0.703353
-417.846680,337.280273,793.304443,0.704132
-412.628174,335.632324,797.698975,0.704872
-413.085938,335.723877,797.973633,0.705613
-411.712646,340.393066,802.276611,0.706350
-412.536621,347.259521,797.515869,0.707084
-419.036865,347.259521,800.903320,0.707820
-422.149658,347.991943,800.354004,0.708554
-425.170898,341.583252,796.234131,0.709301
-436.248779,345.520020,799.163818,0.710041
-437.713623,351.379395,799.346924,0.710784
-443.756104,353.668213,798.248291,0.711523
-442.382812,352.020264,801.452637,0.712262
-439.819336,358.886719,797.882080,0.713001
-440.551758,360.351562,799.987793,0.713760
-449.615479,367.034912,798.248291,0.714511
-458.587646,360.168457,795.867920,0.715261
-454.193115,364.105225,795.501709,0.715999
-459.686279,369.873047,796.691895,0.716735
-475.708008,373.260498,799.713135,0.717488
-471.130371,370.880127,802.093506,0.718236
-482.940674,377.746582,792.388916,0.718975
-481.384277,383.697510,788.726807,0.719714
-493.560791,381.866455,789.093018,0.720457
-494.018555,379.394531,799.163818,0.721195
-496.307373,389.923096,802.276611,0.721934
-503.814697,388.824463,796.142578,0.722673
-506.927490,391.296387,804.382324,0.723412
-508.758545,394.409180,805.389404,0.724150
-503.448486,393.951416,795.501709,0.724889
-510.131836,389.831543,800.445557,0.725629
-513.793945,390.014648,790.557861,0.726364
-522.216797,390.014648,790.374756,0.727100
-524.047852,384.979248,800.994873,0.727839
-527.435303,387.451172,790.191650,0.728581
-520.660400,388.641357,792.755127,0.729321
-529.815674,401.092529,792.480469,0.730061
-532.104492,401.641846,797.698975,0.730802
-526.428223,396.789551,796.234131,0.731541
-525.421143,406.768799,802.276611,0.732278
-531.463623,407.135010,803.466797,0.733016
-529.724121,406.036377,800.994873,0.733758
-519.287109,403.656006,804.931641,0.734497
-530.548096,407.867432,805.480957,0.735236
-526.153564,401.916504,806.762695,0.735973
-529.998779,402.282715,797.973633,0.736708
-523.315430,402.648926,795.135498,0.737443
-519.927979,403.198242,796.875000,0.738179
-516.998291,389.099121,799.713135,0.738921
-519.378662,395.599365,798.522949,0.739660
-508.758545,404.479980,794.769287,0.740398
-504.272461,397.979736,784.240723,0.741136
-500.976562,395.324707,786.895752,0.741870
-496.215820,392.486572,784.606934,0.742606
-497.222900,396.240234,779.663086,0.743342
-493.286133,391.296387,785.797119,0.744080
-488.159180,390.930176,789.550781,0.744816
-495.391846,385.345459,795.318604,0.745551
-484.954834,393.768311,793.487549,0.746288
-488.525391,394.134521,787.445068,0.747025
-480.560303,398.529053,797.149658,0.747760
-471.130371,395.874023,795.684814,0.748496
-469.665527,400.817871,794.036865,0.749236
-475.799561,398.437500,799.896240,0.749974
-471.221924,393.859863,799.072266,0.750712
-473.236084,396.423340,802.825928,0.751451
-475.616455,402.832031,802.551270,0.752189
-471.405029,399.353027,808.135986,0.752926
-468.109131,395.416260,811.431885,0.753666
-471.405029,395.690918,810.150146,0.754408
-457.122803,393.310547,811.523438,0.755148
-455.474854,389.739990,807.037354,0.755887
-460.693359,398.071289,809.143066,0.756626
-465.087891,398.162842,800.354004,0.757368
-457.580566,395.782471,802.459717,0.758107
-462.982178,389.373779,796.875000,0.758846
-458.404541,383.972168,800.811768,0.759588
-452.819824,380.676270,792.114258,0.760327
-451.812744,381.774902,794.128418,0.761066
-450.897217,377.838135,793.579102,0.761804
-449.066162,394.683838,795.135498,0.762543
-451.446533,375.823975,790.466309,0.763279
-457.397461,378.479004,795.043945,0.764015
-449.249268,374.725342,792.938232,0.764756
-451.263428,369.049072,791.198730,0.765495
-455.749512,368.774414,794.403076,0.766234
-447.418213,374.542236,806.488037,0.766973
-451.263428,380.676270,792.938232,0.767714
-447.692871,377.838135,790.649414,0.768452
-449.523926,373.535156,798.431396,0.769191
-450.897217,375.732422,802.185059,0.769930
-453.002930,371.337891,800.628662,0.770668
-451.263428,372.711182,790.557861,0.771407
-450.988770,376.464844,793.579102,0.772145
-449.798584,381.408691,796.234131,0.772883
-451.721191,376.464844,791.381836,0.773618
-459.960938,375.457764,798.431396,0.774396
-452.728271,374.908447,794.311523,0.775134
-456.024170,352.752686,793.395996,0.775873
-458.038330,375.457764,794.311523,0.776611
-460.784912,376.464844,794.494629,0.777349
-463.348389,369.506836,794.036865,0.778090
-469.848633,368.499756,795.227051,0.778830
-464.538574,375.183105,796.325684,0.779569
-461.883545,371.704102,797.973633,0.780308
-467.010498,377.380371,798.889160,0.781047
-470.031738,385.345459,805.480957,0.781783
-474.792480,383.148193,799.713135,0.782530
-481.475830,378.295898,790.924072,0.783267
-484.863281,372.161865,795.135498,0.784002
-485.412598,374.450684,788.085938,0.784740
-487.243652,380.584717,792.022705,0.785492
-487.060547,377.929688,785.339355,0.786231
-480.102539,377.563477,785.522461,0.786966
-486.511230,382.049561,778.198242,0.787701
-484.588623,377.380371,787.445068,0.788445
-497.497559,381.134033,789.825439,0.789182
-496.215820,387.451172,794.860840,0.789917
-488.159180,387.725830,791.564941,0.790657
-489.624023,396.240234,789.459229,0.791391
-497.131348,388.458252,788.360596,0.792126
-500.976562,390.747070,787.811279,0.792861
-499.694824,395.690918,791.931152,0.793598
-497.131348,393.493652,792.755127,0.794332
-503.906250,404.388428,788.635254,0.795077
-506.927490,404.663086,797.973633,0.795816
-497.955322,407.135010,784.515381,0.796555
-502.258301,409.057617,793.121338,0.797292
-498.046875,405.487061,786.071777,0.798030
-508.941650,407.135010,782.867432,0.798773
-500.061035,411.346436,785.614014,0.799510
-498.504639,411.804199,782.958984,0.800248
-498.138428,406.402588,787.353516,0.800987
-491.546631,416.931152,795.227051,0.801725
-490.631104,413.818359,789.733887,0.802463
-483.123779,418.395996,792.297363,0.803201
-490.356445,414.367676,797.241211,0.803942
-487.152100,419.128418,800.628662,0.804680
-485.961914,416.107178,793.670654,0.805418
-481.933594,420.959473,798.156738,0.806157
-481.475830,415.374756,797.515869,0.806895
-479.644775,423.614502,796.051025,0.807633
-478.912354,398.986816,801.177979,0.808370
-466.461182,422.973633,777.008057,0.809113
-465.911865,416.748047,797.790527,0.809851
-467.193604,418.579102,793.304443,0.810590
-463.806152,417.572021,789.825439,0.811328
-464.172363,410.339355,791.473389,0.812066
-467.926025,406.951904,788.452148,0.812804
-464.538574,404.571533,791.290283,0.813542
-468.750000,412.628174,798.156738,0.814284
-461.700439,411.529541,792.388916,0.815021
-465.637207,410.430908,796.966553,0.815760
-465.270996,402.008057,795.410156,0.816498
-457.946777,400.909424,797.790527,0.817239
-459.686279,399.261475,790.924072,0.817977
-455.017090,399.169922,789.642334,0.818715
-457.305908,414.367676,790.557861,0.819456
-458.312988,398.437500,792.663574,0.820194
-467.010498,401.367188,796.325684,0.820932
-462.707520,400.817871,795.043945,0.821671
-462.341309,407.226562,799.621582,0.822412
-467.285156,406.768799,807.128906,0.823150
-465.087891,409.423828,810.516357,0.823888
-490.081787,406.860352,809.783936,0.824626
-463.165283,406.219482,811.981201,0.825364
-470.855713,405.029297,817.565918,0.826102
-468.475342,393.310547,817.840576,0.826840
-476.440430,398.895264,811.981201,0.827581
-474.151611,401.367188,808.319092,0.828319
-472.320557,395.507812,801.818848,0.829056
-470.123291,388.458252,797.973633,0.829795
-457.672119,389.282227,818.939209,0.830533
-460.876465,384.704590,793.670654,0.831271
-458.312988,389.923096,787.078857,0.832009
-464.355469,378.845215,787.353516,0.832750
-461.975098,377.655029,787.628174,0.833487
-461.700439,376.281738,790.100098,0.834226
-469.757080,383.697510,790.100098,0.834963
-465.087891,378.112793,797.790527,0.835702
-467.834473,382.598877,787.261963,0.836439
-473.327637,388.641357,788.085938,0.837177
-468.658447,392.028809,797.332764,0.837918
-481.567383,390.380859,794.128418,0.838656
-476.440430,396.331787,790.832520,0.839393
-483.306885,399.444580,793.395996,0.840132
-479.553223,397.796631,795.593262,0.840870
-481.750488,398.803711,794.311523,0.841607
-481.750488,396.881104,801.910400,0.842346
-485.595703,402.923584,799.163818,0.843086
-488.159180,402.282715,797.790527,0.843823
-480.377197,404.663086,796.783447,0.844594
-484.680176,397.613525,798.156738,0.845331
-489.532471,396.240234,797.790527,0.846072
-496.490479,396.331787,799.530029,0.846810
-488.067627,398.345947,773.986816,0.847547
-494.293213,396.972656,790.924072,0.848287
-481.658936,399.536133,794.860840,0.849026
-482.757568,391.387939,794.677734,0.849764
-475.341797,394.958496,800.445557,0.850501
-466.918945,393.402100,800.445557,0.851242
-470.489502,389.190674,806.213379,0.851980
-466.369629,382.598877,800.170898,0.852717
-468.017578,383.697510,806.579590,0.853455
-487.426758,386.901855,806.030273,0.854193
-465.820312,387.451172,810.424805,0.854931
-468.750000,380.218506,801.361084,0.855690
-474.700928,386.993408,804.016113,0.856440
-471.130371,380.767822,797.058105,0.857179
-462.615967,371.246338,792.114258,0.857917
-460.601807,375.640869,786.804199,0.858655
-460.510254,374.084473,781.951904,0.859393
-459.136963,376.464844,776.184082,0.860130
-462.249756,377.655029,785.888672,0.860876
-454.467773,374.542236,777.923584,0.861617
-454.833984,383.422852,778.289795,0.862352
-449.066162,386.444092,788.085938,0.863087
-453.186035,384.429932,788.726807,0.863825
-461.425781,388.549805,795.043945,0.864561
-464.630127,389.831543,795.501709,0.865295
-461.975098,383.697510,795.867920,0.866032
-458.129883,393.310547,799.530029,0.866771
-457.305908,392.211914,800.445557,0.867505
-453.460693,378.479004,805.572510,0.868241
-457.397461,395.233154,791.564941,0.868976
-443.389893,395.233154,802.276611,0.869711
-448.242188,401.916504,793.762207,0.870445
-466.186523,395.599365,783.874512,0.871180
-439.910889,375.640869,791.198730,0.871918
-441.833496,410.797119,795.227051,0.872652
-446.411133,402.099609,786.529541,0.873386
-442.657471,411.804199,795.227051,0.874121
-466.827393,407.684326,789.642334,0.874860
-445.587158,402.008057,797.332764,0.875595
-447.052002,405.578613,802.459717,0.876330
-448.242188,410.797119,809.692383,0.877080
-449.523926,409.698486,802.642822,0.877819
-450.073242,408.691406,796.234131,0.878554
-444.030762,413.543701,799.072266,0.879290
-445.220947,416.748047,798.065186,0.880029
-442.016602,405.487061,798.339844,0.880764
-438.537598,414.276123,798.706055,0.881498
-428.192139,409.515381,798.339844,0.882234
-427.551270,409.332275,798.248291,0.882969
-420.410156,407.684326,798.339844,0.883703
-423.797607,404.479980,796.600342,0.884438
-428.924561,404.571533,794.769287,0.885175
-427.459717,401.458740,809.600830,0.885909
-427.917480,403.106689,811.523438,0.886644
-425.903320,420.410156,808.227539,0.887379
-424.530029,406.311035,799.072266,0.888113
-428.924561,406.494141,810.150146,0.888848
-424.438477,396.789551,803.649902,0.889584
-400.634766,398.620605,802.276611,0.890321
-424.804688,392.944336,801.544189,0.891057
-420.684814,388.916016,796.966553,0.891791
-420.959473,383.331299,800.079346,0.892526
-417.572021,379.760742,797.241211,0.893264
-421.234131,378.936768,784.973145,0.894000
-425.811768,374.267578,790.191650,0.894735
-427.734375,371.337891,789.825439,0.895470
-431.304932,369.140625,788.726807,0.896205
-432.128906,370.697021,787.628174,0.896940
-442.016602,376.098633,787.628174,0.897675
-442.291260,378.753662,787.353516,0.898412
-447.418213,369.140625,784.057617,0.899147
-440.368652,359.619141,786.804199,0.899881
-436.981201,368.682861,797.790527,0.900616
-444.671631,360.992432,778.198242,0.901352
-467.376709,374.084473,783.782959,0.902086
-449.798584,367.584229,780.029297,0.902821
-457.489014,363.555908,778.472900,0.903568
-447.967529,373.168945,788.452148,0.904304
-451.812744,375.457764,783.233643,0.905039
-454.193115,370.513916,783.142090,0.905775
-451.721191,376.190186,789.184570,0.906510
-462.432861,378.570557,789.550781,0.907244
-472.412109,382.049561,790.100098,0.907979
-465.637207,386.444092,796.142578,0.908719
-471.954346,386.260986,802.093506,0.909453
-477.447510,386.810303,805.480957,0.910188
-467.926025,390.563965,800.811768,0.910923
-476.074219,405.212402,800.628662,0.911661
-475.433350,402.282715,792.663574,0.912396
-478.912354,411.529541,798.614502,0.913131
-475.708008,405.303955,800.811768,0.913882
-473.052979,408.966064,799.896240,0.914669
-467.926025,412.536621,795.593262,0.915409
-475.891113,411.529541,816.101074,0.916147
-476.074219,418.762207,807.495117,0.916890
-469.757080,418.762207,805.114746,0.917629
-474.884033,413.452148,808.868408,0.918365
-476.989746,418.121338,804.473877,0.919100
-476.989746,409.423828,804.656982,0.919835
-479.461670,411.254883,804.931641,0.920569
-480.377197,411.346436,800.628662,0.921304
-476.898193,409.515381,789.184570,0.922049
-475.982666,408.508301,795.684814,0.922783
-477.081299,408.508301,787.261963,0.923518
-461.059570,415.283203,774.353027,0.924253
-466.552734,404.663086,782.867432,0.924986
-470.764160,407.592773,790.740967,0.925718
-468.750000,401.916504,783.966064,0.926470
-472.961426,404.479980,784.606934,0.927218
-474.243164,400.085449,787.811279,0.927957
-474.060059,403.747559,787.261963,0.928695
-477.905273,406.036377,791.839600,0.929435
-471.679688,404.205322,794.311523,0.930174
-467.102051,396.881104,784.332275,0.930913
-466.735840,406.585693,791.381836,0.931651
-462.615967,404.205322,790.557861,0.932393
-460.968018,401.916504,790.100098,0.933131
-450.256348,406.036377,786.804199,0.933870
-457.763672,393.127441,791.931152,0.934609
-452.819824,387.176514,788.543701,0.935347
-451.904297,389.282227,785.339355,0.936085
-447.784424,394.500732,790.924072,0.936822
-454.284668,389.739990,785.980225,0.937563
-453.643799,396.240234,794.219971,0.938302
-451.080322,395.782471,799.804688,0.939040
-468.658447,395.324707,805.023193,0.939778
-448.425293,402.465820,800.445557,0.940519
-450.805664,402.923584,797.058105,0.941257
-440.826416,393.768311,796.234131,0.941995
-437.164307,397.521973,801.635742,0.942736
-440.917969,403.289795,800.720215,0.943475
-438.446045,402.557373,807.769775,0.944213
-430.206299,404.479980,802.825928,0.944951
-437.072754,401.000977,802.001953,0.945692
-433.410645,394.683838,805.755615,0.946431
-432.678223,400.360107,805.297852,0.947171
-432.952881,402.465820,803.192139,0.947909
-432.220459,394.042969,805.023193,0.948647
-435.424805,394.775391,796.966553,0.949385
-430.480957,389.923096,796.875000,0.950124
-422.790527,385.162354,787.811279,0.950865
-418.762207,388.458252,800.811768,0.951603
-425.720215,389.739990,799.896240,0.952340
-417.022705,387.084961,799.896240,0.953081
-419.860840,378.295898,796.783447,0.953820
-427.001953,377.014160,793.579102,0.954558
-422.515869,386.627197,800.537109,0.955295
-430.389404,377.105713,787.353516,0.956035
-435.424805,380.218506,792.022705,0.956773
-430.847168,377.288818,788.543701,0.957511
-423.614502,384.521484,782.501221,0.958250
-417.205811,379.028320,781.127930,0.958989
-420.318604,379.028320,787.261963,0.959726
-420.318604,384.429932,792.480469,0.960465
-422.424316,386.535645,788.543701,0.961207
-416.015625,388.183594,797.515869,0.961945
-414.093018,385.711670,811.431885,0.962684
-416.748047,390.472412,796.508789,0.963422
-419.311523,392.395020,810.058594,0.964160
-420.410156,389.831543,798.248291,0.964899
-420.501709,389.282227,805.480957,0.965636
-414.276123,389.465332,795.410156,0.966377
-418.945312,390.380859,799.896240,0.967115
-425.445557,394.592285,797.790527,0.967853
-427.276611,396.881104,800.628662,0.968590
-429.840088,394.226074,802.001953,0.969329
-432.312012,420.135498,799.621582,0.970067
-430.297852,395.782471,795.776367,0.970806
-442.657471,389.831543,796.783447,0.971546
-441.192627,394.317627,795.593262,0.972284
-450.347900,389.556885,785.797119,0.973022
-445.220947,394.409180,796.051025,0.973760
-442.199707,389.556885,793.212891,0.974501
-437.622070,384.887695,790.191650,0.975239
-436.889648,400.543213,798.706055,0.975977
-442.199707,386.444092,794.036865,0.976715
-447.235107,389.099121,795.318604,0.977453
-448.242188,394.592285,792.846680,0.978190
-440.460205,391.845703,786.529541,0.978928
-445.770264,384.521484,792.755127,0.979669
-446.228027,394.226074,792.663574,0.980407
-439.361572,394.866943,794.036865,0.981146
-425.537109,392.028809,795.135498,0.981884
-443.298340,393.035889,788.543701,0.982621
-443.939209,395.874023,791.656494,0.983360
-441.833496,397.979736,791.381836,0.984098
-445.861816,400.634766,787.170410,0.984839
-453.643799,400.360107,787.170410,0.985610
-452.819824,407.501221,792.572021,0.986348
-455.932617,413.269043,796.966553,0.987090
-456.115723,410.339355,799.163818,0.987828
-458.770752,415.466309,807.952881,0.988566
-458.679199,415.374756,804.016113,0.989304
-459.869385,419.219971,795.043945,0.990043
-457.397461,418.212891,803.283691,0.990780
-463.165283,398.620605,798.980713,0.991519
-464.355469,415.374756,817.749023,0.992265
-471.496582,420.410156,799.621582,0.993005
-463.439941,419.586182,796.508789,0.993743
-462.341309,421.600342,796.051025,0.994481
-487.609863,420.135498,794.677734,0.995223
-469.299316,417.114258,789.825439,0.995961
-466.827393,416.107178,783.691406,0.996702
-469.024658,425.445557,790.191650,0.997446
-463.531494,425.354004,792.480469,0.998185
-476.348877,418.395996,792.480469,0.998920
-476.074219,420.959473,798.065186,0.999656
-482.299805,426.361084,795.959473,1.000395
-478.088379,416.656494,790.283203,1.001130
-484.222412,419.769287,793.212891,1.001865
-488.067627,416.473389,792.572021,1.002599
-488.891602,417.205811,787.902832,1.003337
-481.658936,411.163330,795.227051,1.004072
-477.905273,417.388916,791.381836,1.004807
-481.567383,409.881592,786.895752,1.005541
-480.834961,402.740479,786.529541,1.006276
-478.637695,402.923584,777.099609,1.007011
-478.088379,410.797119,778.564453,1.007745
-474.151611,406.860352,778.015137,1.008483
-471.679688,394.317627,781.585693,1.009218
-474.243164,400.268555,784.790039,1.009953
-471.313477,394.866943,789.825439,1.010687
-473.876953,375.366211,789.916992,1.011422
-468.383789,398.162842,818.572998,1.012157
-472.412109,390.106201,787.445068,1.012892
-474.884033,397.430420,784.606934,1.013650
-473.693848,390.014648,792.297363,1.014388
-476.989746,380.676270,793.029785,1.015123
-475.708008,376.098633,781.219482,1.015857
-474.426270,388.366699,785.247803,1.016593
-467.559814,390.472412,782.592773,1.017327
-467.102051,384.704590,778.747559,1.018069
-465.362549,392.761230,788.177490,1.018812
-460.968018,392.395020,788.726807,1.019546
-472.412109,387.268066,781.677246,1.020281
-470.214844,394.409180,790.740967,1.021016
-470.306396,401.367188,792.938232,1.021752
-480.377197,399.902344,798.614502,1.022486
-479.187012,400.909424,794.494629,1.023221
-479.827881,406.402588,791.656494,1.023955
-479.095459,407.684326,789.642334,1.024689
-482.757568,410.614014,799.987793,1.025422
-474.060059,409.973145,795.410156,1.026157
-475.982666,410.247803,799.346924,1.026910
-471.771240,409.149170,793.670654,1.027645
-469.299316,423.889160,797.882080,1.028377
-471.679688,420.043945,791.198730,1.029112
-476.348877,412.536621,793.670654,1.029848
-482.482910,421.234131,793.487549,1.030582
-467.834473,412.261963,792.205811,1.031317
-476.806641,410.522461,775.085449,1.032065
-475.341797,418.762207,794.311523,1.032801
-479.003906,417.022705,791.473389,1.033536
-477.905273,410.522461,789.184570,1.034274
-475.158691,409.515381,786.621094,1.035009
-468.841553,415.832520,790.008545,1.035744
-472.045898,408.416748,790.100098,1.036479
-465.270996,408.142090,785.339355,1.037227
-468.566895,401.458740,783.966064,1.037962
-463.531494,411.621094,783.142090,1.038696
-461.608887,408.325195,759.887695,1.039429
-449.523926,409.240723,786.071777,1.040176
-452.636719,400.085449,782.043457,1.040911
-451.263428,399.353027,777.008057,1.041647
-455.474854,389.373779,782.135010,1.042382
-453.735352,392.120361,774.444580,1.043117
-457.672119,385.894775,774.078369,1.043852
-451.721191,398.712158,772.705078,1.044587
-447.601318,395.050049,773.803711,1.045324
-448.699951,392.028809,771.697998,1.046059
-442.749023,394.134521,774.902344,1.046793
-441.192627,399.902344,772.521973,1.047528
-443.481445,396.881104,787.811279,1.048262
-440.368652,396.240234,774.353027,1.048997
-431.945801,403.106689,785.888672,1.049732
-433.868408,379.669189,787.536621,1.050469
-434.967041,394.683838,819.030762,1.051203
-423.706055,390.289307,801.635742,1.051938
-416.931152,396.972656,813.354492,1.052674
-420.318604,398.254395,810.791016,1.053409
-429.473877,419.494629,792.572021,1.054143
-437.530518,406.219482,792.297363,1.054878
-448.333740,397.155762,784.698486,1.055656
-455.017090,392.852783,777.648926,1.056393
-463.623047,389.007568,777.191162,1.057127
-464.996338,392.669678,778.747559,1.057863
-454.742432,399.810791,783.508301,1.058612
-455.017090,392.761230,786.346436,1.059349
-455.474854,399.810791,789.276123,1.060084
-453.918457,402.557373,793.762207,1.060824
-454.376221,399.536133,793.212891,1.061559
-452.545166,405.578613,794.769287,1.062293
-462.707520,405.029297,789.550781,1.063028
-465.911865,399.078369,786.712646,1.063765
-475.067139,399.169922,777.832031,1.064500
-471.221924,409.698486,781.951904,1.065235
-473.602295,413.635254,780.303955,1.065970
-464.813232,404.846191,780.670166,1.066705
-470.672607,404.937744,783.874512,1.067453
-474.700928,412.170410,784.698486,1.068191
-479.370117,416.015625,782.775879,1.068947
-480.102539,410.156250,783.966064,1.069688
-484.588623,404.388428,777.191162,1.070425
-487.976074,413.909912,775.451660,1.071161
-485.870361,416.748047,770.507812,1.071895
-477.630615,415.191650,772.979736,1.072648
-482.849121,413.543701,779.022217,1.073407
-474.426270,419.952393,787.628174,1.074151
-469.482422,416.748047,784.240723,1.074888
-475.708008,411.529541,780.853271,1.075626
-478.454590,414.733887,783.599854,1.076368
-480.377197,411.254883,774.902344,1.077106
-479.644775,414.367676,778.839111,1.077844
-478.912354,410.064697,780.029297,1.078582
-483.581543,407.318115,780.670166,1.079323
-475.341797,418.853760,791.473389,1.080060
-469.482422,418.395996,818.023682,1.080810
-460.144043,398.712158,795.410156,1.081553
-460.693359,419.494629,805.480957,1.082290
-455.017090,418.762207,806.121826,1.083026
-467.102051,419.494629,802.001953,1.083762
-463.806152,421.508789,794.036865,1.084497
-467.010498,414.276123,793.487549,1.085233
-458.038330,419.219971,791.656494,1.085967
-459.960938,422.515869,793.579102,1.086706
-464.263916,422.882080,795.135498,1.087458
-463.989258,422.424316,794.586182,1.088199
-460.693359,417.022705,798.339844,1.088935
-450.256348,419.860840,798.156738,1.089669
-460.052490,421.417236,802.276611,1.090402
-453.277588,419.311523,799.987793,1.091135
-455.017090,421.142578,798.156738,1.091896
-454.010010,417.297363,794.219971,1.092633
-469.573975,412.353516,793.304443,1.093368
-460.876465,402.465820,784.698486,1.094103
-456.573486,404.754639,790.832520,1.094846
-463.073730,410.064697,787.445068,1.095581
-457.672119,404.113770,794.677734,1.096316
-445.312500,409.057617,793.945312,1.097054
-451.080322,409.057617,801.635742,1.097789
-455.108643,403.839111,796.600342,1.098524
-450.988770,406.127930,792.846680,1.099259
-449.432373,398.895264,783.966064,1.100010
-454.650879,404.205322,785.064697,1.100750
-454.376221,377.197266,781.585693,1.101488
-455.474854,386.627197,773.620605,1.102226
-456.024170,393.127441,783.599854,1.102963
-451.904297,385.070801,782.318115,1.103701
-445.861816,388.732910,788.360596,1.104439
-444.488525,385.894775,787.445068,1.105182
-439.270020,383.972168,786.437988,1.105919
-444.396973,391.479492,789.093018,1.106658
-445.770264,388.275146,784.057617,1.107395
-449.523926,383.239746,790.374756,1.108133
-447.784424,385.437012,785.614014,1.108874
-446.685791,378.295898,786.621094,1.109613
-449.157715,382.232666,776.733398,1.110357
-449.249268,381.774902,780.212402,1.111096
-444.213867,386.810303,779.846191,1.111834
-442.749023,382.781982,778.656006,1.112573
-438.629150,379.394531,781.036377,1.113310
-440.917969,380.676270,775.909424,1.114049
-446.136475,375.640869,767.852783,1.114786
-449.066162,371.978760,763.275146,1.115528
-438.629150,372.528076,764.831543,1.116266
-441.101074,370.880127,758.605957,1.117004
-446.502686,370.605469,753.662109,1.117742
-449.432373,377.014160,756.134033,1.118481
-448.791504,375.457764,760.345459,1.119219
-451.629639,379.760742,763.549805,1.119958
-447.601318,383.789062,771.331787,1.120700
-446.411133,383.514404,773.437500,1.121439
-451.354980,382.415771,777.191162,1.122177
-445.220947,389.923096,777.465820,1.122915
-438.262939,386.993408,779.663086,1.123657
-456.024170,392.395020,784.149170,1.124395
-454.101562,395.141602,782.867432,1.125133
-464.630127,395.233154,778.198242,1.125917
-459.320068,399.078369,780.670166,1.126660
-458.312988,401.000977,780.395508,1.127414
-468.017578,407.867432,783.325195,1.128155
-467.376709,406.127930,779.296875,1.128893
-463.989258,405.120850,787.353516,1.129630
-463.531494,407.867432,792.205811,1.130368
-468.200684,408.782959,776.916504,1.131111
-469.390869,409.698486,785.339355,1.131849
-469.482422,414.276123,780.670166,1.132587
-471.221924,411.529541,785.430908,1.133325
-472.320557,407.775879,784.423828,1.134062
-469.757080,407.958984,784.057617,1.134800
-472.778320,415.191650,785.614014,1.135537
-472.961426,421.234131,792.572021,1.136277
-465.179443,417.663574,790.008545,1.137019
-463.623047,426.269531,795.959473,1.137758
-458.038330,423.431396,799.621582,1.138502
-461.975098,427.917480,818.572998,1.139247
-455.017090,428.375244,800.811768,1.139986
-451.721191,421.508789,795.501709,1.140723
-460.876465,417.663574,790.100098,1.141467
-451.354980,418.121338,789.001465,1.142205
-448.150635,413.543701,790.740967,1.142943
-439.453125,421.783447,793.395996,1.143681
-433.135986,413.085938,793.304443,1.144422
-424.072266,410.980225,795.867920,1.145159
-401.184082,410.430908,798.065186,1.145898
-414.825439,417.846680,794.128418,1.146637
-414.550781,406.768799,796.417236,1.147374
-421.325684,402.374268,784.057617,1.148116
-416.198730,399.261475,785.247803,1.148860
-412.078857,397.338867,787.536621,1.149605
-407.043457,394.409180,782.684326,1.150344
-402.740479,394.042969,780.120850,1.151083
-394.775391,390.197754,787.170410,1.151825
-398.071289,396.057129,785.430908,1.152563
-390.014648,400.085449,784.057617,1.153301
-383.056641,406.677246,790.924072,1.154038
-380.401611,403.747559,796.691895,1.154777
-379.669189,404.754639,806.762695,1.155515
-373.626709,407.409668,780.761719,1.156253
-383.056641,406.768799,793.670654,1.156990
-378.387451,405.670166,800.262451,1.157727
-383.239746,404.113770,800.720215,1.158472
-383.880615,408.966064,806.396484,1.159210
-381.042480,404.663086,797.424316,1.159949
-384.246826,404.022217,818.664551,1.160684
-386.901855,405.487061,801.727295,1.161419
-379.302979,408.325195,791.473389,1.162153
-388.641357,406.951904,792.022705,1.162888
-393.768311,410.156250,794.219971,1.163622
-385.437012,415.008545,815.917969,1.164357
-406.219482,414.184570,792.114258,1.165094
-408.233643,409.973145,793.304443,1.165828
-409.698486,407.867432,797.424316,1.166563
-413.543701,416.839600,792.205811,1.167298
-430.938721,416.656494,818.481445,1.168033
-430.023193,419.494629,802.825928,1.168768
-434.417725,419.311523,795.410156,1.169502
-443.664551,420.959473,791.381836,1.170239
-449.523926,417.755127,784.332275,1.170974
-449.523926,417.663574,794.403076,1.171708
-454.650879,416.198730,788.177490,1.172443
-457.214355,420.501709,785.064697,1.173180
-460.784912,422.058105,784.332275,1.173915
-460.876465,415.924072,791.381836,1.174649
-470.672607,419.494629,786.437988,1.175385
-475.158691,409.973145,789.825439,1.176119
-471.313477,411.987305,787.170410,1.176854
-477.905273,416.290283,787.353516,1.177590
-484.313965,414.642334,791.839600,1.178327
-488.616943,416.564941,785.522461,1.179068
-498.046875,423.706055,788.635254,1.179805
-499.786377,422.149658,788.543701,1.180540
-501.251221,413.085938,786.987305,1.181275
-498.046875,409.606934,786.071777,1.182010
-499.969482,410.156250,782.775879,1.182746
-499.603271,406.585693,776.733398,1.183499
-505.096436,416.381836,778.564453,1.184236
-495.483398,401.824951,771.789551,1.184970
-496.215820,400.726318,768.310547,1.185706
-487.609863,400.177002,766.204834,1.186440
-480.285645,375.091553,764.923096,1.187173
-483.764648,398.162842,764.465332,1.187908
-482.391357,390.380859,754.302979,1.188651
-476.348877,390.380859,752.288818,1.189385
-477.722168,387.268066,754.119873,1.190120
-467.926025,395.599365,761.169434,1.190855
-458.679199,396.148682,757.690430,1.191593
-449.066162,386.810303,754.394531,1.192328
-459.686279,377.197266,762.176514,1.193062
-457.214355,379.119873,747.528076,1.193797
-454.833984,381.408691,733.245850,1.194532
-455.291748,372.985840,720.794678,1.195267
-454.101562,364.105225,718.048096,1.196039
-463.348389,353.027344,703.125000,1.196778
-449.249268,353.210449,698.638916,1.197513
-450.805664,350.463867,693.237305,1.198248
-432.769775,328.674316,695.892334,1.198983
-428.375244,350.280762,698.547363,1.199724
-416.656494,358.428955,703.765869,1.200461
-417.846680,351.837158,716.857910,1.201195
-417.846680,351.104736,716.766357,1.201941
-412.353516,348.541260,726.013184,1.202681
-416.198730,351.562500,730.133057,1.203418
-424.072266,345.611572,730.957031,1.204156
-431.121826,361.999512,736.267090,1.204894
-431.488037,362.915039,736.267090,1.205632
-419.860840,363.647461,748.443604,1.206393
-409.332275,364.746094,768.768311,1.207133
-404.388428,365.661621,764.923096,1.207870
-401.367188,365.936279,756.317139,1.208605
-400.726318,371.978760,752.105713,1.209346
-401.367188,365.020752,756.958008,1.210081
-402.282715,367.858887,747.985840,1.210817
-398.437500,364.013672,756.317139,1.211552
-401.000977,394.409180,758.422852,1.212288
-402.282715,381.683350,767.578125,1.213025
-391.021729,373.626709,770.324707,1.213761
-385.070801,372.528076,781.768799,1.214502
-388.000488,380.950928,787.902832,1.215239
-387.084961,382.049561,801.452637,1.215974
-386.993408,385.345459,803.833008,1.216710
-386.718750,389.465332,800.811768,1.217445
-400.817871,390.289307,796.325684,1.218180
-390.655518,391.113281,797.698975,1.218915
-387.817383,388.641357,808.502197,1.219652
-387.176514,390.563965,809.326172,1.220387
-382.232666,390.289307,802.825928,1.221121
-378.845215,389.373779,811.065674,1.221856
-377.014160,395.324707,806.030273,1.222594
-380.676270,384.063721,810.424805,1.223328
-380.767822,391.113281,813.171387,1.224063
-385.070801,382.324219,808.135986,1.224799
-395.141602,378.204346,803.466797,1.225533
-390.014648,378.479004,802.185059,1.226268
-375.640869,385.345459,805.938721,1.227003
-397.613525,379.943848,803.558350,1.227739
-397.521973,383.148193,805.847168,1.228477
-392.120361,385.437012,813.629150,1.229212
-400.634766,389.556885,805.572510,1.229948
-401.275635,395.874023,807.312012,1.230683
-410.156250,382.965088,802.093506,1.231418
-418.670654,401.367188,777.099609,1.232153
-429.382324,398.986816,795.867920,1.232890
-437.255859,398.162842,791.198730,1.233625
-450.805664,393.676758,794.311523,1.234359
-450.073242,392.028809,795.959473,1.235095
-451.538086,393.402100,801.727295,1.235833
-452.911377,393.676758,808.959961,1.236568
-453.918457,395.141602,805.664062,1.237302
-457.214355,389.739990,809.967041,1.238040
-458.953857,387.451172,801.361084,1.238775
-458.038330,387.176514,799.804688,1.239510
-458.587646,379.943848,800.720215,1.240245
-451.995850,382.415771,792.572021,1.240981
-457.580566,373.077393,784.423828,1.241716
-449.066162,371.154785,777.648926,1.242451
-451.354980,371.246338,770.965576,1.243185
-448.699951,358.978271,751.190186,1.243920
-448.608398,371.337891,777.099609,1.244654
-442.474365,364.837646,768.035889,1.245389
-441.925049,365.386963,763.366699,1.246127
-450.531006,359.344482,756.774902,1.246862
-447.326660,358.886719,729.492188,1.247596
-445.312500,374.084473,746.063232,1.248331
-452.636719,373.077393,745.330811,1.249066
-454.101562,375.549316,738.098145,1.249800
-444.671631,353.668213,738.189697,1.250535
-450.897217,375.549316,743.133545,1.251272
-448.974609,382.507324,744.232178,1.252007
-445.037842,387.542725,749.084473,1.252741
-436.614990,390.197754,747.985840,1.253476
-440.826416,395.599365,749.725342,1.254214
-437.438965,392.120361,744.781494,1.254949
-443.115234,402.923584,742.767334,1.255684
-442.657471,391.204834,744.140625,1.256418
-431.488037,392.303467,742.858887,1.257153
-433.410645,396.057129,747.070312,1.257887
-433.410645,403.106689,742.401123,1.258622
-429.016113,398.803711,745.880127,1.259359
-427.185059,391.571045,739.562988,1.260094
-415.740967,395.874023,725.372314,1.260828
-417.297363,393.951416,727.935791,1.261562
-418.395996,421.234131,722.442627,1.262298
-416.931152,398.345947,724.365234,1.263032
-417.022705,395.233154,714.569092,1.263767
-410.156250,402.465820,711.547852,1.264504
-408.874512,393.402100,717.315674,1.265238
-411.804199,395.233154,724.182129,1.265973
-408.416748,394.226074,725.280762,1.266764
-409.332275,394.042969,724.090576,1.267501
-406.127930,403.015137,723.907471,1.268237
-399.810791,409.881592,728.118896,1.268973
-401.275635,407.775879,727.203369,1.269725
-396.514893,407.409668,722.534180,1.270465
-398.345947,407.501221,716.125488,1.271201
-391.021729,417.938232,714.294434,1.271937
-396.148682,424.163818,724.731445,1.272673
-392.578125,425.445557,723.724365,1.273409
-391.845703,427.185059,722.167969,1.274144
-386.810303,429.382324,722.717285,1.274896
-386.444092,431.304932,715.301514,1.275632
-384.796143,431.030273,726.470947,1.276367
-389.556885,437.164307,732.421875,1.277102
-382.232666,443.939209,732.330322,1.277860
-388.641357,446.319580,740.936279,1.278601
-395.507812,445.037842,746.063232,1.279340
-388.824463,447.052002,742.126465,1.280083
-386.260986,434.875488,738.830566,1.280821
-387.542725,444.580078,758.789062,1.281560
-384.155273,438.079834,749.816895,1.282300
-383.880615,437.988281,757.415771,1.283041
-390.014648,437.072754,760.803223,1.283779
-388.458252,429.016113,760.345459,1.284527
-386.077881,429.199219,752.288818,1.285272
-383.239746,425.079346,753.936768,1.286010
-372.711182,425.903320,757.049561,1.286748
-375.823975,422.515869,764.831543,1.287486
-368.316650,414.550781,773.620605,1.288227
-376.373291,413.818359,762.725830,1.288965
-361.358643,402.648926,774.810791,1.289703
-366.851807,391.387939,762.084961,1.290441
-364.837646,388.366699,760.894775,1.291179
-364.929199,377.838135,754.028320,1.291917
-359.893799,352.020264,767.120361,1.292655
-354.675293,369.323730,759.155273,1.293396
-357.330322,361.541748,760.253906,1.294135
-347.991943,354.675293,761.444092,1.294873
-351.287842,354.125977,755.493164,1.295610
-360.900879,354.125977,726.104736,1.296349
-378.021240,328.857422,708.251953,1.297087
-395.965576,321.166992,701.293945,1.297825
-400.909424,316.955566,702.484131,1.298565
-386.901855,310.821533,707.519531,1.299305
-390.380859,308.258057,712.738037,1.300043
-386.077881,310.729980,714.843750,1.300778
-380.767822,302.307129,697.357178,1.301520
-394.958496,307.250977,694.885254,1.302257
-395.141602,281.982422,689.849854,1.302992
-392.852783,305.145264,685.638428,1.303731
-395.324707,290.771484,674.102783,1.304465
-402.648926,297.821045,681.518555,1.305199
-398.071289,288.208008,676.757812,1.305934
-397.705078,286.285400,667.053223,1.306671
-410.614014,284.545898,637.664795,1.307407
-406.402588,276.855469,658.447266,1.308144
-399.261475,275.848389,657.806396,1.308883
-402.282715,268.432617,650.756836,1.309625
-407.958984,275.482178,648.376465,1.310365
-415.740967,269.622803,637.298584,1.311104
-429.290771,262.573242,628.692627,1.311841
-435.516357,262.664795,621.276855,1.312580
-440.917969,258.453369,622.467041,1.313316
-446.411133,247.467041,615.966797,1.314059
-449.798584,241.058350,610.748291,1.314797
-456.207275,243.621826,601.684570,1.315534
-464.447021,237.762451,606.262207,1.316273
-462.982178,236.206055,591.796875,1.317010
-469.573975,227.783203,582.000732,1.317748
-480.468750,227.508545,571.014404,1.318485
-489.715576,224.395752,560.943604,1.319231
-495.025635,211.395264,559.204102,1.319969
-496.032715,218.444824,551.055908,1.320708
-499.511719,215.972900,547.393799,1.321445
-495.483398,228.790283,539.794922,1.322186
-501.434326,216.430664,526.611328,1.322923
-505.187988,213.684082,509.216309,1.323661
-506.103516,219.360352,500.885010,1.324402
-502.807617,227.325439,486.785889,1.325140
-499.694824,218.719482,485.321045,1.325878
-496.673584,232.452393,477.996826,1.326617
-499.237061,231.262207,469.757080,1.327359
-483.489990,239.685059,464.630127,1.328097
-479.736328,245.727539,464.172363,1.328835
-463.531494,247.650146,458.038330,1.329573
-452.819824,259.460449,463.897705,1.330311
-428.192139,260.925293,474.243164,1.331049
-432.769775,258.453369,490.631104,1.331787
-413.726807,265.411377,488.983154,1.332528
-403.747559,275.024414,498.138428,1.333267
-382.232666,277.587891,502.258301,1.334005
-377.746582,284.362793,508.483887,1.334746
-359.985352,292.510986,517.639160,1.335484
-352.294922,298.461914,525.787354,1.336222
-341.674805,302.124023,527.984619,1.336992
-322.631836,315.124512,530.639648,1.337733
-313.568115,331.787109,545.104980,1.338471
-289.672852,340.484619,554.901123,1.339208
-289.031982,343.688965,571.655273,1.339946
-276.763916,353.759766,579.437256,1.340684
-263.488770,369.323730,606.811523,1.341419
-256.805420,371.520996,609.375000,1.342154
-266.876221,387.542725,616.882324,1.342891
-268.341064,386.444092,626.129150,1.343626
-275.848389,402.008057,637.390137,1.344360
-281.250000,414.276123,642.791748,1.345096
-289.031982,430.664062,646.270752,1.345830
-274.658203,455.291748,661.193848,1.346565
-273.651123,460.601807,697.906494,1.347300
-274.108887,457.031250,727.752686,1.348052
-258.178711,458.679199,733.978271,1.348791
-255.432129,478.637695,742.767334,1.349526
-241.973877,485.137939,741.210938,1.350261
-239.776611,507.202148,745.147705,1.351019
-232.086182,523.406982,757.324219,1.351770
-232.360840,519.927979,770.141602,1.352509
-226.959229,514.984131,780.853271,1.353264
-222.564697,513.702393,790.100098,1.354003
-223.388672,509.765625,792.663574,1.354741
-221.557617,484.313965,782.958984,1.355479
-211.578369,473.876953,769.958496,1.356220
-212.768555,473.419189,767.211914,1.356959
-207.733154,466.186523,739.196777,1.357697
-198.852539,467.376709,730.590820,1.358437
-187.225342,461.242676,720.977783,1.359175
-204.345703,430.206299,699.829102,1.359914
-178.436279,451.812744,677.398682,1.360652
-213.043213,438.903809,653.869629,1.361392
-198.028564,433.868408,661.834717,1.362129
-189.697266,425.445557,682.434082,1.362874
-203.521729,428.833008,698.822021,1.363614
-164.886475,407.043457,707.244873,1.364353
-203.613281,393.768311,728.027344,1.365092
-143.554688,382.873535,701.110840,1.365830
-169.555664,369.140625,672.088623,1.366574
-172.668457,333.801270,656.890869,1.367312
-188.873291,348.266602,631.072998,1.368051
-257.995605,328.033447,589.141846,1.368790
-252.044678,319.335938,563.598633,1.369529
-312.286377,290.771484,536.590576,1.370268
-298.736572,323.547363,542.633057,1.371007
-310.363770,328.033447,515.625000,1.371749
-309.997559,319.793701,505.554199,1.372488
-313.018799,290.222168,508.666992,1.373227
-306.610107,260.375977,501.525879,1.373966
-306.335449,262.298584,512.329102,1.374705
-279.052734,267.700195,520.843506,1.375443
-254.425049,249.023438,561.035156,1.376182
-224.670410,245.361328,558.837891,1.376922
-196.289062,240.692139,552.703857,1.377658
-195.190430,242.156982,568.176270,1.378393
-178.985596,246.093750,559.295654,1.379131
-160.949707,237.762451,560.668945,1.379871
-166.992188,241.699219,562.225342,1.380610
-157.379150,255.065918,552.978516,1.381349
-158.477783,256.713867,545.104980,1.382090
-158.203125,264.678955,533.935547,1.382829
-148.223877,269.531250,526.428223,1.383568
-145.477295,292.053223,523.406982,1.384306
-133.941650,308.349609,513.977051,1.385049
-143.096924,327.575684,502.258301,1.385788
-135.131836,344.787598,490.814209,1.386527
-109.222412,388.641357,488.891602,1.387269
-112.060547,427.917480,478.729248,1.388008
-93.566895,448.059082,451.538086,1.388747
-119.110107,501.892090,479.919434,1.389485
-232.910156,567.626953,421.783447,1.390227
-154.815674,588.867188,308.074951,1.390966
-181.640625,553.985596,277.954102,1.391705
-306.518555,546.386719,221.832275,1.392445
-291.412354,577.056885,173.400879,1.393184
-338.562012,598.114014,161.590576,1.393922
-343.139648,606.811523,182.739258,1.394661
-294.342041,627.685547,195.648193,1.395401
-265.136719,639.587402,212.493896,1.396140
-210.205078,715.118408,328.857422,1.396879
-137.329102,739.654541,353.759766,1.397618
7.507324,800.537109,280.242920,1.398356
-231.903076,843.566895,273.101807,1.399095
-113.067627,869.384766,279.052734,1.399834
-56.304932,906.463623,303.497314,1.400575
-173.492432,910.858154,348.083496,1.401313
-153.350830,947.113037,357.788086,1.402052
-83.862305,989.593506,411.346436,1.402791
-171.295166,1015.686035,453.094482,1.403530
-136.596680,1067.871094,479.095459,1.404268
-120.574951,1117.492676,531.188965,1.405007
-166.259766,1141.937256,569.732666,1.405748
-153.991699,1184.509277,591.522217,1.406486
-153.167725,1209.136963,654.052734,1.407259
-194.183350,1245.941162,700.012207,1.407998
-140.716553,1283.386230,759.155273,1.408737
-160.308838,1309.387207,817.474365,1.409476
-177.978516,1309.570312,871.307373,1.410215
-159.759521,1341.796875,892.547607,1.410957
-178.802490,1364.868164,934.295654,1.411696
-191.711426,1382.171631,971.191406,1.412435
-182.464600,1389.678955,1010.925293,1.413175
-202.789307,1396.270752,1039.306641,1.413912
-191.894531,1421.630859,1054.779053,1.414651
-198.852539,1428.222656,1085.723877,1.415390
-217.803955,1443.878174,1116.485596,1.416132
-205.718994,1450.103760,1140.014648,1.416870
-214.508057,1455.688477,1166.198730,1.417609
-233.459473,1453.308105,1182.861328,1.418358
-228.332520,1505.859375,1181.396484,1.419113
-246.002197,1520.782471,1194.854736,1.419860
-246.093750,1508.148193,1218.750000,1.420600
-238.769531,1500.823975,1213.256836,1.421344
-275.665283,1485.351562,1223.236084,1.422095
-224.945068,1379.150391,1274.597168,1.422838
-274.200439,1434.173584,1319.183350,1.423576
-203.430176,1413.757324,1309.387207,1.424312
-184.020996,1367.797852,1307.739258,1.425048
-256.896973,1358.001709,1307.373047,1.425784
-282.073975,1280.822754,1314.788818,1.426524
-250.946045,1227.905273,1305.175781,1.427260
-351.562500,1165.374756,1222.412109,1.427996
-268.798828,1093.963623,1047.821045,1.428732
-425.628662,1016.784668,946.929932,1.429467
-542.083740,1009.460449,773.986816,1.430203
-461.425781,1002.136230,746.520996,1.430939
-526.153564,942.077637,699.188232,1.431677
-411.437988,907.012939,660.736084,1.432413
-422.241211,889.434814,651.672363,1.433149
-460.876465,856.475830,652.221680,1.433884
-392.486572,848.144531,641.967773,1.434619
-421.600342,830.566406,630.523682,1.435355
-372.253418,821.228027,634.277344,1.436091
-369.049072,833.679199,625.762939,1.436829
-347.717285,849.609375,624.755859,1.437565
-319.335938,837.982178,630.249023,1.438301
-288.024902,779.937744,642.059326,1.439037
-247.924805,779.388428,659.637451,1.439804
-192.169189,789.733887,667.510986,1.440545
-159.301758,790.283203,669.982910,1.441283
-110.137939,794.769287,679.321289,1.442024
-84.228516,773.162842,685.363770,1.442759
-40.924072,757.873535,693.145752,1.443494
-13.275146,742.218018,687.194824,1.444228
-14.739990,733.428955,649.200439,1.444966
-23.803711,713.745117,604.339600,1.445702
-29.937744,718.505859,587.951660,1.446436
-52.734375,685.363770,545.562744,1.447171
-72.692871,647.644043,512.145996,1.447906
-79.376221,626.495361,474.792480,1.448641
-80.017090,622.283936,425.170898,1.449376
-108.673096,596.099854,418.945312,1.450115
-106.933594,589.141846,386.993408,1.450850
-85.418701,584.747314,361.267090,1.451585
-77.819824,587.310791,346.801758,1.452319
-78.918457,582.092285,325.286865,1.453054
-91.735840,561.859131,285.369873,1.453789
-73.608398,559.844971,288.116455,1.454523
-73.974609,549.407959,253.692627,1.455260
-138.336182,557.922363,232.360840,1.455994
-116.638184,544.830322,173.126221,1.456729
35.888672,544.189453,154.815674,1.457464
121.307373,549.774170,143.188477,1.458215
89.721680,562.500000,113.433838,1.458952
49.163818,578.430176,101.074219,1.459687
66.101074,596.740723,78.735352,1.460422
97.137451,595.275879,65.917969,1.461157
78.643799,619.445801,59.143066,1.461892
69.213867,640.960693,41.381836,1.462626
61.523438,677.856445,29.205322,1.463365
46.691895,690.032959,35.430908,1.464100
-13.183594,709.350586,14.465332,1.464835
-35.614014,737.915039,-22.430420,1.465569
1.831055,743.957520,-11.169434,1.466304
4.943848,745.513916,-18.127441,1.467038
22.796631,749.359131,-25.634766,1.467772
6.134033,765.930176,-23.345947,1.468509
-14.739990,785.064697,-27.557373,1.469244
-4.943848,808.959961,-28.839111,1.469978
-72.509766,793.304443,-0.915527,1.470713
-163.787842,796.051025,4.119873,1.471448
-188.964844,801.361084,-4.669189,1.472182
-240.142822,804.473877,19.683838,1.472916
-271.362305,812.438965,20.782471,1.473663
-290.405273,845.031738,62.347412,1.474400
-258.087158,876.342773,100.158691,1.475135
-220.458984,905.639648,153.167725,1.475871
-206.909180,930.999756,197.113037,1.476611
-183.837891,951.507568,220.733643,1.477347
-160.766602,971.008301,266.784668,1.478126
-134.948730,1011.566162,290.039062,1.478862
-163.238525,1026.397705,308.074951,1.479598
-149.322510,1036.926270,301.483154,1.480334
-139.801025,1018.432617,313.659668,1.481070
-126.159668,1029.144287,311.279297,1.481809
-127.441406,1036.834717,321.990967,1.482545
-115.264893,1040.313721,274.383545,1.483280
-136.871338,1034.637451,258.361816,1.484016
-135.589600,1031.799316,281.707764,1.484752
-135.955811,1038.574219,299.194336,1.485488
-135.772705,1026.763916,343.872070,1.486223
-136.230469,1035.369873,383.880615,1.486961
-127.990723,1045.715332,409.332275,1.487696
-133.392334,1048.461914,434.417725,1.488432
-100.982666,1084.259033,435.516357,1.489182
-136.322021,1123.718262,360.900879,1.489933
-137.969971,1144.409180,278.137207,1.490674
-138.427734,1146.331787,213.958740,1.491413
-172.943115,1169.036865,194.000244,1.492156
-172.119141,1186.614990,158.477783,1.492904
-189.147949,1206.848145,123.138428,1.493650
-194.366455,1234.222412,91.461182,1.494395
-181.274414,1238.891602,73.425293,1.495134
-162.139893,1252.716064,83.496094,1.495873
-147.857666,1250.793457,131.469727,1.496612
-29.571533,1252.258301,112.243652,1.497354
-376.831055,1276.885986,87.982178,1.498093
-110.504150,1317.535400,40.924072,1.498831
-232.818604,1307.189941,37.628174,1.499570
-308.715820,1289.062500,29.571533,1.500308
-248.016357,1301.055908,45.776367,1.501047
-336.914062,1299.499512,23.254395,1.501786
-286.743164,1282.104492,12.084961,1.502527
-262.023926,1341.979980,31.677246,1.503266
-299.560547,1272.125244,60.882568,1.504006
-327.117920,1312.316895,110.137939,1.504745
-396.057129,1209.686279,177.337646,1.505485
-383.697510,1321.929932,219.268799,1.506223
-396.606445,1400.299072,295.898438,1.506962
-420.043945,1332.000732,301.666260,1.507703
-435.150146,1276.062012,285.095215,1.508442
-333.984375,1288.970947,263.854980,1.509180
-216.064453,1292.633057,270.446777,1.509920
-191.162109,1299.133301,312.194824,1.510660
-1003.692627,1304.443359,337.646484,1.511399
-188.873291,1315.338135,325.927734,1.512138
43.121338,1366.149902,329.406738,1.512880
-335.632324,1282.836914,332.153320,1.513619
-555.816650,1120.880127,346.527100,1.514358
363.830566,1182.952881,475.433350,1.515098
37.536621,1156.860352,532.196045,1.515837
120.849609,1401.123047,536.590576,1.516576
217.712402,1288.421631,560.852051,1.517316
167.358398,1223.876953,565.612793,1.518060
211.944580,1344.543457,550.964355,1.518800
-399.993896,1087.463379,479.827881,1.519538
247.558594,1273.681641,442.291260,1.520277
196.105957,1211.425781,455.932617,1.521017
23.162842,1206.848145,452.453613,1.521757
-8.239746,1242.919922,443.939209,1.522496
-28.198242,1171.783447,457.763672,1.523238
87.707520,1234.954834,440.277100,1.523977
-59.417725,1160.888672,404.846191,1.524715
-77.453613,1155.395508,382.049561,1.525455
-11.444092,1145.050049,363.555908,1.526196
-13.183594,1143.035889,346.801758,1.526935
-42.388916,1146.881104,316.497803,1.527673
-94.299316,1104.400635,291.595459,1.528413
-95.397949,1133.880615,264.587402,1.529152
-131.011963,1078.308105,253.967285,1.529889
-102.264404,1092.864990,212.036133,1.530625
-100.341797,1063.385010,207.000732,1.531379
-99.151611,1066.314697,167.633057,1.532116
-79.376221,1053.680420,125.610352,1.532851
-62.713623,1068.237305,107.940674,1.533586
-76.080322,1062.469482,58.685303,1.534321
-326.293945,1015.594482,24.902344,1.535056
-255.798340,1025.665283,-23.345947,1.535791
-337.280273,878.540039,131.652832,1.536531
133.026123,771.514893,397.064209,1.537266
114.990234,1051.483154,-294.799805,1.538000
-538.513184,1004.058838,-190.979004,1.538735
-205.444336,1106.048584,5.401611,1.539470
80.017090,1188.079834,-74.432373,1.540204
-498.229980,890.533447,232.727051,1.540939
-960.754395,1341.247559,679.595947,1.541676
-763.092041,1453.857422,641.876221,1.542413
-461.517334,1539.093018,619.354248,1.543148
-482.666016,1527.191162,541.900635,1.543883
-366.943359,1542.663574,350.280762,1.544621
-287.017822,1362.854004,186.584473,1.545357
2837.036133,1419.158936,481.750488,1.546092
2999.908447,1960.235596,444.946289,1.546835
-88.714600,1577.728271,170.013428,1.547612
-1199.340820,1399.017334,414.550781,1.548352
-1139.282227,1392.791748,348.724365,1.549091
-178.436279,1423.919678,203.430176,1.549834
659.545898,1517.120361,147.125244,1.550571
713.653564,1476.745605,122.955322,1.551306
-708.709717,1397.735596,157.012939,1.552045
-994.628906,1349.029541,215.698242,1.552781
126.159668,1462.188721,141.632080,1.553518
574.401855,1527.923584,67.291260,1.554254
35.064697,1500.640869,-9.521484,1.554993
-611.938477,1424.102783,-46.600342,1.555728
-305.328369,1365.692139,-160.858154,1.556464
-89.080811,1334.197998,-243.804932,1.557203
-205.261230,1289.337158,-296.905518,1.557939
-461.425781,1267.639160,-345.245361,1.558674
-415.100098,1227.172852,-361.450195,1.559423
-312.286377,1191.558838,-408.691406,1.560179
-445.678711,1192.840576,-428.100586,1.560919
-390.380859,1198.608398,-428.924561,1.561655
-228.332520,1199.340820,-442.108154,1.562396
-220.916748,1200.347900,-449.707031,1.563135
-59.509277,1268.646240,-411.254883,1.563878
-108.581543,1210.052490,-18.035889,1.564616
-934.844971,1257.934570,142.089844,1.565356
-1243.469238,1360.748291,146.392822,1.566093
-116.638184,1336.212158,95.947266,1.566829
1063.568115,1422.637939,8.605957,1.567564
656.066895,1291.259766,-34.790039,1.568305
-847.320557,1244.201660,-113.159180,1.569041
-1038.208008,1185.424805,-152.160645,1.569776
240.692139,1198.883057,-294.433594,1.570514
432.495117,1191.101074,-379.760742,1.571248
-742.950439,1078.491211,-382.232666,1.571986
-1039.855957,1048.736572,-459.320068,1.572723
-589.874268,1089.111328,-628.601074,1.573458
1153.747559,1221.313477,-551.330566,1.574193
628.784180,979.248047,-178.985596,1.574929
-1927.551270,998.291016,12.725830,1.575682
-1809.082031,1059.906006,-72.784424,1.576420
471.679688,1234.497070,-243.164062,1.577155
1188.171387,1293.823242,-274.475098,1.577891
-1258.758545,1108.245850,-258.270264,1.578625
-1173.522949,1092.315674,-385.528564,1.579358
-79.742432,1266.998291,-566.436768,1.580097
1082.519531,1250.244141,-659.362793,1.580837
20.233154,1053.955078,-736.724854,1.581572
-1083.618164,1059.997559,-846.221924,1.582306
-1225.616455,817.840576,-409.881592,1.583042
1120.330811,1109.710693,-358.978271,1.583781
1343.902588,1262.420654,-285.095215,1.584515
-334.625244,1143.218994,-192.077637,1.585249
-1068.695068,1111.724854,-310.180664,1.585985
-187.225342,1193.206787,-604.522705,1.586720
1662.231445,1285.766602,-613.952637,1.587455
2295.684814,1055.236816,-334.075928,1.588190
506.469727,986.206055,-181.823730,1.588928
-979.339600,1101.654053,-100.616455,1.589663
-901.336670,1246.765137,-135.406494,1.590398
-744.140625,1230.010986,-252.410889,1.591133
-607.727051,1231.567383,-390.289307,1.591868
-245.086670,1275.512695,-388.275146,1.592602
-932.006836,1157.318115,-107.849121,1.593337
-1470.794678,1063.568115,178.253174,1.594075
-1149.536133,987.213135,41.290283,1.594810
455.200195,1328.613281,-293.884277,1.595545
2588.104248,1375.579834,-486.145020,1.596280
396.331787,1177.185059,-486.877441,1.597015
-666.137695,1309.661865,463.531494,1.597750
1919.403076,2609.893799,2245.880127,1.598485
2999.908447,2999.908447,2999.908447,1.599222
2999.908447,2999.908447,2999.908447,1.599957
2686.798096,2999.908447,2999.908447,1.600692
2900.756836,2999.908447,-2865.417480,1.601426
136.688232,1906.311035,-3000.000000,1.602162
-533.020020,893.463135,-3000.000000,1.602897
-919.372559,-897.399902,138.244629,1.603633
2415.985107,-394.134521,1487.640381,1.604368
-1408.447266,-8.789062,289.672852,1.605103
-3000.000000,1152.923584,-220.367432,1.605837
-2015.625000,1311.859131,508.392334,1.606572
-1854.675293,1213.989258,-260.192871,1.607325
-643.798828,1116.577148,-820.404053,1.608062
84.320068,983.459473,-823.425293,1.608797
1015.045166,982.269287,-542.083740,1.609531
801.269531,990.875244,-768.676758,1.610265
355.590820,809.417725,-783.325195,1.611015
-48.522949,820.861816,-553.161621,1.611754
-186.401367,935.577393,-509.033203,1.612497
-575.408936,947.479248,-493.927002,1.613235
-655.151367,976.776123,-591.430664,1.613973
-571.746826,961.303711,-781.127930,1.614711
679.687500,789.001465,-665.954590,1.615488
1142.395020,1062.744141,-1036.926270,1.616227
1210.144043,1104.766846,-745.971680,1.616965
539.154053,1087.280273,-418.029785,1.617708
75.805664,1174.621582,-457.122803,1.618446
56.121826,1216.094971,-497.955322,1.619183
133.758545,1305.267334,-464.538574,1.619921
189.056396,1327.697754,-320.251465,1.620660
126.708984,1296.295166,-390.563965,1.621397
-165.161133,1341.613770,-302.673340,1.622136
-409.881592,1433.258057,-140.075684,1.622877
-631.530762,1463.287354,-83.679199,1.623615
-839.172363,1487.457275,-51.544189,1.624353
-887.237549,1478.942871,-2.014160,1.625091
-525.421143,1516.113281,-66.375732,1.625827
-718.505859,1537.628174,17.120361,1.626562
-877.441406,1491.577148,146.484375,1.627296
-425.994873,1565.643311,136.505127,1.628033
73.516846,1540.649414,35.888672,1.628767
183.288574,1434.906006,-43.945312,1.629519
76.904297,1361.389160,-72.326660,1.630260
-195.556641,1351.776123,-87.890625,1.630998
-201.049805,1372.924805,-63.171387,1.631736
-26.000977,1341.156006,-45.318604,1.632475
144.927979,1291.076660,-127.716064,1.633221
138.061523,1232.940674,-185.852051,1.633959
77.819824,1224.792480,-182.556152,1.634697
4.486084,1230.560303,-231.445312,1.635434
-19.134521,1221.405029,-273.651123,1.636174
25.543213,1215.545654,-206.176758,1.636912
-104.461670,1214.172363,-228.607178,1.637650
-121.582031,1194.946289,-266.601562,1.638390
-61.340332,1184.875488,-320.526123,1.639129
85.968018,1166.198730,-346.710205,1.639867
200.958252,1167.938232,-343.231201,1.640605
237.945557,1148.529053,-373.809814,1.641346
172.027588,1120.697021,-414.093018,1.642084
135.131836,1108.062744,-407.592773,1.642821
27.557373,1111.907959,-378.295898,1.643559
-22.430420,1107.330322,-372.985840,1.644296
6.866455,1097.351074,-391.204834,1.645032
38.909912,1106.689453,-387.359619,1.645767
-12.176514,1124.450684,-330.047607,1.646511
-28.289795,1106.689453,-340.850830,1.647246
15.563965,1116.485596,-386.901855,1.647984
78.552246,1105.133057,-384.613037,1.648720
77.728271,1111.907959,-340.301514,1.649454
31.402588,1131.683350,-307.434082,1.650189
0.915527,1134.521484,-299.926758,1.650924
-18.493652,1143.310547,-296.630859,1.651663
21.331787,1133.880615,-298.828125,1.652397
54.931641,1130.767822,-309.997559,1.653132
38.177490,1119.873047,-322.448730,1.653869
16.387939,1132.141113,-307.983398,1.654604
-2.655029,1133.789062,-301.116943,1.655338
1.556396,1130.493164,-301.757812,1.656073
13.275146,1127.838135,-333.068848,1.656823
6.866455,1116.027832,-330.963135,1.657559
-2.563477,1120.880127,-327.575684,1.658292
-2.929688,1126.281738,-314.392090,1.659026
155.273438,1114.196777,-285.278320,1.659778
107.574463,1009.002686,-563.415527,1.660512
-66.558838,1067.138672,-371.246338,1.661246
-26.458740,1108.703613,-321.075439,1.661992
57.952881,1088.928223,-294.158936,1.662730
183.288574,1118.133545,-358.886719,1.663466
98.968506,1016.876221,-386.535645,1.664201
-36.163330,959.655762,-466.827393,1.664943
-22.979736,990.783691,-386.535645,1.665678
23.254395,1042.877197,-326.843262,1.666414
85.235596,1022.369385,-390.655518,1.667150
34.057617,1041.320801,-319.427490,1.667886
30.578613,1021.820068,-289.398193,1.668622
77.636719,951.324463,-429.473877,1.669358
85.601807,911.407471,-501.434326,1.670097
1.739502,963.592529,-398.986816,1.670832
-77.819824,1022.552490,-246.643066,1.671568
67.565918,1068.878174,-305.877686,1.672306
164.611816,972.564697,-335.357666,1.673038
-66.925049,936.218262,-415.100098,1.673770
-93.750000,968.994141,-382.232666,1.674503
-50.537109,994.079590,-369.873047,1.675246
55.297852,961.395264,-333.435059,1.675981
73.699951,997.192383,-270.721436,1.676715
15.838623,966.979980,-330.688477,1.677450
1.373291,905.181885,-398.345947,1.678187
2.380371,898.406982,-315.582275,1.678920
-94.299316,1041.046143,-272.369385,1.679657
-10.345459,1035.552979,-212.860107,1.680393
169.830322,945.373535,-319.793701,1.681128
130.920410,904.815674,-368.133545,1.681862
-24.169922,923.309326,-261.108398,1.682597
-21.789551,961.486816,-246.459961,1.683334
55.206299,962.219238,-267.517090,1.684068
68.847656,930.175781,-261.199951,1.684803
32.592773,923.400879,-265.411377,1.685566
-46.051025,923.034668,-258.361816,1.686300
-29.388428,936.950684,-245.269775,1.687034
-14.923096,947.021484,-205.444336,1.687768
-10.894775,952.239990,-206.268311,1.688506
-17.669678,939.788818,-222.290039,1.689240
-29.113770,943.176270,-249.389648,1.689974
-24.719238,938.049316,-249.664307,1.690709
-20.507812,930.267334,-252.502441,1.691444
-12.268066,929.077148,-271.820068,1.692179
-16.937256,910.858154,-287.750244,1.692914
-15.014648,912.048340,-308.990479,1.693651
-9.429932,908.843994,-309.906006,1.694386
2.471924,899.780273,-313.751221,1.695120
15.197754,893.280029,-318.511963,1.695854
2.563477,882.110596,-326.751709,1.696591
-1.556396,874.877930,-340.850830,1.697353
-4.669189,876.800537,-319.427490,1.698092
2.197266,869.201660,-302.856445,1.698843
9.796143,885.498047,-293.151855,1.699583
-9.979248,885.406494,-294.525146,1.700318
-4.211426,882.019043,-295.074463,1.701053
7.507324,883.300781,-289.581299,1.701792
67.016602,891.815186,-294.158936,1.702555
45.959473,891.998291,-292.144775,1.703317
52.825928,897.949219,-300.201416,1.704079
103.729248,900.970459,-287.750244,1.704819
97.137451,901.519775,-280.792236,1.705564
104.644775,897.491455,-277.496338,1.706304
132.934570,897.674561,-288.848877,1.707043
137.786865,902.984619,-287.841797,1.707780
141.357422,900.787354,-276.123047,1.708518
139.526367,901.611328,-261.474609,1.709261
165.985107,912.414551,-239.227295,1.710000
170.837402,924.224854,-215.423584,1.710737
190.246582,920.562744,-235.931396,1.711474
186.309814,911.315918,-231.994629,1.712212
169.464111,905.273438,-215.789795,1.712949
185.668945,905.731201,-219.268799,1.713693
230.163574,913.513184,-198.486328,1.714437
216.979980,909.027100,-189.147949,1.715175
212.493896,898.773193,-196.380615,1.715914
227.783203,895.019531,-189.697266,1.716668
257.720947,890.075684,-195.648193,1.717410
259.826660,891.540527,-186.584473,1.718159
242.523193,897.125244,-177.612305,1.718899
245.086670,886.596680,-180.175781,1.719651
258.361816,880.096436,-175.506592,1.720389
263.488770,888.336182,-145.660400,1.721125
254.150391,890.441895,-151.885986,1.721862
250.671387,887.786865,-150.970459,1.722606
262.756348,881.927490,-151.336670,1.723343
276.672363,870.574951,-147.399902,1.724079
282.348633,866.180420,-148.590088,1.724820
262.664795,870.391846,-145.935059,1.725556
250.671387,866.912842,-163.696289,1.726297
245.544434,860.961914,-149.597168,1.727034
263.397217,841.827393,-148.040771,1.727770
263.305664,845.031738,-159.576416,1.728505
256.347656,844.024658,-163.330078,1.729241
242.980957,839.996338,-161.590576,1.729983
252.685547,822.875977,-167.724609,1.730719
227.600098,790.466309,-194.641113,1.731456
191.894531,772.338867,-207.366943,1.732193
182.281494,783.508301,-199.401855,1.732931
206.542969,785.888672,-180.816650,1.733669
239.593506,764.923096,-197.113037,1.734408
218.719482,748.901367,-241.333008,1.735155
169.830322,727.935791,-253.784180,1.735901
126.983643,736.450195,-242.889404,1.736639
131.835938,737.365723,-240.509033,1.737388
138.519287,744.506836,-247.924805,1.738130
116.271973,726.745605,-259.735107,1.738868
85.601807,712.554932,-266.418457,1.739607
75.347900,697.998047,-280.975342,1.740348
82.397461,709.991455,-259.918213,1.741087
71.960449,712.463379,-260.650635,1.741825
62.805176,711.273193,-262.847900,1.742564
36.437988,709.350586,-270.172119,1.743306
-0.732422,699.005127,-268.157959,1.744044
-9.521484,696.899414,-260.559082,1.744782
1.190186,713.104248,-264.312744,1.745521
-14.831543,710.540771,-248.657227,1.746259
-35.339355,708.801270,-248.931885,1.746997
-45.501709,712.280273,-259.002686,1.747735
-57.220459,707.336426,-276.123047,1.748476
-58.135986,709.899902,-272.918701,1.749214
-68.847656,716.491699,-270.721436,1.749953
-75.897217,717.407227,-275.024414,1.750693
-78.002930,729.675293,-273.468018,1.751431
-97.320557,743.499756,-283.081055,1.752170
-100.982666,750.823975,-285.736084,1.752907
-106.018066,759.704590,-272.918701,1.753648
-110.504150,761.810303,-272.277832,1.754385
-123.138428,768.585205,-269.073486,1.755124
-112.335205,779.113770,-265.502930,1.755862
-110.504150,782.592773,-266.326904,1.756638
-107.391357,791.564941,-270.538330,1.757377
-113.433838,812.255859,-261.657715,1.758115
-91.461182,803.833008,-246.185303,1.758856
-73.516846,810.791016,-240.509033,1.759595
-75.256348,808.319092,-239.685059,1.760334
-103.546143,808.776855,-236.938477,1.761073
-97.137451,805.297852,-239.318848,1.761814
-65.277100,810.974121,-214.233398,1.762552
-37.902832,821.319580,-220.916748,1.763291
-57.403564,811.889648,-220.367432,1.764032
-103.546143,816.101074,-224.853516,1.764768
-67.016602,812.530518,-226.226807,1.765504
-37.811279,820.770264,-221.191406,1.766241
-38.818359,817.657471,-223.205566,1.767004
-58.227539,813.446045,-254.699707,1.767753
-52.276611,803.466797,-233.551025,1.768494
0.274658,803.283691,-253.326416,1.769239
-19.683838,804.382324,-250.762939,1.769979
-31.127930,797.149658,-261.474609,1.770714
-32.958984,776.824951,-258.819580,1.771448
2.471924,787.353516,-250.671387,1.772214
-1.464844,784.149170,-254.150391,1.772956
-17.395020,779.754639,-258.636475,1.773703
-3.936768,789.276123,-257.995605,1.774443
-1.922607,785.522461,-239.959717,1.775181
-3.204346,777.008057,-259.918213,1.775919
-19.683838,760.437012,-260.192871,1.776665
-20.233154,759.246826,-256.988525,1.777404
-12.817383,764.556885,-245.910645,1.778142
2.563477,758.972168,-250.305176,1.778880
5.493164,748.901367,-265.869141,1.779622
5.218506,756.317139,-261.383057,1.780359
7.232666,740.478516,-252.777100,1.781098
14.831543,748.901367,-253.509521,1.781841
28.839111,743.408203,-253.417969,1.782579
16.204834,752.288818,-250.762939,1.783317
27.832031,752.197266,-244.995117,1.784055
27.648926,754.577637,-238.128662,1.784798
37.628174,750.915527,-240.966797,1.785537
38.726807,758.789062,-229.248047,1.786275
40.924072,758.239746,-234.191895,1.787017
45.410156,764.465332,-226.959229,1.787755
40.740967,765.930176,-224.121094,1.788544
54.473877,760.803223,-227.600098,1.789286
57.128906,758.972168,-222.106934,1.790031
64.086914,766.021729,-229.522705,1.790770
65.643311,765.563965,-225.402832,1.791510
73.608398,767.669678,-232.910156,1.792250
76.629639,755.676270,-238.403320,1.792990
84.869385,762.634277,-235.198975,1.793729
93.017578,767.120361,-234.741211,1.794468
79.833984,767.303467,-244.812012,1.795211
99.975586,767.395020,-242.614746,1.795950
98.419189,759.063721,-252.868652,1.796690
103.363037,766.296387,-244.812012,1.797426
101.806641,771.697998,-249.664307,1.798162
101.989746,782.775879,-239.501953,1.798899
107.299805,780.670166,-247.009277,1.799634
112.884521,782.867432,-234.100342,1.800395
122.497559,779.846191,-232.818604,1.801134
114.807129,780.395508,-233.917236,1.801873
117.462158,782.409668,-237.030029,1.802612
112.884521,783.050537,-229.431152,1.803351
129.455566,786.071777,-223.937988,1.804089
135.040283,792.205811,-219.085693,1.804828
137.878418,798.522949,-224.029541,1.805571
138.977051,802.917480,-228.698730,1.806311
137.878418,803.283691,-218.170166,1.807050
147.216797,802.093506,-212.219238,1.807789
145.385742,809.051514,-233.825684,1.808530
158.020020,808.868408,-207.550049,1.809267
164.337158,821.960449,-208.007812,1.810004
159.118652,827.911377,-210.937500,1.810747
159.118652,824.523926,-208.831787,1.811485
168.365479,830.566406,-212.860107,1.812224
163.513184,834.228516,-231.353760,1.812962
159.576416,836.883545,-213.317871,1.813700
167.266846,839.996338,-208.190918,1.814438
167.541504,837.524414,-214.050293,1.815176
167.724609,838.348389,-210.754395,1.815918
170.745850,835.235596,-210.571289,1.816655
171.936035,840.911865,-207.183838,1.817393
163.604736,837.432861,-209.014893,1.818131
167.816162,845.581055,-205.627441,1.818872
160.308838,847.229004,-210.388184,1.819611
155.181885,843.658447,-210.754395,1.820349
148.040771,830.474854,-216.430664,1.821090
156.372070,839.904785,-209.838867,1.821828
158.203125,841.369629,-211.944580,1.822567
152.069092,841.003418,-204.162598,1.823305
154.815674,844.116211,-211.669922,1.824046
155.548096,821.777344,-209.564209,1.824784
157.379150,844.116211,-191.986084,1.825521
156.555176,841.278076,-216.064453,1.826260
159.484863,845.397949,-213.409424,1.826997
168.090820,849.151611,-222.106934,1.827776
162.231445,844.024658,-218.627930,1.828516
163.330078,846.221924,-222.290039,1.829259
160.766602,866.455078,-215.606689,1.829997
161.682129,839.904785,-214.782715,1.830736
165.710449,840.820312,-218.719482,1.831474
165.802002,848.968506,-223.480225,1.832212
163.421631,848.968506,-227.600098,1.832950
161.499023,843.475342,-219.085693,1.833688
156.097412,845.123291,-216.339111,1.834429
158.111572,852.722168,-227.508545,1.835167
154.998779,848.510742,-228.149414,1.835906
159.393311,858.764648,-225.219727,1.836644
152.709961,852.905273,-228.240967,1.837381
140.441895,853.363037,-219.909668,1.838140
141.265869,861.419678,-227.325439,1.838890
134.582520,865.997314,-230.346680,1.839636
140.441895,888.977051,-226.043701,1.840376
135.314941,875.976562,-217.437744,1.841114
118.011475,871.215820,-232.452393,1.841856
117.004395,877.441406,-229.156494,1.842596
111.419678,883.666992,-227.600098,1.843338
115.905762,876.708984,-227.416992,1.844077
120.941162,874.053955,-229.522705,1.844818
109.863281,886.688232,-256.256104,1.845553
108.764648,883.209229,-237.670898,1.846288
97.686768,883.209229,-234.924316,1.847028
90.911865,882.568359,-229.339600,1.847763
86.151123,885.955811,-243.621826,1.848497
91.918945,891.906738,-241.973877,1.849232
84.136963,887.054443,-247.558594,1.849971
74.432373,881.103516,-240.234375,1.850707
76.538086,892.822266,-244.354248,1.851441
75.439453,895.019531,-243.804932,1.852176
76.446533,901.245117,-243.072510,1.852910
65.826416,892.822266,-248.291016,1.853645
71.960449,888.244629,-254.333496,1.854380
62.072754,883.758545,-258.087158,1.855118
56.762695,880.920410,-248.657227,1.855853
55.572510,885.681152,-249.755859,1.856588
57.586670,885.864258,-242.797852,1.857323
57.678223,882.110596,-253.967285,1.858057
55.847168,880.279541,-260.192871,1.858791
48.431396,881.378174,-258.728027,1.859525
42.846680,874.877930,-260.650635,1.860285
42.205811,881.195068,-255.065918,1.861023
36.987305,868.194580,-258.087158,1.861757
35.064697,872.955322,-262.481689,1.862491
34.606934,869.567871,-262.207031,1.863228
32.775879,863.342285,-266.784668,1.863964
35.430908,861.968994,-257.904053,1.864698
31.768799,861.236572,-263.305664,1.865433
32.867432,858.306885,-270.263672,1.866168
28.289795,859.680176,-269.165039,1.866903
31.677246,855.926514,-265.594482,1.867637
34.423828,859.405518,-266.326904,1.868374
35.430908,864.074707,-260.925293,1.869109
41.381836,869.567871,-257.812500,1.869844
37.811279,871.765137,-247.375488,1.870579
34.790039,873.687744,-250.030518,1.871313
30.578613,870.391846,-249.664307,1.872048
44.403076,868.194580,-249.206543,1.872783
46.966553,873.046875,-242.614746,1.873520
56.762695,877.166748,-236.846924,1.874254
52.734375,876.068115,-234.741211,1.874990
56.396484,889.617920,-220.184326,1.875724
56.121826,872.955322,-229.614258,1.876458
62.438965,883.483887,-231.994629,1.877193
54.107666,876.983643,-236.572266,1.877927
56.396484,881.652832,-225.311279,1.878665
55.572510,878.448486,-227.325439,1.879399
57.586670,881.011963,-231.994629,1.880134
62.255859,880.737305,-230.712891,1.880868
70.037842,889.434814,-235.290527,1.881623
73.150635,883.758545,-235.382080,1.882363
76.263428,885.772705,-242.431641,1.883102
78.735352,888.793945,-237.762451,1.883840
75.622559,892.639160,-241.516113,1.884579
79.650879,877.990723,-240.966797,1.885318
82.489014,877.807617,-231.353760,1.886056
84.136963,886.871338,-235.656738,1.886800
94.299316,886.322021,-233.367920,1.887538
90.179443,886.413574,-230.804443,1.888277
90.820312,887.237549,-226.318359,1.889015
84.411621,893.096924,-220.825195,1.889754
100.891113,893.554688,-211.853027,1.890493
100.524902,893.371582,-217.254639,1.891231
105.010986,900.512695,-214.874268,1.891972
96.405029,888.336182,-219.177246,1.892711
103.454590,901.519775,-224.578857,1.893450
103.088379,898.132324,-220.642090,1.894191
115.264893,897.857666,-223.571777,1.894930
139.709473,901.519775,-223.022461,1.895668
120.025635,903.533936,-221.191406,1.896407
115.264893,901.519775,-221.282959,1.897149
115.264893,899.780273,-223.663330,1.897888
115.539551,900.329590,-220.550537,1.898657
121.124268,902.252197,-217.254639,1.899398
137.603760,903.900146,-217.254639,1.900136
117.370605,910.308838,-224.029541,1.900874
121.124268,920.654297,-217.163086,1.901613
120.849609,916.992188,-220.184326,1.902354
123.046875,914.520264,-222.290039,1.903093
115.081787,911.590576,-220.367432,1.903830
120.574951,912.780762,-212.951660,1.904568
120.483398,919.464111,-224.121094,1.905307
120.391846,920.379639,-226.226807,1.906046
126.342773,917.999268,-217.437744,1.906784
118.286133,923.492432,-217.620850,1.907523
118.927002,921.203613,-224.395752,1.908260
117.553711,927.886963,-217.437744,1.908996
114.715576,922.760010,-219.909668,1.909748
114.990234,926.788330,-225.036621,1.910491
117.736816,927.886963,-221.008301,1.911230
106.567383,923.126221,-230.438232,1.911967
112.060547,922.943115,-233.367920,1.912708
115.173340,923.309326,-229.522705,1.913446
106.475830,925.598145,-240.325928,1.914182
94.848633,917.633057,-241.149902,1.914918
82.305908,922.027588,-246.643066,1.915659
100.982666,913.970947,-249.664307,1.916395
109.405518,917.449951,-244.995117,1.917131
95.855713,890.625000,-251.312256,1.917867
90.728760,909.667969,-251.495361,1.918603
83.770752,900.970459,-249.938965,1.919339
82.489014,907.104492,-251.678467,1.920075
87.432861,904.632568,-257.629395,1.920813
87.432861,900.695801,-262.481689,1.921549
80.657959,893.463135,-255.889893,1.922284
94.116211,902.709961,-256.805420,1.923020
79.010010,896.667480,-260.650635,1.923755
87.249756,889.801025,-271.362305,1.924491
84.594727,889.617920,-249.023438,1.925227
91.278076,886.505127,-255.249023,1.925966
88.531494,885.406494,-256.988525,1.926702
85.418701,887.329102,-255.981445,1.927438
81.024170,893.005371,-247.833252,1.928177
84.869385,891.357422,-252.136230,1.928912
90.362549,867.370605,-242.340088,1.929649
88.623047,893.280029,-240.966797,1.930384
96.130371,883.483887,-243.896484,1.931132
89.996338,885.772705,-242.248535,1.931869
100.708008,890.991211,-240.783691,1.932604
102.539062,887.695312,-244.903564,1.933339
98.144531,883.026123,-245.269775,1.934078
100.982666,897.491455,-246.276855,1.934812
103.912354,886.779785,-244.171143,1.935547
108.032227,893.920898,-246.093750,1.936285
106.109619,895.568848,-237.945557,1.937020
119.110107,900.421143,-237.670898,1.937755
117.736816,903.991699,-233.093262,1.938490
119.293213,903.808594,-226.593018,1.939227
110.504150,900.604248,-230.163574,1.939962
135.681152,900.054932,-224.670410,1.940697
109.863281,900.970459,-227.233887,1.941432
114.898682,911.865234,-226.501465,1.942166
104.095459,902.893066,-229.522705,1.942901
114.166260,898.498535,-220.642090,1.943635
118.743896,899.047852,-222.930908,1.944389
118.560791,904.083252,-217.163086,1.945127
114.715576,899.322510,-221.282959,1.945861
110.229492,904.266357,-223.297119,1.946595
108.215332,898.315430,-229.797363,1.947330
114.074707,895.568848,-219.818115,1.948065
108.032227,905.456543,-228.332520,1.948799
103.912354,904.449463,-222.839355,1.949539
102.905273,898.498535,-227.325439,1.950274
100.341797,889.892578,-229.980469,1.951008
104.095459,894.195557,-232.910156,1.951743
100.067139,896.026611,-234.832764,1.952480
100.616455,895.568848,-230.712891,1.953215
100.524902,899.871826,-225.585938,1.953950
99.334717,904.724121,-237.396240,1.954684
95.581055,903.991699,-235.015869,1.955419
91.644287,893.280029,-221.282959,1.956152
91.735840,894.470215,-232.910156,1.956887
90.637207,897.216797,-238.586426,1.957624
89.904785,902.160645,-231.536865,1.958359
82.580566,900.238037,-228.332520,1.959093
77.636719,903.900146,-229.339600,1.959827
80.749512,903.991699,-232.177734,1.960562
76.080322,911.315918,-227.416992,1.961296
65.185547,906.097412,-227.966309,1.962030
63.262939,907.562256,-233.825684,1.962780
60.241699,902.435303,-246.276855,1.963518
61.981201,906.738281,-238.769531,1.964255
57.220459,901.519775,-234.008789,1.964990
64.819336,906.555176,-238.037109,1.965726
59.509277,909.301758,-244.812012,1.966462
59.234619,912.414551,-245.544434,1.967198
54.840088,905.548096,-243.621826,1.967943
52.734375,904.083252,-248.474121,1.968679
49.713135,905.273438,-249.755859,1.969414
53.833008,907.836914,-251.861572,1.970179
61.889648,919.281006,-243.164062,1.970919
60.241699,917.083740,-249.572754,1.971654
53.833008,913.970947,-251.953125,1.972389
51.544189,908.111572,-250.122070,1.973124
52.368164,909.393311,-248.474121,1.973859
55.297852,919.281006,-253.967285,1.974593
53.741455,921.936035,-257.720947,1.975328
54.565430,923.767090,-250.946045,1.976066
51.361084,918.914795,-253.143311,1.976802
52.825928,924.591064,-260.009766,1.977537
53.833008,928.802490,-257.263184,1.978270
44.128418,928.253174,-253.234863,1.979005
49.163818,928.436279,-250.854492,1.979738
53.558350,915.344238,-253.326416,1.980500
60.516357,938.690186,-254.791260,1.981245
53.375244,942.169189,-246.185303,1.981993
55.572510,942.260742,-252.593994,1.982733
53.009033,952.056885,-253.051758,1.983471
58.410645,951.782227,-255.889893,1.984210
54.931641,948.120117,-254.791260,1.984948
56.671143,946.380615,-255.981445,1.985686
61.248779,944.091797,-248.382568,1.986430
65.826416,953.247070,-243.072510,1.987175
67.108154,953.063965,-243.896484,1.987915
72.326660,950.683594,-254.058838,1.988653
54.107666,957.916260,-248.382568,1.989398
76.721191,938.598633,-242.797852,1.990135
81.939697,968.078613,-240.234375,1.990870
86.700439,962.036133,-245.819092,1.991610
86.791992,958.099365,-240.600586,1.992346
87.799072,960.754395,-245.544434,1.993080
98.602295,966.613770,-249.847412,1.993815
98.419189,961.486816,-252.044678,1.994549
101.257324,958.557129,-244.995117,1.995284
110.321045,956.359863,-248.199463,1.996019
118.011475,952.880859,-242.065430,1.996759
114.440918,962.402344,-245.910645,1.997493
112.976074,955.627441,-250.854492,1.998228
116.546631,952.880859,-249.389648,1.998963
117.004395,952.697754,-253.326416,1.999702
128.356934,949.035645,-242.889404,2.000437
129.730225,953.155518,-243.896484,2.001172
119.018555,948.394775,-245.544434,2.001906
122.131348,949.951172,-250.396729,2.002659
132.019043,951.690674,-241.699219,2.003396
129.730225,952.880859,-249.938965,2.004131
135.406494,946.838379,-254.699707,2.004873
127.166748,944.824219,-257.171631,2.005610
128.448486,941.986084,-253.784180,2.006346
131.378174,941.619873,-257.080078,2.007081
133.575439,943.908691,-263.763428,2.007817
130.920410,949.310303,-264.312744,2.008552
136.322021,951.873779,-271.362305,2.009288
137.145996,957.733154,-268.157959,2.010041
131.561279,947.204590,-266.143799,2.010779
126.983643,948.944092,-267.517090,2.011514
118.652344,940.155029,-270.996094,2.012250
119.476318,955.444336,-273.468018,2.012985
117.462158,947.387695,-266.143799,2.013720
112.243652,950.592041,-270.538330,2.014455
111.877441,958.282471,-262.207031,2.015194
114.349365,963.317871,-267.517090,2.015927
104.278564,961.944580,-265.045166,2.016662
104.736328,940.979004,-275.939941,2.017407
101.989746,959.289551,-279.327393,2.018150
105.468750,961.853027,-274.475098,2.018888
104.736328,973.022461,-276.397705,2.019625
94.024658,968.902588,-269.531250,2.020366
94.940186,975.311279,-266.601562,2.021104
89.538574,970.092773,-272.094727,2.021842
84.594727,979.339600,-271.179199,2.022580
87.341309,972.564697,-264.312744,2.023320
77.819824,974.304199,-266.784668,2.024058
73.059082,981.262207,-276.214600,2.024796
78.918457,976.684570,-276.672363,2.025535
71.319580,980.621338,-268.066406,2.026272
64.086914,977.966309,-266.967773,2.027010
62.622070,977.233887,-272.460938,2.027748
60.516357,973.114014,-280.242920,2.028488
55.114746,987.487793,-275.024414,2.029227
51.818848,961.212158,-273.101807,2.029964
56.396484,988.952637,-274.108887,2.030701
45.593262,988.037109,-279.785156,2.031439
47.882080,990.966797,-268.341064,2.032176
40.557861,992.523193,-268.249512,2.032914
41.656494,990.966797,-273.284912,2.033655
40.832520,997.375488,-274.017334,2.034393
36.529541,1001.586914,-272.827148,2.035130
39.550781,995.361328,-272.460938,2.035871
43.945312,1002.593994,-273.651123,2.036609
41.473389,1014.038086,-269.348145,2.037347
44.219971,1008.087158,-270.629883,2.038085
35.705566,1002.868652,-281.066895,2.038826
33.508301,1002.319336,-275.756836,2.039564
44.769287,1015.136719,-270.446777,2.040301
40.374756,1015.502930,-275.939941,2.041073
40.374756,1013.946533,-268.066406,2.041811
45.043945,1014.953613,-275.207520,2.042550
40.191650,1008.178711,-279.144287,2.043288
33.782959,1007.904053,-263.488770,2.044029
39.642334,1001.403809,-272.827148,2.044768
43.487549,1010.101318,-272.644043,2.045507
42.388916,1003.417969,-272.918701,2.046244
44.128418,1005.432129,-280.883789,2.046987
45.959473,1005.432129,-285.369873,2.047725
42.480469,1007.080078,-283.630371,2.048463
42.022705,1000.946045,-292.510986,2.049204
55.023193,1002.319336,-287.567139,2.049942
51.544189,1008.453369,-281.616211,2.050680
55.480957,1026.580811,-286.834717,2.051418
40.557861,1011.932373,-285.552979,2.052174
50.445557,1007.263184,-290.954590,2.052923
47.790527,1012.390137,-284.637451,2.053664
46.600342,1016.235352,-289.306641,2.054410
46.325684,1010.101318,-289.855957,2.055148
53.466797,1015.960693,-291.046143,2.055890
53.924561,1017.242432,-290.222168,2.056629
58.593750,1020.538330,-293.884277,2.057370
56.762695,1026.214600,-295.989990,2.058109
60.150146,1015.228271,-285.552979,2.058847
53.649902,1015.411377,-292.053223,2.059589
57.678223,1026.580811,-293.151855,2.060328
