ACC_X,ACC_Y,ACC_Z
972.096008,144.447998,-218.623993
956.479980,138.591995,-212.768005
968.192017,138.591995,-224.479996
966.239990,128.832001,-218.623993
966.239990,138.591995,-218.623993
966.239990,132.735992,-212.768005
974.047974,132.735992,-216.671997
966.239990,134.688004,-222.528000
956.479980,140.544006,-218.623993
962.335999,144.447998,-208.863998
962.335999,134.688004,-216.671997
968.192017,132.735992,-216.671997
956.479980,132.735992,-214.720001
960.383972,134.688004,-218.623993
966.239990,140.544006,-224.479996
966.239990,138.591995,-220.576004
962.335999,134.688004,-222.528000
962.335999,140.544006,-220.576004
962.335999,134.688004,-218.623993
964.288025,146.399994,-216.671997
966.239990,146.399994,-222.528000
962.335999,138.591995,-212.768005
960.383972,142.496002,-212.768005
966.239990,144.447998,-208.863998
970.143982,128.832001,-216.671997
964.288025,130.783997,-214.720001
966.239990,140.544006,-218.623993
960.383972,136.639999,-210.815994
966.239990,138.591995,-222.528000
960.383972,144.447998,-218.623993
968.192017,128.832001,-218.623993
962.335999,124.928001,-208.863998
966.239990,122.975998,-208.863998
962.335999,136.639999,-218.623993
968.192017,134.688004,-220.576004
960.383972,130.783997,-212.768005
964.288025,136.639999,-212.768005
962.335999,136.639999,-218.623993
968.192017,140.544006,-216.671997
968.192017,132.735992,-220.576004
974.047974,142.496002,-222.528000
972.096008,138.591995,-208.863998
972.096008,130.783997,-212.768005
968.192017,134.688004,-220.576004
977.952026,124.928001,-218.623993
968.192017,128.832001,-222.528000
977.952026,140.544006,-214.720001
968.192017,128.832001,-212.768005
976.000000,138.591995,-214.720001
981.856018,142.496002,-218.623993
972.096008,130.783997,-218.623993
974.047974,140.544006,-222.528000
968.192017,132.735992,-214.720001
979.903992,128.832001,-222.528000
974.047974,134.688004,-206.912003
972.096008,124.928001,-222.528000
974.047974,136.639999,-216.671997
970.143982,138.591995,-216.671997
979.903992,130.783997,-216.671997
974.047974,132.735992,-218.623993
974.047974,132.735992,-220.576004
968.192017,132.735992,-216.671997
968.192017,132.735992,-218.623993
968.192017,132.735992,-220.576004
977.952026,134.688004,-214.720001
977.952026,124.928001,-216.671997
970.143982,128.832001,-220.576004
972.096008,130.783997,-212.768005
968.192017,132.735992,-216.671997
964.288025,126.879997,-208.863998
964.288025,128.832001,-222.528000
968.192017,138.591995,-222.528000
968.192017,128.832001,-222.528000
962.335999,134.688004,-218.623993
956.479980,132.735992,-226.432007
966.239990,115.167999,-224.479996
960.383972,121.024002,-222.528000
958.432007,124.928001,-218.623993
964.288025,128.832001,-212.768005
966.239990,136.639999,-218.623993
966.239990,134.688004,-218.623993
964.288025,126.879997,-216.671997
958.432007,124.928001,-218.623993
964.288025,126.879997,-216.671997
968.192017,134.688004,-218.623993
968.192017,124.928001,-208.863998
962.335999,134.688004,-224.479996
966.239990,124.928001,-214.720001
964.288025,121.024002,-216.671997
966.239990,134.688004,-212.768005
962.335999,134.688004,-212.768005
962.335999,128.832001,-218.623993
962.335999,128.832001,-212.768005
956.479980,124.928001,-208.863998
960.383972,121.024002,-214.720001
964.288025,124.928001,-216.671997
966.239990,119.071999,-214.720001
970.143982,126.879997,-226.432007
968.192017,134.688004,-218.623993
964.288025,126.879997,-214.720001
964.288025,117.120003,-216.671997
962.335999,124.928001,-208.863998
960.383972,122.975998,-214.720001
968.192017,124.928001,-214.720001
962.335999,132.735992,-218.623993
970.143982,124.928001,-216.671997
974.047974,124.928001,-204.960007
974.047974,130.783997,-208.863998
976.000000,130.783997,-214.720001
972.096008,126.879997,-214.720001
964.288025,124.928001,-210.815994
964.288025,130.783997,-206.912003
970.143982,128.832001,-206.912003
972.096008,130.783997,-210.815994
970.143982,128.832001,-216.671997
964.288025,134.688004,-212.768005
972.096008,138.591995,-206.912003
966.239990,128.832001,-212.768005
972.096008,134.688004,-214.720001
968.192017,122.975998,-208.863998
972.096008,134.688004,-214.720001
974.047974,128.832001,-212.768005
964.288025,134.688004,-210.815994
964.288025,130.783997,-212.768005
968.192017,130.783997,-208.863998
964.288025,128.832001,-214.720001
970.143982,128.832001,-220.576004
966.239990,122.975998,-214.720001
974.047974,121.024002,-220.576004
976.000000,126.879997,-222.528000
976.000000,126.879997,-214.720001
972.096008,122.975998,-212.768005
974.047974,132.735992,-216.671997
977.952026,128.832001,-222.528000
974.047974,124.928001,-216.671997
976.000000,130.783997,-220.576004
989.664001,126.879997,-214.720001
979.903992,130.783997,-216.671997
987.711975,132.735992,-218.623993
981.856018,134.688004,-226.432007
979.903992,142.496002,-216.671997
985.760010,130.783997,-226.432007
985.760010,130.783997,-214.720001
993.567993,132.735992,-222.528000
991.616028,128.832001,-220.576004
991.616028,138.591995,-222.528000
983.807983,134.688004,-224.479996
983.807983,124.928001,-220.576004
993.567993,132.735992,-222.528000
985.760010,132.735992,-222.528000
993.567993,140.544006,-220.576004
987.711975,128.832001,-224.479996
997.471985,132.735992,-218.623993
995.520020,130.783997,-212.768005
985.760010,126.879997,-224.479996
989.664001,124.928001,-220.576004
993.567993,128.832001,-218.623993
997.471985,128.832001,-218.623993
995.520020,134.688004,-220.576004
993.567993,140.544006,-220.576004
985.760010,134.688004,-222.528000
991.616028,128.832001,-224.479996
991.616028,134.688004,-230.335999
987.711975,126.879997,-224.479996
985.760010,122.975998,-222.528000
977.952026,122.975998,-230.335999
981.856018,130.783997,-224.479996
977.952026,121.024002,-220.576004
977.952026,130.783997,-226.432007
972.096008,121.024002,-228.384003
987.711975,119.071999,-230.335999
977.952026,124.928001,-218.623993
987.711975,124.928001,-218.623993
989.664001,122.975998,-216.671997
979.903992,113.216003,-220.576004
979.903992,111.264000,-216.671997
976.000000,124.928001,-230.335999
981.856018,124.928001,-222.528000
983.807983,122.975998,-216.671997
977.952026,130.783997,-226.432007
972.096008,132.735992,-218.623993
970.143982,126.879997,-220.576004
972.096008,122.975998,-220.576004
979.903992,124.928001,-218.623993
977.952026,130.783997,-228.384003
960.383972,115.167999,-218.623993
972.096008,124.928001,-220.576004
962.335999,119.071999,-226.432007
968.192017,126.879997,-224.479996
976.000000,124.928001,-220.576004
977.952026,119.071999,-224.479996
972.096008,121.024002,-222.528000
970.143982,126.879997,-216.671997
966.239990,126.879997,-212.768005
972.096008,121.024002,-218.623993
972.096008,128.832001,-214.720001
970.143982,121.024002,-220.576004
964.288025,126.879997,-214.720001
960.383972,128.832001,-226.432007
972.096008,136.639999,-224.479996
966.239990,134.688004,-218.623993
964.288025,121.024002,-216.671997
960.383972,119.071999,-212.768005
966.239990,122.975998,-216.671997
970.143982,126.879997,-222.528000
968.192017,128.832001,-224.479996
976.000000,121.024002,-218.623993
964.288025,126.879997,-222.528000
977.952026,122.975998,-222.528000
970.143982,124.928001,-218.623993
964.288025,126.879997,-220.576004
966.239990,128.832001,-212.768005
972.096008,130.783997,-212.768005
977.952026,130.783997,-214.720001
974.047974,142.496002,-216.671997
976.000000,132.735992,-218.623993
968.192017,134.688004,-212.768005
974.047974,136.639999,-218.623993
970.143982,128.832001,-216.671997
976.000000,134.688004,-212.768005
968.192017,117.120003,-212.768005
964.288025,130.783997,-212.768005
968.192017,140.544006,-222.528000
962.335999,134.688004,-218.623993
962.335999,128.832001,-222.528000
974.047974,128.832001,-218.623993
970.143982,132.735992,-222.528000
968.192017,128.832001,-222.528000
966.239990,128.832001,-212.768005
962.335999,128.832001,-218.623993
956.479980,124.928001,-214.720001
962.335999,128.832001,-220.576004
962.335999,128.832001,-224.479996
962.335999,134.688004,-224.479996
962.335999,128.832001,-222.528000
966.239990,126.879997,-220.576004
968.192017,132.735992,-220.576004
962.335999,134.688004,-222.528000
960.383972,126.879997,-216.671997
964.288025,126.879997,-224.479996
956.479980,128.832001,-218.623993
964.288025,132.735992,-204.960007
970.143982,126.879997,-216.671997
966.239990,128.832001,-218.623993
968.192017,138.591995,-218.623993
972.096008,121.024002,-216.671997
970.143982,122.975998,-208.863998
966.239990,134.688004,-212.768005
972.096008,122.975998,-214.720001
962.335999,130.783997,-220.576004
964.288025,126.879997,-226.432007
964.288025,126.879997,-226.432007
966.239990,126.879997,-226.432007
972.096008,121.024002,-216.671997
972.096008,119.071999,-224.479996
981.856018,132.735992,-218.623993
976.000000,130.783997,-220.576004
968.192017,126.879997,-222.528000
974.047974,130.783997,-222.528000
974.047974,128.832001,-218.623993
972.096008,124.928001,-226.432007
972.096008,117.120003,-220.576004
972.096008,126.879997,-220.576004
974.047974,121.024002,-212.768005
972.096008,128.832001,-214.720001
976.000000,128.832001,-212.768005
979.903992,130.783997,-216.671997
977.952026,126.879997,-216.671997
968.192017,122.975998,-212.768005
976.000000,124.928001,-216.671997
972.096008,126.879997,-220.576004
976.000000,122.975998,-222.528000
977.952026,121.024002,-218.623993
974.047974,117.120003,-218.623993
974.047974,119.071999,-220.576004
983.807983,122.975998,-218.623993
976.000000,124.928001,-216.671997
976.000000,124.928001,-218.623993
960.383972,126.879997,-216.671997
974.047974,130.783997,-220.576004
972.096008,126.879997,-216.671997
970.143982,132.735992,-214.720001
968.192017,128.832001,-218.623993
962.335999,121.024002,-222.528000
968.192017,124.928001,-208.863998
970.143982,113.216003,-214.720001
960.383972,126.879997,-214.720001
960.383972,126.879997,-214.720001
968.192017,117.120003,-218.623993
968.192017,122.975998,-214.720001
960.383972,128.832001,-216.671997
966.239990,117.120003,-216.671997
962.335999,126.879997,-214.720001
960.383972,126.879997,-220.576004
962.335999,124.928001,-208.863998
960.383972,134.688004,-212.768005
962.335999,128.832001,-212.768005
956.479980,121.024002,-210.815994
958.432007,124.928001,-208.863998
958.432007,117.120003,-218.623993
952.575989,121.024002,-216.671997
960.383972,126.879997,-216.671997
962.335999,122.975998,-214.720001
964.288025,126.879997,-216.671997
960.383972,121.024002,-214.720001
962.335999,124.928001,-208.863998
958.432007,126.879997,-214.720001
956.479980,121.024002,-210.815994
960.383972,121.024002,-216.671997
958.432007,124.928001,-222.528000
962.335999,121.024002,-214.720001
954.528015,134.688004,-210.815994
958.432007,134.688004,-201.056000
950.624023,130.783997,-210.815994
950.624023,128.832001,-206.912003
952.575989,124.928001,-218.623993
956.479980,134.688004,-212.768005
954.528015,126.879997,-208.863998
960.383972,130.783997,-210.815994
960.383972,128.832001,-216.671997
948.671997,126.879997,-212.768005
944.768005,121.024002,-204.960007
950.624023,130.783997,-214.720001
954.528015,121.024002,-210.815994
950.624023,124.928001,-218.623993
944.768005,121.024002,-212.768005
960.383972,126.879997,-222.528000
958.432007,119.071999,-218.623993
950.624023,128.832001,-208.863998
954.528015,130.783997,-214.720001
946.719971,132.735992,-214.720001
946.719971,128.832001,-208.863998
948.671997,134.688004,-203.007996
956.479980,124.928001,-210.815994
954.528015,134.688004,-222.528000
944.768005,136.639999,-208.863998
952.575989,136.639999,-208.863998
944.768005,126.879997,-218.623993
950.624023,130.783997,-218.623993
952.575989,126.879997,-210.815994
958.432007,128.832001,-220.576004
952.575989,136.639999,-224.479996
958.432007,134.688004,-230.335999
944.768005,128.832001,-208.863998
946.719971,130.783997,-208.863998
954.528015,132.735992,-212.768005
958.432007,138.591995,-208.863998
958.432007,136.639999,-212.768005
960.383972,126.879997,-222.528000
964.288025,128.832001,-218.623993
966.239990,140.544006,-220.576004
952.575989,136.639999,-210.815994
948.671997,138.591995,-208.863998
956.479980,138.591995,-210.815994
954.528015,134.688004,-214.720001
956.479980,138.591995,-214.720001
966.239990,138.591995,-216.671997
962.335999,134.688004,-220.576004
966.239990,138.591995,-222.528000
966.239990,132.735992,-212.768005
966.239990,128.832001,-214.720001
966.239990,138.591995,-212.768005
966.239990,136.639999,-218.623993
966.239990,132.735992,-212.768005
966.239990,130.783997,-216.671997
964.288025,136.639999,-212.768005
972.096008,130.783997,-212.768005
962.335999,140.544006,-222.528000
966.239990,138.591995,-224.479996
966.239990,148.352005,-214.720001
968.192017,144.447998,-206.912003
964.288025,140.544006,-216.671997
958.432007,144.447998,-212.768005
962.335999,146.399994,-210.815994
962.335999,148.352005,-208.863998
954.528015,128.832001,-218.623993
958.432007,132.735992,-212.768005
954.528015,142.496002,-216.671997
958.432007,128.832001,-214.720001
962.335999,138.591995,-212.768005
948.671997,132.735992,-216.671997
958.432007,126.879997,-208.863998
952.575989,132.735992,-216.671997
958.432007,130.783997,-218.623993
962.335999,128.832001,-220.576004
966.239990,134.688004,-222.528000
962.335999,130.783997,-220.576004
956.479980,140.544006,-224.479996
956.479980,138.591995,-220.576004
956.479980,128.832001,-218.623993
954.528015,138.591995,-222.528000
962.335999,140.544006,-214.720001
964.288025,132.735992,-210.815994
966.239990,138.591995,-218.623993
960.383972,122.975998,-214.720001
966.239990,126.879997,-222.528000
964.288025,132.735992,-224.479996
964.288025,138.591995,-218.623993
956.479980,134.688004,-218.623993
956.479980,128.832001,-212.768005
962.335999,132.735992,-214.720001
960.383972,132.735992,-212.768005
966.239990,140.544006,-218.623993
962.335999,132.735992,-212.768005
956.479980,124.928001,-203.007996
964.288025,126.879997,-214.720001
958.432007,132.735992,-204.960007
960.383972,144.447998,-206.912003
960.383972,138.591995,-204.960007
962.335999,142.496002,-204.960007
956.479980,136.639999,-212.768005
948.671997,136.639999,-214.720001
950.624023,132.735992,-208.863998
958.432007,132.735992,-201.056000
958.432007,128.832001,-204.960007
960.383972,142.496002,-206.912003
958.432007,142.496002,-204.960007
952.575989,136.639999,-210.815994
948.671997,144.447998,-214.720001
948.671997,138.591995,-216.671997
948.671997,134.688004,-208.863998
950.624023,134.688004,-197.151993
940.864014,134.688004,-208.863998
946.719971,138.591995,-210.815994
942.815979,140.544006,-204.960007
946.719971,140.544006,-208.863998
938.911987,128.832001,-208.863998
940.864014,134.688004,-210.815994
938.911987,140.544006,-210.815994
944.768005,126.879997,-212.768005
938.911987,146.399994,-212.768005
940.864014,142.496002,-218.623993
942.815979,146.399994,-212.768005
936.960022,148.352005,-204.960007
929.151978,144.447998,-204.960007
936.960022,140.544006,-218.623993
933.056030,138.591995,-212.768005
946.719971,128.832001,-210.815994
936.960022,134.688004,-212.768005
946.719971,136.639999,-214.720001
942.815979,140.544006,-218.623993
944.768005,142.496002,-214.720001
946.719971,140.544006,-206.912003
944.768005,140.544006,-216.671997
954.528015,136.639999,-216.671997
954.528015,130.783997,-214.720001
960.383972,126.879997,-214.720001
966.239990,122.975998,-208.863998
960.383972,122.975998,-201.056000
968.192017,130.783997,-195.199997
956.479980,134.688004,-187.391998
962.335999,134.688004,-187.391998
966.239990,140.544006,-189.343994
958.432007,146.399994,-189.343994
960.383972,148.352005,-195.199997
960.383972,156.160004,-203.007996
948.671997,162.016006,-214.720001
948.671997,152.255997,-212.768005
942.815979,146.399994,-222.528000
954.528015,148.352005,-212.768005
960.383972,160.063995,-208.863998
958.432007,144.447998,-220.576004
952.575989,142.496002,-222.528000
952.575989,142.496002,-230.335999
956.479980,142.496002,-226.432007
952.575989,144.447998,-224.479996
958.432007,136.639999,-224.479996
956.479980,138.591995,-224.479996
958.432007,142.496002,-222.528000
966.239990,134.688004,-210.815994
968.192017,126.879997,-206.912003
976.000000,126.879997,-201.056000
976.000000,128.832001,-204.960007
976.000000,126.879997,-210.815994
976.000000,132.735992,-214.720001
976.000000,130.783997,-216.671997
974.047974,132.735992,-216.671997
977.952026,138.591995,-216.671997
976.000000,148.352005,-212.768005
972.096008,152.255997,-214.720001
974.047974,150.304001,-210.815994
964.288025,148.352005,-216.671997
960.383972,152.255997,-222.528000
964.288025,158.112000,-218.623993
960.383972,150.304001,-216.671997
960.383972,152.255997,-222.528000
960.383972,146.399994,-220.576004
964.288025,150.304001,-220.576004
966.239990,140.544006,-218.623993
964.288025,142.496002,-212.768005
977.952026,134.688004,-208.863998
970.143982,144.447998,-206.912003
972.096008,140.544006,-210.815994
962.335999,117.120003,-208.863998
974.047974,121.024002,-204.960007
964.288025,126.879997,-216.671997
977.952026,122.975998,-212.768005
960.383972,126.879997,-214.720001
954.528015,132.735992,-212.768005
954.528015,136.639999,-214.720001
954.528015,132.735992,-216.671997
956.479980,132.735992,-210.815994
954.528015,138.591995,-216.671997
956.479980,142.496002,-208.863998
956.479980,140.544006,-212.768005
954.528015,144.447998,-208.863998
954.528015,148.352005,-210.815994
954.528015,148.352005,-208.863998
954.528015,144.447998,-208.863998
954.528015,138.591995,-208.863998
952.575989,138.591995,-201.056000
952.575989,138.591995,-214.720001
952.575989,142.496002,-204.960007
950.624023,128.832001,-214.720001
952.575989,132.735992,-208.863998
944.768005,134.688004,-214.720001
952.575989,119.071999,-222.528000
950.624023,113.216003,-218.623993
954.528015,111.264000,-214.720001
946.719971,115.167999,-212.768005
950.624023,119.071999,-210.815994
946.719971,121.024002,-218.623993
954.528015,124.928001,-208.863998
954.528015,134.688004,-208.863998
952.575989,132.735992,-210.815994
958.432007,134.688004,-204.960007
948.671997,142.496002,-216.671997
962.335999,140.544006,-212.768005
960.383972,136.639999,-210.815994
964.288025,132.735992,-206.912003
964.288025,130.783997,-204.960007
958.432007,132.735992,-201.056000
956.479980,132.735992,-212.768005
954.528015,119.071999,-197.151993
960.383972,117.120003,-199.104004
968.192017,115.167999,-199.104004
974.047974,122.975998,-201.056000
966.239990,134.688004,-185.440002
962.335999,119.071999,-171.776001
958.432007,124.928001,-169.824005
956.479980,124.928001,-183.488007
958.432007,117.120003,-185.440002
962.335999,138.591995,-199.104004
958.432007,146.399994,-197.151993
960.383972,146.399994,-216.671997
954.528015,128.832001,-218.623993
946.719971,121.024002,-222.528000
946.719971,140.544006,-214.720001
938.911987,140.544006,-214.720001
931.104004,138.591995,-220.576004
933.056030,136.639999,-230.335999
925.247986,138.591995,-224.479996
935.007996,140.544006,-222.528000
950.624023,130.783997,-216.671997
948.671997,132.735992,-216.671997
950.624023,128.832001,-201.056000
960.383972,122.975998,-214.720001
964.288025,109.311996,-197.151993
962.335999,113.216003,-201.056000
960.383972,113.216003,-201.056000
966.239990,122.975998,-195.199997
964.288025,134.688004,-199.104004
964.288025,142.496002,-210.815994
960.383972,132.735992,-212.768005
950.624023,140.544006,-208.863998
954.528015,152.255997,-212.768005
958.432007,142.496002,-224.479996
940.864014,154.207993,-218.623993
940.864014,150.304001,-222.528000
958.432007,156.160004,-218.623993
956.479980,154.207993,-220.576004
960.383972,150.304001,-210.815994
966.239990,144.447998,-206.912003
970.143982,148.352005,-199.104004
974.047974,136.639999,-195.199997
976.000000,132.735992,-189.343994
972.096008,138.591995,-173.727997
974.047974,124.928001,-185.440002
977.952026,121.024002,-189.343994
970.143982,128.832001,-197.151993
976.000000,126.879997,-199.104004
977.952026,117.120003,-212.768005
974.047974,130.783997,-222.528000
972.096008,124.928001,-218.623993
960.383972,128.832001,-220.576004
948.671997,128.832001,-236.192001
956.479980,136.639999,-224.479996
956.479980,144.447998,-216.671997
962.335999,146.399994,-216.671997
977.952026,154.207993,-218.623993
974.047974,150.304001,-204.960007
970.143982,150.304001,-206.912003
976.000000,146.399994,-201.056000
976.000000,146.399994,-199.104004
977.952026,144.447998,-193.248001
970.143982,154.207993,-197.151993
976.000000,138.591995,-206.912003
974.047974,128.832001,-201.056000
956.479980,126.879997,-212.768005
952.575989,134.688004,-210.815994
956.479980,130.783997,-228.384003
948.671997,128.832001,-226.432007
952.575989,122.975998,-224.479996
954.528015,122.975998,-234.240005
944.768005,132.735992,-228.384003
948.671997,124.928001,-224.479996
954.528015,134.688004,-212.768005
956.479980,128.832001,-210.815994
966.239990,138.591995,-204.960007
964.288025,146.399994,-197.151993
968.192017,138.591995,-201.056000
958.432007,146.399994,-197.151993
968.192017,150.304001,-197.151993
970.143982,142.496002,-212.768005
974.047974,144.447998,-208.863998
966.239990,138.591995,-212.768005
960.383972,142.496002,-212.768005
966.239990,146.399994,-220.576004
966.239990,138.591995,-220.576004
962.335999,140.544006,-222.528000
956.479980,132.735992,-226.432007
956.479980,130.783997,-220.576004
962.335999,132.735992,-218.623993
964.288025,128.832001,-212.768005
970.143982,146.399994,-214.720001
970.143982,136.639999,-204.960007
976.000000,138.591995,-201.056000
977.952026,134.688004,-203.007996
977.952026,138.591995,-206.912003
968.192017,138.591995,-193.248001
976.000000,148.352005,-201.056000
972.096008,140.544006,-214.720001
974.047974,130.783997,-216.671997
974.047974,140.544006,-218.623993
972.096008,144.447998,-222.528000
970.143982,130.783997,-224.479996
964.288025,140.544006,-220.576004
968.192017,140.544006,-222.528000
976.000000,142.496002,-226.432007
987.711975,138.591995,-222.528000
976.000000,132.735992,-226.432007
985.760010,144.447998,-222.528000
983.807983,142.496002,-218.623993
993.567993,138.591995,-218.623993
997.471985,144.447998,-203.007996
995.520020,142.496002,-210.815994
985.760010,136.639999,-210.815994
989.664001,136.639999,-206.912003
991.616028,144.447998,-212.768005
983.807983,146.399994,-214.720001
981.856018,138.591995,-208.863998
976.000000,136.639999,-220.576004
972.096008,136.639999,-224.479996
983.807983,144.447998,-220.576004
979.903992,142.496002,-222.528000
983.807983,144.447998,-224.479996
983.807983,146.399994,-216.671997
985.760010,142.496002,-216.671997
989.664001,146.399994,-226.432007
993.567993,136.639999,-218.623993
997.471985,138.591995,-210.815994
1001.375977,138.591995,-201.056000
991.616028,134.688004,-210.815994
995.520020,144.447998,-210.815994
991.616028,140.544006,-216.671997
995.520020,132.735992,-210.815994
987.711975,140.544006,-218.623993
993.567993,140.544006,-220.576004
991.616028,142.496002,-230.335999
997.471985,140.544006,-218.623993
993.567993,138.591995,-222.528000
983.807983,146.399994,-220.576004
976.000000,142.496002,-216.671997
987.711975,136.639999,-222.528000
985.760010,128.832001,-222.528000
985.760010,134.688004,-218.623993
991.616028,136.639999,-210.815994
997.471985,136.639999,-204.960007
987.711975,138.591995,-212.768005
999.424011,130.783997,-208.863998
991.616028,136.639999,-204.960007
995.520020,138.591995,-212.768005
987.711975,136.639999,-212.768005
987.711975,148.352005,-212.768005
976.000000,142.496002,-216.671997
981.856018,138.591995,-222.528000
977.952026,138.591995,-224.479996
979.903992,130.783997,-220.576004
981.856018,138.591995,-222.528000
979.903992,136.639999,-226.432007
976.000000,136.639999,-220.576004
979.903992,136.639999,-220.576004
993.567993,138.591995,-218.623993
991.616028,136.639999,-212.768005
993.567993,140.544006,-212.768005
995.520020,136.639999,-210.815994
983.807983,124.928001,-218.623993
993.567993,121.024002,-216.671997
987.711975,134.688004,-212.768005
987.711975,128.832001,-212.768005
985.760010,138.591995,-218.623993
981.856018,132.735992,-220.576004
979.903992,142.496002,-226.432007
983.807983,138.591995,-230.335999
976.000000,132.735992,-220.576004
993.567993,140.544006,-222.528000
977.952026,136.639999,-216.671997
976.000000,142.496002,-216.671997
974.047974,140.544006,-224.479996
981.856018,150.304001,-218.623993
985.760010,142.496002,-220.576004
985.760010,134.688004,-212.768005
979.903992,130.783997,-214.720001
995.520020,121.024002,-214.720001
997.471985,113.216003,-214.720001
983.807983,130.783997,-210.815994
979.903992,130.783997,-222.528000
976.000000,126.879997,-210.815994
979.903992,122.975998,-201.056000
974.047974,115.167999,-206.912003
972.096008,105.407997,-204.960007
972.096008,124.928001,-218.623993
977.952026,134.688004,-214.720001
985.760010,142.496002,-222.528000
981.856018,142.496002,-224.479996
977.952026,130.783997,-230.335999
976.000000,132.735992,-226.432007
968.192017,140.544006,-218.623993
970.143982,140.544006,-216.671997
977.952026,144.447998,-212.768005
976.000000,136.639999,-214.720001
970.143982,130.783997,-212.768005
976.000000,130.783997,-216.671997
977.952026,136.639999,-216.671997
976.000000,142.496002,-220.576004
976.000000,132.735992,-216.671997
977.952026,124.928001,-220.576004
983.807983,122.975998,-220.576004
976.000000,121.024002,-218.623993
964.288025,121.024002,-216.671997
972.096008,119.071999,-220.576004
977.952026,124.928001,-218.623993
983.807983,124.928001,-218.623993
979.903992,130.783997,-218.623993
983.807983,124.928001,-224.479996
979.903992,132.735992,-214.720001
991.616028,126.879997,-222.528000
976.000000,130.783997,-220.576004
981.856018,124.928001,-218.623993
993.567993,128.832001,-218.623993
983.807983,126.879997,-226.432007
977.952026,130.783997,-218.623993
985.760010,128.832001,-216.671997
989.664001,128.832001,-208.863998
997.471985,134.688004,-214.720001
993.567993,122.975998,-214.720001
995.520020,126.879997,-218.623993
985.760010,122.975998,-206.912003
983.807983,124.928001,-210.815994
987.711975,130.783997,-203.007996
979.903992,132.735992,-208.863998
983.807983,128.832001,-214.720001
985.760010,128.832001,-212.768005
977.952026,132.735992,-206.912003
979.903992,140.544006,-204.960007
977.952026,142.496002,-214.720001
972.096008,138.591995,-204.960007
968.192017,142.496002,-216.671997
972.096008,138.591995,-212.768005
974.047974,138.591995,-212.768005
962.335999,134.688004,-212.768005
960.383972,136.639999,-212.768005
956.479980,148.352005,-206.912003
968.192017,144.447998,-204.960007
966.239990,128.832001,-212.768005
964.288025,132.735992,-201.056000
968.192017,132.735992,-210.815994
979.903992,132.735992,-197.151993
968.192017,122.975998,-214.720001
962.335999,126.879997,-212.768005
966.239990,130.783997,-212.768005
962.335999,128.832001,-218.623993
962.335999,128.832001,-212.768005
964.288025,121.024002,-210.815994
966.239990,124.928001,-214.720001
966.239990,132.735992,-218.623993
960.383972,126.879997,-216.671997
958.432007,124.928001,-218.623993
962.335999,140.544006,-216.671997
966.239990,142.496002,-212.768005
960.383972,132.735992,-204.960007
962.335999,144.447998,-204.960007
962.335999,144.447998,-208.863998
960.383972,142.496002,-210.815994
966.239990,138.591995,-210.815994
964.288025,134.688004,-206.912003
974.047974,136.639999,-216.671997
964.288025,138.591995,-210.815994
962.335999,144.447998,-214.720001
956.479980,134.688004,-218.623993
968.192017,130.783997,-210.815994
964.288025,130.783997,-210.815994
962.335999,128.832001,-212.768005
966.239990,138.591995,-212.768005
964.288025,138.591995,-210.815994
968.192017,134.688004,-212.768005
964.288025,138.591995,-210.815994
960.383972,132.735992,-210.815994
970.143982,132.735992,-204.960007
966.239990,140.544006,-218.623993
964.288025,136.639999,-212.768005
960.383972,138.591995,-210.815994
960.383972,142.496002,-210.815994
962.335999,136.639999,-212.768005
964.288025,144.447998,-216.671997
968.192017,142.496002,-208.863998
964.288025,138.591995,-210.815994
964.288025,146.399994,-216.671997
964.288025,134.688004,-210.815994
966.239990,138.591995,-218.623993
970.143982,140.544006,-214.720001
964.288025,150.304001,-208.863998
970.143982,142.496002,-206.912003
964.288025,136.639999,-210.815994
970.143982,142.496002,-208.863998
970.143982,146.399994,-208.863998
966.239990,144.447998,-203.007996
968.192017,134.688004,-214.720001
966.239990,140.544006,-212.768005
960.383972,146.399994,-216.671997
958.432007,132.735992,-210.815994
960.383972,132.735992,-212.768005
962.335999,140.544006,-212.768005
958.432007,146.399994,-214.720001
960.383972,146.399994,-218.623993
962.335999,138.591995,-218.623993
960.383972,134.688004,-212.768005
962.335999,144.447998,-214.720001
962.335999,140.544006,-218.623993
964.288025,138.591995,-212.768005
966.239990,138.591995,-210.815994
966.239990,142.496002,-208.863998
960.383972,148.352005,-208.863998
960.383972,150.304001,-216.671997
970.143982,144.447998,-208.863998
968.192017,144.447998,-206.912003
966.239990,142.496002,-218.623993
964.288025,146.399994,-216.671997
964.288025,142.496002,-210.815994
956.479980,140.544006,-208.863998
956.479980,136.639999,-214.720001
958.432007,138.591995,-212.768005
960.383972,136.639999,-212.768005
956.479980,136.639999,-212.768005
962.335999,138.591995,-218.623993
968.192017,134.688004,-218.623993
966.239990,132.735992,-212.768005
964.288025,136.639999,-212.768005
970.143982,136.639999,-210.815994
970.143982,132.735992,-212.768005
968.192017,140.544006,-210.815994
964.288025,136.639999,-218.623993
966.239990,148.352005,-216.671997
964.288025,140.544006,-212.768005
970.143982,144.447998,-218.623993
956.479980,138.591995,-212.768005
966.239990,138.591995,-212.768005
962.335999,140.544006,-218.623993
966.239990,142.496002,-208.863998
964.288025,140.544006,-212.768005
972.096008,146.399994,-216.671997
981.856018,134.688004,-216.671997
970.143982,130.783997,-212.768005
972.096008,128.832001,-208.863998
968.192017,134.688004,-218.623993
968.192017,138.591995,-212.768005
970.143982,138.591995,-216.671997
966.239990,130.783997,-212.768005
966.239990,124.928001,-206.912003
968.192017,134.688004,-212.768005
970.143982,132.735992,-210.815994
968.192017,140.544006,-218.623993
970.143982,130.783997,-220.576004
970.143982,136.639999,-216.671997
970.143982,136.639999,-224.479996
964.288025,144.447998,-210.815994
974.047974,140.544006,-220.576004
977.952026,144.447998,-220.576004
968.192017,140.544006,-212.768005
964.288025,146.399994,-218.623993
972.096008,146.399994,-220.576004
968.192017,144.447998,-206.912003
974.047974,144.447998,-208.863998
968.192017,142.496002,-216.671997
970.143982,136.639999,-222.528000
964.288025,134.688004,-216.671997
974.047974,138.591995,-216.671997
968.192017,140.544006,-220.576004
956.479980,132.735992,-218.623993
966.239990,136.639999,-218.623993
964.288025,146.399994,-216.671997
964.288025,140.544006,-226.432007
966.239990,140.544006,-216.671997
966.239990,136.639999,-222.528000
960.383972,142.496002,-212.768005
966.239990,144.447998,-214.720001
966.239990,136.639999,-216.671997
960.383972,146.399994,-214.720001
958.432007,146.399994,-220.576004
964.288025,138.591995,-216.671997
974.047974,142.496002,-204.960007
970.143982,150.304001,-212.768005
966.239990,150.304001,-208.863998
964.288025,144.447998,-216.671997
962.335999,140.544006,-218.623993
964.288025,138.591995,-218.623993
974.047974,132.735992,-216.671997
966.239990,134.688004,-222.528000
962.335999,138.591995,-222.528000
956.479980,144.447998,-216.671997
970.143982,146.399994,-226.432007
960.383972,146.399994,-216.671997
964.288025,142.496002,-210.815994
968.192017,138.591995,-218.623993
977.952026,136.639999,-208.863998
964.288025,140.544006,-212.768005
972.096008,128.832001,-214.720001
962.335999,134.688004,-210.815994
979.903992,132.735992,-216.671997
960.383972,144.447998,-210.815994
966.239990,134.688004,-218.623993
966.239990,128.832001,-218.623993
974.047974,138.591995,-212.768005
962.335999,132.735992,-222.528000
966.239990,140.544006,-224.479996
954.528015,138.591995,-222.528000
966.239990,140.544006,-212.768005
956.479980,142.496002,-222.528000
962.335999,136.639999,-212.768005
970.143982,130.783997,-222.528000
968.192017,134.688004,-218.623993
972.096008,136.639999,-210.815994
970.143982,132.735992,-212.768005
974.047974,140.544006,-212.768005
970.143982,138.591995,-204.960007
972.096008,126.879997,-216.671997
970.143982,128.832001,-214.720001
970.143982,136.639999,-216.671997
974.047974,134.688004,-212.768005
968.192017,132.735992,-218.623993
968.192017,134.688004,-218.623993
974.047974,132.735992,-218.623993
964.288025,134.688004,-218.623993
974.047974,130.783997,-214.720001
977.952026,136.639999,-214.720001
974.047974,136.639999,-220.576004
964.288025,136.639999,-222.528000
968.192017,142.496002,-216.671997
974.047974,138.591995,-216.671997
977.952026,146.399994,-208.863998
970.143982,136.639999,-212.768005
974.047974,136.639999,-218.623993
974.047974,132.735992,-216.671997
972.096008,136.639999,-216.671997
968.192017,138.591995,-222.528000
962.335999,128.832001,-220.576004
970.143982,132.735992,-218.623993
974.047974,134.688004,-220.576004
970.143982,136.639999,-218.623993
968.192017,142.496002,-214.720001
976.000000,132.735992,-216.671997
976.000000,140.544006,-212.768005
979.903992,138.591995,-220.576004
974.047974,142.496002,-214.720001
976.000000,136.639999,-216.671997
974.047974,144.447998,-214.720001
981.856018,142.496002,-218.623993
977.952026,142.496002,-222.528000
968.192017,138.591995,-222.528000
976.000000,132.735992,-220.576004
974.047974,138.591995,-224.479996
987.711975,138.591995,-220.576004
976.000000,132.735992,-216.671997
985.760010,144.447998,-218.623993
983.807983,142.496002,-220.576004
976.000000,142.496002,-222.528000
979.903992,142.496002,-220.576004
979.903992,146.399994,-224.479996
983.807983,136.639999,-216.671997
974.047974,134.688004,-216.671997
981.856018,126.879997,-214.720001
981.856018,128.832001,-216.671997
983.807983,138.591995,-222.528000
977.952026,138.591995,-216.671997
974.047974,144.447998,-216.671997
985.760010,138.591995,-218.623993
979.903992,142.496002,-222.528000
985.760010,150.304001,-224.479996
976.000000,138.591995,-220.576004
976.000000,138.591995,-222.528000
977.952026,144.447998,-222.528000
985.760010,138.591995,-214.720001
989.664001,150.304001,-222.528000
993.567993,144.447998,-210.815994
974.047974,130.783997,-216.671997
977.952026,124.928001,-212.768005
979.903992,130.783997,-216.671997
979.903992,136.639999,-208.863998
979.903992,132.735992,-226.432007
985.760010,128.832001,-212.768005
976.000000,138.591995,-216.671997
976.000000,132.735992,-220.576004
985.760010,138.591995,-218.623993
987.711975,142.496002,-220.576004
979.903992,134.688004,-226.432007
985.760010,146.399994,-230.335999
985.760010,132.735992,-222.528000
985.760010,138.591995,-216.671997
974.047974,138.591995,-228.384003
979.903992,130.783997,-228.384003
979.903992,132.735992,-216.671997
985.760010,136.639999,-218.623993
977.952026,128.832001,-216.671997
979.903992,130.783997,-216.671997
976.000000,136.639999,-216.671997
985.760010,134.688004,-224.479996
979.903992,138.591995,-216.671997
977.952026,142.496002,-218.623993
977.952026,124.928001,-218.623993
979.903992,142.496002,-226.432007
985.760010,128.832001,-220.576004
976.000000,130.783997,-220.576004
970.143982,121.024002,-226.432007
974.047974,136.639999,-226.432007
974.047974,134.688004,-220.576004
974.047974,130.783997,-226.432007
968.192017,128.832001,-222.528000
960.383972,130.783997,-212.768005
974.047974,142.496002,-226.432007
977.952026,142.496002,-230.335999
974.047974,124.928001,-226.432007
974.047974,138.591995,-222.528000
976.000000,134.688004,-216.671997
977.952026,124.928001,-218.623993
974.047974,130.783997,-216.671997
968.192017,128.832001,-220.576004
976.000000,130.783997,-222.528000
976.000000,132.735992,-220.576004
974.047974,124.928001,-222.528000
960.383972,126.879997,-216.671997
970.143982,128.832001,-214.720001
972.096008,130.783997,-230.335999
972.096008,124.928001,-220.576004
977.952026,122.975998,-220.576004
981.856018,126.879997,-228.384003
968.192017,126.879997,-222.528000
976.000000,130.783997,-222.528000
972.096008,122.975998,-218.623993
977.952026,130.783997,-226.432007
981.856018,124.928001,-222.528000
979.903992,132.735992,-214.720001
974.047974,122.975998,-222.528000
976.000000,132.735992,-222.528000
981.856018,130.783997,-218.623993
981.856018,130.783997,-218.623993
977.952026,122.975998,-218.623993
976.000000,124.928001,-222.528000
976.000000,132.735992,-216.671997
981.856018,124.928001,-222.528000
989.664001,134.688004,-226.432007
985.760010,130.783997,-216.671997
985.760010,128.832001,-212.768005
981.856018,124.928001,-222.528000
985.760010,130.783997,-220.576004
987.711975,132.735992,-218.623993
993.567993,122.975998,-212.768005
983.807983,138.591995,-216.671997
991.616028,121.024002,-222.528000
981.856018,130.783997,-224.479996
985.760010,138.591995,-220.576004
985.760010,132.735992,-220.576004
993.567993,128.832001,-222.528000
989.664001,124.928001,-218.623993
987.711975,124.928001,-226.432007
993.567993,130.783997,-216.671997
991.616028,128.832001,-222.528000
985.760010,134.688004,-228.384003
991.616028,128.832001,-222.528000
991.616028,121.024002,-222.528000
989.664001,134.688004,-216.671997
983.807983,130.783997,-220.576004
983.807983,126.879997,-234.240005
977.952026,134.688004,-230.335999
976.000000,130.783997,-220.576004
979.903992,130.783997,-228.384003
987.711975,134.688004,-222.528000
981.856018,124.928001,-224.479996
983.807983,122.975998,-224.479996
977.952026,140.544006,-226.432007
987.711975,130.783997,-226.432007
979.903992,130.783997,-226.432007
981.856018,132.735992,-222.528000
983.807983,134.688004,-226.432007
987.711975,136.639999,-218.623993
987.711975,134.688004,-224.479996
989.664001,130.783997,-226.432007
977.952026,140.544006,-226.432007
983.807983,132.735992,-228.384003
976.000000,130.783997,-226.432007
979.903992,142.496002,-220.576004
983.807983,128.832001,-220.576004
979.903992,132.735992,-226.432007
979.903992,138.591995,-214.720001
989.664001,132.735992,-212.768005
983.807983,128.832001,-228.384003
981.856018,136.639999,-232.287994
979.903992,134.688004,-226.432007
972.096008,124.928001,-230.335999
976.000000,140.544006,-230.335999
981.856018,128.832001,-228.384003
977.952026,132.735992,-228.384003
989.664001,128.832001,-226.432007
985.760010,134.688004,-220.576004
993.567993,134.688004,-222.528000
981.856018,130.783997,-224.479996
993.567993,134.688004,-224.479996
974.047974,130.783997,-226.432007
979.903992,130.783997,-216.671997
976.000000,121.024002,-230.335999
981.856018,124.928001,-222.528000
977.952026,124.928001,-218.623993
976.000000,132.735992,-226.432007
976.000000,132.735992,-222.528000
977.952026,134.688004,-222.528000
970.143982,136.639999,-220.576004
970.143982,124.928001,-220.576004
968.192017,138.591995,-224.479996
977.952026,130.783997,-218.623993
964.288025,130.783997,-228.384003
974.047974,134.688004,-220.576004
970.143982,122.975998,-220.576004
970.143982,122.975998,-222.528000
970.143982,124.928001,-218.623993
958.432007,128.832001,-224.479996
960.383972,128.832001,-220.576004
974.047974,128.832001,-224.479996
970.143982,121.024002,-222.528000
968.192017,140.544006,-222.528000
966.239990,128.832001,-222.528000
966.239990,134.688004,-220.576004
968.192017,126.879997,-218.623993
970.143982,121.024002,-216.671997
964.288025,126.879997,-222.528000
972.096008,126.879997,-226.432007
977.952026,126.879997,-214.720001
977.952026,130.783997,-218.623993
970.143982,126.879997,-216.671997
974.047974,126.879997,-230.335999
970.143982,121.024002,-220.576004
977.952026,132.735992,-226.432007
964.288025,128.832001,-222.528000
977.952026,128.832001,-214.720001
968.192017,124.928001,-216.671997
976.000000,130.783997,-226.432007
970.143982,122.975998,-212.768005
977.952026,122.975998,-220.576004
974.047974,128.832001,-212.768005
976.000000,126.879997,-212.768005
974.047974,134.688004,-216.671997
970.143982,122.975998,-212.768005
974.047974,128.832001,-212.768005
974.047974,124.928001,-214.720001
976.000000,126.879997,-212.768005
977.952026,122.975998,-218.623993
970.143982,122.975998,-218.623993
979.903992,130.783997,-220.576004
970.143982,121.024002,-226.432007
964.288025,117.120003,-222.528000
968.192017,128.832001,-222.528000
966.239990,128.832001,-222.528000
964.288025,134.688004,-232.287994
970.143982,126.879997,-220.576004
964.288025,128.832001,-208.863998
962.335999,128.832001,-222.528000
968.192017,128.832001,-218.623993
964.288025,134.688004,-218.623993
968.192017,136.639999,-218.623993
966.239990,134.688004,-224.479996
960.383972,128.832001,-220.576004
962.335999,132.735992,-220.576004
956.479980,134.688004,-212.768005
962.335999,134.688004,-218.623993
948.671997,130.783997,-216.671997
954.528015,140.544006,-210.815994
962.335999,130.783997,-216.671997
968.192017,138.591995,-218.623993
964.288025,128.832001,-218.623993
966.239990,134.688004,-218.623993
954.528015,138.591995,-216.671997
958.432007,130.783997,-224.479996
956.479980,134.688004,-212.768005
956.479980,142.496002,-216.671997
966.239990,132.735992,-218.623993
964.288025,128.832001,-216.671997
962.335999,136.639999,-222.528000
962.335999,134.688004,-212.768005
960.383972,132.735992,-210.815994
962.335999,128.832001,-218.623993
966.239990,128.832001,-218.623993
958.432007,136.639999,-212.768005
962.335999,132.735992,-220.576004
956.479980,136.639999,-218.623993
954.528015,132.735992,-226.432007
960.383972,146.399994,-216.671997
956.479980,132.735992,-212.768005
958.432007,132.735992,-204.960007
952.575989,130.783997,-212.768005
950.624023,128.832001,-208.863998
950.624023,126.879997,-210.815994
944.768005,126.879997,-210.815994
954.528015,132.735992,-214.720001
948.671997,142.496002,-214.720001
954.528015,134.688004,-220.576004
948.671997,142.496002,-220.576004
954.528015,146.399994,-218.623993
950.624023,138.591995,-214.720001
954.528015,146.399994,-208.863998
946.719971,140.544006,-210.815994
944.768005,140.544006,-216.671997
958.432007,146.399994,-226.432007
944.768005,142.496002,-216.671997
950.624023,138.591995,-208.863998
948.671997,144.447998,-208.863998
954.528015,140.544006,-212.768005
956.479980,136.639999,-222.528000
954.528015,140.544006,-220.576004
948.671997,132.735992,-220.576004
954.528015,138.591995,-216.671997
954.528015,132.735992,-218.623993
956.479980,142.496002,-210.815994
950.624023,136.639999,-222.528000
944.768005,138.591995,-216.671997
952.575989,142.496002,-218.623993
952.575989,138.591995,-216.671997
956.479980,134.688004,-218.623993
958.432007,136.639999,-201.056000
952.575989,142.496002,-212.768005
962.335999,132.735992,-218.623993
948.671997,138.591995,-222.528000
956.479980,138.591995,-218.623993
954.528015,134.688004,-218.623993
962.335999,134.688004,-222.528000
954.528015,132.735992,-216.671997
950.624023,119.071999,-224.479996
948.671997,126.879997,-212.768005
950.624023,122.975998,-218.623993
962.335999,124.928001,-208.863998
954.528015,117.120003,-214.720001
952.575989,124.928001,-218.623993
962.335999,134.688004,-224.479996
966.239990,136.639999,-218.623993
954.528015,128.832001,-230.335999
952.575989,124.928001,-220.576004
962.335999,134.688004,-222.528000
966.239990,128.832001,-220.576004
960.383972,121.024002,-226.432007
960.383972,121.024002,-212.768005
964.288025,121.024002,-216.671997
960.383972,117.120003,-216.671997
958.432007,121.024002,-218.623993
960.383972,126.879997,-214.720001
960.383972,126.879997,-220.576004
962.335999,124.928001,-214.720001
960.383972,134.688004,-210.815994
960.383972,126.879997,-222.528000
968.192017,121.024002,-208.863998
964.288025,113.216003,-210.815994
960.383972,126.879997,-220.576004
962.335999,115.167999,-218.623993
960.383972,126.879997,-216.671997
966.239990,134.688004,-212.768005
958.432007,130.783997,-218.623993
956.479980,134.688004,-218.623993
952.575989,122.975998,-216.671997
958.432007,128.832001,-214.720001
960.383972,128.832001,-218.623993
956.479980,121.024002,-208.863998
964.288025,126.879997,-218.623993
966.239990,119.071999,-214.720001
962.335999,128.832001,-212.768005
960.383972,121.024002,-222.528000
970.143982,126.879997,-220.576004
968.192017,113.216003,-216.671997
964.288025,121.024002,-208.863998
960.383972,122.975998,-222.528000
962.335999,128.832001,-222.528000
962.335999,130.783997,-210.815994
962.335999,134.688004,-210.815994
962.335999,128.832001,-218.623993
960.383972,126.879997,-216.671997
964.288025,121.024002,-216.671997
960.383972,126.879997,-216.671997
960.383972,121.024002,-220.576004
962.335999,128.832001,-218.623993
964.288025,122.975998,-224.479996
964.288025,121.024002,-218.623993
956.479980,109.311996,-220.576004
966.239990,126.879997,-222.528000
960.383972,124.928001,-224.479996
968.192017,128.832001,-222.528000
970.143982,128.832001,-214.720001
960.383972,130.783997,-210.815994
964.288025,134.688004,-212.768005
960.383972,121.024002,-216.671997
970.143982,126.879997,-222.528000
964.288025,126.879997,-220.576004
966.239990,126.879997,-222.528000
962.335999,126.879997,-214.720001
962.335999,128.832001,-212.768005
962.335999,128.832001,-226.432007
960.383972,136.639999,-230.335999
966.239990,136.639999,-220.576004
968.192017,138.591995,-220.576004
960.383972,138.591995,-224.479996
977.952026,142.496002,-226.432007
964.288025,138.591995,-218.623993
966.239990,132.735992,-218.623993
974.047974,126.879997,-230.335999
981.856018,136.639999,-220.576004
977.952026,134.688004,-228.384003
976.000000,126.879997,-230.335999
970.143982,128.832001,-216.671997
966.239990,138.591995,-218.623993
966.239990,136.639999,-224.479996
968.192017,132.735992,-228.384003
974.047974,138.591995,-216.671997
974.047974,138.591995,-226.432007
970.143982,138.591995,-232.287994
968.192017,136.639999,-220.576004
970.143982,140.544006,-216.671997
966.239990,138.591995,-220.576004
968.192017,142.496002,-218.623993
962.335999,140.544006,-216.671997
974.047974,136.639999,-224.479996
964.288025,126.879997,-220.576004
970.143982,126.879997,-220.576004
968.192017,136.639999,-224.479996
968.192017,138.591995,-230.335999
956.479980,140.544006,-222.528000
962.335999,132.735992,-234.240005
960.383972,126.879997,-220.576004
964.288025,138.591995,-222.528000
968.192017,132.735992,-222.528000
966.239990,132.735992,-224.479996
962.335999,134.688004,-224.479996
968.192017,134.688004,-230.335999
970.143982,136.639999,-234.240005
966.239990,140.544006,-224.479996
970.143982,134.688004,-232.287994
962.335999,134.688004,-226.432007
954.528015,142.496002,-234.240005
954.528015,146.399994,-230.335999
962.335999,130.783997,-222.528000
960.383972,132.735992,-230.335999
956.479980,136.639999,-216.671997
962.335999,134.688004,-218.623993
966.239990,138.591995,-230.335999
962.335999,138.591995,-230.335999
956.479980,138.591995,-224.479996
962.335999,138.591995,-222.528000
966.239990,128.832001,-226.432007
960.383972,128.832001,-220.576004
960.383972,138.591995,-224.479996
964.288025,130.783997,-230.335999
964.288025,138.591995,-230.335999
964.288025,134.688004,-232.287994
960.383972,136.639999,-222.528000
960.383972,126.879997,-220.576004
966.239990,134.688004,-220.576004
968.192017,132.735992,-216.671997
962.335999,134.688004,-236.192001
958.432007,128.832001,-216.671997
956.479980,132.735992,-216.671997
956.479980,130.783997,-220.576004
960.383972,130.783997,-224.479996
956.479980,140.544006,-230.335999
960.383972,128.832001,-218.623993
966.239990,140.544006,-224.479996
966.239990,138.591995,-220.576004
964.288025,126.879997,-216.671997
966.239990,128.832001,-218.623993
966.239990,138.591995,-224.479996
962.335999,134.688004,-218.623993
956.479980,138.591995,-220.576004
956.479980,140.544006,-230.335999
952.575989,128.832001,-228.384003
962.335999,138.591995,-218.623993
954.528015,124.928001,-214.720001
962.335999,140.544006,-222.528000
954.528015,142.496002,-226.432007
956.479980,138.591995,-230.335999
956.479980,132.735992,-228.384003
960.383972,132.735992,-230.335999
960.383972,128.832001,-226.432007
962.335999,128.832001,-222.528000
956.479980,138.591995,-218.623993
962.335999,138.591995,-212.768005
958.432007,144.447998,-216.671997
960.383972,138.591995,-210.815994
956.479980,132.735992,-220.576004
960.383972,136.639999,-224.479996
952.575989,126.879997,-222.528000
956.479980,134.688004,-216.671997
954.528015,130.783997,-222.528000
962.335999,128.832001,-218.623993
954.528015,126.879997,-222.528000
948.671997,134.688004,-222.528000
952.575989,128.832001,-226.432007
958.432007,130.783997,-212.768005
962.335999,128.832001,-220.576004
962.335999,126.879997,-220.576004
966.239990,124.928001,-214.720001
960.383972,117.120003,-220.576004
960.383972,134.688004,-222.528000
960.383972,121.024002,-214.720001
970.143982,128.832001,-226.432007
960.383972,134.688004,-222.528000
964.288025,126.879997,-220.576004
960.383972,126.879997,-218.623993
958.432007,130.783997,-218.623993
970.143982,134.688004,-218.623993
964.288025,134.688004,-210.815994
960.383972,115.167999,-222.528000
968.192017,115.167999,-218.623993
968.192017,126.879997,-212.768005
970.143982,117.120003,-222.528000
972.096008,117.120003,-216.671997
974.047974,130.783997,-214.720001
968.192017,126.879997,-216.671997
972.096008,124.928001,-210.815994
966.239990,122.975998,-210.815994
966.239990,126.879997,-216.671997
960.383972,121.024002,-214.720001
970.143982,128.832001,-210.815994
968.192017,122.975998,-216.671997
962.335999,128.832001,-218.623993
960.383972,124.928001,-204.960007
966.239990,121.024002,-208.863998
964.288025,126.879997,-216.671997
964.288025,121.024002,-216.671997
960.383972,126.879997,-208.863998
964.288025,128.832001,-216.671997
970.143982,122.975998,-218.623993
964.288025,115.167999,-220.576004
952.575989,109.311996,-214.720001
960.383972,122.975998,-216.671997
958.432007,117.120003,-216.671997
958.432007,126.879997,-216.671997
952.575989,119.071999,-218.623993
952.575989,117.120003,-222.528000
946.719971,117.120003,-222.528000
956.479980,109.311996,-218.623993
954.528015,109.311996,-220.576004
950.624023,117.120003,-212.768005
944.768005,130.783997,-216.671997
946.719971,119.071999,-222.528000
950.624023,121.024002,-218.623993
946.719971,124.928001,-222.528000
950.624023,113.216003,-212.768005
958.432007,109.311996,-216.671997
956.479980,109.311996,-220.576004
950.624023,113.216003,-218.623993
958.432007,117.120003,-218.623993
960.383972,121.024002,-226.432007
960.383972,121.024002,-216.671997
952.575989,117.120003,-212.768005
946.719971,119.071999,-224.479996
960.383972,119.071999,-214.720001
962.335999,109.311996,-218.623993
952.575989,115.167999,-226.432007
954.528015,117.120003,-220.576004
960.383972,119.071999,-222.528000
960.383972,115.167999,-216.671997
962.335999,109.311996,-218.623993
974.047974,109.311996,-218.623993
960.383972,119.071999,-220.576004
964.288025,122.975998,-214.720001
960.383972,124.928001,-210.815994
962.335999,115.167999,-220.576004
966.239990,121.024002,-216.671997
970.143982,117.120003,-216.671997
970.143982,113.216003,-218.623993
974.047974,103.456001,-222.528000
974.047974,109.311996,-218.623993
974.047974,119.071999,-208.863998
970.143982,117.120003,-222.528000
966.239990,126.879997,-212.768005
977.952026,122.975998,-220.576004
964.288025,126.879997,-214.720001
970.143982,122.975998,-214.720001
979.903992,113.216003,-222.528000
977.952026,122.975998,-218.623993
972.096008,122.975998,-218.623993
981.856018,121.024002,-218.623993
974.047974,124.928001,-226.432007
977.952026,122.975998,-218.623993
979.903992,113.216003,-216.671997
983.807983,115.167999,-220.576004
983.807983,122.975998,-222.528000
981.856018,121.024002,-224.479996
985.760010,121.024002,-224.479996
989.664001,119.071999,-216.671997
985.760010,122.975998,-216.671997
991.616028,119.071999,-226.432007
987.711975,111.264000,-220.576004
983.807983,119.071999,-222.528000
993.567993,113.216003,-214.720001
977.952026,124.928001,-226.432007
983.807983,126.879997,-226.432007
989.664001,124.928001,-224.479996
979.903992,117.120003,-220.576004
981.856018,119.071999,-230.335999
993.567993,132.735992,-228.384003
985.760010,134.688004,-228.384003
989.664001,124.928001,-220.576004
993.567993,126.879997,-218.623993
985.760010,134.688004,-224.479996
979.903992,128.832001,-228.384003
987.711975,130.783997,-226.432007
983.807983,136.639999,-230.335999
976.000000,130.783997,-220.576004
979.903992,134.688004,-222.528000
985.760010,126.879997,-224.479996
987.711975,128.832001,-222.528000
989.664001,132.735992,-212.768005
981.856018,124.928001,-222.528000
977.952026,124.928001,-224.479996
979.903992,132.735992,-226.432007
977.952026,140.544006,-234.240005
974.047974,134.688004,-226.432007
987.711975,138.591995,-224.479996
974.047974,132.735992,-230.335999
979.903992,142.496002,-220.576004
974.047974,142.496002,-216.671997
979.903992,142.496002,-226.432007
976.000000,132.735992,-216.671997
974.047974,134.688004,-228.384003
976.000000,130.783997,-226.432007
974.047974,138.591995,-224.479996
976.000000,136.639999,-226.432007
970.143982,134.688004,-214.720001
968.192017,138.591995,-220.576004
974.047974,140.544006,-224.479996
977.952026,138.591995,-228.384003
976.000000,130.783997,-220.576004
970.143982,146.399994,-222.528000
968.192017,140.544006,-218.623993
968.192017,138.591995,-224.479996
968.192017,138.591995,-230.335999
972.096008,136.639999,-216.671997
968.192017,136.639999,-220.576004
976.000000,134.688004,-226.432007
974.047974,140.544006,-232.287994
977.952026,140.544006,-234.240005
977.952026,134.688004,-228.384003
979.903992,142.496002,-226.432007
977.952026,138.591995,-228.384003
977.952026,142.496002,-232.287994
981.856018,138.591995,-228.384003
981.856018,138.591995,-232.287994
987.711975,130.783997,-220.576004
991.616028,124.928001,-228.384003
985.760010,130.783997,-230.335999
987.711975,134.688004,-224.479996
997.471985,122.975998,-226.432007
995.520020,126.879997,-216.671997
1001.375977,132.735992,-224.479996
995.520020,132.735992,-230.335999
999.424011,130.783997,-226.432007
999.424011,136.639999,-218.623993
1007.231995,132.735992,-228.384003
997.471985,132.735992,-218.623993
995.520020,128.832001,-220.576004
995.520020,134.688004,-212.768005
997.471985,140.544006,-226.432007
991.616028,152.255997,-220.576004
991.616028,132.735992,-216.671997
993.567993,144.447998,-208.863998
997.471985,138.591995,-218.623993
981.856018,138.591995,-208.863998
993.567993,138.591995,-216.671997
985.760010,134.688004,-218.623993
987.711975,132.735992,-216.671997
981.856018,144.447998,-224.479996
979.903992,136.639999,-222.528000
979.903992,130.783997,-216.671997
977.952026,132.735992,-222.528000
981.856018,124.928001,-224.479996
966.239990,121.024002,-218.623993
977.952026,122.975998,-220.576004
964.288025,124.928001,-210.815994
964.288025,130.783997,-212.768005
972.096008,121.024002,-220.576004
970.143982,119.071999,-220.576004
964.288025,117.120003,-226.432007
964.288025,126.879997,-222.528000
960.383972,117.120003,-220.576004
966.239990,126.879997,-212.768005
962.335999,128.832001,-216.671997
962.335999,136.639999,-222.528000
956.479980,132.735992,-226.432007
956.479980,138.591995,-222.528000
948.671997,136.639999,-216.671997
950.624023,130.783997,-224.479996
954.528015,132.735992,-226.432007
950.624023,121.024002,-230.335999
948.671997,132.735992,-220.576004
962.335999,132.735992,-218.623993
948.671997,134.688004,-220.576004
950.624023,122.975998,-222.528000
958.432007,122.975998,-222.528000
952.575989,117.120003,-218.623993
956.479980,122.975998,-208.863998
952.575989,130.783997,-218.623993
954.528015,130.783997,-216.671997
950.624023,122.975998,-210.815994
946.719971,128.832001,-218.623993
946.719971,128.832001,-208.863998
952.575989,122.975998,-210.815994
952.575989,134.688004,-208.863998
944.768005,138.591995,-214.720001
948.671997,130.783997,-216.671997
950.624023,136.639999,-214.720001
940.864014,144.447998,-210.815994
944.768005,146.399994,-204.960007
948.671997,140.544006,-208.863998
952.575989,138.591995,-206.912003
948.671997,146.399994,-210.815994
950.624023,140.544006,-206.912003
946.719971,138.591995,-208.863998
944.768005,136.639999,-216.671997
944.768005,142.496002,-218.623993
946.719971,132.735992,-208.863998
950.624023,134.688004,-206.912003
946.719971,128.832001,-208.863998
942.815979,144.447998,-206.912003
950.624023,138.591995,-208.863998
944.768005,126.879997,-206.912003
946.719971,138.591995,-208.863998
952.575989,130.783997,-218.623993
950.624023,134.688004,-208.863998
944.768005,136.639999,-214.720001
946.719971,138.591995,-214.720001
952.575989,140.544006,-214.720001
944.768005,138.591995,-210.815994
946.719971,136.639999,-214.720001
950.624023,144.447998,-212.768005
946.719971,146.399994,-214.720001
946.719971,150.304001,-212.768005
948.671997,142.496002,-226.432007
948.671997,144.447998,-212.768005
940.864014,142.496002,-212.768005
950.624023,138.591995,-208.863998
948.671997,126.879997,-210.815994
954.528015,130.783997,-208.863998
958.432007,130.783997,-218.623993
950.624023,138.591995,-204.960007
946.719971,132.735992,-208.863998
956.479980,122.975998,-206.912003
962.335999,124.928001,-208.863998
950.624023,126.879997,-212.768005
954.528015,126.879997,-208.863998
944.768005,130.783997,-216.671997
958.432007,126.879997,-208.863998
954.528015,132.735992,-216.671997
950.624023,138.591995,-214.720001
954.528015,134.688004,-218.623993
952.575989,142.496002,-216.671997
950.624023,124.928001,-222.528000
944.768005,134.688004,-216.671997
944.768005,132.735992,-216.671997
952.575989,132.735992,-208.863998
958.432007,132.735992,-208.863998
944.768005,126.879997,-201.056000
950.624023,138.591995,-208.863998
948.671997,124.928001,-216.671997
950.624023,138.591995,-216.671997
950.624023,124.928001,-218.623993
950.624023,115.167999,-204.960007
952.575989,121.024002,-208.863998
950.624023,124.928001,-218.623993
946.719971,126.879997,-206.912003
952.575989,124.928001,-218.623993
950.624023,122.975998,-222.528000
946.719971,121.024002,-218.623993
944.768005,122.975998,-210.815994
946.719971,138.591995,-214.720001
948.671997,124.928001,-214.720001
954.528015,126.879997,-206.912003
944.768005,130.783997,-214.720001
944.768005,126.879997,-201.056000
960.383972,130.783997,-210.815994
946.719971,134.688004,-214.720001
954.528015,132.735992,-220.576004
944.768005,134.688004,-216.671997
946.719971,122.975998,-210.815994
950.624023,119.071999,-218.623993
938.911987,119.071999,-216.671997
946.719971,117.120003,-212.768005
936.960022,117.120003,-210.815994
946.719971,128.832001,-208.863998
944.768005,122.975998,-210.815994
950.624023,126.879997,-216.671997
944.768005,130.783997,-218.623993
944.768005,134.688004,-214.720001
944.768005,124.928001,-216.671997
946.719971,122.975998,-210.815994
944.768005,121.024002,-206.912003
950.624023,128.832001,-208.863998
944.768005,122.975998,-204.960007
948.671997,122.975998,-204.960007
944.768005,128.832001,-210.815994
950.624023,128.832001,-214.720001
950.624023,146.399994,-204.960007
958.432007,136.639999,-204.960007
940.864014,134.688004,-210.815994
936.960022,126.879997,-214.720001
940.864014,142.496002,-212.768005
952.575989,136.639999,-210.815994
940.864014,136.639999,-206.912003
950.624023,132.735992,-208.863998
946.719971,128.832001,-197.151993
946.719971,126.879997,-208.863998
944.768005,121.024002,-201.056000
958.432007,124.928001,-204.960007
950.624023,128.832001,-206.912003
950.624023,128.832001,-203.007996
946.719971,128.832001,-203.007996
950.624023,124.928001,-199.104004
946.719971,134.688004,-204.960007
950.624023,138.591995,-201.056000
940.864014,136.639999,-201.056000
940.864014,134.688004,-208.863998
946.719971,140.544006,-204.960007
946.719971,136.639999,-204.960007
950.624023,136.639999,-204.960007
935.007996,136.639999,-204.960007
946.719971,136.639999,-203.007996
936.960022,136.639999,-204.960007
940.864014,142.496002,-199.104004
942.815979,146.399994,-201.056000
950.624023,130.783997,-197.151993
946.719971,124.928001,-199.104004
946.719971,128.832001,-204.960007
946.719971,126.879997,-204.960007
946.719971,115.167999,-203.007996
944.768005,122.975998,-199.104004
938.911987,115.167999,-195.199997
944.768005,126.879997,-201.056000
950.624023,128.832001,-206.912003
952.575989,122.975998,-189.343994
948.671997,126.879997,-206.912003
954.528015,124.928001,-199.104004
944.768005,130.783997,-197.151993
944.768005,124.928001,-195.199997
946.719971,126.879997,-191.296005
954.528015,126.879997,-193.248001
946.719971,121.024002,-193.248001
944.768005,122.975998,-199.104004
940.864014,126.879997,-203.007996
946.719971,126.879997,-201.056000
950.624023,119.071999,-191.296005
946.719971,119.071999,-193.248001
948.671997,121.024002,-199.104004
933.056030,124.928001,-195.199997
944.768005,124.928001,-195.199997
944.768005,121.024002,-201.056000
958.432007,128.832001,-201.056000
944.768005,121.024002,-199.104004
942.815979,119.071999,-201.056000
944.768005,126.879997,-210.815994
944.768005,128.832001,-203.007996
944.768005,126.879997,-201.056000
942.815979,121.024002,-201.056000
950.624023,128.832001,-201.056000
944.768005,117.120003,-201.056000
946.719971,126.879997,-203.007996
948.671997,126.879997,-204.960007
950.624023,128.832001,-203.007996
954.528015,124.928001,-210.815994
952.575989,121.024002,-210.815994
948.671997,126.879997,-203.007996
948.671997,115.167999,-204.960007
950.624023,126.879997,-204.960007
962.335999,122.975998,-203.007996
960.383972,121.024002,-208.863998
962.335999,121.024002,-197.151993
962.335999,124.928001,-203.007996
956.479980,130.783997,-197.151993
962.335999,124.928001,-197.151993
960.383972,126.879997,-195.199997
968.192017,122.975998,-197.151993
964.288025,126.879997,-195.199997
966.239990,121.024002,-206.912003
964.288025,132.735992,-201.056000
962.335999,124.928001,-203.007996
960.383972,136.639999,-203.007996
962.335999,138.591995,-204.960007
954.528015,128.832001,-203.007996
970.143982,136.639999,-204.960007
970.143982,134.688004,-206.912003
968.192017,128.832001,-212.768005
968.192017,121.024002,-206.912003
968.192017,128.832001,-214.720001
960.383972,130.783997,-210.815994
968.192017,121.024002,-210.815994
966.239990,121.024002,-206.912003
977.952026,122.975998,-206.912003
974.047974,121.024002,-210.815994
966.239990,124.928001,-204.960007
968.192017,115.167999,-212.768005
974.047974,121.024002,-210.815994
966.239990,121.024002,-214.720001
970.143982,122.975998,-218.623993
972.096008,115.167999,-216.671997
974.047974,122.975998,-206.912003
964.288025,119.071999,-214.720001
968.192017,126.879997,-204.960007
948.671997,121.024002,-210.815994
960.383972,128.832001,-197.151993
956.479980,126.879997,-199.104004
952.575989,130.783997,-201.056000
962.335999,122.975998,-197.151993
956.479980,119.071999,-204.960007
954.528015,122.975998,-206.912003
944.768005,126.879997,-210.815994
944.768005,128.832001,-201.056000
938.911987,121.024002,-216.671997
944.768005,126.879997,-210.815994
931.104004,113.216003,-206.912003
931.104004,122.975998,-208.863998
931.104004,119.071999,-208.863998
933.056030,122.975998,-208.863998
936.960022,119.071999,-208.863998
935.007996,119.071999,-197.151993
935.007996,119.071999,-203.007996
931.104004,113.216003,-203.007996
935.007996,105.407997,-199.104004
933.056030,122.975998,-203.007996
933.056030,117.120003,-189.343994
933.056030,117.120003,-189.343994
929.151978,122.975998,-195.199997
936.960022,111.264000,-191.296005
933.056030,113.216003,-179.584000
929.151978,119.071999,-183.488007
940.864014,122.975998,-191.296005
929.151978,119.071999,-191.296005
935.007996,109.311996,-201.056000
940.864014,111.264000,-206.912003
935.007996,111.264000,-208.863998
929.151978,119.071999,-197.151993
931.104004,119.071999,-203.007996
935.007996,121.024002,-197.151993
931.104004,122.975998,-206.912003
936.960022,124.928001,-210.815994
938.911987,119.071999,-218.623993
933.056030,109.311996,-216.671997
931.104004,109.311996,-210.815994
940.864014,111.264000,-206.912003
933.056030,111.264000,-210.815994
933.056030,105.407997,-210.815994
935.007996,109.311996,-212.768005
940.864014,109.311996,-208.863998
938.911987,121.024002,-216.671997
946.719971,111.264000,-224.479996
944.768005,105.407997,-216.671997
946.719971,115.167999,-222.528000
944.768005,111.264000,-220.576004
950.624023,119.071999,-222.528000
942.815979,119.071999,-212.768005
938.911987,113.216003,-222.528000
944.768005,115.167999,-212.768005
950.624023,113.216003,-218.623993
944.768005,121.024002,-210.815994
952.575989,122.975998,-218.623993
946.719971,122.975998,-218.623993
960.383972,122.975998,-226.432007
958.432007,126.879997,-224.479996
952.575989,126.879997,-220.576004
944.768005,130.783997,-220.576004
954.528015,122.975998,-208.863998
956.479980,124.928001,-214.720001
950.624023,124.928001,-216.671997
956.479980,124.928001,-214.720001
950.624023,121.024002,-210.815994
958.432007,130.783997,-201.056000
958.432007,136.639999,-204.960007
954.528015,117.120003,-197.151993
956.479980,124.928001,-203.007996
954.528015,134.688004,-216.671997
954.528015,119.071999,-206.912003
948.671997,117.120003,-206.912003
962.335999,134.688004,-222.528000
946.719971,124.928001,-226.432007
958.432007,126.879997,-226.432007
958.432007,126.879997,-228.384003
954.528015,132.735992,-226.432007
956.479980,134.688004,-222.528000
952.575989,124.928001,-224.479996
956.479980,134.688004,-224.479996
962.335999,140.544006,-216.671997
960.383972,146.399994,-216.671997
962.335999,128.832001,-220.576004
964.288025,146.399994,-214.720001
970.143982,142.496002,-212.768005
966.239990,134.688004,-220.576004
970.143982,136.639999,-212.768005
976.000000,132.735992,-222.528000
966.239990,134.688004,-230.335999
968.192017,130.783997,-226.432007
968.192017,130.783997,-242.048004
974.047974,128.832001,-240.095993
968.192017,134.688004,-242.048004
981.856018,142.496002,-232.287994
970.143982,140.544006,-234.240005
964.288025,138.591995,-236.192001
981.856018,144.447998,-224.479996
968.192017,148.352005,-224.479996
974.047974,136.639999,-218.623993
972.096008,148.352005,-216.671997
977.952026,154.207993,-218.623993
979.903992,158.112000,-214.720001
977.952026,158.112000,-224.479996
981.856018,156.160004,-222.528000
981.856018,148.352005,-224.479996
974.047974,148.352005,-234.240005
979.903992,158.112000,-238.143997
974.047974,152.255997,-242.048004
985.760010,152.255997,-236.192001
981.856018,150.304001,-232.287994
970.143982,144.447998,-238.143997
968.192017,150.304001,-240.095993
974.047974,144.447998,-245.951996
972.096008,144.447998,-253.759995
985.760010,146.399994,-232.287994
979.903992,146.399994,-236.192001
977.952026,144.447998,-230.335999
979.903992,156.160004,-242.048004
981.856018,156.160004,-232.287994
981.856018,158.112000,-234.240005
985.760010,152.255997,-232.287994
979.903992,152.255997,-230.335999
976.000000,152.255997,-236.192001
974.047974,150.304001,-244.000000
983.807983,162.016006,-244.000000
983.807983,162.016006,-247.904007
977.952026,156.160004,-249.856003
981.856018,160.063995,-247.904007
981.856018,156.160004,-249.856003
979.903992,162.016006,-245.951996
983.807983,148.352005,-247.904007
987.711975,158.112000,-249.856003
989.664001,154.207993,-244.000000
997.471985,140.544006,-249.856003
995.520020,150.304001,-234.240005
993.567993,154.207993,-234.240005
1001.375977,148.352005,-234.240005
1001.375977,152.255997,-228.384003
995.520020,156.160004,-230.335999
995.520020,156.160004,-234.240005
999.424011,158.112000,-238.143997
987.711975,158.112000,-242.048004
1003.328003,148.352005,-245.951996
997.471985,156.160004,-238.143997
983.807983,162.016006,-244.000000
987.711975,169.824005,-247.904007
993.567993,156.160004,-242.048004
991.616028,163.968002,-238.143997
989.664001,163.968002,-242.048004
987.711975,167.871994,-244.000000
989.664001,163.968002,-234.240005
997.471985,167.871994,-242.048004
991.616028,173.727997,-238.143997
995.520020,162.016006,-232.287994
995.520020,163.968002,-232.287994
997.471985,156.160004,-236.192001
995.520020,163.968002,-249.856003
989.664001,163.968002,-240.095993
991.616028,158.112000,-245.951996
991.616028,163.968002,-238.143997
987.711975,165.919998,-244.000000
993.567993,156.160004,-245.951996
993.567993,148.352005,-247.904007
991.616028,152.255997,-245.951996
991.616028,158.112000,-245.951996
991.616028,152.255997,-247.904007
993.567993,150.304001,-240.095993
999.424011,150.304001,-234.240005
997.471985,154.207993,-236.192001
993.567993,150.304001,-238.143997
997.471985,154.207993,-236.192001
997.471985,158.112000,-245.951996
993.567993,171.776001,-244.000000
991.616028,154.207993,-240.095993
991.616028,162.016006,-238.143997
987.711975,162.016006,-234.240005
985.760010,158.112000,-242.048004
991.616028,156.160004,-242.048004
993.567993,160.063995,-244.000000
995.520020,150.304001,-247.904007
987.711975,150.304001,-244.000000
993.567993,150.304001,-240.095993
993.567993,154.207993,-236.192001
993.567993,150.304001,-238.143997
985.760010,150.304001,-238.143997
991.616028,146.399994,-245.951996
993.567993,150.304001,-238.143997
993.567993,150.304001,-234.240005
983.807983,148.352005,-226.432007
993.567993,144.447998,-234.240005
989.664001,142.496002,-236.192001
987.711975,150.304001,-240.095993
985.760010,144.447998,-228.384003
979.903992,148.352005,-244.000000
979.903992,148.352005,-238.143997
991.616028,152.255997,-228.384003
985.760010,146.399994,-232.287994
983.807983,144.447998,-230.335999
983.807983,146.399994,-216.671997
991.616028,160.063995,-234.240005
1001.375977,154.207993,-245.951996
999.424011,148.352005,-234.240005
995.520020,146.399994,-228.384003
995.520020,136.639999,-230.335999
995.520020,136.639999,-238.143997
993.567993,144.447998,-234.240005
993.567993,154.207993,-236.192001
993.567993,144.447998,-240.095993
995.520020,134.688004,-242.048004
991.616028,142.496002,-236.192001
993.567993,128.832001,-249.856003
991.616028,140.544006,-236.192001
987.711975,146.399994,-242.048004
995.520020,138.591995,-244.000000
995.520020,142.496002,-240.095993
993.567993,136.639999,-236.192001
991.616028,132.735992,-236.192001
983.807983,136.639999,-236.192001
989.664001,140.544006,-236.192001
987.711975,144.447998,-245.951996
989.664001,138.591995,-240.095993
993.567993,150.304001,-234.240005
991.616028,146.399994,-245.951996
983.807983,138.591995,-240.095993
981.856018,138.591995,-238.143997
979.903992,138.591995,-247.904007
985.760010,132.735992,-238.143997
991.616028,132.735992,-236.192001
977.952026,134.688004,-230.335999
966.239990,132.735992,-232.287994
974.047974,117.120003,-242.048004
970.143982,136.639999,-232.287994
968.192017,124.928001,-232.287994
979.903992,132.735992,-228.384003
974.047974,130.783997,-226.432007
972.096008,134.688004,-234.240005
970.143982,130.783997,-232.287994
974.047974,128.832001,-224.479996
970.143982,142.496002,-232.287994
970.143982,132.735992,-230.335999
968.192017,126.879997,-232.287994
968.192017,142.496002,-232.287994
972.096008,124.928001,-232.287994
970.143982,130.783997,-234.240005
962.335999,134.688004,-232.287994
968.192017,124.928001,-240.095993
974.047974,124.928001,-234.240005
968.192017,132.735992,-222.528000
964.288025,126.879997,-226.432007
968.192017,124.928001,-224.479996
970.143982,121.024002,-226.432007
974.047974,119.071999,-228.384003
972.096008,124.928001,-222.528000
972.096008,121.024002,-226.432007
977.952026,113.216003,-222.528000
968.192017,122.975998,-226.432007
972.096008,122.975998,-222.528000
974.047974,124.928001,-226.432007
974.047974,121.024002,-224.479996
964.288025,122.975998,-234.240005
972.096008,122.975998,-224.479996
972.096008,134.688004,-230.335999
972.096008,122.975998,-230.335999
970.143982,128.832001,-228.384003
974.047974,130.783997,-226.432007
979.903992,130.783997,-220.576004
979.903992,119.071999,-220.576004
979.903992,124.928001,-224.479996
979.903992,130.783997,-222.528000
977.952026,117.120003,-218.623993
979.903992,117.120003,-212.768005
991.616028,126.879997,-222.528000
989.664001,119.071999,-220.576004
977.952026,113.216003,-222.528000
991.616028,128.832001,-214.720001
993.567993,128.832001,-220.576004
991.616028,124.928001,-218.623993
993.567993,132.735992,-226.432007
997.471985,132.735992,-222.528000
997.471985,128.832001,-220.576004
1001.375977,126.879997,-226.432007
991.616028,138.591995,-226.432007
1005.280029,138.591995,-222.528000
995.520020,126.879997,-216.671997
995.520020,136.639999,-224.479996
995.520020,138.591995,-218.623993
1001.375977,126.879997,-228.384003
991.616028,126.879997,-220.576004
993.567993,138.591995,-220.576004
985.760010,132.735992,-220.576004
987.711975,132.735992,-216.671997
993.567993,128.832001,-226.432007
985.760010,140.544006,-220.576004
976.000000,142.496002,-226.432007
976.000000,130.783997,-220.576004
981.856018,124.928001,-230.335999
976.000000,130.783997,-216.671997
981.856018,132.735992,-220.576004
977.952026,138.591995,-228.384003
974.047974,132.735992,-226.432007
966.239990,138.591995,-216.671997
966.239990,138.591995,-222.528000
974.047974,128.832001,-218.623993
974.047974,142.496002,-216.671997
974.047974,132.735992,-222.528000
964.288025,130.783997,-224.479996
964.288025,126.879997,-222.528000
966.239990,134.688004,-224.479996
966.239990,140.544006,-224.479996
964.288025,138.591995,-224.479996
977.952026,132.735992,-220.576004
960.383972,150.304001,-228.384003
964.288025,148.352005,-228.384003
964.288025,140.544006,-218.623993
960.383972,136.639999,-230.335999
964.288025,136.639999,-222.528000
974.047974,142.496002,-216.671997
960.383972,146.399994,-220.576004
962.335999,146.399994,-218.623993
966.239990,136.639999,-220.576004
962.335999,150.304001,-234.240005
966.239990,128.832001,-226.432007
966.239990,144.447998,-226.432007
970.143982,144.447998,-224.479996
956.479980,146.399994,-230.335999
964.288025,142.496002,-230.335999
962.335999,140.544006,-222.528000
950.624023,142.496002,-216.671997
962.335999,148.352005,-222.528000
960.383972,148.352005,-220.576004
948.671997,144.447998,-216.671997
958.432007,148.352005,-220.576004
962.335999,152.255997,-216.671997
952.575989,150.304001,-218.623993
952.575989,150.304001,-224.479996
960.383972,158.112000,-222.528000
952.575989,152.255997,-222.528000
958.432007,148.352005,-224.479996
962.335999,148.352005,-220.576004
962.335999,148.352005,-222.528000
962.335999,154.207993,-226.432007
956.479980,156.160004,-234.240005
966.239990,152.255997,-222.528000
962.335999,146.399994,-214.720001
948.671997,142.496002,-218.623993
936.960022,144.447998,-206.912003
938.911987,128.832001,-208.863998
954.528015,111.264000,-222.528000
970.143982,121.024002,-232.287994
976.000000,124.928001,-240.095993
981.856018,126.879997,-234.240005
976.000000,121.024002,-216.671997
966.239990,132.735992,-214.720001
970.143982,142.496002,-201.056000
962.335999,146.399994,-218.623993
966.239990,177.632004,-224.479996
966.239990,185.440002,-228.384003
970.143982,162.016006,-224.479996
974.047974,158.112000,-238.143997
977.952026,179.584000,-240.095993
989.664001,185.440002,-242.048004
985.760010,163.968002,-222.528000
976.000000,169.824005,-216.671997
979.903992,163.968002,-216.671997
983.807983,152.255997,-203.007996
989.664001,146.399994,-208.863998
976.000000,158.112000,-212.768005
976.000000,160.063995,-222.528000
972.096008,134.688004,-228.384003
966.239990,124.928001,-234.240005
976.000000,134.688004,-236.192001
964.288025,128.832001,-224.479996
966.239990,122.975998,-232.287994
960.383972,132.735992,-232.287994
962.335999,136.639999,-224.479996
960.383972,130.783997,-242.048004
954.528015,124.928001,-238.143997
956.479980,146.399994,-222.528000
954.528015,169.824005,-220.576004
948.671997,163.968002,-214.720001
950.624023,173.727997,-214.720001
948.671997,177.632004,-203.007996
952.575989,158.112000,-201.056000
954.528015,156.160004,-206.912003
964.288025,162.016006,-206.912003
962.335999,156.160004,-214.720001
960.383972,136.639999,-230.335999
960.383972,142.496002,-238.143997
948.671997,136.639999,-245.951996
940.864014,134.688004,-251.807999
946.719971,128.832001,-238.143997
938.911987,126.879997,-240.095993
946.719971,128.832001,-238.143997
944.768005,121.024002,-232.287994
958.432007,130.783997,-244.000000
962.335999,134.688004,-230.335999
962.335999,134.688004,-218.623993
966.239990,138.591995,-210.815994
972.096008,142.496002,-204.960007
981.856018,140.544006,-204.960007
987.711975,158.112000,-201.056000
991.616028,163.968002,-201.056000
981.856018,169.824005,-203.007996
985.760010,152.255997,-212.768005
981.856018,154.207993,-218.623993
974.047974,140.544006,-232.287994
968.192017,128.832001,-224.479996
974.047974,130.783997,-216.671997
970.143982,128.832001,-232.287994
954.528015,119.071999,-242.048004
970.143982,119.071999,-238.143997
970.143982,111.264000,-242.048004
962.335999,122.975998,-230.335999
968.192017,113.216003,-220.576004
962.335999,113.216003,-206.912003
974.047974,115.167999,-212.768005
976.000000,113.216003,-197.151993
981.856018,113.216003,-199.104004
979.903992,124.928001,-193.248001
987.711975,124.928001,-204.960007
974.047974,126.879997,-210.815994
970.143982,140.544006,-208.863998
974.047974,134.688004,-218.623993
972.096008,148.352005,-226.432007
966.239990,128.832001,-222.528000
966.239990,134.688004,-222.528000
956.479980,134.688004,-230.335999
964.288025,126.879997,-226.432007
970.143982,121.024002,-226.432007
964.288025,122.975998,-216.671997
979.903992,122.975998,-204.960007
974.047974,107.360001,-193.248001
972.096008,105.407997,-204.960007
981.856018,103.456001,-201.056000
993.567993,97.599998,-199.104004
991.616028,107.360001,-199.104004
983.807983,109.311996,-201.056000
989.664001,107.360001,-199.104004
979.903992,109.311996,-193.248001
987.711975,111.264000,-206.912003
989.664001,109.311996,-206.912003
981.856018,121.024002,-218.623993
981.856018,115.167999,-206.912003
979.903992,121.024002,-201.056000
976.000000,109.311996,-201.056000
972.096008,109.311996,-197.151993
962.335999,107.360001,-191.296005
958.432007,109.311996,-195.199997
964.288025,81.984001,-191.296005
968.192017,54.655998,-203.007996
989.664001,76.127998,-212.768005
981.856018,81.984001,-212.768005
997.471985,70.272003,-199.104004
985.760010,76.127998,-181.535995
966.239990,87.839996,-183.488007
976.000000,81.984001,-195.199997
972.096008,105.407997,-203.007996
962.335999,132.735992,-214.720001
960.383972,138.591995,-218.623993
958.432007,119.071999,-222.528000
944.768005,115.167999,-220.576004
948.671997,154.207993,-228.384003
958.432007,136.639999,-222.528000
944.768005,119.071999,-201.056000
946.719971,134.688004,-203.007996
950.624023,128.832001,-197.151993
960.383972,103.456001,-201.056000
972.096008,111.264000,-197.151993
964.288025,126.879997,-191.296005
952.575989,111.264000,-195.199997
956.479980,80.031998,-195.199997
950.624023,87.839996,-199.104004
952.575989,101.503998,-206.912003
938.911987,76.127998,-216.671997
942.815979,85.888000,-210.815994
929.151978,101.503998,-214.720001
923.296021,97.599998,-224.479996
923.296021,89.792000,-230.335999
931.104004,101.503998,-240.095993
938.911987,119.071999,-224.479996
929.151978,126.879997,-214.720001
938.911987,111.264000,-210.815994
936.960022,121.024002,-201.056000
940.864014,126.879997,-189.343994
952.575989,113.216003,-199.104004
954.528015,119.071999,-191.296005
952.575989,119.071999,-193.248001
956.479980,107.360001,-191.296005
950.624023,85.888000,-199.104004
948.671997,85.888000,-201.056000
962.335999,91.744003,-203.007996
952.575989,78.080002,-208.863998
948.671997,78.080002,-208.863998
954.528015,74.176003,-220.576004
948.671997,68.320000,-216.671997
958.432007,78.080002,-226.432007
954.528015,93.695999,-228.384003
958.432007,87.839996,-224.479996
966.239990,95.648003,-214.720001
979.903992,91.744003,-212.768005
972.096008,111.264000,-210.815994
976.000000,126.879997,-203.007996
979.903992,130.783997,-195.199997
985.760010,126.879997,-199.104004
977.952026,121.024002,-201.056000
972.096008,119.071999,-201.056000
972.096008,126.879997,-216.671997
977.952026,119.071999,-218.623993
968.192017,107.360001,-220.576004
972.096008,113.216003,-224.479996
977.952026,97.599998,-228.384003
974.047974,93.695999,-226.432007
960.383972,93.695999,-230.335999
960.383972,89.792000,-228.384003
966.239990,87.839996,-226.432007
966.239990,85.888000,-216.671997
960.383972,95.648003,-216.671997
972.096008,93.695999,-230.335999
970.143982,95.648003,-214.720001
962.335999,99.552002,-208.863998
968.192017,111.264000,-212.768005
964.288025,115.167999,-212.768005
960.383972,113.216003,-206.912003
968.192017,124.928001,-208.863998
972.096008,126.879997,-216.671997
964.288025,126.879997,-216.671997
964.288025,126.879997,-222.528000
964.288025,146.399994,-216.671997
962.335999,128.832001,-220.576004
956.479980,126.879997,-222.528000
958.432007,117.120003,-220.576004
962.335999,113.216003,-226.432007
958.432007,115.167999,-220.576004
976.000000,105.407997,-226.432007
974.047974,95.648003,-222.528000
976.000000,91.744003,-224.479996
991.616028,89.792000,-220.576004
1239.520020,93.695999,-279.135986
1075.552002,122.975998,-210.815994
1145.823975,218.623993,-103.456001
985.760010,201.056000,80.031998
1016.992004,134.688004,76.127998
1032.608032,152.255997,-13.664000
1077.504028,117.120003,-66.367996
1196.576050,-29.280001,-68.320000
1097.024048,31.232000,-54.655998
1118.495972,329.888000,-126.879997
1079.456055,181.535995,-177.632004
1108.735962,-175.679993,-214.720001
1087.264038,-29.280001,-208.863998
1020.895996,341.600006,-203.007996
964.288025,296.704010,-183.488007
960.383972,91.744003,-150.304001
927.200012,197.151993,-105.407997
882.304016,353.312012,-52.703999
880.351990,257.664001,-60.512001
944.768005,173.727997,-107.360001
1046.271973,314.272003,-163.968002
1120.447998,325.984009,-212.768005
1079.456055,148.352005,-195.199997
1063.839966,44.896000,-187.391998
1069.696045,5.856000,-204.960007
1046.271973,-15.616000,-216.671997
981.856018,7.808000,-245.951996
944.768005,68.320000,-257.664001
946.719971,107.360001,-271.328003
931.104004,83.935997,-273.279999
897.919983,19.520000,-273.279999
897.919983,3.904000,-284.992004
905.728027,37.088001,-290.847992
931.104004,64.416000,-296.704010
925.247986,103.456001,-294.752014
936.960022,130.783997,-290.847992
940.864014,156.160004,-271.328003
958.432007,183.488007,-247.904007
977.952026,197.151993,-232.287994
974.047974,185.440002,-195.199997
972.096008,191.296005,-165.919998
987.711975,204.960007,-163.968002
987.711975,210.815994,-146.399994
981.856018,191.296005,-140.544006
970.143982,175.679993,-134.688004
977.952026,160.063995,-152.255997
977.952026,126.879997,-173.727997
966.239990,115.167999,-193.248001
948.671997,115.167999,-208.863998
948.671997,115.167999,-232.287994
942.815979,103.456001,-253.759995
936.960022,83.935997,-271.328003
919.392029,85.888000,-286.944000
911.583984,111.264000,-283.040009
907.679993,121.024002,-275.231995
901.823975,119.071999,-269.376007
921.343994,128.832001,-269.376007
927.200012,142.496002,-269.376007
938.911987,156.160004,-267.424011
946.719971,171.776001,-257.664001
946.719971,193.248001,-249.856003
946.719971,197.151993,-238.143997
940.864014,195.199997,-236.192001
954.528015,191.296005,-224.479996
946.719971,195.199997,-240.095993
944.768005,189.343994,-236.192001
952.575989,185.440002,-251.807999
948.671997,167.871994,-253.759995
940.864014,156.160004,-247.904007
931.104004,132.735992,-255.712006
929.151978,121.024002,-259.615997
927.200012,111.264000,-269.376007
923.296021,117.120003,-277.183990
919.392029,103.456001,-288.895996
923.296021,99.552002,-290.847992
917.440002,95.648003,-294.752014
907.679993,101.503998,-292.799988
905.728027,115.167999,-281.088013
901.823975,124.928001,-279.135986
907.679993,132.735992,-263.519989
919.392029,146.399994,-255.712006
925.247986,158.112000,-255.712006
929.151978,165.919998,-253.759995
948.671997,175.679993,-247.904007
940.864014,187.391998,-263.519989
946.719971,181.535995,-253.759995
940.864014,173.727997,-249.856003
944.768005,163.968002,-247.904007
944.768005,162.016006,-245.951996
946.719971,162.016006,-247.904007
940.864014,154.207993,-247.904007
936.960022,140.544006,-249.856003
944.768005,134.688004,-249.856003
940.864014,126.879997,-240.095993
954.528015,119.071999,-249.856003
966.239990,113.216003,-240.095993
962.335999,113.216003,-240.095993
972.096008,117.120003,-244.000000
968.192017,124.928001,-238.143997
974.047974,126.879997,-224.479996
974.047974,134.688004,-230.335999
987.711975,146.399994,-232.287994
976.000000,154.207993,-218.623993
985.760010,156.160004,-212.768005
983.807983,165.919998,-226.432007
993.567993,160.063995,-224.479996
997.471985,163.968002,-230.335999
979.903992,163.968002,-226.432007
983.807983,175.679993,-218.623993
987.711975,152.255997,-218.623993
999.424011,134.688004,-222.528000
1001.375977,138.591995,-222.528000
1007.231995,132.735992,-226.432007
1011.135986,132.735992,-220.576004
999.424011,142.496002,-216.671997
999.424011,132.735992,-214.720001
999.424011,126.879997,-210.815994
1009.184021,128.832001,-201.056000
1001.375977,138.591995,-206.912003
1003.328003,158.112000,-214.720001
991.616028,162.016006,-210.815994
1005.280029,152.255997,-212.768005
995.520020,156.160004,-212.768005
1001.375977,160.063995,-220.576004
999.424011,171.776001,-214.720001
1003.328003,181.535995,-212.768005
1009.184021,175.679993,-212.768005
999.424011,181.535995,-203.007996
999.424011,189.343994,-199.104004
999.424011,201.056000,-191.296005
1001.375977,201.056000,-197.151993
1001.375977,201.056000,-197.151993
995.520020,185.440002,-201.056000
1001.375977,187.391998,-193.248001
989.664001,185.440002,-203.007996
981.856018,179.584000,-199.104004
989.664001,173.727997,-204.960007
981.856018,169.824005,-214.720001
972.096008,158.112000,-214.720001
977.952026,156.160004,-224.479996
964.288025,158.112000,-228.384003
956.479980,160.063995,-220.576004
950.624023,156.160004,-226.432007
948.671997,144.447998,-232.287994
954.528015,144.447998,-240.095993
968.192017,152.255997,-240.095993
962.335999,169.824005,-236.192001
974.047974,175.679993,-220.576004
960.383972,179.584000,-216.671997
968.192017,181.535995,-208.863998
958.432007,199.104004,-206.912003
958.432007,201.056000,-201.056000
956.479980,206.912003,-214.720001
954.528015,201.056000,-212.768005
962.335999,206.912003,-214.720001
960.383972,208.863998,-222.528000
960.383972,210.815994,-216.671997
958.432007,208.863998,-226.432007
956.479980,201.056000,-220.576004
962.335999,199.104004,-232.287994
962.335999,197.151993,-224.479996
962.335999,191.296005,-230.335999
962.335999,191.296005,-230.335999
958.432007,185.440002,-224.479996
956.479980,185.440002,-234.240005
952.575989,171.776001,-234.240005
960.383972,179.584000,-238.143997
962.335999,169.824005,-218.623993
956.479980,177.632004,-230.335999
958.432007,177.632004,-226.432007
960.383972,173.727997,-220.576004
958.432007,177.632004,-228.384003
960.383972,179.584000,-226.432007
960.383972,177.632004,-212.768005
958.432007,175.679993,-220.576004
958.432007,179.584000,-228.384003
958.432007,181.535995,-220.576004
960.383972,181.535995,-216.671997
952.575989,181.535995,-220.576004
962.335999,177.632004,-220.576004
964.288025,179.584000,-226.432007
958.432007,171.776001,-226.432007
962.335999,160.063995,-224.479996
962.335999,156.160004,-232.287994
966.239990,162.016006,-234.240005
972.096008,156.160004,-224.479996
962.335999,165.919998,-230.335999
970.143982,165.919998,-230.335999
960.383972,158.112000,-220.576004
962.335999,169.824005,-218.623993
956.479980,169.824005,-222.528000
956.479980,167.871994,-216.671997
960.383972,163.968002,-212.768005
966.239990,160.063995,-218.623993
966.239990,163.968002,-222.528000
966.239990,158.112000,-218.623993
960.383972,160.063995,-222.528000
962.335999,158.112000,-226.432007
956.479980,163.968002,-224.479996
958.432007,158.112000,-222.528000
956.479980,146.399994,-230.335999
950.624023,156.160004,-224.479996
958.432007,144.447998,-222.528000
962.335999,154.207993,-228.384003
962.335999,158.112000,-216.671997
952.575989,158.112000,-226.432007
948.671997,163.968002,-226.432007
944.768005,152.255997,-210.815994
944.768005,160.063995,-218.623993
946.719971,162.016006,-218.623993
960.383972,158.112000,-222.528000
962.335999,160.063995,-224.479996
964.288025,158.112000,-226.432007
966.239990,154.207993,-228.384003
962.335999,163.968002,-226.432007
964.288025,156.160004,-212.768005
964.288025,158.112000,-222.528000
970.143982,154.207993,-228.384003
977.952026,156.160004,-222.528000
970.143982,154.207993,-228.384003
983.807983,150.304001,-216.671997
981.856018,154.207993,-220.576004
981.856018,156.160004,-212.768005
989.664001,158.112000,-216.671997
989.664001,154.207993,-208.863998
981.856018,160.063995,-216.671997
987.711975,162.016006,-214.720001
987.711975,160.063995,-218.623993
991.616028,173.727997,-210.815994
993.567993,160.063995,-220.576004
987.711975,160.063995,-218.623993
997.471985,160.063995,-218.623993
987.711975,169.824005,-216.671997
993.567993,167.871994,-218.623993
995.520020,165.919998,-222.528000
991.616028,165.919998,-212.768005
991.616028,160.063995,-208.863998
991.616028,158.112000,-216.671997
985.760010,152.255997,-212.768005
987.711975,162.016006,-216.671997
985.760010,158.112000,-212.768005
979.903992,162.016006,-214.720001
993.567993,165.919998,-218.623993
981.856018,160.063995,-210.815994
979.903992,167.871994,-208.863998
976.000000,167.871994,-216.671997
972.096008,152.255997,-218.623993
976.000000,152.255997,-206.912003
968.192017,152.255997,-212.768005
977.952026,156.160004,-212.768005
977.952026,158.112000,-204.960007
972.096008,150.304001,-216.671997
970.143982,150.304001,-210.815994
977.952026,142.496002,-212.768005
976.000000,152.255997,-212.768005
989.664001,148.352005,-212.768005
976.000000,144.447998,-214.720001
979.903992,146.399994,-212.768005
989.664001,142.496002,-201.056000
972.096008,140.544006,-197.151993
983.807983,138.591995,-210.815994
981.856018,150.304001,-212.768005
987.711975,148.352005,-210.815994
981.856018,158.112000,-203.007996
985.760010,144.447998,-214.720001
987.711975,150.304001,-208.863998
981.856018,152.255997,-210.815994
979.903992,140.544006,-210.815994
979.903992,146.399994,-201.056000
983.807983,140.544006,-206.912003
977.952026,140.544006,-204.960007
977.952026,134.688004,-208.863998
977.952026,134.688004,-214.720001
972.096008,134.688004,-206.912003
970.143982,138.591995,-201.056000
983.807983,142.496002,-206.912003
972.096008,128.832001,-203.007996
981.856018,138.591995,-206.912003
970.143982,132.735992,-201.056000
960.383972,128.832001,-201.056000
970.143982,128.832001,-214.720001
966.239990,126.879997,-212.768005
964.288025,138.591995,-210.815994
972.096008,134.688004,-203.007996
972.096008,134.688004,-206.912003
970.143982,128.832001,-203.007996
968.192017,128.832001,-210.815994
974.047974,126.879997,-204.960007
966.239990,122.975998,-203.007996
962.335999,113.216003,-197.151993
956.479980,115.167999,-201.056000
958.432007,121.024002,-204.960007
956.479980,115.167999,-201.056000
960.383972,105.407997,-193.248001
960.383972,117.120003,-195.199997
966.239990,109.311996,-191.296005
956.479980,105.407997,-189.343994
954.528015,107.360001,-193.248001
958.432007,107.360001,-203.007996
962.335999,101.503998,-191.296005
956.479980,109.311996,-199.104004
956.479980,103.456001,-199.104004
960.383972,107.360001,-191.296005
952.575989,105.407997,-204.960007
962.335999,113.216003,-197.151993
958.432007,109.311996,-206.912003
964.288025,109.311996,-199.104004
962.335999,109.311996,-193.248001
960.383972,101.503998,-201.056000
968.192017,103.456001,-199.104004
970.143982,107.360001,-199.104004
974.047974,105.407997,-185.440002
981.856018,101.503998,-195.199997
976.000000,101.503998,-195.199997
974.047974,103.456001,-201.056000
987.711975,103.456001,-195.199997
977.952026,99.552002,-191.296005
976.000000,99.552002,-185.440002
976.000000,105.407997,-191.296005
989.664001,97.599998,-197.151993
979.903992,101.503998,-195.199997
981.856018,105.407997,-191.296005
987.711975,107.360001,-193.248001
991.616028,95.648003,-189.343994
991.616028,103.456001,-181.535995
995.520020,105.407997,-187.391998
979.903992,105.407997,-189.343994
987.711975,117.120003,-201.056000
993.567993,109.311996,-193.248001
997.471985,107.360001,-181.535995
993.567993,107.360001,-193.248001
997.471985,107.360001,-187.391998
991.616028,109.311996,-195.199997
989.664001,115.167999,-195.199997
993.567993,107.360001,-187.391998
983.807983,101.503998,-183.488007
993.567993,113.216003,-183.488007
993.567993,109.311996,-187.391998
989.664001,113.216003,-187.391998
991.616028,101.503998,-193.248001
989.664001,107.360001,-197.151993
976.000000,113.216003,-189.343994
977.952026,111.264000,-187.391998
977.952026,109.311996,-189.343994
977.952026,121.024002,-191.296005
981.856018,115.167999,-193.248001
985.760010,117.120003,-193.248001
981.856018,115.167999,-197.151993
977.952026,117.120003,-197.151993
977.952026,124.928001,-199.104004
976.000000,122.975998,-193.248001
981.856018,117.120003,-193.248001
983.807983,119.071999,-199.104004
981.856018,128.832001,-197.151993
972.096008,130.783997,-201.056000
972.096008,128.832001,-197.151993
972.096008,128.832001,-197.151993
976.000000,124.928001,-195.199997
964.288025,121.024002,-193.248001
974.047974,117.120003,-204.960007
968.192017,128.832001,-201.056000
962.335999,124.928001,-197.151993
964.288025,130.783997,-201.056000
968.192017,130.783997,-203.007996
956.479980,132.735992,-185.440002
948.671997,138.591995,-195.199997
958.432007,136.639999,-210.815994
968.192017,138.591995,-193.248001
960.383972,136.639999,-204.960007
960.383972,142.496002,-199.104004
954.528015,152.255997,-204.960007
956.479980,154.207993,-203.007996
958.432007,158.112000,-195.199997
948.671997,154.207993,-199.104004
956.479980,152.255997,-208.863998
950.624023,148.352005,-201.056000
962.335999,154.207993,-208.863998
954.528015,152.255997,-206.912003
952.575989,150.304001,-218.623993
948.671997,158.112000,-201.056000
956.479980,148.352005,-203.007996
948.671997,152.255997,-206.912003
952.575989,152.255997,-206.912003
948.671997,154.207993,-201.056000
944.768005,152.255997,-199.104004
952.575989,152.255997,-195.199997
946.719971,154.207993,-199.104004
948.671997,156.160004,-210.815994
946.719971,158.112000,-206.912003
936.960022,152.255997,-206.912003
936.960022,162.016006,-204.960007
940.864014,162.016006,-201.056000
935.007996,156.160004,-208.863998
944.768005,169.824005,-214.720001
946.719971,171.776001,-206.912003
946.719971,169.824005,-208.863998
950.624023,156.160004,-212.768005
944.768005,160.063995,-206.912003
948.671997,165.919998,-203.007996
962.335999,156.160004,-197.151993
958.432007,162.016006,-201.056000
950.624023,160.063995,-197.151993
962.335999,152.255997,-203.007996
954.528015,150.304001,-204.960007
958.432007,146.399994,-206.912003
966.239990,150.304001,-204.960007
962.335999,154.207993,-203.007996
960.383972,148.352005,-197.151993
974.047974,144.447998,-203.007996
960.383972,152.255997,-203.007996
956.479980,142.496002,-206.912003
954.528015,148.352005,-203.007996
962.335999,124.928001,-187.391998
976.000000,87.839996,-212.768005
991.616028,89.792000,-208.863998
995.520020,144.447998,-203.007996
997.471985,144.447998,-197.151993
979.903992,122.975998,-187.391998
985.760010,119.071999,-177.632004
989.664001,132.735992,-181.535995
977.952026,162.016006,-193.248001
983.807983,199.104004,-201.056000
974.047974,212.768005,-197.151993
983.807983,193.248001,-203.007996
983.807983,167.871994,-201.056000
995.520020,187.391998,-208.863998
1005.280029,222.528000,-206.912003
991.616028,226.432007,-214.720001
999.424011,193.248001,-212.768005
1007.231995,183.488007,-204.960007
1007.231995,183.488007,-204.960007
1005.280029,185.440002,-197.151993
991.616028,181.535995,-203.007996
991.616028,167.871994,-201.056000
999.424011,154.207993,-203.007996
991.616028,130.783997,-208.863998
1005.280029,121.024002,-208.863998
995.520020,142.496002,-201.056000
995.520020,138.591995,-208.863998
989.664001,117.120003,-208.863998
993.567993,124.928001,-208.863998
991.616028,142.496002,-204.960007
991.616028,150.304001,-204.960007
981.856018,160.063995,-204.960007
983.807983,175.679993,-212.768005
976.000000,189.343994,-210.815994
987.711975,195.199997,-220.576004
1001.375977,193.248001,-204.960007
1001.375977,195.199997,-204.960007
995.520020,206.912003,-203.007996
1007.231995,193.248001,-197.151993
1013.088013,191.296005,-206.912003
1013.088013,187.391998,-199.104004
1016.992004,185.440002,-206.912003
1018.943970,171.776001,-204.960007
1013.088013,163.968002,-204.960007
1016.992004,160.063995,-212.768005
1013.088013,158.112000,-208.863998
1016.992004,154.207993,-212.768005
1007.231995,154.207993,-204.960007
1013.088013,150.304001,-218.623993
1013.088013,156.160004,-214.720001
1018.943970,158.112000,-210.815994
1024.800049,158.112000,-218.623993
1024.800049,167.871994,-218.623993
1022.848022,185.440002,-216.671997
1022.848022,189.343994,-216.671997
1026.751953,197.151993,-216.671997
1022.848022,203.007996,-208.863998
1022.848022,204.960007,-201.056000
1024.800049,201.056000,-201.056000
1024.800049,214.720001,-218.623993
1026.751953,204.960007,-210.815994
1018.943970,208.863998,-210.815994
1020.895996,199.104004,-212.768005
1011.135986,193.248001,-222.528000
1009.184021,187.391998,-218.623993
1011.135986,173.727997,-214.720001
1011.135986,177.632004,-212.768005
999.424011,167.871994,-226.432007
991.616028,181.535995,-222.528000
995.520020,177.632004,-222.528000
999.424011,171.776001,-222.528000
1007.231995,163.968002,-216.671997
1001.375977,177.632004,-214.720001
999.424011,173.727997,-216.671997
1005.280029,181.535995,-214.720001
997.471985,185.440002,-206.912003
999.424011,193.248001,-203.007996
1009.184021,193.248001,-199.104004
1001.375977,195.199997,-201.056000
995.520020,208.863998,-203.007996
997.471985,204.960007,-208.863998
991.616028,199.104004,-201.056000
987.711975,203.007996,-204.960007
979.903992,203.007996,-210.815994
972.096008,193.248001,-206.912003
972.096008,195.199997,-210.815994
974.047974,181.535995,-204.960007
974.047974,179.584000,-204.960007
964.288025,173.727997,-210.815994
964.288025,156.160004,-204.960007
977.952026,160.063995,-208.863998
976.000000,150.304001,-212.768005
974.047974,142.496002,-214.720001
968.192017,156.160004,-206.912003
966.239990,152.255997,-203.007996
981.856018,152.255997,-193.248001
981.856018,154.207993,-193.248001
977.952026,156.160004,-195.199997
976.000000,163.968002,-191.296005
987.711975,171.776001,-191.296005
1009.184021,177.632004,-197.151993
1022.848022,183.488007,-187.391998
1007.231995,179.584000,-173.727997
1013.088013,179.584000,-162.016006
1007.231995,163.968002,-138.591995
991.616028,150.304001,-132.735992
997.471985,140.544006,-136.639999
1007.231995,138.591995,-148.352005
1007.231995,130.783997,-167.871994
1011.135986,121.024002,-179.584000
1022.848022,121.024002,-191.296005
1022.848022,105.407997,-179.584000
1024.800049,107.360001,-181.535995
1018.943970,109.311996,-187.391998
1024.800049,136.639999,-181.535995
1018.943970,144.447998,-171.776001
1022.848022,144.447998,-179.584000
1028.703979,144.447998,-175.679993
1016.992004,140.544006,-162.016006
1009.184021,148.352005,-162.016006
1013.088013,156.160004,-169.824005
1005.280029,158.112000,-167.871994
1009.184021,158.112000,-185.440002
1015.039978,136.639999,-189.343994
1022.848022,122.975998,-197.151993
1022.848022,121.024002,-195.199997
1030.656006,111.264000,-197.151993
1036.511963,97.599998,-181.535995
1048.223999,99.552002,-177.632004
1042.368042,87.839996,-167.871994
1044.319946,89.792000,-167.871994
1046.271973,78.080002,-152.255997
1056.031982,72.223999,-156.160004
1056.031982,89.792000,-152.255997
1054.079956,95.648003,-154.207993
1050.176025,103.456001,-156.160004
1054.079956,115.167999,-163.968002
1059.936035,113.216003,-165.919998
1059.936035,119.071999,-169.824005
1059.936035,130.783997,-171.776001
1054.079956,142.496002,-171.776001
1056.031982,148.352005,-165.919998
1059.936035,138.591995,-160.063995
1069.696045,142.496002,-152.255997
1059.936035,156.160004,-140.544006
1059.936035,156.160004,-134.688004
1067.744019,152.255997,-121.024002
1077.504028,146.399994,-105.407997
1083.359985,144.447998,-93.695999
1081.407959,140.544006,-93.695999
1083.359985,146.399994,-101.503998
1089.215942,142.496002,-109.311996
1083.359985,132.735992,-126.879997
1077.504028,128.832001,-142.496002
1075.552002,126.879997,-144.447998
1061.887939,121.024002,-152.255997
1054.079956,121.024002,-160.063995
1046.271973,124.928001,-169.824005
1032.608032,128.832001,-173.727997
1028.703979,132.735992,-187.391998
1016.992004,142.496002,-189.343994
1024.800049,128.832001,-191.296005
1018.943970,138.591995,-191.296005
1009.184021,132.735992,-173.727997
1013.088013,140.544006,-165.919998
1022.848022,152.255997,-152.255997
1038.463989,156.160004,-134.688004
1048.223999,146.399994,-138.591995
1044.319946,150.304001,-128.832001
1042.368042,136.639999,-126.879997
1040.416016,150.304001,-132.735992
1038.463989,146.399994,-138.591995
1030.656006,134.688004,-138.591995
1028.703979,124.928001,-146.399994
1011.135986,136.639999,-154.207993
1001.375977,122.975998,-156.160004
999.424011,126.879997,-142.496002
1005.280029,130.783997,-152.255997
1001.375977,124.928001,-156.160004
1005.280029,134.688004,-158.112000
1013.088013,124.928001,-162.016006
1009.184021,134.688004,-146.399994
1020.895996,136.639999,-152.255997
1016.992004,138.591995,-162.016006
1024.800049,132.735992,-150.304001
1018.943970,144.447998,-144.447998
1016.992004,154.207993,-142.496002
1011.135986,148.352005,-156.160004
1020.895996,146.399994,-158.112000
1018.943970,136.639999,-160.063995
1026.751953,132.735992,-156.160004
1026.751953,140.544006,-162.016006
1022.848022,140.544006,-163.968002
1026.751953,136.639999,-167.871994
1018.943970,138.591995,-162.016006
1011.135986,132.735992,-163.968002
1013.088013,140.544006,-165.919998
1016.992004,136.639999,-165.919998
1022.848022,142.496002,-160.063995
1038.463989,142.496002,-152.255997
1048.223999,144.447998,-128.832001
1054.079956,150.304001,-121.024002
1067.744019,152.255997,-109.311996
1067.744019,138.591995,-83.935997
1063.839966,162.016006,-76.127998
1061.887939,179.584000,-78.080002
1067.744019,183.488007,-85.888000
1063.839966,203.007996,-95.648003
1059.936035,249.856003,-117.120003
1046.271973,222.528000,-156.160004
1044.319946,201.056000,-171.776001
1015.039978,181.535995,-191.296005
995.520020,156.160004,-204.960007
981.856018,136.639999,-216.671997
970.143982,165.919998,-216.671997
952.575989,183.488007,-216.671997
966.239990,204.960007,-204.960007
974.047974,206.912003,-169.824005
977.952026,199.104004,-128.832001
1007.231995,212.768005,-97.599998
1030.656006,199.104004,-78.080002
1050.176025,193.248001,-60.512001
1059.936035,181.535995,-50.751999
1069.696045,162.016006,-21.472000
1069.696045,146.399994,-11.712000
1071.647949,150.304001,0.000000
1069.696045,148.352005,5.856000
1059.936035,154.207993,9.760000
1056.031982,154.207993,9.760000
1059.936035,144.447998,-7.808000
1054.079956,148.352005,-9.760000
1050.176025,163.968002,-27.327999
1057.984009,158.112000,-48.799999
1042.368042,140.544006,-76.127998
1024.800049,162.016006,-76.127998
1011.135986,167.871994,-91.744003
1005.280029,165.919998,-105.407997
1003.328003,171.776001,-122.975998
1007.231995,177.632004,-138.591995
1024.800049,179.584000,-150.304001
1038.463989,162.016006,-163.968002
1036.511963,150.304001,-169.824005
1024.800049,142.496002,-148.352005
1020.895996,142.496002,-148.352005
1015.039978,121.024002,-128.832001
1015.039978,122.975998,-111.264000
1028.703979,146.399994,-87.839996
1038.463989,148.352005,-72.223999
1054.079956,144.447998,-46.848000
1063.839966,160.063995,-23.424000
1087.264038,152.255997,-21.472000
1067.744019,148.352005,-19.520000
1061.887939,154.207993,-13.664000
1059.936035,165.919998,-33.183998
1038.463989,189.343994,-37.088001
1028.703979,199.104004,-42.944000
1026.751953,199.104004,-44.896000
1016.992004,208.863998,-54.655998
1022.848022,208.863998,-60.512001
1022.848022,191.296005,-60.512001
1026.751953,177.632004,-66.367996
1018.943970,163.968002,-76.127998
1015.039978,177.632004,-78.080002
976.000000,175.679993,-68.320000
974.047974,162.016006,-76.127998
981.856018,128.832001,-99.552002
985.760010,97.599998,-105.407997
970.143982,152.255997,-117.120003
977.952026,201.056000,-124.928001
979.903992,245.951996,-121.024002
993.567993,275.231995,-113.216003
964.288025,263.519989,-85.888000
977.952026,251.807999,-68.320000
956.479980,247.904007,-52.703999
946.719971,242.048004,-56.608002
950.624023,244.000000,-72.223999
954.528015,257.664001,-91.744003
976.000000,261.567993,-103.456001
966.239990,267.424011,-109.311996
983.807983,263.519989,-95.648003
985.760010,210.815994,-83.935997
993.567993,162.016006,-68.320000
999.424011,103.456001,-62.464001
993.567993,70.272003,-56.608002
999.424011,68.320000,-40.992001
1003.328003,72.223999,-40.992001
991.616028,70.272003,-44.896000
993.567993,93.695999,-48.799999
993.567993,60.512001,-76.127998
966.239990,74.176003,-95.648003
972.096008,89.792000,-138.591995
936.960022,103.456001,-167.871994
919.392029,117.120003,-169.824005
905.728027,134.688004,-160.063995
907.679993,140.544006,-146.399994
901.823975,128.832001,-150.304001
921.343994,130.783997,-156.160004
946.719971,148.352005,-134.688004
954.528015,163.968002,-121.024002
989.664001,193.248001,-97.599998
976.000000,169.824005,-89.792000
981.856018,140.544006,-87.839996
977.952026,89.792000,-80.031998
977.952026,48.799999,-89.792000
966.239990,27.327999,-81.984001
954.528015,48.799999,-87.839996
907.679993,226.432007,-113.216003
917.440002,435.295990,-173.727997
925.247986,437.247986,-228.384003
915.487976,368.928009,-259.615997
890.112000,286.944000,-284.992004
851.072021,203.007996,-290.847992
839.359985,148.352005,-283.040009
810.080017,191.296005,-263.519989
821.791992,249.856003,-232.287994
835.455994,273.279999,-203.007996
874.495972,240.095993,-183.488007
901.823975,179.584000,-146.399994
933.056030,130.783997,-91.744003
960.383972,83.935997,-48.799999
972.096008,31.232000,-5.856000
1013.088013,31.232000,13.664000
1040.416016,68.320000,17.568001
1040.416016,144.447998,15.616000
1042.368042,175.679993,3.904000
1036.511963,146.399994,-9.760000
1016.992004,58.560001,-21.472000
1001.375977,-46.848000,-44.896000
968.192017,-83.935997,-68.320000
952.575989,-50.751999,-99.552002
935.007996,27.327999,-124.928001
938.911987,126.879997,-142.496002
936.960022,210.815994,-189.343994
933.056030,275.231995,-214.720001
952.575989,281.088013,-220.576004
962.335999,236.192001,-228.384003
950.624023,197.151993,-210.815994
954.528015,179.584000,-189.343994
948.671997,173.727997,-171.776001
966.239990,150.304001,-146.399994
979.903992,146.399994,-121.024002
1009.184021,150.304001,-91.744003
1024.800049,162.016006,-70.272003
1044.319946,154.207993,-52.703999
1050.176025,134.688004,-25.375999
1063.839966,85.888000,-3.904000
1054.079956,78.080002,3.904000
1054.079956,68.320000,21.472000
1048.223999,74.176003,19.520000
1036.511963,93.695999,7.808000
1034.560059,130.783997,-1.952000
1028.703979,154.207993,-3.904000
1007.231995,169.824005,-9.760000
1013.088013,193.248001,-5.856000
999.424011,183.488007,-13.664000
997.471985,191.296005,-5.856000
987.711975,195.199997,-7.808000
972.096008,191.296005,-15.616000
993.567993,197.151993,-15.616000
1003.328003,169.824005,-17.568001
987.711975,142.496002,-13.664000
987.711975,119.071999,-11.712000
1001.375977,91.744003,13.664000
1007.231995,74.176003,21.472000
1007.231995,83.935997,25.375999
1007.231995,80.031998,33.183998
1015.039978,76.127998,35.136002
1003.328003,85.888000,46.848000
1009.184021,85.888000,39.040001
1009.184021,95.648003,52.703999
1003.328003,103.456001,35.136002
997.471985,115.167999,19.520000
989.664001,163.968002,0.000000
977.952026,271.328003,-1.952000
974.047974,314.272003,-31.232000
956.479980,374.783997,-56.608002
954.528015,448.959991,-97.599998
942.815979,439.200012,-111.264000
917.440002,406.015991,-115.167999
911.583984,363.071991,-111.264000
890.112000,294.752014,-99.552002
884.255981,210.815994,-64.416000
899.872009,148.352005,-33.183998
925.247986,81.984001,11.712000
956.479980,25.375999,58.560001
991.616028,-1.952000,89.792000
1020.895996,-5.856000,126.879997
1032.608032,5.856000,132.735992
1046.271973,15.616000,140.544006
1030.656006,46.848000,148.352005
1024.800049,87.839996,136.639999
1007.231995,109.311996,124.928001
987.711975,142.496002,119.071999
962.335999,177.632004,93.695999
962.335999,208.863998,99.552002
958.432007,208.863998,83.935997
952.575989,216.671997,62.464001
944.768005,201.056000,72.223999
940.864014,210.815994,64.416000
936.960022,203.007996,66.367996
940.864014,218.623993,40.992001
950.624023,193.248001,13.664000
931.104004,195.199997,7.808000
927.200012,230.335999,-17.568001
925.247986,255.712006,-29.280001
927.200012,245.951996,-58.560001
915.487976,216.671997,-64.416000
899.872009,193.248001,-56.608002
886.208008,162.016006,-42.944000
890.112000,95.648003,-7.808000
895.968018,42.944000,33.183998
915.487976,15.616000,81.984001
946.719971,21.472000,126.879997
1001.375977,1.952000,148.352005
1020.895996,0.000000,148.352005
1046.271973,-11.712000,142.496002
1042.368042,11.712000,119.071999
1038.463989,3.904000,83.935997
1003.328003,39.040001,42.944000
987.711975,46.848000,11.712000
954.528015,91.744003,-11.712000
936.960022,124.928001,-44.896000
909.632019,167.871994,-64.416000
917.440002,206.912003,-91.744003
901.823975,251.807999,-109.311996
915.487976,265.471985,-121.024002
931.104004,267.424011,-119.071999
929.151978,234.240005,-124.928001
942.815979,232.287994,-126.879997
946.719971,206.912003,-126.879997
964.288025,183.488007,-99.552002
976.000000,177.632004,-81.984001
972.096008,185.440002,-60.512001
991.616028,195.199997,-40.992001
997.471985,204.960007,-40.992001
993.567993,218.623993,-15.616000
981.856018,244.000000,0.000000
993.567993,220.576004,13.664000
987.711975,187.391998,29.280001
977.952026,171.776001,48.799999
985.760010,181.535995,50.751999
997.471985,148.352005,54.655998
1001.375977,109.311996,83.935997
1022.848022,83.935997,95.648003
1034.560059,60.512001,121.024002
1046.271973,46.848000,144.447998
1063.839966,35.136002,171.776001
1054.079956,3.904000,175.679993
1065.791992,13.664000,195.199997
1073.599976,29.280001,201.056000
1063.839966,37.088001,193.248001
1050.176025,58.560001,163.968002
1042.368042,81.984001,150.304001
1030.656006,93.695999,138.591995
1032.608032,113.216003,130.783997
1028.703979,140.544006,122.975998
1034.560059,140.544006,111.264000
1032.608032,160.063995,121.024002
1036.511963,171.776001,121.024002
1056.031982,160.063995,124.928001
1069.696045,152.255997,138.591995
1095.072021,115.167999,165.919998
1095.072021,119.071999,177.632004
1104.832031,91.744003,195.199997
1093.119995,85.888000,210.815994
1104.832031,83.935997,234.240005
1100.927979,113.216003,253.759995
1116.543945,158.112000,257.664001
1114.592041,189.343994,249.856003
1118.495972,232.287994,242.048004
1069.696045,376.735992,230.335999
1073.599976,546.559998,183.488007
1100.927979,593.408020,150.304001
1059.936035,632.447998,121.024002
1050.176025,683.200012,89.792000
1048.223999,679.296021,62.464001
1042.368042,597.312012,76.127998
1011.135986,525.088013,64.416000
1028.703979,419.679993,68.320000
1026.751953,273.279999,87.839996
1042.368042,154.207993,119.071999
1052.128052,46.848000,150.304001
1057.984009,-54.655998,195.199997
1081.407959,-115.167999,234.240005
1093.119995,-144.447998,234.240005
1089.215942,-154.207993,236.192001
1106.784058,-138.591995,232.287994
1069.696045,-87.839996,208.863998
1056.031982,-17.568001,201.056000
1020.895996,74.176003,156.160004
968.192017,277.183990,130.783997
1015.039978,447.007996,56.608002
976.000000,579.744019,3.904000
966.239990,698.815979,-42.944000
960.383972,788.607971,-72.223999
1079.456055,671.487976,-76.127998
970.143982,423.584015,7.808000
987.711975,214.720001,31.232000
931.104004,238.143997,74.176003
989.664001,273.279999,66.367996
987.711975,244.000000,76.127998
948.671997,185.440002,91.744003
938.911987,232.287994,107.360001
942.815979,314.272003,76.127998
977.952026,359.167999,54.655998
972.096008,345.503998,54.655998
958.432007,341.600006,72.223999
964.288025,316.223999,91.744003
991.616028,296.704010,97.599998
991.616028,242.048004,113.216003
977.952026,226.432007,115.167999
979.903992,224.479996,109.311996
972.096008,195.199997,117.120003
995.520020,191.296005,119.071999
962.335999,187.391998,130.783997
964.288025,197.151993,128.832001
962.335999,210.815994,119.071999
948.671997,228.384003,107.360001
960.383972,255.712006,103.456001
950.624023,265.471985,74.176003
931.104004,261.567993,76.127998
950.624023,242.048004,62.464001
950.624023,251.807999,68.320000
948.671997,255.712006,72.223999
905.728027,-568.031982,85.888000
917.440002,-2108.159912,179.584000
579.744019,-1341.024048,259.615997
880.351990,31.232000,150.304001
929.151978,739.807983,80.031998
1081.407959,384.544006,-5.856000
946.719971,-95.648003,25.375999
823.744019,-183.488007,72.223999
796.416016,99.552002,83.935997
866.687988,308.415985,60.512001
854.976013,290.847992,54.655998
921.343994,107.360001,23.424000
870.591980,46.848000,40.992001
812.031982,169.824005,50.751999
905.728027,201.056000,15.616000
907.679993,175.679993,-1.952000
921.343994,175.679993,1.952000
931.104004,222.528000,7.808000
925.247986,228.384003,-5.856000
942.815979,193.248001,0.000000
911.583984,230.335999,19.520000
911.583984,218.623993,35.136002
886.208008,240.095993,42.944000
903.776001,232.287994,31.232000
907.679993,199.104004,39.040001
884.255981,203.007996,62.464001
890.112000,220.576004,78.080002
907.679993,245.951996,95.648003
927.200012,234.240005,85.888000
929.151978,206.912003,76.127998
962.335999,222.528000,76.127998
944.768005,290.847992,81.984001
942.815979,292.799988,93.695999
938.911987,267.424011,87.839996
940.864014,232.287994,109.311996
931.104004,228.384003,121.024002
915.487976,214.720001,117.120003
905.728027,179.584000,136.639999
909.632019,160.063995,146.399994
895.968018,185.440002,146.399994
907.679993,189.343994,140.544006
913.536011,187.391998,148.352005
938.911987,158.112000,142.496002
936.960022,119.071999,140.544006
944.768005,111.264000,128.832001
960.383972,95.648003,154.207993
974.047974,105.407997,189.343994
1003.328003,121.024002,197.151993
989.664001,158.112000,199.104004
977.952026,183.488007,218.623993
1003.328003,173.727997,212.768005
1005.280029,177.632004,210.815994
962.335999,240.095993,197.151993
952.575989,230.335999,173.727997
972.096008,187.391998,156.160004
964.288025,206.912003,130.783997
966.239990,212.768005,107.360001
979.903992,220.576004,99.552002
956.479980,220.576004,93.695999
981.856018,171.776001,74.176003
993.567993,167.871994,93.695999
964.288025,230.335999,111.264000
972.096008,251.807999,119.071999
985.760010,236.192001,113.216003
1009.184021,226.432007,109.311996
1001.375977,204.960007,119.071999
995.520020,195.199997,126.879997
997.471985,189.343994,138.591995
995.520020,171.776001,171.776001
997.471985,160.063995,187.391998
1016.992004,171.776001,210.815994
1028.703979,185.440002,224.479996
1018.943970,203.007996,257.664001
1044.319946,181.535995,261.567993
1059.936035,169.824005,275.231995
1032.608032,179.584000,284.992004
1044.319946,150.304001,300.608002
1032.608032,144.447998,308.415985
1038.463989,142.496002,331.839996
1048.223999,134.688004,341.600006
1036.511963,158.112000,339.648010
1052.128052,146.399994,335.743988
1048.223999,146.399994,357.216003
1042.368042,124.928001,372.832001
1042.368042,130.783997,384.544006
1057.984009,132.735992,386.496002
1102.880005,130.783997,384.544006
1157.536011,152.255997,366.976013
1202.432007,197.151993,349.407990
1243.423950,212.768005,355.264008
1329.312012,109.311996,353.312012
1413.248047,-19.520000,353.312012
1192.671997,185.440002,384.544006
316.223999,1052.128052,437.247986
568.031982,774.943970,353.312012
1303.936035,89.792000,230.335999
1130.208008,380.640015,281.088013
837.408020,642.208008,308.415985
1120.447998,345.503998,259.615997
1260.991943,255.712006,240.095993
1147.776001,452.864014,271.328003
1173.151978,353.312012,290.847992
1341.024048,-113.216003,292.799988
1323.456055,-402.112000,343.552002
718.335999,290.847992,425.536011
306.463989,837.408020,448.959991
1057.984009,269.376007,327.936005
1479.615967,208.863998,300.608002
1208.287964,732.000000,349.407990
1296.128052,847.168030,337.696014
1626.015991,704.671997,318.175995
1545.984009,277.183990,382.592010
1614.303955,33.183998,421.631989
54.655998,1456.192017,630.495972
-1762.656006,505.567993,593.408020
54.655998,-2547.360107,464.575989
607.072021,-2211.615967,333.791992
505.567993,728.096008,214.720001
1253.183960,1239.520020,64.416000
1179.008057,60.512001,66.367996
938.911987,-279.135986,189.343994
532.895996,327.936005,257.664001
829.599976,489.951996,191.296005
929.151978,-324.032013,203.007996
915.487976,-407.967987,277.183990
792.512024,240.095993,325.984009
812.031982,564.127991,324.032013
872.544006,74.176003,316.223999
837.408020,-197.151993,335.743988
825.695984,-31.232000,347.455994
833.504028,195.199997,366.976013
755.424011,277.183990,388.447998
804.223999,150.304001,384.544006
853.023987,66.367996,365.023987
864.736023,89.792000,359.167999
853.023987,74.176003,368.928009
845.216003,-7.808000,357.216003
837.408020,-91.744003,355.264008
901.823975,-162.016006,341.600006
942.815979,-97.599998,320.127991
880.351990,-48.799999,314.272003
696.864014,-115.167999,322.079987
636.351990,-39.040001,333.791992
765.184021,204.960007,290.847992
878.400024,269.376007,265.471985
909.632019,44.896000,261.567993
866.687988,-78.080002,257.664001
780.799988,-21.472000,257.664001
794.463989,128.832001,240.095993
839.359985,181.535995,212.768005
825.695984,122.975998,185.440002
767.135986,195.199997,144.447998
839.359985,255.712006,89.792000
907.679993,148.352005,68.320000
858.880005,78.080002,78.080002
853.023987,50.751999,103.456001
862.783997,54.655998,132.735992
864.736023,81.984001,173.727997
897.919983,177.632004,199.104004
812.031982,99.552002,230.335999
864.736023,-13.664000,247.904007
878.400024,70.272003,281.088013
866.687988,152.255997,308.415985
880.351990,126.879997,327.936005
903.776001,111.264000,337.696014
940.864014,83.935997,343.552002
944.768005,56.608002,361.119995
946.719971,42.944000,370.880005
948.671997,21.472000,388.447998
890.112000,13.664000,398.208008
636.351990,-134.688004,400.160004
550.463989,-173.727997,374.783997
827.648010,134.688004,316.223999
966.239990,253.759995,306.463989
907.679993,13.664000,312.320007
874.495972,-210.815994,310.368011
903.776001,-146.399994,302.559998
944.768005,-72.223999,308.415985
933.056030,-50.751999,292.799988
931.104004,-80.031998,306.463989
964.288025,-163.968002,304.511993
800.320007,25.375999,347.455994
163.968002,868.640015,374.783997
747.616028,1485.472046,222.528000
894.015991,532.895996,185.440002
1130.208008,-357.216003,175.679993
991.616028,-124.928001,214.720001
913.536011,163.968002,236.192001
792.512024,238.143997,267.424011
761.280029,126.879997,267.424011
874.495972,15.616000,273.279999
921.343994,46.848000,290.847992
876.447998,152.255997,308.415985
853.023987,173.727997,335.743988
851.072021,81.984001,351.359985
802.271973,46.848000,355.264008
780.799988,74.176003,353.312012
802.271973,42.944000,339.648010
702.719971,-50.751999,318.175995
712.479980,-1.952000,277.183990
790.559998,140.544006,257.664001
798.367981,206.912003,267.424011
763.231995,169.824005,273.279999
854.976013,83.935997,261.567993
872.544006,40.992001,265.471985
782.752014,72.223999,271.328003
759.328003,138.591995,273.279999
837.408020,105.407997,267.424011
862.783997,78.080002,277.183990
845.216003,89.792000,286.944000
829.599976,117.120003,281.088013
771.039978,117.120003,284.992004
735.903992,76.127998,267.424011
718.335999,93.695999,265.471985
737.856018,134.688004,261.567993
751.520020,144.447998,259.615997
747.616028,140.544006,247.904007
757.375977,146.399994,247.904007
788.607971,142.496002,247.904007
796.416016,109.311996,247.904007
794.463989,80.031998,244.000000
808.127991,91.744003,244.000000
813.984009,132.735992,255.712006
782.752014,146.399994,253.759995
782.752014,160.063995,247.904007
788.607971,154.207993,234.240005
778.848022,130.783997,224.479996
757.375977,83.935997,216.671997
759.328003,58.560001,236.192001
769.088013,29.280001,226.432007
780.799988,9.760000,226.432007
794.463989,-21.472000,212.768005
778.848022,-37.088001,203.007996
786.656006,-42.944000,216.671997
788.607971,-44.896000,203.007996
806.176025,-64.416000,208.863998
792.512024,-56.608002,208.863998
704.671997,52.703999,214.720001
