ACC_X,ACC_Y,ACC_Z
876.447998,443.104004,244.000000
870.591980,445.056000,257.664001
878.400024,476.287994,242.048004
876.447998,491.903992,245.951996
874.495972,499.712006,242.048004
872.544006,489.951996,234.240005
878.400024,493.855988,244.000000
874.495972,505.567993,234.240005
878.400024,488.000000,218.623993
886.208008,478.239990,216.671997
890.112000,464.575989,214.720001
890.112000,466.528015,212.768005
890.112000,456.768005,218.623993
894.015991,435.295990,222.528000
895.968018,441.152008,234.240005
892.064026,439.200012,230.335999
890.112000,441.152008,234.240005
894.015991,431.391998,230.335999
899.872009,435.295990,232.287994
894.015991,441.152008,226.432007
899.872009,441.152008,216.671997
901.823975,448.959991,201.056000
894.015991,466.528015,197.151993
890.112000,472.384003,191.296005
890.112000,480.191986,203.007996
886.208008,480.191986,203.007996
882.304016,482.144012,210.815994
886.208008,484.096008,224.479996
899.872009,478.239990,212.768005
901.823975,482.144012,224.479996
909.632019,480.191986,226.432007
923.296021,474.335999,220.576004
921.343994,466.528015,224.479996
923.296021,468.480011,230.335999
933.056030,448.959991,242.048004
933.056030,448.959991,245.951996
931.104004,452.864014,247.904007
931.104004,450.911987,255.712006
929.151978,448.959991,230.335999
929.151978,462.623993,226.432007
925.247986,470.432007,224.479996
921.343994,468.480011,212.768005
927.200012,470.432007,210.815994
921.343994,458.720001,206.912003
919.392029,468.480011,214.720001
935.007996,470.432007,216.671997
944.768005,462.623993,226.432007
950.624023,470.432007,234.240005
960.383972,448.959991,244.000000
970.143982,462.623993,255.712006
968.192017,456.768005,265.471985
979.903992,454.816010,273.279999
977.952026,456.768005,275.231995
981.856018,468.480011,277.183990
995.520020,454.816010,261.567993
987.711975,466.528015,261.567993
983.807983,478.239990,267.424011
976.000000,470.432007,263.519989
976.000000,476.287994,251.807999
979.903992,476.287994,245.951996
981.856018,468.480011,247.904007
966.239990,484.096008,244.000000
966.239990,478.239990,226.432007
981.856018,478.239990,220.576004
981.856018,474.335999,222.528000
977.952026,468.480011,212.768005
972.096008,466.528015,220.576004
968.192017,470.432007,222.528000
985.760010,464.575989,240.095993
983.807983,468.480011,251.807999
979.903992,464.575989,257.664001
997.471985,454.816010,263.519989
991.616028,468.480011,267.424011
977.952026,468.480011,275.231995
991.616028,482.144012,267.424011
985.760010,462.623993,267.424011
979.903992,474.335999,259.615997
976.000000,486.048004,245.951996
983.807983,491.903992,242.048004
974.047974,488.000000,245.951996
966.239990,491.903992,247.904007
966.239990,484.096008,251.807999
962.335999,499.712006,259.615997
958.432007,489.951996,259.615997
958.432007,486.048004,257.664001
950.624023,489.951996,263.519989
960.383972,489.951996,253.759995
964.288025,476.287994,249.856003
954.528015,468.480011,267.424011
938.911987,468.480011,279.135986
925.247986,468.480011,265.471985
933.056030,470.432007,251.807999
925.247986,452.864014,247.904007
936.960022,470.432007,230.335999
940.864014,468.480011,224.479996
935.007996,468.480011,240.095993
933.056030,468.480011,242.048004
929.151978,484.096008,265.471985
968.192017,507.519989,306.463989
964.288025,468.480011,343.552002
1011.135986,517.280029,390.399994
1038.463989,568.031982,402.112000
1071.647949,384.544006,392.351990
1020.895996,507.519989,431.391998
1024.800049,564.127991,470.432007
1016.992004,583.648010,445.056000
1040.416016,464.575989,363.071991
1009.184021,392.351990,314.272003
954.528015,523.135986,306.463989
886.208008,550.463989,286.944000
899.872009,452.864014,234.240005
911.583984,363.071991,171.776001
876.447998,530.943970,140.544006
854.976013,478.239990,128.832001
843.263977,411.872009,136.639999
856.927979,470.432007,185.440002
905.728027,-64.416000,378.687988
888.159973,972.096008,464.575989
938.911987,292.799988,491.903992
1038.463989,530.943970,509.471985
1093.119995,675.392029,517.280029
1153.631958,132.735992,505.567993
1134.112061,685.151978,505.567993
1130.208008,655.872009,486.048004
1120.447998,433.343994,429.440002
1079.456055,532.895996,390.399994
1024.800049,468.480011,327.936005
954.528015,568.031982,277.183990
907.679993,575.840027,236.192001
884.255981,491.903992,183.488007
878.400024,454.816010,144.447998
851.072021,532.895996,128.832001
856.927979,530.943970,117.120003
888.159973,497.760010,117.120003
907.679993,478.239990,113.216003
929.151978,478.239990,119.071999
940.864014,480.191986,121.024002
933.056030,489.951996,154.207993
933.056030,474.335999,181.535995
909.632019,472.384003,208.863998
903.776001,484.096008,224.479996
813.984009,503.615997,292.799988
813.984009,456.768005,294.752014
868.640015,431.391998,290.847992
882.304016,474.335999,286.944000
909.632019,474.335999,286.944000
948.671997,447.007996,302.559998
948.671997,454.816010,322.079987
935.007996,439.200012,345.503998
970.143982,431.391998,357.216003
1005.280029,482.144012,353.312012
987.711975,505.567993,349.407990
989.664001,497.760010,335.743988
981.856018,503.615997,325.984009
972.096008,491.903992,292.799988
966.239990,503.615997,265.471985
979.903992,499.712006,242.048004
993.567993,488.000000,226.432007
976.000000,503.615997,216.671997
1022.848022,491.903992,210.815994
1018.943970,509.471985,220.576004
1005.280029,509.471985,224.479996
1011.135986,478.239990,226.432007
1038.463989,468.480011,226.432007
1028.703979,486.048004,257.664001
1022.848022,495.808014,279.135986
1048.223999,484.096008,292.799988
1061.887939,489.951996,318.175995
1048.223999,489.951996,335.743988
1020.895996,447.007996,359.167999
1001.375977,447.007996,378.687988
995.520020,452.864014,370.880005
1005.280029,406.015991,341.600006
1032.608032,368.928009,312.320007
1016.992004,376.735992,281.088013
981.856018,304.511993,259.615997
936.960022,290.847992,222.528000
942.815979,341.600006,185.440002
946.719971,312.320007,136.639999
915.487976,277.183990,105.407997
888.159973,298.656006,83.935997
860.831970,322.079987,60.512001
843.263977,312.320007,35.136002
835.455994,324.032013,21.472000
843.263977,372.832001,19.520000
823.744019,429.440002,33.183998
856.927979,447.007996,31.232000
874.495972,445.056000,52.703999
897.919983,484.096008,83.935997
903.776001,499.712006,130.783997
907.679993,548.512024,169.824005
935.007996,542.656006,206.912003
950.624023,527.039978,255.712006
960.383972,525.088013,292.799988
970.143982,517.280029,327.936005
977.952026,525.088013,363.071991
983.807983,499.712006,378.687988
1003.328003,468.480011,394.303986
1013.088013,443.104004,404.063995
1011.135986,441.152008,415.776001
1001.375977,419.679993,419.679993
991.616028,411.872009,419.679993
997.471985,394.303986,415.776001
977.952026,404.063995,404.063995
974.047974,398.208008,396.256012
935.007996,431.391998,390.399994
923.296021,443.104004,365.023987
927.200012,443.104004,359.167999
921.343994,480.191986,353.312012
929.151978,462.623993,345.503998
907.679993,474.335999,339.648010
899.872009,493.855988,353.312012
897.919983,488.000000,341.600006
911.583984,472.384003,343.552002
897.919983,441.152008,351.359985
899.872009,437.247986,359.167999
878.400024,480.191986,353.312012
894.015991,478.239990,345.503998
882.304016,478.239990,345.503998
880.351990,466.528015,363.071991
897.919983,458.720001,355.264008
876.447998,511.424011,376.735992
890.112000,550.463989,388.447998
923.296021,509.471985,400.160004
944.768005,482.144012,409.920013
942.815979,493.855988,413.824005
899.872009,388.447998,435.295990
806.176025,288.895996,429.440002
849.119995,366.976013,409.920013
917.440002,388.447998,384.544006
942.815979,201.056000,349.407990
956.479980,97.599998,325.984009
927.200012,126.879997,308.415985
895.968018,171.776001,290.847992
876.447998,187.391998,275.231995
858.880005,199.104004,253.759995
874.495972,212.768005,236.192001
870.591980,253.759995,244.000000
870.591980,197.151993,230.335999
884.255981,203.007996,228.384003
894.015991,325.984009,234.240005
888.159973,365.023987,267.424011
890.112000,460.671997,281.088013
907.679993,530.943970,292.799988
925.247986,515.328003,306.463989
915.487976,521.184021,300.608002
911.583984,501.664001,310.368011
935.007996,452.864014,314.272003
905.728027,456.768005,320.127991
817.888000,548.512024,314.272003
794.463989,569.984009,271.328003
858.880005,521.184021,228.384003
806.176025,484.096008,193.248001
833.504028,425.536011,156.160004
817.888000,491.903992,136.639999
817.888000,542.656006,119.071999
849.119995,534.848022,132.735992
843.263977,542.656006,150.304001
876.447998,538.752014,185.440002
853.023987,427.488007,236.192001
794.463989,273.279999,263.519989
853.023987,368.928009,267.424011
872.544006,417.727997,271.328003
925.247986,247.904007,271.328003
925.247986,226.432007,294.752014
915.487976,320.127991,308.415985
915.487976,324.032013,322.079987
940.864014,259.615997,339.648010
946.719971,259.615997,376.735992
960.383972,312.320007,407.967987
972.096008,366.976013,425.536011
929.151978,423.584015,435.295990
917.440002,429.440002,441.152008
950.624023,443.104004,415.776001
958.432007,497.760010,396.256012
964.288025,515.328003,374.783997
962.335999,491.903992,359.167999
935.007996,450.911987,357.216003
942.815979,411.872009,347.455994
929.151978,413.824005,345.503998
936.960022,386.496002,351.359985
942.815979,349.407990,368.928009
950.624023,312.320007,372.832001
942.815979,312.320007,392.351990
938.911987,374.783997,404.063995
931.104004,370.880005,400.160004
954.528015,353.312012,409.920013
950.624023,370.880005,421.631989
946.719971,396.256012,427.488007
942.815979,468.480011,413.824005
940.864014,548.512024,388.447998
962.335999,517.280029,382.592010
972.096008,464.575989,366.976013
962.335999,484.096008,355.264008
950.624023,501.664001,359.167999
944.768005,454.816010,361.119995
925.247986,429.440002,368.928009
927.200012,415.776001,384.544006
925.247986,329.888000,392.351990
921.343994,310.368011,398.208008
899.872009,384.544006,409.920013
911.583984,382.592010,404.063995
933.056030,333.791992,404.063995
938.911987,335.743988,406.015991
940.864014,378.687988,398.208008
956.479980,415.776001,409.920013
940.864014,415.776001,431.391998
981.856018,417.727997,435.295990
981.856018,409.920013,448.959991
977.952026,392.351990,441.152008
968.192017,392.351990,441.152008
966.239990,406.015991,450.911987
985.760010,417.727997,450.911987
979.903992,419.679993,445.056000
968.192017,394.303986,437.247986
950.624023,396.256012,439.200012
956.479980,400.160004,429.440002
917.440002,366.976013,431.391998
878.400024,316.223999,421.631989
907.679993,331.839996,404.063995
913.536011,353.312012,378.687988
888.159973,322.079987,368.928009
899.872009,308.415985,365.023987
911.583984,329.888000,368.928009
911.583984,337.696014,368.928009
923.296021,300.608002,376.735992
917.440002,275.231995,394.303986
931.104004,255.712006,404.063995
923.296021,279.135986,411.872009
905.728027,374.783997,429.440002
815.935974,614.880005,454.816010
806.176025,991.616028,411.872009
944.768005,901.823975,335.743988
1009.184021,439.200012,292.799988
1056.031982,218.623993,257.664001
1034.560059,267.424011,251.807999
999.424011,353.312012,265.471985
954.528015,407.967987,290.847992
925.247986,312.320007,314.272003
911.583984,121.024002,347.455994
909.632019,109.311996,380.640015
874.495972,228.384003,433.343994
862.783997,292.799988,460.671997
890.112000,236.192001,484.096008
923.296021,204.960007,513.375977
952.575989,238.143997,552.416016
970.143982,368.928009,589.504028
1009.184021,429.440002,622.687988
1048.223999,421.631989,648.064026
1085.312012,419.679993,671.487976
1100.927979,474.335999,712.479980
1112.640015,497.760010,743.711975
1104.832031,515.328003,790.559998
1118.495972,546.559998,817.888000
1104.832031,525.088013,819.840027
1116.543945,484.096008,819.840027
1098.975952,468.480011,839.359985
1106.784058,458.720001,849.119995
1136.063965,419.679993,835.455994
1155.583984,384.544006,837.408020
1184.864014,384.544006,835.455994
1235.615967,447.007996,849.119995
1286.368042,480.191986,876.447998
1309.791992,482.144012,899.872009
1274.656006,247.904007,890.112000
1264.895996,-50.751999,888.159973
1139.968018,97.599998,899.872009
640.255981,93.695999,935.007996
708.575989,675.392029,870.591980
1120.447998,1262.943970,806.176025
1200.479980,720.288025,757.375977
1374.208008,74.176003,728.096008
1257.088013,337.696014,767.135986
1214.144043,612.927979,794.463989
1329.312012,466.528015,782.752014
1317.599976,292.799988,829.599976
1294.176025,257.664001,860.831970
1374.208008,294.752014,866.687988
1464.000000,271.328003,874.495972
1530.368042,95.648003,901.823975
1627.968018,1.952000,917.440002
1288.319946,-13.664000,970.143982
-1348.832031,810.080017,1180.959961
1139.968018,1657.248047,745.664001
1643.583984,1220.000000,687.104004
1153.631958,361.119995,694.911987
1551.839966,1.952000,659.776001
1272.703979,187.391998,724.192017
1106.784058,304.511993,767.135986
1344.927979,296.704010,747.616028
1467.904053,314.272003,774.943970
1405.439941,366.976013,804.223999
1165.343994,-140.544006,823.744019
48.799999,-1288.319946,931.104004
431.391998,-784.703979,839.359985
1762.656006,339.648010,706.624023
-562.176025,-1401.536011,815.935974
365.023987,-208.863998,610.976013
1524.511963,1077.504028,517.280029
1028.703979,813.984009,528.992004
977.952026,95.648003,486.048004
890.112000,-40.992001,454.816010
878.400024,415.776001,476.287994
1311.744019,626.591980,429.440002
1391.776001,310.368011,396.256012
593.408020,-142.496002,454.816010
-158.112000,68.320000,488.000000
99.552002,689.056030,406.015991
1542.079956,1093.119995,228.384003
1823.167969,1093.119995,253.759995
1454.239990,1163.391968,351.359985
983.807983,767.135986,413.824005
-15.616000,-1200.479980,456.768005
-692.960022,-964.288025,480.191986
257.664001,833.504028,267.424011
2022.271973,806.176025,81.984001
864.736023,148.352005,212.768005
83.935997,-771.039978,203.007996
976.000000,-357.216003,93.695999
749.567993,378.687988,175.679993
562.176025,806.176025,234.240005
1018.943970,476.287994,183.488007
294.752014,-337.696014,199.104004
267.424011,-349.407990,13.664000
767.135986,58.560001,-46.848000
903.776001,296.704010,-7.808000
788.607971,466.528015,42.944000
843.263977,528.992004,62.464001
745.664001,441.152008,64.416000
732.000000,368.928009,68.320000
700.768005,421.631989,95.648003
661.728027,530.943970,117.120003
618.783997,597.312012,138.591995
562.176025,612.927979,156.160004
542.656006,620.736023,173.727997
538.752014,610.976013,193.248001
536.799988,599.263977,206.912003
528.992004,534.848022,216.671997
540.703979,437.247986,206.912003
556.320007,347.455994,199.104004
568.031982,259.615997,185.440002
575.840027,203.007996,175.679993
601.216003,165.919998,158.112000
614.880005,126.879997,136.639999
618.783997,89.792000,124.928001
603.168030,44.896000,107.360001
630.495972,21.472000,95.648003
642.208008,7.808000,95.648003
634.400024,-7.808000,85.888000
612.927979,-25.375999,81.984001
626.591980,-76.127998,72.223999
575.840027,0.000000,64.416000
431.391998,394.303986,76.127998
411.872009,938.911987,103.456001
413.824005,1204.384033,113.216003
390.399994,1112.640015,80.031998
427.488007,911.583984,13.664000
470.432007,769.088013,-23.424000
517.280029,698.815979,-42.944000
527.039978,706.624023,-54.655998
509.471985,730.047974,-70.272003
499.712006,769.088013,-70.272003
503.615997,763.231995,-58.560001
503.615997,702.719971,-46.848000
540.703979,540.703979,-40.992001
468.480011,306.463989,-31.232000
425.536011,224.479996,7.808000
339.648010,392.351990,74.176003
363.071991,710.528015,138.591995
386.496002,991.616028,165.919998
394.303986,1032.608032,140.544006
429.440002,966.239990,117.120003
458.720001,1073.599976,101.503998
517.280029,1235.615967,111.264000
562.176025,1311.744019,101.503998
560.223999,1251.232056,93.695999
591.455994,1147.776001,103.456001
651.968018,1143.871948,117.120003
728.096008,1239.520020,156.160004
784.703979,1272.703979,204.960007
810.080017,1184.864014,236.192001
823.744019,1108.735962,265.471985
843.263977,1114.592041,300.608002
823.744019,1097.024048,349.407990
796.416016,979.903992,392.351990
771.039978,862.783997,431.391998
774.943970,851.072021,484.096008
790.559998,843.263977,532.895996
788.607971,829.599976,575.840027
782.752014,767.135986,595.359985
782.752014,673.440002,610.976013
763.231995,569.984009,616.831970
749.567993,515.328003,610.976013
771.039978,507.519989,597.312012
784.703979,478.239990,591.455994
778.848022,441.152008,591.455994
774.943970,437.247986,589.504028
772.992004,413.824005,595.359985
757.375977,384.544006,583.648010
749.567993,370.880005,573.888000
733.952026,353.312012,573.888000
718.335999,316.223999,569.984009
630.495972,89.792000,573.888000
679.296021,-220.576004,573.888000
749.567993,81.984001,573.888000
780.799988,406.015991,566.080017
753.471985,300.608002,573.888000
730.047974,-39.040001,573.888000
720.288025,-117.120003,577.791992
733.952026,119.071999,564.127991
733.952026,255.712006,569.984009
732.000000,117.120003,571.935974
728.096008,-37.088001,575.840027
720.288025,25.375999,562.176025
718.335999,181.535995,569.984009
694.911987,171.776001,560.223999
671.487976,113.216003,566.080017
671.487976,144.447998,568.031982
679.296021,271.328003,564.127991
671.487976,325.984009,571.935974
673.440002,304.511993,571.935974
675.392029,316.223999,573.888000
681.247986,396.256012,571.935974
683.200012,417.727997,581.695984
685.151978,407.967987,587.552002
687.104004,413.824005,585.599976
685.151978,447.007996,585.599976
687.104004,454.816010,577.791992
685.151978,456.768005,583.648010
687.104004,447.007996,591.455994
677.343994,464.575989,587.552002
687.104004,458.720001,591.455994
694.911987,460.671997,587.552002
689.056030,448.959991,569.984009
675.392029,431.391998,564.127991
673.440002,423.584015,558.271973
661.728027,415.776001,546.559998
650.015991,411.872009,527.039978
646.112000,394.303986,511.424011
626.591980,366.976013,491.903992
630.495972,365.023987,476.287994
634.400024,343.552002,470.432007
628.544006,322.079987,462.623993
626.591980,300.608002,443.104004
616.831970,322.079987,441.152008
614.880005,357.216003,445.056000
607.072021,355.264008,441.152008
607.072021,341.600006,437.247986
607.072021,337.696014,443.104004
607.072021,337.696014,431.391998
595.359985,339.648010,431.391998
601.216003,351.359985,429.440002
599.263977,351.359985,439.200012
591.455994,347.455994,435.295990
607.072021,353.312012,419.679993
605.119995,347.455994,413.824005
603.168030,357.216003,419.679993
601.216003,366.976013,406.015991
593.408020,370.880005,413.824005
587.552002,374.783997,419.679993
589.504028,376.735992,409.920013
591.455994,378.687988,402.112000
581.695984,382.592010,407.967987
587.552002,372.832001,415.776001
591.455994,372.832001,417.727997
585.599976,370.880005,415.776001
599.263977,366.976013,413.824005
595.359985,353.312012,425.536011
601.216003,345.503998,423.584015
599.263977,349.407990,435.295990
601.216003,335.743988,445.056000
593.408020,331.839996,458.720001
605.119995,329.888000,460.671997
605.119995,320.127991,474.335999
612.927979,312.320007,489.951996
614.880005,306.463989,505.567993
618.783997,304.511993,525.088013
622.687988,312.320007,538.752014
622.687988,316.223999,556.320007
630.495972,312.320007,566.080017
636.351990,318.175995,575.840027
628.544006,312.320007,577.791992
620.736023,314.272003,581.695984
620.736023,314.272003,589.504028
616.831970,345.503998,583.648010
626.591980,331.839996,581.695984
622.687988,343.552002,577.791992
618.783997,337.696014,569.984009
618.783997,341.600006,571.935974
616.831970,341.600006,554.367981
612.927979,341.600006,546.559998
597.312012,329.888000,542.656006
605.119995,329.888000,534.848022
599.263977,324.032013,527.039978
593.408020,322.079987,523.135986
595.359985,304.511993,523.135986
577.791992,300.608002,528.992004
573.888000,298.656006,523.135986
579.744019,296.704010,519.231995
571.935974,298.656006,519.231995
579.744019,286.944000,521.184021
568.031982,294.752014,521.184021
571.935974,294.752014,515.328003
562.176025,298.656006,521.184021
558.271973,306.463989,515.328003
564.127991,322.079987,511.424011
552.416016,314.272003,515.328003
544.607971,320.127991,513.375977
544.607971,325.984009,511.424011
542.656006,320.127991,521.184021
542.656006,333.791992,517.280029
534.848022,316.223999,513.375977
536.799988,316.223999,525.088013
530.943970,310.368011,513.375977
532.895996,314.272003,509.471985
511.424011,308.415985,517.280029
511.424011,314.272003,513.375977
517.280029,304.511993,517.280029
507.519989,296.704010,536.799988
507.519989,286.944000,528.992004
501.664001,290.847992,523.135986
499.712006,290.847992,519.231995
488.000000,279.135986,521.184021
489.951996,279.135986,523.135986
476.287994,288.895996,515.328003
470.432007,277.183990,515.328003
460.671997,279.135986,521.184021
456.768005,279.135986,515.328003
456.768005,279.135986,513.375977
464.575989,273.279999,515.328003
445.056000,279.135986,509.471985
425.536011,265.471985,505.567993
431.391998,269.376007,505.567993
417.727997,265.471985,511.424011
417.727997,265.471985,513.375977
411.872009,249.856003,503.615997
409.920013,257.664001,511.424011
406.015991,253.759995,505.567993
394.303986,247.904007,511.424011
392.351990,245.951996,513.375977
382.592010,236.192001,521.184021
380.640015,228.384003,523.135986
378.687988,234.240005,527.039978
368.928009,226.432007,517.280029
376.735992,228.384003,507.519989
370.880005,226.432007,517.280029
366.976013,224.479996,507.519989
359.167999,214.720001,521.184021
355.264008,206.912003,523.135986
351.359985,199.104004,521.184021
347.455994,191.296005,513.375977
347.455994,199.104004,505.567993
345.503998,195.199997,507.519989
331.839996,197.151993,505.567993
331.839996,191.296005,497.760010
331.839996,203.007996,493.855988
329.888000,201.056000,495.808014
324.032013,201.056000,501.664001
312.320007,203.007996,493.855988
322.079987,212.768005,499.712006
314.272003,201.056000,489.951996
322.079987,203.007996,484.096008
324.032013,201.056000,489.951996
331.839996,197.151993,484.096008
337.696014,191.296005,493.855988
322.079987,191.296005,484.096008
325.984009,185.440002,488.000000
335.743988,191.296005,493.855988
333.791992,197.151993,489.951996
339.648010,199.104004,493.855988
349.407990,195.199997,495.808014
351.359985,201.056000,509.471985
359.167999,201.056000,519.231995
370.880005,203.007996,528.992004
378.687988,206.912003,530.943970
390.399994,216.671997,536.799988
392.351990,224.479996,554.367981
413.824005,210.815994,556.320007
417.727997,216.671997,558.271973
433.343994,228.384003,569.984009
439.200012,224.479996,573.888000
448.959991,228.384003,571.935974
458.720001,234.240005,577.791992
462.623993,226.432007,581.695984
468.480011,226.432007,579.744019
482.144012,240.095993,577.791992
486.048004,232.287994,575.840027
489.951996,228.384003,575.840027
495.808014,230.335999,575.840027
509.471985,232.287994,577.791992
497.760010,226.432007,571.935974
509.471985,232.287994,566.080017
513.375977,226.432007,573.888000
513.375977,228.384003,566.080017
521.184021,234.240005,566.080017
519.231995,240.095993,573.888000
528.992004,222.528000,568.031982
527.039978,224.479996,569.984009
530.943970,218.623993,575.840027
532.895996,232.287994,575.840027
532.895996,228.384003,575.840027
528.992004,230.335999,579.744019
540.703979,247.904007,587.552002
534.848022,245.951996,585.599976
546.559998,244.000000,593.408020
556.320007,234.240005,593.408020
546.559998,238.143997,601.216003
554.367981,236.192001,601.216003
544.607971,234.240005,614.880005
556.320007,238.143997,609.023987
562.176025,244.000000,609.023987
560.223999,240.095993,618.783997
552.416016,247.904007,622.687988
552.416016,251.807999,622.687988
546.559998,245.951996,616.831970
538.752014,255.712006,622.687988
556.320007,247.904007,636.351990
550.463989,249.856003,628.544006
552.416016,253.759995,620.736023
544.607971,249.856003,624.640015
548.512024,255.712006,620.736023
546.559998,265.471985,616.831970
542.656006,267.424011,620.736023
542.656006,267.424011,614.880005
534.848022,269.376007,610.976013
532.895996,269.376007,601.216003
523.135986,273.279999,591.455994
513.375977,273.279999,593.408020
523.135986,277.183990,585.599976
521.184021,283.040009,585.599976
519.231995,275.231995,583.648010
515.328003,279.135986,587.552002
519.231995,269.376007,583.648010
515.328003,275.231995,587.552002
515.328003,279.135986,589.504028
511.424011,273.279999,573.888000
511.424011,283.040009,575.840027
513.375977,273.279999,569.984009
501.664001,279.135986,577.791992
501.664001,281.088013,571.935974
493.855988,273.279999,566.080017
503.615997,275.231995,560.223999
505.567993,269.376007,558.271973
503.615997,277.183990,558.271973
501.664001,281.088013,556.320007
493.855988,277.183990,546.559998
488.000000,284.992004,542.656006
489.951996,302.559998,546.559998
495.808014,300.608002,540.703979
493.855988,306.463989,546.559998
493.855988,308.415985,544.607971
491.903992,320.127991,548.512024
488.000000,312.320007,542.656006
491.903992,308.415985,534.848022
495.808014,310.368011,534.848022
501.664001,314.272003,534.848022
505.567993,320.127991,534.848022
503.615997,322.079987,542.656006
505.567993,316.223999,530.943970
499.712006,314.272003,528.992004
513.375977,329.888000,534.848022
515.328003,318.175995,532.895996
519.231995,322.079987,523.135986
527.039978,322.079987,530.943970
523.135986,322.079987,525.088013
525.088013,327.936005,525.088013
536.799988,337.696014,513.375977
536.799988,337.696014,505.567993
544.607971,335.743988,507.519989
544.607971,337.696014,507.519989
542.656006,349.407990,501.664001
552.416016,345.503998,497.760010
548.512024,361.119995,495.808014
558.271973,363.071991,509.471985
566.080017,372.832001,493.855988
556.320007,359.167999,497.760010
568.031982,370.880005,493.855988
560.223999,374.783997,509.471985
554.367981,376.735992,495.808014
566.080017,366.976013,491.903992
581.695984,376.735992,486.048004
585.599976,380.640015,488.000000
585.599976,382.592010,486.048004
599.263977,386.496002,491.903992
593.408020,396.256012,486.048004
595.359985,386.496002,486.048004
609.023987,390.399994,484.096008
610.976013,398.208008,486.048004
618.783997,404.063995,478.239990
616.831970,409.920013,472.384003
614.880005,411.872009,476.287994
622.687988,415.776001,474.335999
620.736023,417.727997,478.239990
634.400024,415.776001,482.144012
632.447998,407.967987,476.287994
634.400024,413.824005,484.096008
642.208008,407.967987,488.000000
653.919983,402.112000,484.096008
653.919983,406.015991,484.096008
655.872009,398.208008,484.096008
661.728027,396.256012,480.191986
663.679993,402.112000,480.191986
669.536011,402.112000,480.191986
661.728027,394.303986,482.144012
665.632019,394.303986,488.000000
663.679993,402.112000,488.000000
667.583984,396.256012,488.000000
665.632019,390.399994,491.903992
665.632019,404.063995,501.664001
683.200012,394.303986,511.424011
689.056030,376.735992,503.615997
698.815979,378.687988,511.424011
696.864014,378.687988,521.184021
702.719971,366.976013,530.943970
706.624023,365.023987,536.799988
716.383972,368.928009,542.656006
714.432007,363.071991,540.703979
724.192017,365.023987,536.799988
720.288025,365.023987,542.656006
724.192017,368.928009,546.559998
722.239990,382.592010,552.416016
718.335999,370.880005,554.367981
720.288025,370.880005,564.127991
718.335999,359.167999,556.320007
722.239990,366.976013,554.367981
733.952026,365.023987,552.416016
737.856018,365.023987,538.752014
749.567993,365.023987,538.752014
749.567993,355.264008,550.463989
747.616028,361.119995,542.656006
759.328003,368.928009,544.607971
761.280029,359.167999,548.512024
761.280029,366.976013,552.416016
759.328003,372.832001,556.320007
761.280029,382.592010,558.271973
759.328003,370.880005,568.031982
767.135986,372.832001,568.031982
772.992004,380.640015,568.031982
772.992004,376.735992,564.127991
782.752014,365.023987,566.080017
796.416016,366.976013,562.176025
802.271973,366.976013,554.367981
798.367981,368.928009,546.559998
804.223999,376.735992,564.127991
806.176025,370.880005,564.127991
808.127991,368.928009,566.080017
821.791992,363.071991,568.031982
817.888000,368.928009,571.935974
819.840027,370.880005,569.984009
825.695984,368.928009,591.455994
837.408020,361.119995,605.119995
831.552002,329.888000,628.544006
837.408020,304.511993,634.400024
856.927979,302.559998,646.112000
860.831970,294.752014,646.112000
872.544006,284.992004,650.015991
878.400024,290.847992,640.255981
892.064026,306.463989,642.208008
886.208008,304.511993,644.159973
903.776001,316.223999,646.112000
890.112000,349.407990,650.015991
905.728027,374.783997,644.159973
890.112000,400.160004,638.304016
895.968018,417.727997,638.304016
895.968018,450.911987,632.447998
899.872009,462.623993,634.400024
897.919983,474.335999,630.495972
897.919983,480.191986,632.447998
901.823975,474.335999,632.447998
905.728027,468.480011,634.400024
903.776001,468.480011,632.447998
909.632019,454.816010,630.495972
911.583984,433.343994,632.447998
921.343994,413.824005,622.687988
917.440002,404.063995,626.591980
909.632019,384.544006,628.544006
911.583984,376.735992,632.447998
909.632019,355.264008,634.400024
905.728027,353.312012,626.591980
901.823975,343.552002,632.447998
897.919983,351.359985,632.447998
903.776001,353.312012,622.687988
899.872009,359.167999,620.736023
892.064026,365.023987,620.736023
899.872009,370.880005,609.023987
888.159973,390.399994,609.023987
886.208008,407.967987,605.119995
892.064026,406.015991,603.168030
897.919983,419.679993,601.216003
899.872009,427.488007,587.552002
895.968018,421.631989,583.648010
890.112000,435.295990,591.455994
886.208008,437.247986,577.791992
882.304016,435.295990,579.744019
882.304016,419.679993,579.744019
888.159973,415.776001,575.840027
884.255981,404.063995,568.031982
884.255981,400.160004,556.320007
872.544006,394.303986,544.607971
870.591980,382.592010,542.656006
884.255981,378.687988,540.703979
872.544006,378.687988,536.799988
864.736023,370.880005,523.135986
870.591980,370.880005,515.328003
872.544006,370.880005,503.615997
868.640015,380.640015,501.664001
856.927979,380.640015,493.855988
856.927979,394.303986,493.855988
858.880005,394.303986,493.855988
856.927979,396.256012,480.191986
860.831970,407.967987,488.000000
862.783997,413.824005,497.760010
866.687988,409.920013,493.855988
862.783997,415.776001,499.712006
868.640015,415.776001,493.855988
864.736023,413.824005,505.567993
866.687988,431.391998,507.519989
868.640015,417.727997,497.760010
870.591980,417.727997,499.712006
864.736023,411.872009,505.567993
866.687988,406.015991,505.567993
870.591980,409.920013,507.519989
868.640015,404.063995,503.615997
862.783997,404.063995,503.615997
866.687988,407.967987,501.664001
858.880005,396.256012,499.712006
858.880005,394.303986,501.664001
854.976013,394.303986,497.760010
868.640015,394.303986,503.615997
862.783997,402.112000,499.712006
853.023987,402.112000,491.903992
856.927979,404.063995,488.000000
854.976013,406.015991,493.855988
856.927979,406.015991,493.855988
858.880005,407.967987,501.664001
853.023987,415.776001,489.951996
851.072021,413.824005,491.903992
854.976013,415.776001,491.903992
860.831970,415.776001,491.903992
860.831970,423.584015,495.808014
858.880005,419.679993,488.000000
856.927979,411.872009,495.808014
858.880005,413.824005,489.951996
856.927979,409.920013,484.096008
858.880005,419.679993,489.951996
856.927979,406.015991,488.000000
853.023987,413.824005,484.096008
853.023987,409.920013,484.096008
853.023987,409.920013,484.096008
853.023987,409.920013,478.239990
856.927979,409.920013,478.239990
856.927979,413.824005,482.144012
847.168030,411.872009,474.335999
856.927979,404.063995,468.480011
849.119995,404.063995,486.048004
853.023987,407.967987,474.335999
853.023987,404.063995,476.287994
853.023987,409.920013,472.384003
847.168030,404.063995,462.623993
851.072021,407.967987,480.191986
853.023987,386.496002,478.239990
851.072021,398.208008,476.287994
860.831970,396.256012,480.191986
860.831970,402.112000,480.191986
856.927979,390.399994,484.096008
858.880005,386.496002,484.096008
864.736023,384.544006,484.096008
858.880005,390.399994,482.144012
854.976013,376.735992,480.191986
854.976013,380.640015,491.903992
860.831970,370.880005,486.048004
851.072021,378.687988,493.855988
856.927979,374.783997,488.000000
856.927979,372.832001,488.000000
854.976013,370.880005,486.048004
858.880005,372.832001,488.000000
864.736023,366.976013,484.096008
860.831970,363.071991,480.191986
858.880005,347.455994,478.239990
864.736023,361.119995,488.000000
860.831970,361.119995,482.144012
856.927979,359.167999,488.000000
860.831970,359.167999,486.048004
854.976013,365.023987,486.048004
862.783997,359.167999,488.000000
860.831970,355.264008,484.096008
862.783997,353.312012,488.000000
868.640015,353.312012,486.048004
866.687988,349.407990,486.048004
866.687988,345.503998,491.903992
854.976013,345.503998,486.048004
866.687988,331.839996,488.000000
866.687988,333.791992,495.808014
858.880005,333.791992,491.903992
860.831970,324.032013,491.903992
866.687988,333.791992,501.664001
868.640015,322.079987,499.712006
872.544006,322.079987,499.712006
868.640015,314.272003,495.808014
858.880005,320.127991,503.615997
862.783997,304.511993,507.519989
866.687988,318.175995,505.567993
870.591980,302.559998,501.664001
880.351990,296.704010,505.567993
870.591980,292.799988,507.519989
866.687988,296.704010,503.615997
874.495972,292.799988,503.615997
866.687988,288.895996,507.519989
874.495972,298.656006,503.615997
872.544006,300.608002,501.664001
866.687988,288.895996,507.519989
880.351990,302.559998,505.567993
870.591980,300.608002,505.567993
876.447998,288.895996,517.280029
864.736023,284.992004,521.184021
882.304016,292.799988,515.328003
888.159973,283.040009,507.519989
886.208008,283.040009,517.280029
880.351990,277.183990,519.231995
892.064026,277.183990,519.231995
886.208008,271.328003,517.280029
892.064026,265.471985,521.184021
890.112000,269.376007,519.231995
901.823975,263.519989,528.992004
905.728027,261.567993,523.135986
899.872009,263.519989,525.088013
907.679993,265.471985,523.135986
905.728027,265.471985,525.088013
907.679993,267.424011,517.280029
911.583984,275.231995,521.184021
907.679993,273.279999,521.184021
913.536011,267.424011,521.184021
919.392029,283.040009,521.184021
911.583984,279.135986,511.424011
927.200012,275.231995,519.231995
931.104004,259.615997,527.039978
931.104004,269.376007,534.848022
935.007996,271.328003,530.943970
913.536011,255.712006,528.992004
927.200012,271.328003,538.752014
929.151978,263.519989,532.895996
931.104004,259.615997,530.943970
929.151978,259.615997,538.752014
931.104004,259.615997,536.799988
944.768005,247.904007,538.752014
936.960022,255.712006,546.559998
946.719971,263.519989,542.656006
931.104004,271.328003,542.656006
942.815979,253.759995,550.463989
938.911987,261.567993,552.416016
946.719971,271.328003,552.416016
954.528015,267.424011,556.320007
942.815979,283.040009,548.512024
935.007996,265.471985,548.512024
935.007996,275.231995,534.848022
935.007996,263.519989,544.607971
936.960022,279.135986,544.607971
944.768005,271.328003,538.752014
938.911987,273.279999,534.848022
942.815979,271.328003,536.799988
940.864014,267.424011,528.992004
944.768005,269.376007,532.895996
944.768005,261.567993,527.039978
942.815979,261.567993,534.848022
933.056030,271.328003,527.039978
933.056030,265.471985,534.848022
942.815979,261.567993,536.799988
942.815979,253.759995,530.943970
938.911987,257.664001,540.703979
940.864014,249.856003,528.992004
938.911987,251.807999,532.895996
942.815979,257.664001,521.184021
929.151978,265.471985,523.135986
931.104004,253.759995,525.088013
923.296021,253.759995,525.088013
925.247986,257.664001,527.039978
925.247986,263.519989,525.088013
927.200012,273.279999,523.135986
923.296021,269.376007,527.039978
929.151978,273.279999,532.895996
919.392029,269.376007,530.943970
927.200012,271.328003,523.135986
919.392029,273.279999,532.895996
909.632019,275.231995,525.088013
917.440002,265.471985,517.280029
915.487976,275.231995,527.039978
913.536011,273.279999,530.943970
911.583984,265.471985,528.992004
915.487976,269.376007,532.895996
913.536011,261.567993,523.135986
911.583984,265.471985,528.992004
909.632019,275.231995,528.992004
901.823975,275.231995,523.135986
905.728027,267.424011,521.184021
903.776001,275.231995,515.328003
899.872009,281.088013,507.519989
899.872009,279.135986,495.808014
899.872009,277.183990,501.664001
897.919983,273.279999,509.471985
894.015991,283.040009,505.567993
897.919983,288.895996,505.567993
895.968018,283.040009,495.808014
897.919983,273.279999,495.808014
903.776001,279.135986,493.855988
892.064026,281.088013,491.903992
895.968018,279.135986,497.760010
897.919983,277.183990,503.615997
894.015991,286.944000,503.615997
888.159973,281.088013,497.760010
894.015991,283.040009,497.760010
894.015991,284.992004,499.712006
895.968018,275.231995,495.808014
899.872009,271.328003,499.712006
892.064026,281.088013,499.712006
892.064026,288.895996,497.760010
886.208008,286.944000,501.664001
884.255981,277.183990,497.760010
886.208008,277.183990,507.519989
890.112000,281.088013,488.000000
870.591980,284.992004,493.855988
884.255981,288.895996,491.903992
876.447998,292.799988,488.000000
872.544006,288.895996,488.000000
870.591980,283.040009,491.903992
876.447998,288.895996,488.000000
874.495972,281.088013,491.903992
880.351990,286.944000,489.951996
868.640015,294.752014,486.048004
866.687988,286.944000,488.000000
868.640015,294.752014,493.855988
876.447998,290.847992,478.239990
872.544006,294.752014,488.000000
868.640015,292.799988,493.855988
868.640015,288.895996,488.000000
862.783997,288.895996,489.951996
862.783997,286.944000,491.903992
856.927979,298.656006,497.760010
858.880005,292.799988,495.808014
860.831970,294.752014,495.808014
862.783997,284.992004,493.855988
858.880005,302.559998,493.855988
858.880005,298.656006,497.760010
864.736023,302.559998,491.903992
858.880005,310.368011,499.712006
860.831970,300.608002,501.664001
856.927979,300.608002,497.760010
858.880005,306.463989,488.000000
868.640015,296.704010,493.855988
858.880005,298.656006,497.760010
858.880005,302.559998,491.903992
858.880005,310.368011,493.855988
860.831970,300.608002,497.760010
860.831970,298.656006,495.808014
858.880005,304.511993,495.808014
858.880005,304.511993,497.760010
849.119995,308.415985,493.855988
858.880005,308.415985,491.903992
864.736023,298.656006,497.760010
858.880005,314.272003,501.664001
858.880005,308.415985,491.903992
856.927979,300.608002,497.760010
868.640015,296.704010,501.664001
853.023987,308.415985,495.808014
851.072021,302.559998,488.000000
854.976013,312.320007,493.855988
853.023987,310.368011,493.855988
858.880005,312.320007,491.903992
853.023987,310.368011,488.000000
851.072021,308.415985,486.048004
860.831970,308.415985,491.903992
860.831970,316.223999,488.000000
858.880005,312.320007,488.000000
862.783997,324.032013,497.760010
868.640015,322.079987,493.855988
868.640015,316.223999,488.000000
864.736023,316.223999,493.855988
866.687988,333.791992,491.903992
858.880005,331.839996,488.000000
854.976013,324.032013,491.903992
841.312012,329.888000,488.000000
843.263977,329.888000,488.000000
835.455994,327.936005,489.951996
847.168030,320.127991,484.096008
835.455994,318.175995,486.048004
839.359985,322.079987,486.048004
839.359985,308.415985,480.191986
841.312012,322.079987,488.000000
847.168030,316.223999,482.144012
841.312012,310.368011,482.144012
835.455994,320.127991,476.287994
839.359985,324.032013,482.144012
841.312012,324.032013,482.144012
833.504028,324.032013,480.191986
835.455994,322.079987,484.096008
837.408020,331.839996,484.096008
839.359985,333.791992,489.951996
837.408020,337.696014,489.951996
841.312012,335.743988,484.096008
845.216003,331.839996,486.048004
841.312012,331.839996,489.951996
843.263977,320.127991,489.951996
829.599976,327.936005,497.760010
837.408020,325.984009,497.760010
839.359985,335.743988,495.808014
837.408020,327.936005,488.000000
835.455994,324.032013,503.615997
837.408020,322.079987,493.855988
843.263977,327.936005,493.855988
837.408020,327.936005,493.855988
839.359985,325.984009,489.951996
835.455994,325.984009,493.855988
837.408020,331.839996,489.951996
833.504028,327.936005,489.951996
833.504028,327.936005,491.903992
831.552002,331.839996,480.191986
831.552002,333.791992,476.287994
833.504028,329.888000,476.287994
829.599976,333.791992,478.239990
833.504028,333.791992,464.575989
831.552002,329.888000,470.432007
827.648010,331.839996,462.623993
831.552002,327.936005,470.432007
827.648010,337.696014,460.671997
827.648010,327.936005,470.432007
837.408020,327.936005,456.768005
835.455994,329.888000,456.768005
839.359985,322.079987,462.623993
831.552002,325.984009,456.768005
833.504028,320.127991,454.816010
841.312012,325.984009,456.768005
841.312012,331.839996,458.720001
845.216003,335.743988,458.720001
847.168030,335.743988,454.816010
849.119995,343.552002,458.720001
843.263977,339.648010,456.768005
839.359985,341.600006,458.720001
851.072021,349.407990,458.720001
858.880005,335.743988,462.623993
853.023987,331.839996,462.623993
864.736023,341.600006,460.671997
854.976013,341.600006,462.623993
854.976013,343.552002,464.575989
858.880005,337.696014,464.575989
858.880005,343.552002,456.768005
853.023987,339.648010,468.480011
854.976013,349.407990,468.480011
860.831970,341.600006,472.384003
853.023987,341.600006,468.480011
856.927979,343.552002,466.528015
847.168030,331.839996,468.480011
860.831970,322.079987,464.575989
868.640015,324.032013,470.432007
862.783997,329.888000,458.720001
868.640015,341.600006,458.720001
868.640015,329.888000,452.864014
862.783997,341.600006,452.864014
868.640015,341.600006,450.911987
858.880005,347.455994,443.104004
858.880005,349.407990,445.056000
860.831970,347.455994,441.152008
866.687988,345.503998,439.200012
874.495972,357.216003,431.391998
874.495972,349.407990,431.391998
872.544006,337.696014,427.488007
870.591980,329.888000,425.536011
868.640015,339.648010,421.631989
868.640015,341.600006,417.727997
874.495972,333.791992,423.584015
868.640015,327.936005,431.391998
872.544006,333.791992,437.247986
880.351990,327.936005,441.152008
878.400024,320.127991,454.816010
882.304016,316.223999,454.816010
884.255981,316.223999,482.144012
890.112000,325.984009,480.191986
884.255981,325.984009,484.096008
874.495972,331.839996,489.951996
880.351990,327.936005,491.903992
870.591980,355.264008,501.664001
870.591980,361.119995,507.519989
870.591980,368.928009,521.184021
870.591980,355.264008,523.135986
870.591980,359.167999,528.992004
870.591980,357.216003,530.943970
874.495972,357.216003,532.895996
860.831970,365.023987,536.799988
872.544006,361.119995,544.607971
864.736023,351.359985,536.799988
858.880005,357.216003,536.799988
858.880005,363.071991,530.943970
856.927979,353.312012,534.848022
851.072021,355.264008,527.039978
849.119995,361.119995,532.895996
856.927979,355.264008,521.184021
856.927979,357.216003,509.471985
853.023987,347.455994,513.375977
853.023987,343.552002,499.712006
849.119995,357.216003,501.664001
853.023987,341.600006,493.855988
847.168030,341.600006,488.000000
839.359985,357.216003,486.048004
845.216003,351.359985,474.335999
845.216003,351.359985,472.384003
849.119995,357.216003,462.623993
841.312012,351.359985,456.768005
853.023987,353.312012,458.720001
849.119995,353.312012,456.768005
847.168030,361.119995,447.007996
853.023987,355.264008,448.959991
849.119995,343.552002,447.007996
845.216003,353.312012,456.768005
860.831970,349.407990,452.864014
854.976013,345.503998,445.056000
851.072021,353.312012,452.864014
853.023987,353.312012,448.959991
860.831970,345.503998,454.816010
858.880005,347.455994,466.528015
862.783997,347.455994,462.623993
868.640015,347.455994,464.575989
862.783997,351.359985,462.623993
864.736023,343.552002,468.480011
864.736023,335.743988,466.528015
866.687988,331.839996,474.335999
864.736023,345.503998,466.528015
866.687988,335.743988,464.575989
872.544006,337.696014,478.239990
876.447998,337.696014,489.951996
872.544006,343.552002,489.951996
872.544006,337.696014,482.144012
870.591980,349.407990,488.000000
886.208008,349.407990,495.808014
884.255981,343.552002,495.808014
886.208008,337.696014,499.712006
886.208008,343.552002,509.471985
882.304016,333.791992,507.519989
884.255981,343.552002,525.088013
886.208008,341.600006,519.231995
886.208008,335.743988,523.135986
886.208008,333.791992,527.039978
897.919983,329.888000,536.799988
882.304016,331.839996,527.039978
895.968018,329.888000,536.799988
892.064026,333.791992,538.752014
886.208008,327.936005,540.703979
882.304016,331.839996,536.799988
884.255981,316.223999,532.895996
878.400024,312.320007,536.799988
882.304016,318.175995,532.895996
872.544006,325.984009,527.039978
874.495972,325.984009,523.135986
870.591980,327.936005,519.231995
858.880005,329.888000,513.375977
853.023987,335.743988,503.615997
854.976013,349.407990,499.712006
854.976013,347.455994,505.567993
843.263977,335.743988,497.760010
841.312012,347.455994,493.855988
849.119995,335.743988,486.048004
829.599976,341.600006,484.096008
827.648010,331.839996,488.000000
841.312012,327.936005,480.191986
819.840027,335.743988,480.191986
823.744019,327.936005,484.096008
815.935974,324.032013,478.239990
812.031982,320.127991,472.384003
802.271973,318.175995,480.191986
800.320007,310.368011,472.384003
792.512024,302.559998,480.191986
790.559998,320.127991,476.287994
788.607971,316.223999,478.239990
788.607971,308.415985,476.287994
784.703979,300.608002,466.528015
774.943970,296.704010,466.528015
776.895996,304.511993,466.528015
774.943970,296.704010,466.528015
776.895996,296.704010,468.480011
776.895996,294.752014,456.768005
774.943970,298.656006,450.911987
765.184021,296.704010,447.007996
769.088013,302.559998,445.056000
774.943970,306.463989,441.152008
774.943970,316.223999,435.295990
767.135986,298.656006,425.536011
769.088013,304.511993,417.727997
772.992004,284.992004,427.488007
772.992004,286.944000,423.584015
772.992004,292.799988,423.584015
782.752014,290.847992,419.679993
778.848022,281.088013,421.631989
780.799988,284.992004,413.824005
776.895996,286.944000,413.824005
774.943970,288.895996,417.727997
790.559998,284.992004,423.584015
780.799988,277.183990,423.584015
784.703979,281.088013,406.015991
790.559998,284.992004,415.776001
788.607971,281.088013,413.824005
790.559998,284.992004,419.679993
784.703979,273.279999,421.631989
780.799988,281.088013,421.631989
784.703979,279.135986,415.776001
788.607971,277.183990,417.727997
788.607971,273.279999,413.824005
792.512024,277.183990,419.679993
798.367981,277.183990,419.679993
806.176025,277.183990,411.872009
804.223999,261.567993,415.776001
798.367981,281.088013,415.776001
802.271973,281.088013,423.584015
800.320007,269.376007,417.727997
796.416016,261.567993,417.727997
810.080017,263.519989,423.584015
813.984009,255.712006,417.727997
815.935974,261.567993,415.776001
817.888000,249.856003,415.776001
813.984009,247.904007,417.727997
812.031982,242.048004,427.488007
813.984009,245.951996,427.488007
804.223999,240.095993,431.391998
813.984009,240.095993,427.488007
817.888000,242.048004,441.152008
810.080017,234.240005,443.104004
817.888000,234.240005,439.200012
819.840027,238.143997,433.343994
817.888000,230.335999,447.007996
819.840027,242.048004,454.816010
827.648010,232.287994,452.864014
827.648010,240.095993,458.720001
827.648010,249.856003,462.623993
831.552002,259.615997,468.480011
837.408020,259.615997,464.575989
839.359985,273.279999,472.384003
839.359985,267.424011,474.335999
839.359985,267.424011,484.096008
847.168030,253.759995,484.096008
843.263977,255.712006,491.903992
853.023987,259.615997,488.000000
866.687988,257.664001,491.903992
868.640015,234.240005,489.951996
876.447998,238.143997,505.567993
874.495972,240.095993,503.615997
876.447998,232.287994,495.808014
874.495972,230.335999,499.712006
878.400024,226.432007,507.519989
878.400024,226.432007,507.519989
884.255981,222.528000,511.424011
884.255981,222.528000,509.471985
882.304016,214.720001,511.424011
874.495972,214.720001,513.375977
880.351990,216.671997,511.424011
884.255981,218.623993,505.567993
874.495972,232.287994,505.567993
882.304016,240.095993,507.519989
874.495972,232.287994,495.808014
868.640015,238.143997,489.951996
866.687988,238.143997,486.048004
862.783997,242.048004,489.951996
854.976013,244.000000,480.191986
860.831970,240.095993,476.287994
851.072021,234.240005,472.384003
854.976013,240.095993,456.768005
851.072021,240.095993,454.816010
843.263977,244.000000,458.720001
853.023987,234.240005,448.959991
849.119995,234.240005,431.391998
853.023987,238.143997,443.104004
839.359985,242.048004,435.295990
841.312012,240.095993,437.247986
845.216003,240.095993,429.440002
833.504028,247.904007,439.200012
839.359985,251.807999,433.343994
831.552002,253.759995,435.295990
835.455994,251.807999,433.343994
837.408020,251.807999,437.247986
835.455994,245.951996,435.295990
835.455994,253.759995,437.247986
843.263977,263.519989,429.440002
847.168030,269.376007,433.343994
853.023987,271.328003,447.007996
843.263977,279.135986,445.056000
843.263977,279.135986,450.911987
843.263977,279.135986,450.911987
849.119995,277.183990,448.959991
839.359985,290.847992,445.056000
845.216003,288.895996,443.104004
843.263977,290.847992,445.056000
841.312012,283.040009,441.152008
841.312012,286.944000,450.911987
839.359985,290.847992,433.343994
839.359985,284.992004,433.343994
835.455994,302.559998,429.440002
827.648010,286.944000,413.824005
833.504028,292.799988,413.824005
841.312012,292.799988,413.824005
831.552002,296.704010,411.872009
833.504028,294.752014,407.967987
829.599976,286.944000,404.063995
833.504028,302.559998,407.967987
823.744019,298.656006,407.967987
821.791992,310.368011,404.063995
821.791992,306.463989,400.160004
821.791992,308.415985,411.872009
825.695984,312.320007,394.303986
819.840027,320.127991,400.160004
817.888000,318.175995,404.063995
817.888000,322.079987,411.872009
812.031982,325.984009,406.015991
817.888000,318.175995,409.920013
813.984009,314.272003,398.208008
812.031982,312.320007,390.399994
821.791992,318.175995,402.112000
825.695984,306.463989,400.160004
821.791992,312.320007,404.063995
821.791992,312.320007,400.160004
819.840027,322.079987,398.208008
815.935974,314.272003,390.399994
819.840027,304.511993,386.496002
819.840027,318.175995,396.256012
821.791992,316.223999,392.351990
815.935974,324.032013,392.351990
825.695984,327.936005,388.447998
823.744019,324.032013,398.208008
829.599976,327.936005,400.160004
829.599976,335.743988,388.447998
831.552002,331.839996,396.256012
829.599976,337.696014,396.256012
821.791992,343.552002,392.351990
825.695984,349.407990,398.208008
827.648010,343.552002,400.160004
835.455994,335.743988,398.208008
835.455994,345.503998,398.208008
839.359985,339.648010,407.967987
831.552002,341.600006,406.015991
827.648010,345.503998,411.872009
839.359985,337.696014,398.208008
833.504028,353.312012,406.015991
831.552002,347.455994,402.112000
841.312012,341.600006,404.063995
843.263977,355.264008,400.160004
849.119995,353.312012,407.967987
845.216003,347.455994,400.160004
841.312012,361.119995,394.303986
860.831970,361.119995,398.208008
856.927979,363.071991,407.967987
858.880005,363.071991,400.160004
858.880005,363.071991,400.160004
868.640015,359.167999,404.063995
874.495972,353.312012,406.015991
878.400024,361.119995,411.872009
892.064026,363.071991,409.920013
890.112000,361.119995,413.824005
892.064026,359.167999,415.776001
894.015991,351.359985,406.015991
899.872009,366.976013,409.920013
899.872009,357.216003,407.967987
909.632019,355.264008,409.920013
911.583984,351.359985,404.063995
913.536011,353.312012,396.256012
911.583984,363.071991,398.208008
917.440002,368.928009,406.015991
925.247986,353.312012,402.112000
933.056030,365.023987,402.112000
933.056030,366.976013,398.208008
948.671997,368.928009,400.160004
956.479980,370.880005,394.303986
954.528015,368.928009,396.256012
958.432007,382.592010,394.303986
960.383972,386.496002,400.160004
942.815979,378.687988,388.447998
938.911987,380.640015,400.160004
917.440002,353.312012,392.351990
921.343994,343.552002,386.496002
919.392029,331.839996,400.160004
907.679993,333.791992,396.256012
909.632019,331.839996,400.160004
911.583984,339.648010,380.640015
901.823975,343.552002,384.544006
897.919983,349.407990,382.592010
911.583984,357.216003,374.783997
919.392029,365.023987,384.544006
929.151978,378.687988,400.160004
935.007996,374.783997,390.399994
952.575989,370.880005,404.063995
962.335999,382.592010,409.920013
952.575989,398.208008,407.967987
950.624023,402.112000,419.679993
942.815979,400.160004,417.727997
940.864014,380.640015,425.536011
958.432007,390.399994,429.440002
952.575989,372.832001,431.391998
962.335999,347.455994,423.584015
946.719971,331.839996,415.776001
940.864014,331.839996,404.063995
935.007996,324.032013,411.872009
938.911987,308.415985,396.256012
935.007996,304.511993,374.783997
940.864014,316.223999,366.976013
933.056030,310.368011,357.216003
915.487976,306.463989,357.216003
915.487976,314.272003,355.264008
915.487976,355.264008,357.216003
915.487976,361.119995,347.455994
907.679993,351.359985,353.312012
907.679993,343.552002,366.976013
915.487976,374.783997,376.735992
901.823975,392.351990,392.351990
911.583984,374.783997,406.015991
909.632019,357.216003,423.584015
909.632019,355.264008,435.295990
919.392029,376.735992,450.911987
901.823975,366.976013,458.720001
905.728027,339.648010,462.623993
913.536011,329.888000,472.384003
901.823975,329.888000,476.287994
890.112000,324.032013,480.191986
886.208008,302.559998,474.335999
880.351990,290.847992,470.432007
872.544006,292.799988,468.480011
868.640015,296.704010,466.528015
872.544006,281.088013,450.911987
868.640015,292.799988,437.247986
864.736023,300.608002,425.536011
851.072021,302.559998,413.824005
851.072021,314.272003,413.824005
843.263977,312.320007,415.776001
843.263977,316.223999,419.679993
843.263977,329.888000,417.727997
845.216003,341.600006,417.727997
849.119995,337.696014,431.391998
847.168030,329.888000,443.104004
845.216003,335.743988,441.152008
854.976013,320.127991,447.007996
868.640015,316.223999,456.768005
866.687988,316.223999,466.528015
874.495972,322.079987,470.432007
872.544006,314.272003,468.480011
880.351990,318.175995,478.239990
878.400024,304.511993,466.528015
884.255981,300.608002,460.671997
882.304016,292.799988,464.575989
876.447998,292.799988,454.816010
874.495972,292.799988,443.104004
878.400024,284.992004,427.488007
878.400024,284.992004,421.631989
880.351990,290.847992,407.967987
882.304016,288.895996,394.303986
872.544006,286.944000,388.447998
866.687988,300.608002,380.640015
868.640015,302.559998,365.023987
856.927979,304.511993,363.071991
856.927979,304.511993,363.071991
868.640015,310.368011,359.167999
856.927979,308.415985,363.071991
858.880005,294.752014,365.023987
870.591980,284.992004,366.976013
874.495972,284.992004,368.928009
868.640015,284.992004,363.071991
872.544006,279.135986,384.544006
882.304016,273.279999,380.640015
878.400024,277.183990,384.544006
876.447998,286.944000,390.399994
874.495972,275.231995,392.351990
884.255981,277.183990,400.160004
882.304016,283.040009,400.160004
876.447998,283.040009,396.256012
880.351990,283.040009,386.496002
872.544006,281.088013,392.351990
874.495972,294.752014,394.303986
878.400024,296.704010,396.256012
878.400024,296.704010,384.544006
874.495972,302.559998,380.640015
878.400024,296.704010,388.447998
874.495972,298.656006,404.063995
868.640015,292.799988,394.303986
874.495972,294.752014,402.112000
878.400024,284.992004,407.967987
882.304016,296.704010,419.679993
884.255981,296.704010,421.631989
882.304016,286.944000,435.295990
888.159973,281.088013,437.247986
884.255981,290.847992,447.007996
882.304016,283.040009,454.816010
888.159973,296.704010,458.720001
894.015991,281.088013,466.528015
892.064026,281.088013,478.239990
888.159973,290.847992,472.384003
888.159973,292.799988,472.384003
892.064026,292.799988,472.384003
894.015991,292.799988,470.432007
895.968018,292.799988,474.335999
894.015991,298.656006,460.671997
895.968018,302.559998,462.623993
890.112000,302.559998,464.575989
884.255981,306.463989,456.768005
884.255981,300.608002,454.816010
884.255981,288.895996,448.959991
886.208008,281.088013,462.623993
890.112000,281.088013,466.528015
882.304016,283.040009,456.768005
892.064026,273.279999,448.959991
892.064026,263.519989,456.768005
892.064026,273.279999,454.816010
897.919983,271.328003,448.959991
901.823975,259.615997,445.056000
903.776001,261.567993,450.911987
897.919983,257.664001,456.768005
911.583984,271.328003,443.104004
911.583984,271.328003,450.911987
909.632019,273.279999,460.671997
901.823975,277.183990,466.528015
909.632019,267.424011,456.768005
905.728027,281.088013,460.671997
903.776001,283.040009,460.671997
901.823975,283.040009,464.575989
901.823975,279.135986,462.623993
907.679993,273.279999,460.671997
909.632019,275.231995,460.671997
897.919983,271.328003,470.432007
897.919983,267.424011,468.480011
905.728027,253.759995,466.528015
907.679993,255.712006,462.623993
897.919983,245.951996,460.671997
899.872009,242.048004,464.575989
897.919983,242.048004,460.671997
895.968018,244.000000,460.671997
895.968018,234.240005,452.864014
897.919983,236.192001,448.959991
894.015991,234.240005,443.104004
894.015991,249.856003,441.152008
894.015991,247.904007,441.152008
888.159973,253.759995,447.007996
892.064026,255.712006,429.440002
895.968018,253.759995,427.488007
892.064026,253.759995,431.391998
897.919983,245.951996,439.200012
897.919983,249.856003,431.391998
899.872009,263.519989,437.247986
897.919983,240.095993,435.295990
901.823975,238.143997,439.200012
903.776001,232.287994,439.200012
897.919983,228.384003,445.056000
897.919983,218.623993,450.911987
895.968018,210.815994,458.720001
897.919983,220.576004,458.720001
897.919983,208.863998,466.528015
886.208008,214.720001,462.623993
897.919983,214.720001,464.575989
899.872009,203.007996,468.480011
892.064026,201.056000,468.480011
895.968018,206.912003,456.768005
892.064026,216.671997,448.959991
888.159973,208.863998,450.911987
895.968018,208.863998,441.152008
882.304016,208.863998,445.056000
878.400024,204.960007,447.007996
882.304016,201.056000,439.200012
884.255981,199.104004,441.152008
880.351990,204.960007,439.200012
884.255981,197.151993,421.631989
884.255981,199.104004,429.440002
878.400024,193.248001,423.584015
882.304016,191.296005,423.584015
874.495972,183.488007,421.631989
874.495972,187.391998,423.584015
874.495972,189.343994,423.584015
870.591980,187.391998,419.679993
868.640015,175.679993,421.631989
874.495972,175.679993,419.679993
878.400024,183.488007,429.440002
876.447998,185.440002,421.631989
886.208008,173.727997,429.440002
880.351990,167.871994,439.200012
884.255981,181.535995,435.295990
880.351990,175.679993,435.295990
878.400024,181.535995,437.247986
886.208008,179.584000,450.911987
884.255981,183.488007,443.104004
895.968018,179.584000,454.816010
894.015991,175.679993,441.152008
890.112000,167.871994,448.959991
892.064026,179.584000,448.959991
892.064026,183.488007,456.768005
895.968018,177.632004,460.671997
897.919983,183.488007,458.720001
899.872009,185.440002,452.864014
895.968018,189.343994,460.671997
890.112000,189.343994,470.432007
892.064026,177.632004,464.575989
894.015991,181.535995,460.671997
894.015991,187.391998,452.864014
897.919983,191.296005,464.575989
895.968018,187.391998,454.816010
884.255981,187.391998,456.768005
888.159973,201.056000,450.911987
882.304016,191.296005,441.152008
878.400024,195.199997,450.911987
882.304016,191.296005,443.104004
876.447998,195.199997,445.056000
880.351990,191.296005,441.152008
876.447998,181.535995,443.104004
866.687988,183.488007,441.152008
884.255981,181.535995,433.343994
884.255981,179.584000,437.247986
882.304016,167.871994,441.152008
876.447998,171.776001,450.911987
882.304016,169.824005,433.343994
884.255981,171.776001,447.007996
880.351990,169.824005,445.056000
884.255981,169.824005,445.056000
890.112000,175.679993,445.056000
890.112000,183.488007,437.247986
897.919983,193.248001,452.864014
899.872009,193.248001,452.864014
899.872009,199.104004,456.768005
905.728027,199.104004,466.528015
913.536011,216.671997,456.768005
919.392029,206.912003,462.623993
913.536011,216.671997,456.768005
909.632019,218.623993,462.623993
919.392029,214.720001,464.575989
927.200012,224.479996,456.768005
929.151978,210.815994,466.528015
935.007996,226.432007,468.480011
933.056030,224.479996,476.287994
944.768005,212.768005,484.096008
966.239990,224.479996,480.191986
950.624023,234.240005,484.096008
958.432007,230.335999,480.191986
960.383972,222.528000,472.384003
970.143982,240.095993,476.287994
970.143982,247.904007,478.239990
968.192017,249.856003,478.239990
974.047974,251.807999,476.287994
964.288025,257.664001,476.287994
970.143982,261.567993,476.287994
972.096008,265.471985,468.480011
979.903992,281.088013,474.335999
972.096008,275.231995,468.480011
972.096008,275.231995,476.287994
983.807983,286.944000,474.335999
993.567993,281.088013,472.384003
989.664001,281.088013,466.528015
993.567993,286.944000,478.239990
991.616028,294.752014,476.287994
995.520020,294.752014,480.191986
1001.375977,284.992004,470.432007
1007.231995,279.135986,474.335999
1016.992004,288.895996,478.239990
1003.328003,294.752014,478.239990
1003.328003,294.752014,476.287994
1013.088013,302.559998,476.287994
995.520020,296.704010,474.335999
1005.280029,308.415985,478.239990
1011.135986,308.415985,476.287994
1007.231995,320.127991,489.951996
1009.184021,327.936005,486.048004
1009.184021,325.984009,484.096008
1005.280029,320.127991,491.903992
1001.375977,333.791992,484.096008
999.424011,331.839996,482.144012
999.424011,331.839996,480.191986
991.616028,325.984009,488.000000
1001.375977,329.888000,488.000000
1001.375977,324.032013,486.048004
999.424011,320.127991,488.000000
991.616028,325.984009,488.000000
989.664001,324.032013,480.191986
979.903992,322.079987,472.384003
977.952026,327.936005,478.239990
981.856018,329.888000,474.335999
968.192017,329.888000,464.575989
960.383972,333.791992,460.671997
958.432007,325.984009,450.911987
958.432007,331.839996,450.911987
958.432007,329.888000,448.959991
950.624023,359.167999,447.007996
936.960022,343.552002,447.007996
927.200012,357.216003,443.104004
936.960022,351.359985,441.152008
929.151978,349.407990,447.007996
921.343994,353.312012,441.152008
925.247986,351.359985,437.247986
925.247986,349.407990,441.152008
931.104004,355.264008,445.056000
927.200012,341.600006,441.152008
929.151978,335.743988,458.720001
931.104004,343.552002,450.911987
919.392029,347.455994,452.864014
915.487976,329.888000,460.671997
913.536011,345.503998,476.287994
909.632019,329.888000,476.287994
915.487976,343.552002,468.480011
911.583984,345.503998,476.287994
915.487976,347.455994,484.096008
909.632019,347.455994,484.096008
897.919983,357.216003,486.048004
901.823975,343.552002,476.287994
913.536011,337.696014,486.048004
919.392029,325.984009,484.096008
923.296021,320.127991,497.760010
921.343994,308.415985,501.664001
913.536011,304.511993,515.328003
899.872009,322.079987,507.519989
892.064026,322.079987,523.135986
897.919983,331.839996,519.231995
897.919983,345.503998,528.992004
897.919983,343.552002,517.280029
890.112000,341.600006,528.992004
882.304016,343.552002,534.848022
882.304016,345.503998,550.463989
884.255981,335.743988,569.984009
866.687988,322.079987,581.695984
876.447998,316.223999,591.455994
886.208008,312.320007,595.359985
874.495972,292.799988,595.359985
876.447998,308.415985,593.408020
876.447998,300.608002,589.504028
860.831970,314.272003,579.744019
860.831970,320.127991,564.127991
849.119995,329.888000,544.607971
841.312012,325.984009,528.992004
839.359985,331.839996,513.375977
835.455994,339.648010,484.096008
829.599976,341.600006,468.480011
825.695984,335.743988,445.056000
819.840027,349.407990,431.391998
808.127991,361.119995,411.872009
810.080017,359.167999,402.112000
812.031982,370.880005,390.399994
802.271973,380.640015,380.640015
810.080017,378.687988,376.735992
821.791992,363.071991,380.640015
806.176025,365.023987,380.640015
819.840027,355.264008,370.880005
823.744019,331.839996,388.447998
833.504028,318.175995,392.351990
829.599976,318.175995,398.208008
837.408020,316.223999,406.015991
833.504028,298.656006,415.776001
841.312012,290.847992,406.015991
833.504028,292.799988,413.824005
847.168030,286.944000,419.679993
841.312012,263.519989,419.679993
849.119995,267.424011,435.295990
851.072021,261.567993,437.247986
858.880005,238.143997,437.247986
862.783997,218.623993,447.007996
860.831970,216.671997,450.911987
866.687988,208.863998,460.671997
872.544006,206.912003,452.864014
864.736023,210.815994,458.720001
862.783997,220.576004,464.575989
866.687988,214.720001,458.720001
868.640015,206.912003,458.720001
872.544006,212.768005,452.864014
868.640015,210.815994,450.911987
866.687988,216.671997,439.200012
858.880005,216.671997,448.959991
866.687988,220.576004,433.343994
864.736023,214.720001,441.152008
862.783997,214.720001,441.152008
868.640015,222.528000,431.391998
860.831970,230.335999,433.343994
856.927979,222.528000,427.488007
851.072021,234.240005,429.440002
853.023987,240.095993,415.776001
839.359985,236.192001,413.824005
819.840027,245.951996,425.536011
845.216003,251.807999,423.584015
858.880005,245.951996,429.440002
854.976013,232.287994,439.200012
851.072021,240.095993,439.200012
860.831970,242.048004,445.056000
862.783997,234.240005,454.816010
868.640015,226.432007,456.768005
870.591980,226.432007,445.056000
872.544006,249.856003,450.911987
856.927979,261.567993,448.959991
845.216003,261.567993,443.104004
853.023987,249.856003,435.295990
860.831970,263.519989,439.200012
853.023987,283.040009,431.391998
853.023987,273.279999,431.391998
845.216003,238.143997,429.440002
854.976013,251.807999,423.584015
845.216003,265.471985,417.727997
839.359985,261.567993,419.679993
841.312012,242.048004,415.776001
841.312012,238.143997,415.776001
833.504028,265.471985,423.584015
823.744019,265.471985,417.727997
825.695984,253.759995,417.727997
823.744019,245.951996,423.584015
819.840027,257.664001,421.631989
819.840027,249.856003,421.631989
819.840027,242.048004,425.536011
823.744019,240.095993,425.536011
815.935974,238.143997,417.727997
823.744019,234.240005,415.776001
817.888000,247.904007,423.584015
817.888000,247.904007,423.584015
808.127991,240.095993,429.440002
808.127991,240.095993,427.488007
813.984009,244.000000,425.536011
810.080017,238.143997,419.679993
813.984009,224.479996,413.824005
813.984009,226.432007,419.679993
813.984009,230.335999,423.584015
815.935974,240.095993,415.776001
821.791992,240.095993,409.920013
821.791992,244.000000,400.160004
831.552002,240.095993,380.640015
829.599976,240.095993,368.928009
823.744019,259.615997,363.071991
804.223999,290.847992,366.976013
810.080017,302.559998,372.832001
804.223999,296.704010,378.687988
812.031982,277.183990,382.592010
813.984009,279.135986,384.544006
825.695984,271.328003,390.399994
827.648010,247.904007,402.112000
835.455994,234.240005,406.015991
835.455994,230.335999,423.584015
845.216003,228.384003,439.200012
849.119995,214.720001,443.104004
849.119995,208.863998,452.864014
856.927979,191.296005,458.720001
851.072021,187.391998,460.671997
854.976013,189.343994,482.144012
860.831970,183.488007,476.287994
856.927979,171.776001,484.096008
858.880005,181.535995,488.000000
860.831970,179.584000,484.096008
862.783997,187.391998,484.096008
854.976013,189.343994,476.287994
856.927979,193.248001,474.335999
853.023987,195.199997,484.096008
851.072021,189.343994,486.048004
847.168030,191.296005,484.096008
845.216003,199.104004,486.048004
853.023987,203.007996,484.096008
856.927979,197.151993,484.096008
853.023987,195.199997,491.903992
856.927979,199.104004,491.903992
854.976013,195.199997,493.855988
849.119995,193.248001,503.615997
841.312012,183.488007,501.664001
854.976013,126.879997,509.471985
860.831970,-11.712000,513.375977
866.687988,-50.751999,517.280029
870.591980,-56.608002,517.280029
862.783997,-56.608002,530.943970
854.976013,-50.751999,550.463989
851.072021,-15.616000,562.176025
847.168030,11.712000,579.744019
839.359985,17.568001,593.408020
837.408020,15.616000,599.263977
833.504028,21.472000,593.408020
825.695984,35.136002,601.216003
829.599976,25.375999,603.168030
825.695984,15.616000,597.312012
825.695984,27.327999,593.408020
815.935974,35.136002,581.695984
808.127991,39.040001,577.791992
802.271973,54.655998,566.080017
763.231995,181.535995,571.935974
357.216003,1969.567993,527.039978
944.768005,2180.384033,540.703979
603.168030,42.944000,507.519989
794.463989,-1145.823975,482.144012
706.624023,-138.591995,462.623993
784.703979,1089.215942,445.056000
739.807983,753.471985,429.440002
718.335999,-286.944000,411.872009
718.335999,-240.095993,400.160004
782.752014,499.712006,392.351990
763.231995,653.919983,388.447998
732.000000,160.063995,376.735992
722.239990,-23.424000,370.880005
749.567993,249.856003,361.119995
739.807983,433.343994,365.023987
726.143982,310.368011,357.216003
722.239990,148.352005,349.407990
741.760010,167.871994,343.552002
743.711975,277.183990,341.600006
737.856018,298.656006,333.791992
730.047974,236.192001,329.888000
739.807983,191.296005,333.791992
737.856018,220.576004,327.936005
737.856018,255.712006,322.079987
743.711975,242.048004,322.079987
743.711975,220.576004,310.368011
749.567993,201.056000,314.272003
751.520020,218.623993,304.511993
745.664001,232.287994,312.320007
747.616028,222.528000,310.368011
755.424011,210.815994,298.656006
745.664001,210.815994,304.511993
749.567993,226.432007,300.608002
755.424011,222.528000,306.463989
753.471985,203.007996,296.704010
745.664001,197.151993,300.608002
749.567993,203.007996,308.415985
749.567993,212.768005,304.511993
753.471985,208.863998,302.559998
755.424011,197.151993,312.320007
749.567993,191.296005,318.175995
753.471985,201.056000,314.272003
757.375977,195.199997,316.223999
755.424011,181.535995,324.032013
757.375977,183.488007,320.127991
761.280029,189.343994,327.936005
763.231995,187.391998,337.696014
761.280029,185.440002,333.791992
759.328003,175.679993,337.696014
763.231995,175.679993,343.552002
759.328003,183.488007,343.552002
753.471985,179.584000,353.312012
767.135986,185.440002,355.264008
769.088013,189.343994,357.216003
769.088013,185.440002,355.264008
774.943970,197.151993,363.071991
771.039978,197.151993,365.023987
761.280029,195.199997,366.976013
774.943970,197.151993,372.832001
772.992004,210.815994,370.880005
782.752014,226.432007,374.783997
774.943970,238.143997,382.592010
786.656006,247.904007,400.160004
788.607971,253.759995,394.303986
788.607971,263.519989,398.208008
790.559998,275.231995,413.824005
798.367981,277.183990,413.824005
798.367981,283.040009,425.536011
798.367981,298.656006,429.440002
798.367981,300.608002,435.295990
798.367981,306.463989,435.295990
794.463989,304.511993,435.295990
808.127991,296.704010,462.623993
796.416016,294.752014,458.720001
802.271973,302.559998,460.671997
802.271973,290.847992,452.864014
796.416016,281.088013,462.623993
796.416016,283.040009,466.528015
790.559998,277.183990,466.528015
794.463989,281.088013,462.623993
790.559998,263.519989,458.720001
790.559998,249.856003,456.768005
780.799988,249.856003,450.911987
790.559998,242.048004,445.056000
786.656006,238.143997,433.343994
782.752014,238.143997,431.391998
778.848022,228.384003,435.295990
772.992004,224.479996,413.824005
784.703979,222.528000,413.824005
782.752014,226.432007,413.824005
780.799988,218.623993,409.920013
776.895996,218.623993,411.872009
780.799988,214.720001,394.303986
776.895996,220.576004,402.112000
786.656006,218.623993,409.920013
782.752014,226.432007,411.872009
780.799988,228.384003,411.872009
782.752014,226.432007,421.631989
782.752014,226.432007,423.584015
780.799988,230.335999,431.391998
784.703979,226.432007,447.007996
784.703979,218.623993,443.104004
788.607971,216.671997,448.959991
790.559998,228.384003,454.816010
788.607971,226.432007,460.671997
780.799988,226.432007,462.623993
794.463989,224.479996,464.575989
794.463989,224.479996,466.528015
790.559998,216.671997,462.623993
788.607971,206.912003,458.720001
782.752014,226.432007,445.056000
765.184021,216.671997,443.104004
771.039978,220.576004,441.152008
776.895996,214.720001,433.343994
765.184021,222.528000,427.488007
763.231995,220.576004,427.488007
749.567993,216.671997,413.824005
753.471985,220.576004,398.208008
747.616028,216.671997,396.256012
739.807983,214.720001,390.399994
737.856018,216.671997,388.447998
728.096008,208.863998,380.640015
728.096008,216.671997,368.928009
726.143982,216.671997,361.119995
716.383972,203.007996,363.071991
714.432007,218.623993,351.359985
714.432007,216.671997,353.312012
706.624023,208.863998,341.600006
702.719971,212.768005,337.696014
694.911987,203.007996,341.600006
692.960022,218.623993,335.743988
692.960022,214.720001,331.839996
689.056030,216.671997,335.743988
687.104004,218.623993,333.791992
685.151978,212.768005,327.936005
677.343994,206.912003,331.839996
685.151978,210.815994,341.600006
679.296021,206.912003,337.696014
681.247986,216.671997,343.552002
683.200012,210.815994,345.503998
681.247986,216.671997,353.312012
671.487976,222.528000,353.312012
681.247986,224.479996,357.216003
677.343994,226.432007,357.216003
683.200012,232.287994,363.071991
673.440002,236.192001,357.216003
683.200012,232.287994,357.216003
675.392029,234.240005,363.071991
671.487976,242.048004,363.071991
679.296021,236.192001,368.928009
681.247986,234.240005,368.928009
673.440002,247.904007,365.023987
681.247986,236.192001,372.832001
679.296021,222.528000,378.687988
669.536011,222.528000,380.640015
681.247986,222.528000,370.880005
673.440002,220.576004,372.832001
671.487976,204.960007,382.592010
673.440002,203.007996,374.783997
675.392029,197.151993,365.023987
667.583984,187.391998,366.976013
665.632019,179.584000,368.928009
677.343994,183.488007,365.023987
665.632019,181.535995,349.407990
669.536011,179.584000,341.600006
663.679993,177.632004,357.216003
667.583984,171.776001,331.839996
663.679993,163.968002,335.743988
665.632019,160.063995,329.888000
665.632019,162.016006,331.839996
661.728027,162.016006,329.888000
657.823975,163.968002,320.127991
659.776001,169.824005,322.079987
663.679993,177.632004,320.127991
657.823975,169.824005,320.127991
651.968018,173.727997,325.984009
659.776001,169.824005,327.936005
665.632019,173.727997,335.743988
663.679993,169.824005,345.503998
677.343994,171.776001,353.312012
673.440002,165.919998,347.455994
679.296021,163.968002,361.119995
687.104004,156.160004,353.312012
694.911987,165.919998,363.071991
708.575989,169.824005,359.167999
712.479980,167.871994,357.216003
716.383972,163.968002,361.119995
712.479980,181.535995,366.976013
685.151978,183.488007,361.119995
702.719971,171.776001,359.167999
710.528015,175.679993,353.312012
714.432007,177.632004,343.552002
730.047974,193.248001,341.600006
743.711975,193.248001,335.743988
749.567993,171.776001,339.648010
769.088013,169.824005,339.648010
784.703979,189.343994,341.600006
788.607971,193.248001,341.600006
788.607971,167.871994,345.503998
788.607971,169.824005,345.503998
812.031982,183.488007,357.216003
829.599976,171.776001,347.455994
835.455994,162.016006,355.264008
851.072021,152.255997,363.071991
860.831970,144.447998,376.735992
864.736023,154.207993,380.640015
878.400024,142.496002,392.351990
894.015991,128.832001,402.112000
901.823975,115.167999,409.920013
899.872009,107.360001,433.343994
911.583984,80.031998,441.152008
919.392029,52.703999,454.816010
931.104004,23.424000,448.959991
938.911987,-3.904000,458.720001
919.392029,1.952000,476.287994
888.159973,64.416000,501.664001
903.776001,201.056000,536.799988
913.536011,177.632004,577.791992
913.536011,-33.183998,607.072021
936.960022,-134.688004,632.447998
950.624023,-68.320000,644.159973
952.575989,-7.808000,663.679993
981.856018,-37.088001,665.632019
960.383972,-93.695999,663.679993
1044.319946,-126.879997,671.487976
995.520020,-40.992001,667.583984
1024.800049,27.327999,675.392029
999.424011,-5.856000,679.296021
1013.088013,-23.424000,679.296021
1016.992004,52.703999,683.200012
1011.135986,128.832001,685.151978
1022.848022,142.496002,675.392029
1030.656006,136.639999,675.392029
1038.463989,167.871994,663.679993
1042.368042,210.815994,659.776001
1048.223999,234.240005,650.015991
1042.368042,230.335999,644.159973
1063.839966,216.671997,638.304016
1071.647949,226.432007,624.640015
1065.791992,240.095993,626.591980
1069.696045,216.671997,622.687988
1065.791992,191.296005,607.072021
1061.887939,195.199997,605.119995
1054.079956,199.104004,603.168030
1048.223999,167.871994,583.648010
1050.176025,148.352005,573.888000
1046.271973,142.496002,568.031982
1042.368042,136.639999,566.080017
1038.463989,117.120003,542.656006
1040.416016,103.456001,534.848022
1036.511963,109.311996,519.231995
1026.751953,101.503998,499.712006
1016.992004,97.599998,488.000000
1013.088013,89.792000,486.048004
1003.328003,111.264000,476.287994
997.471985,122.975998,466.528015
997.471985,130.783997,447.007996
989.664001,132.735992,448.959991
976.000000,150.304001,433.343994
972.096008,177.632004,421.631989
968.192017,189.343994,417.727997
968.192017,189.343994,413.824005
956.479980,201.056000,406.015991
962.335999,208.863998,404.063995
952.575989,218.623993,400.160004
956.479980,212.768005,390.399994
948.671997,222.528000,380.640015
944.768005,232.287994,384.544006
940.864014,224.479996,382.592010
942.815979,220.576004,382.592010
938.911987,224.479996,380.640015
938.911987,220.576004,380.640015
927.200012,208.863998,378.687988
931.104004,206.912003,382.592010
923.296021,203.007996,374.783997
931.104004,199.104004,382.592010
919.392029,191.296005,384.544006
927.200012,195.199997,388.447998
923.296021,189.343994,382.592010
919.392029,191.296005,384.544006
917.440002,189.343994,394.303986
919.392029,203.007996,390.399994
919.392029,199.104004,396.256012
911.583984,216.671997,390.399994
911.583984,214.720001,388.447998
913.536011,236.192001,404.063995
911.583984,238.143997,407.967987
911.583984,251.807999,423.584015
911.583984,271.328003,417.727997
911.583984,283.040009,419.679993
899.872009,281.088013,417.727997
897.919983,298.656006,423.584015
903.776001,296.704010,425.536011
940.864014,296.704010,421.631989
938.911987,304.511993,409.920013
925.247986,331.839996,415.776001
915.487976,314.272003,409.920013
901.823975,294.752014,413.824005
895.968018,322.079987,398.208008
890.112000,333.791992,404.063995
890.112000,310.368011,394.303986
895.968018,304.511993,398.208008
894.015991,320.127991,390.399994
909.632019,325.984009,388.447998
909.632019,316.223999,388.447998
909.632019,308.415985,368.928009
890.112000,329.888000,363.071991
884.255981,341.600006,363.071991
866.687988,331.839996,353.312012
864.736023,335.743988,359.167999
862.783997,343.552002,359.167999
858.880005,355.264008,351.359985
872.544006,339.648010,349.407990
880.351990,331.839996,347.455994
882.304016,333.791992,357.216003
884.255981,331.839996,370.880005
886.208008,329.888000,366.976013
888.159973,320.127991,392.351990
895.968018,318.175995,394.303986
894.015991,318.175995,396.256012
888.159973,327.936005,415.776001
892.064026,308.415985,419.679993
899.872009,318.175995,415.776001
897.919983,329.888000,425.536011
903.776001,318.175995,427.488007
907.679993,292.799988,419.679993
917.440002,302.559998,415.776001
915.487976,308.415985,411.872009
915.487976,312.320007,402.112000
919.392029,322.079987,390.399994
913.536011,312.320007,388.447998
921.343994,329.888000,380.640015
923.296021,329.888000,370.880005
913.536011,329.888000,370.880005
913.536011,331.839996,370.880005
919.392029,335.743988,374.783997
911.583984,325.984009,374.783997
919.392029,312.320007,378.687988
925.247986,310.368011,384.544006
931.104004,310.368011,386.496002
944.768005,302.559998,392.351990
952.575989,298.656006,392.351990
958.432007,286.944000,394.303986
970.143982,283.040009,390.399994
972.096008,277.183990,404.063995
976.000000,265.471985,411.872009
979.903992,269.376007,402.112000
993.567993,283.040009,409.920013
993.567993,284.992004,394.303986
993.567993,294.752014,406.015991
989.664001,306.463989,400.160004
1001.375977,306.463989,406.015991
997.471985,304.511993,396.256012
999.424011,294.752014,404.063995
1003.328003,300.608002,400.160004
1011.135986,298.656006,398.208008
1011.135986,306.463989,400.160004
1015.039978,300.608002,400.160004
1016.992004,294.752014,402.112000
1018.943970,286.944000,415.776001
1015.039978,284.992004,421.631989
1022.848022,283.040009,429.440002
1032.608032,277.183990,421.631989
1026.751953,277.183990,429.440002
1022.848022,269.376007,439.200012
1022.848022,271.328003,441.152008
1028.703979,269.376007,452.864014
1028.703979,263.519989,464.575989
1036.511963,265.471985,464.575989
1032.608032,263.519989,464.575989
1036.511963,253.759995,474.335999
1030.656006,263.519989,478.239990
1032.608032,263.519989,486.048004
1040.416016,257.664001,486.048004
1038.463989,251.807999,480.191986
1032.608032,257.664001,488.000000
1036.511963,263.519989,501.664001
1028.703979,263.519989,491.903992
1028.703979,259.615997,493.855988
1032.608032,255.712006,486.048004
1026.751953,275.231995,491.903992
1024.800049,265.471985,488.000000
1026.751953,265.471985,489.951996
1022.848022,271.328003,491.903992
1020.895996,261.567993,488.000000
1013.088013,261.567993,484.096008
1009.184021,265.471985,484.096008
1009.184021,259.615997,480.191986
997.471985,253.759995,474.335999
997.471985,247.904007,470.432007
987.711975,244.000000,458.720001
979.903992,238.143997,456.768005
981.856018,234.240005,450.911987
974.047974,234.240005,441.152008
964.288025,224.479996,437.247986
962.335999,222.528000,425.536011
950.624023,220.576004,415.776001
942.815979,214.720001,415.776001
944.768005,208.863998,413.824005
933.056030,204.960007,411.872009
927.200012,206.912003,396.256012
921.343994,208.863998,396.256012
923.296021,203.007996,394.303986
919.392029,197.151993,390.399994
913.536011,199.104004,390.399994
909.632019,197.151993,382.592010
901.823975,204.960007,386.496002
894.015991,201.056000,392.351990
897.919983,199.104004,382.592010
907.679993,195.199997,392.351990
897.919983,189.343994,396.256012
899.872009,191.296005,394.303986
897.919983,179.584000,398.208008
909.632019,179.584000,398.208008
897.919983,179.584000,398.208008
903.776001,171.776001,402.112000
903.776001,175.679993,406.015991
901.823975,171.776001,407.967987
903.776001,160.063995,419.679993
909.632019,160.063995,419.679993
907.679993,150.304001,409.920013
907.679993,152.255997,431.391998
899.872009,154.207993,415.776001
907.679993,150.304001,415.776001
911.583984,148.352005,421.631989
903.776001,146.399994,429.440002
905.728027,146.399994,431.391998
901.823975,146.399994,441.152008
905.728027,136.639999,429.440002
905.728027,134.688004,435.295990
901.823975,128.832001,433.343994
903.776001,136.639999,431.391998
903.776001,126.879997,429.440002
905.728027,132.735992,437.247986
909.632019,122.975998,439.200012
901.823975,126.879997,433.343994
909.632019,124.928001,435.295990
911.583984,126.879997,435.295990
905.728027,115.167999,435.295990
911.583984,117.120003,425.536011
913.536011,111.264000,429.440002
913.536011,117.120003,425.536011
915.487976,117.120003,435.295990
911.583984,103.456001,425.536011
905.728027,115.167999,433.343994
915.487976,111.264000,437.247986
917.440002,99.552002,429.440002
915.487976,103.456001,421.631989
909.632019,107.360001,423.584015
907.679993,109.311996,419.679993
907.679993,97.599998,415.776001
901.823975,107.360001,425.536011
913.536011,103.456001,435.295990
909.632019,93.695999,425.536011
913.536011,101.503998,427.488007
907.679993,99.552002,413.824005
901.823975,99.552002,415.776001
897.919983,101.503998,413.824005
897.919983,95.648003,427.488007
897.919983,91.744003,429.440002
901.823975,93.695999,439.200012
899.872009,97.599998,431.391998
899.872009,97.599998,437.247986
897.919983,91.744003,433.343994
897.919983,95.648003,441.152008
892.064026,89.792000,447.007996
899.872009,93.695999,447.007996
894.015991,91.744003,445.056000
888.159973,95.648003,437.247986
895.968018,93.695999,445.056000
892.064026,99.552002,439.200012
884.255981,93.695999,433.343994
878.400024,95.648003,433.343994
882.304016,99.552002,437.247986
892.064026,107.360001,433.343994
884.255981,97.599998,415.776001
878.400024,103.456001,415.776001
884.255981,105.407997,419.679993
876.447998,105.407997,415.776001
876.447998,113.216003,419.679993
878.400024,105.407997,425.536011
872.544006,109.311996,425.536011
866.687988,111.264000,411.872009
870.591980,113.216003,411.872009
870.591980,119.071999,409.920013
874.495972,115.167999,411.872009
872.544006,113.216003,415.776001
862.783997,117.120003,419.679993
862.783997,119.071999,407.967987
866.687988,111.264000,411.872009
860.831970,126.879997,413.824005
866.687988,121.024002,409.920013
872.544006,122.975998,415.776001
870.591980,121.024002,406.015991
874.495972,124.928001,415.776001
866.687988,138.591995,411.872009
868.640015,128.832001,404.063995
866.687988,136.639999,413.824005
874.495972,142.496002,409.920013
876.447998,148.352005,409.920013
878.400024,144.447998,404.063995
874.495972,154.207993,415.776001
878.400024,140.544006,415.776001
886.208008,148.352005,413.824005
884.255981,152.255997,411.872009
884.255981,150.304001,411.872009
884.255981,140.544006,415.776001
899.872009,150.304001,415.776001
892.064026,150.304001,419.679993
897.919983,148.352005,427.488007
894.015991,144.447998,429.440002
903.776001,150.304001,427.488007
903.776001,154.207993,417.727997
905.728027,156.160004,423.584015
897.919983,150.304001,429.440002
913.536011,152.255997,425.536011
909.632019,156.160004,431.391998
915.487976,160.063995,425.536011
907.679993,169.824005,425.536011
923.296021,160.063995,427.488007
911.583984,165.919998,431.391998
905.728027,163.968002,431.391998
915.487976,162.016006,423.584015
919.392029,165.919998,421.631989
919.392029,171.776001,427.488007
919.392029,175.679993,435.295990
913.536011,163.968002,429.440002
915.487976,165.919998,421.631989
923.296021,171.776001,421.631989
923.296021,177.632004,419.679993
919.392029,175.679993,431.391998
913.536011,169.824005,435.295990
917.440002,173.727997,435.295990
925.247986,173.727997,429.440002
923.296021,171.776001,437.247986
927.200012,181.535995,437.247986
927.200012,179.584000,435.295990
921.343994,183.488007,431.391998
919.392029,175.679993,433.343994
921.343994,175.679993,433.343994
921.343994,171.776001,427.488007
917.440002,171.776001,427.488007
911.583984,187.391998,429.440002
915.487976,179.584000,431.391998
917.440002,185.440002,425.536011
905.728027,185.440002,423.584015
913.536011,185.440002,425.536011
909.632019,189.343994,417.727997
897.919983,181.535995,421.631989
903.776001,183.488007,427.488007
905.728027,185.440002,423.584015
899.872009,189.343994,421.631989
903.776001,185.440002,421.631989
892.064026,183.488007,413.824005
897.919983,183.488007,409.920013
894.015991,185.440002,413.824005
897.919983,183.488007,421.631989
895.968018,195.199997,411.872009
890.112000,191.296005,421.631989
899.872009,195.199997,413.824005
886.208008,197.151993,415.776001
886.208008,197.151993,419.679993
886.208008,189.343994,417.727997
882.304016,193.248001,409.920013
888.159973,197.151993,421.631989
892.064026,193.248001,415.776001
878.400024,191.296005,417.727997
884.255981,191.296005,409.920013
882.304016,199.104004,409.920013
876.447998,197.151993,413.824005
876.447998,201.056000,415.776001
872.544006,187.391998,419.679993
878.400024,183.488007,409.920013
872.544006,187.391998,415.776001
880.351990,181.535995,419.679993
884.255981,181.535995,402.112000
870.591980,183.488007,407.967987
878.400024,189.343994,411.872009
874.495972,193.248001,409.920013
876.447998,193.248001,417.727997
876.447998,187.391998,413.824005
878.400024,195.199997,415.776001
872.544006,193.248001,415.776001
880.351990,193.248001,421.631989
886.208008,199.104004,409.920013
876.447998,199.104004,411.872009
882.304016,208.863998,417.727997
880.351990,189.343994,413.824005
884.255981,208.863998,421.631989
886.208008,214.720001,411.872009
878.400024,206.912003,411.872009
882.304016,204.960007,409.920013
878.400024,201.056000,415.776001
880.351990,208.863998,417.727997
876.447998,206.912003,417.727997
868.640015,218.623993,415.776001
866.687988,220.576004,409.920013
868.640015,212.768005,415.776001
870.591980,212.768005,404.063995
858.880005,216.671997,398.208008
864.736023,220.576004,402.112000
854.976013,210.815994,392.351990
860.831970,228.384003,400.160004
856.927979,238.143997,394.303986
845.216003,232.287994,398.208008
845.216003,234.240005,392.351990
851.072021,238.143997,390.399994
853.023987,240.095993,390.399994
858.880005,247.904007,394.303986
856.927979,251.807999,392.351990
849.119995,253.759995,386.496002
860.831970,271.328003,394.303986
853.023987,263.519989,396.256012
851.072021,265.471985,398.208008
853.023987,257.664001,396.256012
854.976013,255.712006,402.112000
843.263977,263.519989,404.063995
849.119995,249.856003,404.063995
843.263977,242.048004,415.776001
853.023987,238.143997,425.536011
849.119995,240.095993,423.584015
847.168030,230.335999,417.727997
851.072021,226.432007,429.440002
845.216003,226.432007,437.247986
833.504028,234.240005,429.440002
833.504028,244.000000,429.440002
829.599976,236.192001,435.295990
825.695984,218.623993,443.104004
835.455994,224.479996,425.536011
821.791992,218.623993,437.247986
829.599976,232.287994,435.295990
827.648010,218.623993,423.584015
829.599976,218.623993,419.679993
825.695984,218.623993,421.631989
821.791992,228.384003,415.776001
819.840027,208.863998,413.824005
823.744019,220.576004,417.727997
823.744019,220.576004,415.776001
829.599976,206.912003,417.727997
825.695984,201.056000,415.776001
821.791992,195.199997,415.776001
819.840027,203.007996,425.536011
821.791992,185.440002,431.391998
815.935974,167.871994,421.631989
817.888000,165.919998,437.247986
819.840027,163.968002,441.152008
831.552002,152.255997,443.104004
825.695984,154.207993,445.056000
831.552002,150.304001,448.959991
829.599976,144.447998,454.816010
833.504028,144.447998,454.816010
825.695984,150.304001,462.623993
817.888000,144.447998,460.671997
821.791992,150.304001,462.623993
813.984009,144.447998,462.623993
817.888000,140.544006,462.623993
812.031982,148.352005,460.671997
827.648010,140.544006,452.864014
813.984009,144.447998,456.768005
806.176025,142.496002,456.768005
806.176025,142.496002,454.816010
794.463989,142.496002,450.911987
790.559998,144.447998,462.623993
786.656006,124.928001,452.864014
790.559998,126.879997,458.720001
786.656006,122.975998,454.816010
782.752014,111.264000,456.768005
782.752014,99.552002,454.816010
780.799988,91.744003,450.911987
790.559998,80.031998,452.864014
780.799988,80.031998,452.864014
776.895996,60.512001,458.720001
763.231995,52.703999,450.911987
767.135986,54.655998,458.720001
761.280029,48.799999,462.623993
759.328003,46.848000,458.720001
763.231995,40.992001,458.720001
761.280029,40.992001,452.864014
759.328003,31.232000,462.623993
757.375977,33.183998,454.816010
763.231995,25.375999,454.816010
757.375977,25.375999,462.623993
751.520020,11.712000,450.911987
745.664001,13.664000,458.720001
726.143982,9.760000,460.671997
726.143982,13.664000,472.384003
728.096008,31.232000,462.623993
718.335999,13.664000,452.864014
732.000000,5.856000,456.768005
728.096008,15.616000,452.864014
726.143982,-9.760000,456.768005
716.383972,-31.232000,470.432007
706.624023,-35.136002,470.432007
708.575989,-40.992001,464.575989
714.432007,-64.416000,474.335999
718.335999,-89.792000,464.575989
714.432007,-91.744003,466.528015
706.624023,-83.935997,468.480011
694.911987,-97.599998,480.191986
696.864014,-95.648003,486.048004
683.200012,-85.888000,488.000000
679.296021,-95.648003,489.951996
679.296021,-91.744003,491.903992
683.200012,-91.744003,489.951996
687.104004,-105.407997,480.191986
687.104004,-99.552002,482.144012
692.960022,-93.695999,480.191986
683.200012,-81.984001,474.335999
692.960022,-91.744003,480.191986
692.960022,-95.648003,480.191986
696.864014,-81.984001,478.239990
679.296021,-87.839996,474.335999
683.200012,-91.744003,460.671997
683.200012,-97.599998,472.384003
685.151978,-83.935997,470.432007
687.104004,-87.839996,472.384003
687.104004,-85.888000,470.432007
687.104004,-93.695999,484.096008
681.247986,-97.599998,472.384003
683.200012,-93.695999,476.287994
685.151978,-97.599998,478.239990
685.151978,-93.695999,472.384003
685.151978,-95.648003,484.096008
683.200012,-113.216003,480.191986
679.296021,-117.120003,476.287994
671.487976,-115.167999,482.144012
677.343994,-115.167999,472.384003
673.440002,-119.071999,472.384003
669.536011,-115.167999,474.335999
677.343994,-122.975998,460.671997
681.247986,-115.167999,464.575989
671.487976,-121.024002,452.864014
667.583984,-124.928001,445.056000
663.679993,-122.975998,443.104004
673.440002,-122.975998,431.391998
669.536011,-124.928001,431.391998
669.536011,-122.975998,429.440002
661.728027,-132.735992,417.727997
651.968018,-124.928001,407.967987
669.536011,-122.975998,386.496002
659.776001,-111.264000,376.735992
655.872009,-115.167999,370.880005
663.679993,-117.120003,370.880005
665.632019,-115.167999,359.167999
659.776001,-103.456001,353.312012
671.487976,-105.407997,335.743988
663.679993,-101.503998,322.079987
677.343994,-113.216003,312.320007
669.536011,-99.552002,300.608002
671.487976,-81.984001,290.847992
675.392029,-81.984001,269.376007
679.296021,-76.127998,267.424011
681.247986,-70.272003,255.712006
677.343994,-56.608002,238.143997
692.960022,-48.799999,236.192001
692.960022,-42.944000,210.815994
696.864014,-40.992001,197.151993
706.624023,-37.088001,191.296005
710.528015,-31.232000,181.535995
720.288025,-23.424000,162.016006
737.856018,-23.424000,146.399994
737.856018,-29.280001,130.783997
741.760010,-23.424000,119.071999
739.807983,3.904000,130.783997
743.711975,25.375999,136.639999
753.471985,46.848000,144.447998
759.328003,66.367996,162.016006
751.520020,105.407997,158.112000
759.328003,142.496002,158.112000
757.375977,132.735992,158.112000
765.184021,142.496002,154.207993
769.088013,142.496002,158.112000
782.752014,146.399994,158.112000
786.656006,134.688004,162.016006
780.799988,154.207993,165.919998
788.607971,154.207993,163.968002
792.512024,158.112000,163.968002
802.271973,162.016006,175.679993
810.080017,160.063995,187.391998
806.176025,171.776001,193.248001
813.984009,185.440002,191.296005
817.888000,193.248001,203.007996
837.408020,201.056000,191.296005
851.072021,218.623993,173.727997
817.888000,325.984009,146.399994
815.935974,392.351990,121.024002
821.791992,388.447998,89.792000
825.695984,425.536011,74.176003
837.408020,509.471985,62.464001
839.359985,521.184021,54.655998
851.072021,491.903992,56.608002
862.783997,521.184021,64.416000
888.159973,554.367981,85.888000
903.776001,554.367981,103.456001
911.583984,538.752014,136.639999
929.151978,554.367981,167.871994
946.719971,554.367981,199.104004
968.192017,550.463989,236.192001
979.903992,556.320007,263.519989
991.616028,540.703979,294.752014
1016.992004,525.088013,312.320007
1022.848022,548.512024,331.839996
1026.751953,552.416016,339.648010
1042.368042,552.416016,351.359985
1056.031982,568.031982,361.119995
1052.128052,579.744019,355.264008
1056.031982,569.984009,363.071991
1059.936035,589.504028,357.216003
1057.984009,607.072021,339.648010
1057.984009,616.831970,327.936005
1083.359985,609.023987,324.032013
1081.407959,624.640015,314.272003
1089.215942,638.304016,288.895996
1089.215942,640.255981,288.895996
1098.975952,638.304016,281.088013
1098.975952,640.255981,279.135986
1110.687988,653.919983,261.567993
1104.832031,657.823975,255.712006
1106.784058,661.728027,253.759995
1102.880005,661.728027,249.856003
1100.927979,673.440002,259.615997
1104.832031,677.343994,257.664001
1104.832031,651.968018,261.567993
1104.832031,646.112000,269.376007
1108.735962,659.776001,271.328003
1102.880005,653.919983,286.944000
1116.543945,636.351990,294.752014
1134.112061,638.304016,296.704010
1141.920044,605.119995,294.752014
1145.823975,583.648010,310.368011
1157.536011,591.455994,310.368011
1153.631958,589.504028,310.368011
1147.776001,581.695984,333.791992
1165.343994,571.935974,327.936005
1161.439941,577.791992,325.984009
1147.776001,562.176025,325.984009
1155.583984,564.127991,329.888000
1147.776001,564.127991,339.648010
1141.920044,575.840027,329.888000
1143.871948,556.320007,318.175995
1132.160034,544.607971,318.175995
1143.871948,544.607971,312.320007
1139.968018,540.703979,296.704010
1138.015991,519.231995,300.608002
1147.776001,509.471985,288.895996
1139.968018,493.855988,277.183990
1141.920044,489.951996,269.376007
1139.968018,476.287994,277.183990
1132.160034,454.816010,290.847992
1120.447998,443.104004,288.895996
1136.063965,441.152008,290.847992
1138.015991,431.391998,292.799988
1136.063965,407.967987,294.752014
1128.255981,407.967987,284.992004
1130.208008,407.967987,281.088013
1114.592041,382.592010,281.088013
1097.024048,402.112000,288.895996
1075.552002,402.112000,304.511993
1079.456055,402.112000,302.559998
1065.791992,386.496002,294.752014
1057.984009,380.640015,288.895996
1057.984009,376.735992,273.279999
1048.223999,378.687988,253.759995
1036.511963,386.496002,245.951996
1036.511963,368.928009,224.479996
1024.800049,357.216003,216.671997
1020.895996,361.119995,201.056000
987.711975,331.839996,204.960007
989.664001,320.127991,206.912003
960.383972,306.463989,218.623993
944.768005,281.088013,232.287994
929.151978,275.231995,236.192001
927.200012,275.231995,245.951996
917.440002,247.904007,245.951996
911.583984,236.192001,247.904007
913.536011,230.335999,251.807999
901.823975,226.432007,257.664001
892.064026,222.528000,249.856003
895.968018,232.287994,242.048004
860.831970,216.671997,255.712006
847.168030,210.815994,257.664001
835.455994,224.479996,257.664001
829.599976,197.151993,259.615997
786.656006,189.343994,263.519989
815.935974,203.007996,277.183990
794.463989,208.863998,269.376007
829.599976,203.007996,251.807999
866.687988,208.863998,220.576004
895.968018,189.343994,183.488007
913.536011,187.391998,158.112000
903.776001,230.335999,146.399994
909.632019,222.528000,140.544006
931.104004,195.199997,150.304001
938.911987,195.199997,124.928001
970.143982,193.248001,138.591995
962.335999,160.063995,152.255997
962.335999,156.160004,167.871994
966.239990,177.632004,189.343994
981.856018,148.352005,193.248001
976.000000,121.024002,204.960007
999.424011,132.735992,201.056000
1015.039978,146.399994,204.960007
1011.135986,130.783997,208.863998
1007.231995,126.879997,212.768005
1020.895996,113.216003,212.768005
1015.039978,115.167999,236.192001
1028.703979,109.311996,245.951996
1036.511963,101.503998,261.567993
1040.416016,91.744003,286.944000
1042.368042,83.935997,296.704010
1032.608032,128.832001,320.127991
1013.088013,158.112000,331.839996
1013.088013,142.496002,341.600006
1005.280029,152.255997,337.696014
1016.992004,150.304001,324.032013
1018.943970,121.024002,325.984009
1009.184021,134.688004,322.079987
1018.943970,111.264000,318.175995
999.424011,54.655998,310.368011
1005.280029,27.327999,306.463989
1013.088013,25.375999,304.511993
1003.328003,17.568001,304.511993
997.471985,17.568001,294.752014
991.616028,0.000000,294.752014
995.520020,7.808000,298.656006
977.952026,21.472000,290.847992
985.760010,19.520000,292.799988
977.952026,-1.952000,281.088013
981.856018,0.000000,279.135986
966.239990,9.760000,277.183990
966.239990,9.760000,275.231995
972.096008,-9.760000,277.183990
958.432007,-7.808000,269.376007
970.143982,11.712000,267.424011
981.856018,15.616000,257.664001
976.000000,7.808000,234.240005
983.807983,13.664000,224.479996
997.471985,13.664000,214.720001
981.856018,17.568001,201.056000
976.000000,21.472000,199.104004
938.911987,13.664000,212.768005
892.064026,21.472000,214.720001
895.968018,-1.952000,226.432007
860.831970,-5.856000,245.951996
860.831970,3.904000,257.664001
870.591980,1.952000,265.471985
862.783997,-9.760000,257.664001
856.927979,0.000000,259.615997
862.783997,-13.664000,265.471985
858.880005,-23.424000,247.904007
892.064026,-21.472000,236.192001
899.872009,-23.424000,228.384003
903.776001,-52.703999,214.720001
935.007996,-50.751999,208.863998
897.919983,-62.464001,197.151993
899.872009,-46.848000,195.199997
866.687988,-52.703999,204.960007
856.927979,-76.127998,212.768005
868.640015,-83.935997,216.671997
843.263977,-58.560001,232.287994
888.159973,-78.080002,236.192001
882.304016,-93.695999,220.576004
874.495972,-89.792000,208.863998
888.159973,-74.176003,187.391998
911.583984,-103.456001,163.968002
915.487976,-85.888000,142.496002
923.296021,-78.080002,119.071999
940.864014,-107.360001,105.407997
952.575989,-101.503998,78.080002
950.624023,-83.935997,72.223999
960.383972,-101.503998,58.560001
964.288025,-103.456001,52.703999
958.432007,-103.456001,35.136002
952.575989,-111.264000,21.472000
964.288025,-99.552002,9.760000
970.143982,-103.456001,11.712000
968.192017,-103.456001,0.000000
987.711975,-115.167999,3.904000
989.664001,-136.639999,5.856000
972.096008,-124.928001,1.952000
976.000000,-124.928001,1.952000
991.616028,-146.399994,19.520000
983.807983,-163.968002,23.424000
985.760010,-140.544006,31.232000
997.471985,-134.688004,42.944000
993.567993,-173.727997,64.416000
991.616028,-189.343994,66.367996
979.903992,-165.919998,85.888000
977.952026,-175.679993,93.695999
970.143982,-208.863998,105.407997
972.096008,-212.768005,124.928001
954.528015,-185.440002,134.688004
946.719971,-173.727997,140.544006
946.719971,-201.056000,158.112000
946.719971,-193.248001,183.488007
944.768005,-185.440002,203.007996
956.479980,-173.727997,226.432007
950.624023,-195.199997,251.807999
948.671997,-199.104004,255.712006
950.624023,-193.248001,273.279999
962.335999,-187.391998,290.847992
950.624023,-203.007996,302.559998
964.288025,-204.960007,320.127991
960.383972,-199.104004,329.888000
974.047974,-203.007996,343.552002
989.664001,-204.960007,355.264008
979.903992,-210.815994,372.832001
983.807983,-193.248001,380.640015
983.807983,-191.296005,400.160004
995.520020,-210.815994,409.920013
1003.328003,-204.960007,415.776001
1011.135986,-189.343994,429.440002
1013.088013,-187.391998,435.295990
1015.039978,-187.391998,425.536011
1009.184021,-177.632004,427.488007
1024.800049,-165.919998,425.536011
1020.895996,-146.399994,419.679993
1015.039978,-142.496002,421.631989
1022.848022,-121.024002,419.679993
1018.943970,-101.503998,417.727997
1022.848022,-85.888000,423.584015
1032.608032,-85.888000,413.824005
1038.463989,-76.127998,404.063995
1042.368042,-70.272003,413.824005
1038.463989,-54.655998,402.112000
1032.608032,-68.320000,394.303986
1046.271973,-85.888000,370.880005
1057.984009,-91.744003,359.167999
1050.176025,-91.744003,343.552002
1071.647949,-119.071999,327.936005
1059.936035,-162.016006,314.272003
1061.887939,-160.063995,324.032013
1052.128052,-162.016006,308.415985
1056.031982,-171.776001,310.368011
1046.271973,-191.296005,310.368011
1054.079956,-195.199997,304.511993
1044.319946,-181.535995,318.175995
1036.511963,-175.679993,314.272003
1036.511963,-173.727997,314.272003
1040.416016,-181.535995,318.175995
1022.848022,-156.160004,314.272003
1024.800049,-132.735992,314.272003
1016.992004,-122.975998,325.984009
1013.088013,-126.879997,320.127991
1016.992004,-117.120003,325.984009
1009.184021,-72.223999,333.791992
1016.992004,-74.176003,337.696014
999.424011,-83.935997,345.503998
999.424011,-68.320000,353.312012
991.616028,-50.751999,361.119995
997.471985,-60.512001,368.928009
995.520020,-74.176003,355.264008
993.567993,-80.031998,363.071991
991.616028,-85.888000,361.119995
985.760010,-78.080002,361.119995
972.096008,-91.744003,357.216003
981.856018,-101.503998,372.832001
964.288025,-117.120003,363.071991
972.096008,-107.360001,355.264008
964.288025,-105.407997,349.407990
962.335999,-117.120003,331.839996
956.479980,-124.928001,316.223999
966.239990,-115.167999,308.415985
948.671997,-105.407997,296.704010
954.528015,-113.216003,284.992004
942.815979,-107.360001,273.279999
950.624023,-85.888000,275.231995
931.104004,-64.416000,253.759995
927.200012,-54.655998,247.904007
923.296021,-58.560001,228.384003
917.440002,-46.848000,208.863998
909.632019,-42.944000,199.104004
897.919983,-40.992001,171.776001
901.823975,-44.896000,156.160004
903.776001,-40.992001,144.447998
901.823975,-39.040001,121.024002
890.112000,-60.512001,109.311996
888.159973,-60.512001,91.744003
892.064026,-68.320000,83.935997
888.159973,-81.984001,70.272003
872.544006,-66.367996,52.703999
870.591980,-64.416000,42.944000
870.591980,-81.984001,42.944000
860.831970,-87.839996,39.040001
853.023987,-74.176003,25.375999
853.023987,-78.080002,17.568001
845.216003,-80.031998,13.664000
847.168030,-78.080002,15.616000
827.648010,-66.367996,11.712000
845.216003,-68.320000,-1.952000
835.455994,-64.416000,-3.904000
841.312012,-66.367996,0.000000
843.263977,-60.512001,-5.856000
845.216003,-68.320000,-9.760000
841.312012,-62.464001,-15.616000
837.408020,-62.464001,-23.424000
841.312012,-56.608002,-46.848000
839.359985,-50.751999,-37.088001
849.119995,-60.512001,-50.751999
849.119995,-60.512001,-50.751999
845.216003,-68.320000,-56.608002
827.648010,-62.464001,-54.655998
821.791992,-58.560001,-52.703999
825.695984,-89.792000,-68.320000
792.512024,-80.031998,-115.167999
819.840027,-62.464001,-124.928001
782.752014,-68.320000,-140.544006
792.512024,-72.223999,-146.399994
784.703979,-60.512001,-148.352005
794.463989,-58.560001,-144.447998
798.367981,-66.367996,-136.639999
798.367981,-74.176003,-136.639999
802.271973,-78.080002,-146.399994
806.176025,-66.367996,-152.255997
804.223999,-50.751999,-169.824005
817.888000,-31.232000,-171.776001
806.176025,-33.183998,-165.919998
825.695984,-48.799999,-158.112000
827.648010,-42.944000,-150.304001
835.455994,-46.848000,-146.399994
860.831970,-48.799999,-140.544006
868.640015,-64.416000,-140.544006
870.591980,-74.176003,-142.496002
880.351990,-66.367996,-152.255997
876.447998,-58.560001,-140.544006
907.679993,-62.464001,-144.447998
897.919983,-85.888000,-150.304001
917.440002,-78.080002,-142.496002
927.200012,-85.888000,-140.544006
946.719971,-105.407997,-128.832001
938.911987,-103.456001,-107.360001
944.768005,-74.176003,-91.744003
946.719971,-91.744003,-83.935997
948.671997,-121.024002,-64.416000
960.383972,-126.879997,-50.751999
960.383972,-158.112000,-48.799999
960.383972,-140.544006,-54.655998
968.192017,-130.783997,-54.655998
977.952026,-169.824005,-27.327999
681.247986,167.871994,251.807999
812.031982,501.664001,712.479980
774.943970,-525.088013,544.607971
958.432007,-1175.104004,144.447998
1118.495972,-468.480011,-66.367996
1102.880005,331.839996,-80.031998
964.288025,411.872009,89.792000
946.719971,-156.160004,329.888000
1038.463989,-733.952026,370.880005
1132.160034,-530.943970,294.752014
704.671997,355.264008,443.104004
1200.479980,445.056000,646.112000
1225.855957,329.888000,724.192017
1239.520020,445.056000,774.943970
1301.984009,593.408020,806.176025
1298.079956,605.119995,780.799988
1305.887939,624.640015,732.000000
1262.943970,538.752014,636.351990
1237.567993,322.079987,505.567993
1151.680054,-331.839996,470.432007
1177.056030,-1370.303955,486.048004
1208.287964,-2057.407959,489.951996
1194.624023,-1942.239990,489.951996
1128.255981,-1177.056030,443.104004
1069.696045,109.311996,310.368011
1085.312012,595.359985,255.712006
1034.560059,128.832001,322.079987
1022.848022,-105.407997,288.895996
1011.135986,-234.240005,236.192001
1003.328003,-312.320007,175.679993
1007.231995,-341.600006,128.832001
991.616028,-300.608002,87.839996
983.807983,-271.328003,48.799999
968.192017,-257.664001,3.904000
929.151978,-234.240005,-33.183998
919.392029,-195.199997,-76.127998
892.064026,-181.535995,-124.928001
858.880005,-148.352005,-171.776001
825.695984,-89.792000,-228.384003
772.992004,-17.568001,-283.040009
741.760010,54.655998,-339.648010
761.280029,-187.391998,-400.160004
730.047974,-1040.416016,-374.783997
706.624023,-1395.680054,-337.696014
696.864014,-735.903992,-325.984009
599.263977,484.096008,-312.320007
638.304016,1360.543945,-284.992004
605.119995,1477.663940,-269.376007
622.687988,575.840027,-327.936005
648.064026,-856.927979,-380.640015
692.960022,-1846.592041,-415.776001
710.528015,-1996.895996,-445.056000
642.208008,-1268.800049,-462.623993
612.927979,-150.304001,-491.903992
581.695984,620.736023,-515.328003
556.320007,694.911987,-548.512024
569.984009,140.544006,-595.359985
564.127991,-659.776001,-675.392029
583.648010,-1233.663940,-757.375977
609.023987,-1399.583984,-808.127991
593.408020,-1081.407959,-845.216003
538.752014,-505.567993,-921.343994
493.855988,-29.280001,-995.520020
497.760010,185.440002,-1042.368042
499.712006,44.896000,-1071.647949
474.335999,-275.231995,-1102.880005
589.504028,-244.000000,-1136.063965
677.343994,341.600006,-1022.848022
720.288025,624.640015,-870.591980
712.479980,343.552002,-780.799988
730.047974,-335.743988,-743.711975
874.495972,-1629.920044,-622.687988
858.880005,-2131.583984,-396.256012
831.552002,-1044.319946,-304.511993
798.367981,363.071991,-288.895996
798.367981,976.000000,-310.368011
823.744019,788.607971,-331.839996
796.416016,136.639999,-394.303986
741.760010,-657.823975,-452.864014
741.760010,-1026.751953,-507.519989
737.856018,-755.424011,-554.367981
720.288025,-187.391998,-630.495972
677.343994,821.791992,-665.632019
767.135986,2143.295898,-609.023987
741.760010,1789.984009,-530.943970
1009.184021,-1530.368042,-548.512024
1112.640015,-4665.279785,-396.256012
995.520020,-3416.000000,-337.696014
872.544006,-109.311996,-339.648010
784.703979,1668.959961,-357.216003
1085.312012,1553.791992,-489.951996
1065.791992,1493.280029,-603.168030
989.664001,1686.527954,-696.864014
895.968018,1788.031982,-614.880005
853.023987,718.335999,-521.184021
862.783997,-868.640015,-564.127991
1026.751953,-2635.199951,-642.208008
1085.312012,-3228.607910,-614.880005
952.575989,-2143.295898,-548.512024
954.528015,-382.592010,-515.328003
950.624023,917.440002,-497.760010
1052.128052,1569.407959,-620.736023
1069.696045,1610.400024,-790.559998
1102.880005,1300.031982,-991.616028
1108.735962,-78.080002,-972.096008
862.783997,-1745.088013,-845.216003
735.903992,-2393.152100,-909.632019
741.760010,-1883.680054,-917.440002
856.927979,-489.951996,-802.271973
909.632019,470.432007,-810.080017
1214.144043,919.392029,-1059.936035
1028.703979,1981.280029,-940.864014
1225.855957,2937.760010,-657.823975
1229.760010,2955.327881,-445.056000
1165.343994,2164.768066,-396.256012
1100.927979,-472.384003,-495.808014
1266.848022,-2773.791992,-675.392029
1678.719971,-3326.208008,-880.351990
1575.264038,-3950.847900,-728.096008
1235.615967,-2414.624023,-454.816010
1057.984009,650.015991,-331.839996
1048.223999,2342.399902,-247.904007
1241.472046,2408.768066,-368.928009
1372.255981,2182.335938,-528.992004
1385.920044,2143.295898,-669.536011
1245.375977,2071.072021,-778.848022
1231.712036,1979.328003,-935.007996
946.719971,640.255981,-995.520020
1098.975952,-2605.919922,-1100.927979
1512.800049,-4366.624023,-1163.391968
1471.807983,-4526.687988,-962.335999
1106.784058,-1754.848022,-710.528015
894.015991,1175.104004,-568.031982
1190.719971,1709.952026,-566.080017
1403.488037,1475.712036,-353.312012
1791.936035,790.559998,42.944000
2295.552002,-562.176025,1278.560059
3093.919922,-2277.983887,3031.456055
3417.951904,-2586.399902,3347.679932
2908.479980,-1452.287964,1862.208008
2305.312012,528.992004,327.936005
1743.135986,2643.008057,-880.351990
1393.728027,3656.095947,-1661.151978
1204.384033,3693.184082,-2055.456055
1157.536011,2838.208008,-2039.839966
1153.631958,1844.640015,-1883.680054
1147.776001,1356.640015,-1766.560059
1110.687988,1266.848022,-1731.423950
1091.167969,1411.296021,-1747.040039
845.216003,976.000000,-1747.040039
1875.871948,-3800.543945,80.031998
4185.087891,-9970.816406,5567.104004
5963.359863,-13056.927734,8899.167969
5947.744141,-13336.064453,9307.135742
4546.208008,-8266.719727,5092.768066
1836.832031,-3328.159912,167.871994
1003.328003,177.632004,-3523.360107
370.880005,2590.303955,-4798.016113
-144.447998,3554.592041,-5305.536133
191.296005,4840.959961,-5613.952148
-54.655998,5328.959961,-4997.120117
54.655998,4801.919922,-3747.840088
142.496002,4637.952148,-2428.288086
329.888000,4645.759766,-1405.439941
735.903992,4989.312012,-956.479980
1436.671997,4536.448242,-181.535995
2248.704102,2965.087891,1089.215942
2924.095947,577.791992,2603.968018
3351.583984,-1969.567993,3453.087891
3835.679932,-2307.263916,2888.959961
2674.239990,-3035.360107,2039.839966
2192.095947,-3419.904053,407.967987
1341.024048,-3359.392090,-985.760010
1175.104004,-2658.624023,-1473.760010
1171.199951,-1106.784058,-1220.000000
1301.984009,-162.016006,-556.320007
1538.176025,210.815994,-185.440002
1641.631958,628.544006,68.320000
1706.047974,800.320007,388.447998
1793.887939,960.383972,566.080017
2032.031982,1157.536011,683.200012
2346.303955,1393.728027,632.447998
2352.159912,1307.839966,491.903992
2071.072021,1093.119995,197.151993
1830.975952,897.919983,-64.416000
1653.343994,732.000000,-224.479996
1610.400024,632.447998,-290.847992
1645.536011,634.400024,-265.471985
1723.615967,624.640015,-208.863998
1764.608032,657.823975,-42.944000
1709.952026,751.520020,11.712000
1678.719971,849.119995,-27.327999
1688.479980,860.831970,-19.520000
1748.991943,810.080017,40.992001
1797.791992,815.935974,76.127998
1735.328003,802.271973,89.792000
1653.343994,815.935974,99.552002
1557.696045,964.288025,76.127998
1518.656006,1095.072021,-23.424000
1514.751953,1079.456055,-163.968002
1485.472046,936.960022,-312.320007
1419.104004,667.583984,-390.399994
1335.167969,325.984009,-425.536011
1274.656006,130.783997,-491.903992
1225.855957,52.703999,-579.744019
1194.624023,-19.520000,-677.343994
1108.735962,-66.367996,-763.231995
1009.184021,-56.608002,-874.495972
919.392029,1.952000,-956.479980
868.640015,113.216003,-1032.608032
874.495972,183.488007,-1075.552002
917.440002,204.960007,-1040.416016
946.719971,210.815994,-995.520020
987.711975,197.151993,-970.143982
1007.231995,242.048004,-1003.328003
1044.319946,296.704010,-1034.560059
1057.984009,279.135986,-993.567993
1048.223999,204.960007,-880.351990
1026.751953,128.832001,-825.695984
1005.280029,101.503998,-800.320007
1018.943970,140.544006,-823.744019
1034.560059,234.240005,-903.776001
1026.751953,374.783997,-1032.608032
1069.696045,222.528000,-919.392029
1093.119995,15.616000,-743.711975
1171.199951,-261.567993,-540.703979
1179.008057,-347.455994,-556.320007
1134.112061,-661.728027,-577.791992
901.823975,-1307.839966,-530.943970
1042.368042,-2287.743896,-353.312012
1100.927979,-2201.855957,-175.679993
1169.248047,-1380.063965,13.664000
1153.631958,-466.528015,-13.664000
1208.287964,331.839996,-197.151993
1159.488037,812.031982,-288.895996
1134.112061,1071.647949,-306.463989
1169.248047,1272.703979,-374.783997
1182.911987,1319.552002,-441.152008
1208.287964,1194.624023,-476.287994
1216.095947,907.679993,-476.287994
1235.615967,505.567993,-452.864014
1251.232056,97.599998,-454.816010
1268.800049,-222.528000,-462.623993
1235.615967,-402.112000,-480.191986
1147.776001,-355.264008,-589.504028
1056.031982,-203.007996,-782.752014
976.000000,-173.727997,-870.591980
977.952026,-228.384003,-835.455994
976.000000,-247.904007,-817.888000
993.567993,-242.048004,-798.367981
1001.375977,-269.376007,-753.471985
1005.280029,-275.231995,-710.528015
1018.943970,-308.415985,-669.536011
1052.128052,-300.608002,-634.400024
1044.319946,-230.335999,-646.112000
1016.992004,-7.808000,-694.911987
1036.511963,864.736023,-702.719971
1018.943970,1830.975952,-562.176025
997.471985,1852.447998,-493.855988
983.807983,1194.624023,-694.911987
944.768005,259.615997,-977.952026
907.679993,-277.183990,-1132.160034
856.927979,-339.648010,-1212.192017
808.127991,-95.648003,-1303.936035
774.943970,263.519989,-1421.056030
704.671997,488.000000,-1534.271973
634.400024,482.144012,-1493.280029
597.312012,435.295990,-1458.144043
571.935974,210.815994,-1391.776001
544.607971,-265.471985,-1087.264038
644.159973,-1130.208008,-452.864014
810.080017,-1702.144043,40.992001
1155.583984,-2276.031982,673.440002
1356.640015,-1940.287964,607.072021
1534.271973,-1688.479980,491.903992
1563.552002,-1018.943970,370.880005
1411.296021,105.407997,-23.424000
1268.800049,1930.527954,-68.320000
946.719971,2670.335938,-347.455994
956.479980,2227.231934,-513.375977
1003.328003,1188.767944,-808.127991
1063.839966,7.808000,-901.823975
1104.832031,-735.903992,-614.880005
1167.296021,-1223.904053,-423.584015
1301.984009,-1009.184021,-368.928009
1173.151978,-527.039978,-495.808014
956.479980,138.591995,-708.575989
689.056030,148.352005,-913.536011
698.815979,224.479996,-1184.864014
614.880005,363.071991,-1190.719971
798.367981,-222.528000,-874.495972
942.815979,-716.383972,-470.432007
1079.456055,-983.807983,-257.664001
1214.144043,-1030.656006,-208.863998
1114.592041,-620.736023,-255.712006
1077.504028,-372.832001,-380.640015
1057.984009,-763.231995,-454.816010
1077.504028,-1368.352051,-466.528015
1179.008057,-335.743988,-411.872009
1327.359985,644.159973,-103.456001
1510.848022,778.848022,72.223999
1635.776001,605.119995,68.320000
1725.567993,622.687988,62.464001
1733.375977,663.679993,103.456001
1698.239990,683.200012,119.071999
1647.488037,538.752014,89.792000
1612.352051,365.023987,15.616000
1540.128052,257.664001,-58.560001
1464.000000,214.720001,-146.399994
1344.927979,91.744003,-263.519989
1227.807983,-44.896000,-421.631989
1124.352051,-126.879997,-622.687988
1030.656006,-203.007996,-755.424011
940.864014,-283.040009,-800.320007
862.783997,-277.183990,-858.880005
792.512024,-204.960007,-921.343994
757.375977,-142.496002,-938.911987
776.895996,-177.632004,-915.487976
825.695984,-251.807999,-843.263977
870.591980,-253.759995,-724.192017
919.392029,-165.919998,-632.447998
960.383972,-44.896000,-566.080017
989.664001,-1.952000,-517.280029
1015.039978,19.520000,-495.808014
1050.176025,37.088001,-462.623993
1089.215942,56.608002,-458.720001
1134.112061,70.272003,-443.104004
1159.488037,35.136002,-429.440002
1161.439941,-21.472000,-396.256012
1136.063965,-54.655998,-407.967987
1102.880005,-93.695999,-441.152008
1075.552002,-99.552002,-478.239990
1054.079956,-85.888000,-521.184021
1020.895996,-58.560001,-536.799988
1005.280029,-56.608002,-568.031982
995.520020,-76.127998,-589.504028
997.471985,-93.695999,-581.695984
995.520020,-62.464001,-579.744019
1011.135986,-42.944000,-568.031982
1036.511963,-44.896000,-577.791992
1028.703979,-48.799999,-562.176025
1038.463989,-42.944000,-552.416016
1038.463989,-35.136002,-542.656006
1044.319946,-31.232000,-534.848022
1034.560059,-42.944000,-525.088013
1030.656006,-50.751999,-517.280029
1034.560059,-83.935997,-540.703979
1036.511963,-103.456001,-523.135986
1028.703979,-121.024002,-530.943970
1022.848022,-132.735992,-527.039978
1024.800049,-146.399994,-530.943970
1011.135986,-152.255997,-519.231995
1007.231995,-158.112000,-523.135986
1011.135986,-152.255997,-523.135986
1003.328003,-136.639999,-525.088013
991.616028,-140.544006,-521.184021
997.471985,-126.879997,-513.375977
989.664001,-144.447998,-519.231995
991.616028,-148.352005,-519.231995
1009.184021,-162.016006,-525.088013
991.616028,-158.112000,-534.848022
989.664001,-163.968002,-540.703979
987.711975,-175.679993,-534.848022
979.903992,-160.063995,-530.943970
964.288025,-171.776001,-546.559998
962.335999,-183.488007,-562.176025
962.335999,-193.248001,-554.367981
966.239990,-203.007996,-521.184021
960.383972,-210.815994,-517.280029
962.335999,-212.768005,-515.328003
964.288025,-210.815994,-511.424011
966.239990,-212.768005,-515.328003
954.528015,-220.576004,-509.471985
944.768005,-218.623993,-511.424011
935.007996,-218.623993,-515.328003
927.200012,-203.007996,-521.184021
921.343994,-204.960007,-523.135986
917.440002,-214.720001,-530.943970
905.728027,-206.912003,-530.943970
905.728027,-216.671997,-517.280029
894.015991,-218.623993,-515.328003
890.112000,-242.048004,-515.328003
892.064026,-257.664001,-517.280029
874.495972,-271.328003,-530.943970
866.687988,-249.856003,-528.992004
878.400024,-253.759995,-530.943970
862.783997,-232.287994,-530.943970
864.736023,-220.576004,-528.992004
880.351990,-214.720001,-517.280029
878.400024,-199.104004,-525.088013
868.640015,-189.343994,-519.231995
853.023987,-189.343994,-519.231995
864.736023,-187.391998,-525.088013
860.831970,-185.440002,-544.607971
866.687988,-181.535995,-536.799988
870.591980,-185.440002,-534.848022
