ACC_X,ACC_Y,ACC_Z
888.159973,169.824005,355.264008
886.208008,160.063995,359.167999
886.208008,158.112000,361.119995
894.015991,154.207993,386.496002
894.015991,132.735992,411.872009
897.919983,119.071999,421.631989
903.776001,111.264000,423.584015
907.679993,95.648003,447.007996
913.536011,83.935997,450.911987
905.728027,76.127998,462.623993
913.536011,54.655998,456.768005
915.487976,56.608002,462.623993
909.632019,60.512001,462.623993
899.872009,60.512001,447.007996
894.015991,66.367996,435.295990
897.919983,72.223999,433.343994
897.919983,80.031998,413.824005
886.208008,97.599998,404.063995
886.208008,109.311996,396.256012
878.400024,128.832001,388.447998
870.591980,132.735992,380.640015
864.736023,132.735992,380.640015
868.640015,134.688004,380.640015
864.736023,140.544006,384.544006
862.783997,132.735992,384.544006
874.495972,130.783997,398.208008
876.447998,115.167999,398.208008
884.255981,95.648003,413.824005
874.495972,95.648003,419.679993
878.400024,81.984001,425.536011
886.208008,72.223999,433.343994
888.159973,62.464001,437.247986
884.255981,60.512001,429.440002
890.112000,58.560001,437.247986
882.304016,60.512001,435.295990
880.351990,64.416000,443.104004
884.255981,68.320000,431.391998
876.447998,76.127998,419.679993
864.736023,85.888000,415.776001
862.783997,95.648003,411.872009
866.687988,109.311996,406.015991
856.927979,113.216003,392.351990
870.591980,122.975998,386.496002
864.736023,111.264000,386.496002
868.640015,124.928001,388.447998
864.736023,130.783997,380.640015
868.640015,121.024002,392.351990
864.736023,109.311996,392.351990
880.351990,103.456001,396.256012
876.447998,107.360001,386.496002
884.255981,93.695999,406.015991
886.208008,80.031998,411.872009
886.208008,87.839996,411.872009
899.872009,81.984001,419.679993
897.919983,80.031998,419.679993
895.968018,80.031998,425.536011
897.919983,76.127998,417.727997
897.919983,85.888000,409.920013
894.015991,97.599998,413.824005
899.872009,103.456001,402.112000
907.679993,107.360001,413.824005
907.679993,111.264000,406.015991
907.679993,121.024002,402.112000
907.679993,124.928001,406.015991
911.583984,138.591995,402.112000
907.679993,126.879997,404.063995
905.728027,140.544006,400.160004
907.679993,128.832001,407.967987
907.679993,136.639999,411.872009
905.728027,134.688004,407.967987
917.440002,128.832001,398.208008
917.440002,130.783997,396.256012
927.200012,121.024002,409.920013
915.487976,117.120003,413.824005
923.296021,121.024002,417.727997
919.392029,117.120003,411.872009
921.343994,119.071999,404.063995
931.104004,113.216003,409.920013
927.200012,126.879997,407.967987
915.487976,121.024002,406.015991
913.536011,138.591995,404.063995
913.536011,130.783997,396.256012
909.632019,136.639999,390.399994
905.728027,150.304001,388.447998
905.728027,150.304001,390.399994
909.632019,160.063995,388.447998
911.583984,165.919998,392.351990
903.776001,167.871994,378.687988
907.679993,165.919998,388.447998
903.776001,156.160004,378.687988
901.823975,162.016006,382.592010
901.823975,162.016006,382.592010
899.872009,154.207993,384.544006
901.823975,162.016006,388.447998
899.872009,156.160004,384.544006
903.776001,154.207993,384.544006
899.872009,150.304001,392.351990
905.728027,140.544006,380.640015
897.919983,150.304001,384.544006
899.872009,152.255997,384.544006
890.112000,154.207993,374.783997
895.968018,162.016006,374.783997
892.064026,156.160004,374.783997
894.015991,156.160004,376.735992
895.968018,169.824005,370.880005
894.015991,169.824005,368.928009
890.112000,173.727997,361.119995
892.064026,175.679993,370.880005
888.159973,181.535995,366.976013
888.159973,175.679993,363.071991
886.208008,175.679993,366.976013
888.159973,181.535995,368.928009
892.064026,177.632004,368.928009
897.919983,173.727997,361.119995
890.112000,177.632004,365.023987
890.112000,169.824005,366.976013
888.159973,171.776001,359.167999
888.159973,171.776001,365.023987
890.112000,171.776001,365.023987
897.919983,173.727997,382.592010
890.112000,173.727997,361.119995
890.112000,181.535995,372.832001
899.872009,179.584000,372.832001
894.015991,177.632004,363.071991
890.112000,181.535995,368.928009
899.872009,189.343994,370.880005
886.208008,189.343994,372.832001
888.159973,187.391998,374.783997
888.159973,185.440002,368.928009
888.159973,193.248001,368.928009
888.159973,187.391998,363.071991
882.304016,179.584000,363.071991
901.823975,181.535995,357.216003
892.064026,179.584000,361.119995
882.304016,189.343994,363.071991
886.208008,177.632004,363.071991
884.255981,181.535995,363.071991
882.304016,175.679993,365.023987
895.968018,163.968002,361.119995
882.304016,177.632004,361.119995
886.208008,167.871994,365.023987
888.159973,171.776001,359.167999
884.255981,165.919998,357.216003
878.400024,165.919998,357.216003
884.255981,160.063995,361.119995
888.159973,167.871994,355.264008
886.208008,160.063995,357.216003
886.208008,165.919998,365.023987
890.112000,158.112000,355.264008
890.112000,165.919998,359.167999
886.208008,165.919998,366.976013
890.112000,150.304001,368.928009
890.112000,144.447998,368.928009
882.304016,158.112000,368.928009
890.112000,148.352005,366.976013
884.255981,150.304001,368.928009
890.112000,136.639999,368.928009
888.159973,140.544006,365.023987
890.112000,132.735992,378.687988
892.064026,132.735992,363.071991
886.208008,132.735992,366.976013
882.304016,130.783997,366.976013
876.447998,124.928001,370.880005
878.400024,121.024002,376.735992
878.400024,122.975998,372.832001
880.351990,117.120003,363.071991
878.400024,124.928001,368.928009
884.255981,119.071999,368.928009
874.495972,124.928001,359.167999
880.351990,121.024002,368.928009
878.400024,121.024002,372.832001
882.304016,122.975998,368.928009
888.159973,117.120003,374.783997
878.400024,113.216003,374.783997
880.351990,117.120003,374.783997
888.159973,122.975998,372.832001
884.255981,119.071999,374.783997
878.400024,121.024002,378.687988
884.255981,124.928001,380.640015
882.304016,126.879997,380.640015
888.159973,126.879997,382.592010
882.304016,122.975998,382.592010
884.255981,122.975998,382.592010
882.304016,122.975998,392.351990
882.304016,115.167999,392.351990
882.304016,115.167999,382.592010
892.064026,115.167999,386.496002
894.015991,117.120003,388.447998
888.159973,117.120003,392.351990
892.064026,119.071999,382.592010
882.304016,117.120003,388.447998
886.208008,113.216003,380.640015
890.112000,109.311996,384.544006
894.015991,111.264000,384.544006
886.208008,115.167999,388.447998
888.159973,107.360001,396.256012
882.304016,109.311996,392.351990
878.400024,105.407997,388.447998
888.159973,107.360001,384.544006
892.064026,109.311996,382.592010
884.255981,107.360001,392.351990
876.447998,111.264000,386.496002
878.400024,107.360001,384.544006
878.400024,105.407997,382.592010
878.400024,109.311996,386.496002
880.351990,109.311996,382.592010
878.400024,103.456001,392.351990
878.400024,99.552002,382.592010
872.544006,99.552002,386.496002
872.544006,99.552002,384.544006
868.640015,93.695999,384.544006
880.351990,93.695999,378.687988
874.495972,105.407997,380.640015
864.736023,89.792000,378.687988
866.687988,99.552002,380.640015
854.976013,103.456001,378.687988
862.783997,93.695999,378.687988
858.880005,93.695999,376.735992
854.976013,93.695999,376.735992
860.831970,95.648003,382.592010
851.072021,99.552002,376.735992
847.168030,99.552002,380.640015
853.023987,91.744003,374.783997
853.023987,93.695999,372.832001
847.168030,83.935997,366.976013
847.168030,93.695999,363.071991
847.168030,93.695999,368.928009
851.072021,101.503998,378.687988
853.023987,99.552002,370.880005
854.976013,99.552002,365.023987
856.927979,103.456001,365.023987
854.976013,99.552002,366.976013
854.976013,99.552002,365.023987
864.736023,97.599998,359.167999
864.736023,93.695999,361.119995
856.927979,103.456001,353.312012
866.687988,99.552002,357.216003
868.640015,91.744003,366.976013
872.544006,99.552002,363.071991
862.783997,91.744003,365.023987
878.400024,89.792000,372.832001
874.495972,87.839996,376.735992
874.495972,87.839996,376.735992
870.591980,85.888000,376.735992
870.591980,87.839996,370.880005
880.351990,89.792000,380.640015
884.255981,97.599998,384.544006
890.112000,89.792000,378.687988
890.112000,95.648003,388.447998
886.208008,95.648003,380.640015
890.112000,97.599998,384.544006
894.015991,99.552002,376.735992
901.823975,95.648003,370.880005
905.728027,85.888000,378.687988
901.823975,85.888000,372.832001
905.728027,93.695999,378.687988
909.632019,99.552002,380.640015
911.583984,91.744003,384.544006
909.632019,87.839996,380.640015
913.536011,95.648003,382.592010
913.536011,89.792000,382.592010
925.247986,89.792000,382.592010
923.296021,89.792000,388.447998
925.247986,83.935997,380.640015
929.151978,83.935997,390.399994
925.247986,87.839996,388.447998
925.247986,85.888000,400.160004
935.007996,91.744003,396.256012
933.056030,87.839996,396.256012
938.911987,83.935997,404.063995
938.911987,85.888000,398.208008
946.719971,81.984001,404.063995
954.528015,78.080002,415.776001
956.479980,70.272003,402.112000
962.335999,76.127998,400.160004
962.335999,64.416000,404.063995
960.383972,64.416000,404.063995
954.528015,74.176003,404.063995
948.671997,81.984001,409.920013
944.768005,95.648003,411.872009
933.056030,95.648003,404.063995
944.768005,101.503998,398.208008
956.479980,99.552002,409.920013
962.335999,101.503998,411.872009
962.335999,95.648003,404.063995
972.096008,89.792000,407.967987
977.952026,81.984001,406.015991
983.807983,93.695999,407.967987
987.711975,87.839996,413.824005
985.760010,85.888000,415.776001
976.000000,95.648003,413.824005
987.711975,93.695999,415.776001
977.952026,99.552002,411.872009
987.711975,87.839996,411.872009
995.520020,81.984001,421.631989
993.567993,83.935997,423.584015
997.471985,81.984001,419.679993
1005.280029,83.935997,419.679993
999.424011,83.935997,417.727997
991.616028,80.031998,413.824005
1005.280029,83.935997,417.727997
1003.328003,76.127998,421.631989
999.424011,85.888000,421.631989
1011.135986,91.744003,423.584015
995.520020,99.552002,421.631989
1001.375977,99.552002,423.584015
999.424011,95.648003,425.536011
993.567993,103.456001,435.295990
999.424011,109.311996,439.200012
1001.375977,111.264000,437.247986
1005.280029,107.360001,429.440002
997.471985,109.311996,431.391998
991.616028,117.120003,427.488007
1001.375977,111.264000,435.295990
997.471985,105.407997,431.391998
995.520020,115.167999,433.343994
993.567993,109.311996,437.247986
991.616028,117.120003,439.200012
983.807983,115.167999,429.440002
993.567993,109.311996,431.391998
991.616028,117.120003,435.295990
979.903992,101.503998,427.488007
974.047974,119.071999,415.776001
981.856018,107.360001,409.920013
972.096008,109.311996,417.727997
968.192017,115.167999,413.824005
974.047974,115.167999,413.824005
974.047974,119.071999,411.872009
974.047974,119.071999,404.063995
976.000000,124.928001,400.160004
972.096008,121.024002,398.208008
977.952026,124.928001,404.063995
981.856018,122.975998,394.303986
964.288025,124.928001,396.256012
977.952026,132.735992,398.208008
968.192017,138.591995,404.063995
964.288025,142.496002,394.303986
966.239990,140.544006,394.303986
966.239990,140.544006,400.160004
970.143982,150.304001,400.160004
968.192017,150.304001,390.399994
962.335999,138.591995,398.208008
966.239990,142.496002,392.351990
964.288025,138.591995,386.496002
970.143982,124.928001,386.496002
968.192017,121.024002,388.447998
964.288025,130.783997,388.447998
964.288025,124.928001,386.496002
960.383972,130.783997,382.592010
954.528015,136.639999,378.687988
960.383972,136.639999,382.592010
958.432007,144.447998,388.447998
958.432007,144.447998,382.592010
952.575989,144.447998,382.592010
966.239990,144.447998,384.544006
956.479980,150.304001,384.544006
956.479980,165.919998,374.783997
958.432007,162.016006,382.592010
958.432007,160.063995,376.735992
948.671997,163.968002,376.735992
952.575989,162.016006,376.735992
946.719971,156.160004,372.832001
954.528015,173.727997,365.023987
940.864014,154.207993,366.976013
946.719971,156.160004,368.928009
948.671997,150.304001,372.832001
944.768005,158.112000,363.071991
944.768005,150.304001,363.071991
946.719971,150.304001,368.928009
946.719971,142.496002,363.071991
944.768005,142.496002,372.832001
946.719971,146.399994,370.880005
950.624023,138.591995,365.023987
950.624023,136.639999,372.832001
944.768005,136.639999,365.023987
944.768005,146.399994,359.167999
942.815979,144.447998,366.976013
944.768005,150.304001,361.119995
952.575989,140.544006,366.976013
944.768005,142.496002,376.735992
946.719971,156.160004,365.023987
940.864014,156.160004,368.928009
952.575989,156.160004,368.928009
948.671997,148.352005,368.928009
950.624023,150.304001,368.928009
948.671997,148.352005,361.119995
952.575989,142.496002,357.216003
946.719971,150.304001,370.880005
960.383972,144.447998,363.071991
948.671997,142.496002,370.880005
962.335999,138.591995,372.832001
962.335999,134.688004,363.071991
944.768005,136.639999,370.880005
956.479980,132.735992,370.880005
956.479980,126.879997,380.640015
952.575989,130.783997,363.071991
948.671997,124.928001,368.928009
960.383972,126.879997,372.832001
958.432007,128.832001,376.735992
960.383972,124.928001,366.976013
956.479980,136.639999,363.071991
948.671997,132.735992,366.976013
960.383972,146.399994,376.735992
954.528015,140.544006,374.783997
952.575989,138.591995,378.687988
962.335999,130.783997,378.687988
952.575989,124.928001,374.783997
956.479980,126.879997,380.640015
956.479980,130.783997,376.735992
970.143982,128.832001,374.783997
966.239990,113.216003,384.544006
960.383972,107.360001,380.640015
966.239990,111.264000,380.640015
970.143982,111.264000,388.447998
964.288025,107.360001,386.496002
977.952026,107.360001,386.496002
974.047974,109.311996,388.447998
981.856018,109.311996,392.351990
977.952026,109.311996,386.496002
987.711975,109.311996,392.351990
979.903992,122.975998,388.447998
976.000000,115.167999,394.303986
977.952026,115.167999,386.496002
983.807983,115.167999,382.592010
981.856018,113.216003,380.640015
977.952026,115.167999,390.399994
977.952026,109.311996,386.496002
981.856018,109.311996,392.351990
983.807983,97.599998,390.399994
983.807983,101.503998,392.351990
976.000000,101.503998,396.256012
981.856018,103.456001,386.496002
981.856018,99.552002,380.640015
981.856018,91.744003,394.303986
981.856018,107.360001,386.496002
981.856018,97.599998,396.256012
976.000000,87.839996,392.351990
979.903992,91.744003,382.592010
985.760010,93.695999,396.256012
974.047974,95.648003,392.351990
979.903992,99.552002,396.256012
976.000000,97.599998,392.351990
977.952026,103.456001,396.256012
977.952026,103.456001,390.399994
974.047974,101.503998,396.256012
972.096008,107.360001,390.399994
974.047974,103.456001,386.496002
962.335999,105.407997,380.640015
970.143982,103.456001,382.592010
960.383972,89.792000,390.399994
960.383972,103.456001,392.351990
966.239990,99.552002,384.544006
962.335999,91.744003,384.544006
962.335999,89.792000,396.256012
952.575989,97.599998,384.544006
950.624023,89.792000,382.592010
946.719971,97.599998,388.447998
956.479980,91.744003,378.687988
950.624023,95.648003,384.544006
948.671997,93.695999,378.687988
940.864014,89.792000,370.880005
940.864014,91.744003,372.832001
940.864014,87.839996,380.640015
940.864014,93.695999,374.783997
933.056030,89.792000,378.687988
935.007996,89.792000,370.880005
940.864014,81.984001,368.928009
938.911987,87.839996,376.735992
933.056030,89.792000,370.880005
927.200012,91.744003,368.928009
940.864014,89.792000,366.976013
933.056030,81.984001,380.640015
929.151978,85.888000,376.735992
921.343994,81.984001,380.640015
935.007996,87.839996,366.976013
935.007996,76.127998,368.928009
931.104004,78.080002,366.976013
927.200012,83.935997,376.735992
931.104004,72.223999,370.880005
935.007996,78.080002,372.832001
929.151978,76.127998,368.928009
931.104004,74.176003,368.928009
929.151978,78.080002,372.832001
935.007996,76.127998,368.928009
921.343994,80.031998,368.928009
919.392029,74.176003,370.880005
931.104004,66.367996,374.783997
929.151978,76.127998,382.592010
931.104004,78.080002,380.640015
935.007996,72.223999,380.640015
931.104004,72.223999,372.832001
925.247986,72.223999,370.880005
931.104004,72.223999,380.640015
931.104004,68.320000,384.544006
936.960022,70.272003,376.735992
936.960022,70.272003,386.496002
935.007996,72.223999,380.640015
931.104004,68.320000,388.447998
935.007996,62.464001,384.544006
925.247986,68.320000,384.544006
927.200012,72.223999,384.544006
931.104004,66.367996,374.783997
925.247986,68.320000,384.544006
933.056030,58.560001,378.687988
931.104004,58.560001,374.783997
929.151978,62.464001,380.640015
929.151978,68.320000,388.447998
925.247986,72.223999,374.783997
927.200012,62.464001,382.592010
931.104004,66.367996,380.640015
931.104004,60.512001,392.351990
935.007996,62.464001,378.687988
931.104004,54.655998,384.544006
931.104004,56.608002,388.447998
938.911987,60.512001,380.640015
931.104004,60.512001,396.256012
927.200012,58.560001,390.399994
923.296021,56.608002,380.640015
931.104004,56.608002,384.544006
919.392029,60.512001,372.832001
925.247986,46.848000,380.640015
917.440002,56.608002,382.592010
923.296021,52.703999,380.640015
927.200012,50.751999,374.783997
923.296021,56.608002,380.640015
915.487976,44.896000,384.544006
913.536011,54.655998,382.592010
917.440002,50.751999,380.640015
919.392029,44.896000,384.544006
913.536011,60.512001,382.592010
913.536011,60.512001,374.783997
923.296021,60.512001,384.544006
909.632019,58.560001,378.687988
915.487976,56.608002,380.640015
919.392029,54.655998,382.592010
917.440002,60.512001,382.592010
915.487976,58.560001,374.783997
915.487976,62.464001,380.640015
913.536011,50.751999,378.687988
915.487976,56.608002,380.640015
911.583984,54.655998,382.592010
917.440002,58.560001,386.496002
919.392029,56.608002,374.783997
913.536011,58.560001,382.592010
915.487976,58.560001,382.592010
917.440002,62.464001,386.496002
917.440002,64.416000,382.592010
919.392029,72.223999,386.496002
923.296021,64.416000,386.496002
925.247986,54.655998,388.447998
923.296021,58.560001,378.687988
913.536011,58.560001,380.640015
919.392029,74.176003,384.544006
923.296021,80.031998,390.399994
917.440002,76.127998,398.208008
927.200012,76.127998,394.303986
921.343994,74.176003,394.303986
931.104004,74.176003,394.303986
929.151978,80.031998,394.303986
923.296021,78.080002,394.303986
921.343994,83.935997,398.208008
925.247986,74.176003,400.160004
927.200012,78.080002,390.399994
931.104004,85.888000,396.256012
925.247986,85.888000,386.496002
929.151978,80.031998,400.160004
925.247986,81.984001,398.208008
927.200012,85.888000,394.303986
935.007996,87.839996,390.399994
931.104004,89.792000,396.256012
931.104004,83.935997,407.967987
925.247986,81.984001,396.256012
925.247986,78.080002,400.160004
917.440002,91.744003,400.160004
929.151978,93.695999,392.351990
929.151978,91.744003,398.208008
931.104004,93.695999,396.256012
927.200012,83.935997,396.256012
925.247986,80.031998,396.256012
925.247986,85.888000,394.303986
935.007996,87.839996,390.399994
931.104004,87.839996,390.399994
931.104004,99.552002,394.303986
931.104004,93.695999,392.351990
931.104004,103.456001,400.160004
933.056030,93.695999,394.303986
929.151978,89.792000,390.399994
929.151978,99.552002,394.303986
931.104004,91.744003,386.496002
935.007996,87.839996,390.399994
931.104004,99.552002,388.447998
935.007996,91.744003,390.399994
929.151978,81.984001,384.544006
931.104004,89.792000,386.496002
935.007996,89.792000,378.687988
929.151978,87.839996,378.687988
929.151978,81.984001,384.544006
935.007996,81.984001,388.447998
929.151978,95.648003,396.256012
942.815979,89.792000,392.351990
929.151978,83.935997,398.208008
936.960022,78.080002,400.160004
946.719971,85.888000,396.256012
946.719971,103.456001,396.256012
944.768005,97.599998,394.303986
952.575989,95.648003,398.208008
946.719971,87.839996,400.160004
946.719971,91.744003,402.112000
942.815979,87.839996,396.256012
950.624023,97.599998,392.351990
944.768005,89.792000,390.399994
942.815979,89.792000,390.399994
946.719971,87.839996,392.351990
942.815979,89.792000,394.303986
942.815979,91.744003,388.447998
936.960022,87.839996,388.447998
936.960022,89.792000,388.447998
935.007996,87.839996,390.399994
936.960022,93.695999,396.256012
929.151978,81.984001,394.303986
936.960022,81.984001,390.399994
942.815979,80.031998,392.351990
946.719971,89.792000,392.351990
929.151978,87.839996,386.496002
929.151978,83.935997,396.256012
938.911987,81.984001,392.351990
933.056030,85.888000,398.208008
929.151978,91.744003,392.351990
933.056030,80.031998,386.496002
929.151978,81.984001,382.592010
927.200012,89.792000,384.544006
923.296021,81.984001,382.592010
913.536011,80.031998,376.735992
913.536011,80.031998,374.783997
925.247986,76.127998,374.783997
921.343994,83.935997,378.687988
919.392029,80.031998,372.832001
913.536011,83.935997,370.880005
905.728027,83.935997,376.735992
915.487976,80.031998,374.783997
921.343994,70.272003,380.640015
919.392029,87.839996,368.928009
915.487976,80.031998,374.783997
911.583984,70.272003,378.687988
909.632019,76.127998,378.687988
909.632019,83.935997,372.832001
907.679993,81.984001,382.592010
907.679993,85.888000,370.880005
903.776001,78.080002,370.880005
897.919983,78.080002,372.832001
905.728027,76.127998,370.880005
901.823975,78.080002,374.783997
905.728027,81.984001,384.544006
907.679993,81.984001,376.735992
901.823975,83.935997,366.976013
901.823975,78.080002,368.928009
899.872009,78.080002,368.928009
892.064026,80.031998,372.832001
895.968018,80.031998,361.119995
890.112000,76.127998,359.167999
899.872009,78.080002,366.976013
892.064026,76.127998,363.071991
901.823975,74.176003,370.880005
899.872009,66.367996,370.880005
892.064026,76.127998,376.735992
892.064026,76.127998,372.832001
901.823975,66.367996,376.735992
899.872009,74.176003,374.783997
894.015991,74.176003,370.880005
894.015991,72.223999,372.832001
895.968018,83.935997,378.687988
897.919983,91.744003,378.687988
897.919983,83.935997,372.832001
897.919983,74.176003,370.880005
899.872009,81.984001,378.687988
895.968018,80.031998,382.592010
897.919983,81.984001,380.640015
894.015991,72.223999,370.880005
897.919983,83.935997,374.783997
894.015991,78.080002,368.928009
892.064026,78.080002,368.928009
890.112000,80.031998,368.928009
895.968018,85.888000,368.928009
886.208008,74.176003,366.976013
899.872009,78.080002,372.832001
892.064026,70.272003,366.976013
894.015991,74.176003,368.928009
892.064026,78.080002,380.640015
892.064026,80.031998,374.783997
894.015991,74.176003,376.735992
892.064026,74.176003,370.880005
894.015991,72.223999,380.640015
894.015991,66.367996,380.640015
903.776001,78.080002,374.783997
899.872009,70.272003,374.783997
892.064026,83.935997,366.976013
886.208008,74.176003,372.832001
899.872009,78.080002,374.783997
895.968018,74.176003,380.640015
899.872009,83.935997,368.928009
901.823975,74.176003,374.783997
905.728027,66.367996,372.832001
903.776001,80.031998,380.640015
905.728027,76.127998,380.640015
915.487976,74.176003,384.544006
907.679993,64.416000,376.735992
915.487976,80.031998,368.928009
909.632019,66.367996,382.592010
915.487976,76.127998,378.687988
923.296021,83.935997,384.544006
915.487976,66.367996,384.544006
923.296021,87.839996,384.544006
913.536011,85.888000,382.592010
915.487976,80.031998,380.640015
917.440002,85.888000,382.592010
921.343994,80.031998,374.783997
921.343994,78.080002,384.544006
917.440002,80.031998,376.735992
921.343994,83.935997,390.399994
915.487976,81.984001,374.783997
915.487976,87.839996,372.832001
917.440002,81.984001,368.928009
919.392029,81.984001,374.783997
913.536011,80.031998,376.735992
917.440002,76.127998,378.687988
919.392029,76.127998,378.687988
919.392029,85.888000,380.640015
911.583984,85.888000,382.592010
909.632019,91.744003,380.640015
913.536011,83.935997,380.640015
915.487976,81.984001,370.880005
913.536011,85.888000,374.783997
907.679993,91.744003,374.783997
911.583984,91.744003,378.687988
905.728027,93.695999,384.544006
907.679993,95.648003,370.880005
901.823975,85.888000,366.976013
897.919983,85.888000,376.735992
901.823975,87.839996,370.880005
901.823975,85.888000,366.976013
911.583984,85.888000,368.928009
897.919983,83.935997,366.976013
890.112000,89.792000,368.928009
897.919983,87.839996,366.976013
890.112000,83.935997,372.832001
895.968018,81.984001,366.976013
886.208008,81.984001,366.976013
899.872009,78.080002,372.832001
886.208008,81.984001,374.783997
890.112000,91.744003,374.783997
890.112000,78.080002,376.735992
884.255981,91.744003,368.928009
882.304016,91.744003,372.832001
884.255981,81.984001,368.928009
884.255981,93.695999,363.071991
880.351990,93.695999,365.023987
874.495972,89.792000,361.119995
884.255981,87.839996,370.880005
870.591980,95.648003,372.832001
876.447998,95.648003,370.880005
878.400024,95.648003,366.976013
880.351990,95.648003,361.119995
880.351990,89.792000,363.071991
874.495972,95.648003,363.071991
878.400024,89.792000,368.928009
880.351990,87.839996,363.071991
876.447998,87.839996,368.928009
884.255981,81.984001,368.928009
872.544006,87.839996,359.167999
884.255981,91.744003,368.928009
878.400024,80.031998,363.071991
884.255981,91.744003,368.928009
876.447998,83.935997,372.832001
878.400024,93.695999,370.880005
884.255981,81.984001,372.832001
888.159973,93.695999,380.640015
884.255981,93.695999,368.928009
892.064026,101.503998,372.832001
884.255981,91.744003,361.119995
884.255981,95.648003,380.640015
886.208008,101.503998,372.832001
876.447998,89.792000,372.832001
878.400024,95.648003,370.880005
880.351990,89.792000,374.783997
880.351990,89.792000,368.928009
884.255981,93.695999,368.928009
884.255981,87.839996,376.735992
890.112000,85.888000,370.880005
890.112000,87.839996,363.071991
886.208008,93.695999,376.735992
888.159973,91.744003,380.640015
884.255981,93.695999,374.783997
895.968018,95.648003,378.687988
890.112000,85.888000,378.687988
890.112000,95.648003,376.735992
890.112000,93.695999,380.640015
899.872009,89.792000,388.447998
901.823975,93.695999,384.544006
903.776001,99.552002,388.447998
903.776001,91.744003,382.592010
905.728027,99.552002,384.544006
905.728027,107.360001,376.735992
903.776001,97.599998,374.783997
909.632019,97.599998,372.832001
909.632019,99.552002,380.640015
913.536011,95.648003,380.640015
913.536011,99.552002,372.832001
911.583984,97.599998,374.783997
915.487976,103.456001,378.687988
917.440002,101.503998,370.880005
909.632019,93.695999,372.832001
907.679993,107.360001,374.783997
915.487976,93.695999,372.832001
913.536011,87.839996,374.783997
913.536011,91.744003,382.592010
915.487976,101.503998,370.880005
919.392029,93.695999,380.640015
915.487976,103.456001,376.735992
911.583984,99.552002,372.832001
913.536011,97.599998,392.351990
913.536011,103.456001,378.687988
917.440002,107.360001,376.735992
913.536011,101.503998,370.880005
913.536011,107.360001,365.023987
913.536011,97.599998,363.071991
919.392029,103.456001,365.023987
919.392029,101.503998,370.880005
919.392029,93.695999,374.783997
917.440002,107.360001,378.687988
917.440002,107.360001,366.976013
911.583984,111.264000,370.880005
909.632019,113.216003,363.071991
911.583984,107.360001,366.976013
915.487976,113.216003,370.880005
909.632019,105.407997,355.264008
915.487976,111.264000,366.976013
915.487976,109.311996,365.023987
911.583984,111.264000,370.880005
913.536011,105.407997,368.928009
919.392029,93.695999,368.928009
929.151978,103.456001,366.976013
927.200012,101.503998,363.071991
917.440002,105.407997,372.832001
925.247986,105.407997,368.928009
917.440002,99.552002,366.976013
925.247986,111.264000,368.928009
931.104004,107.360001,363.071991
931.104004,107.360001,361.119995
925.247986,111.264000,366.976013
925.247986,111.264000,366.976013
929.151978,115.167999,370.880005
925.247986,111.264000,359.167999
925.247986,109.311996,370.880005
929.151978,109.311996,366.976013
935.007996,107.360001,363.071991
931.104004,105.407997,374.783997
931.104004,107.360001,374.783997
935.007996,111.264000,365.023987
938.911987,101.503998,368.928009
929.151978,115.167999,365.023987
942.815979,109.311996,368.928009
940.864014,115.167999,368.928009
938.911987,109.311996,366.976013
942.815979,113.216003,366.976013
946.719971,111.264000,368.928009
940.864014,119.071999,368.928009
933.056030,117.120003,376.735992
936.960022,113.216003,365.023987
942.815979,109.311996,374.783997
942.815979,101.503998,366.976013
944.768005,111.264000,368.928009
942.815979,115.167999,368.928009
938.911987,113.216003,363.071991
948.671997,101.503998,366.976013
936.960022,115.167999,363.071991
933.056030,111.264000,355.264008
950.624023,107.360001,365.023987
938.911987,95.648003,365.023987
933.056030,103.456001,363.071991
940.864014,103.456001,361.119995
942.815979,97.599998,368.928009
946.719971,93.695999,368.928009
938.911987,95.648003,365.023987
935.007996,93.695999,361.119995
942.815979,91.744003,357.216003
936.960022,89.792000,366.976013
929.151978,87.839996,357.216003
938.911987,85.888000,363.071991
942.815979,89.792000,365.023987
933.056030,80.031998,361.119995
935.007996,81.984001,353.312012
938.911987,80.031998,355.264008
935.007996,74.176003,359.167999
938.911987,76.127998,355.264008
944.768005,66.367996,361.119995
942.815979,62.464001,355.264008
933.056030,62.464001,353.312012
938.911987,56.608002,357.216003
936.960022,52.703999,353.312012
942.815979,58.560001,357.216003
942.815979,54.655998,355.264008
933.056030,50.751999,357.216003
931.104004,50.751999,355.264008
933.056030,50.751999,365.023987
931.104004,50.751999,357.216003
942.815979,54.655998,361.119995
929.151978,48.799999,361.119995
936.960022,46.848000,361.119995
933.056030,35.136002,366.976013
938.911987,33.183998,365.023987
931.104004,40.992001,363.071991
933.056030,50.751999,361.119995
927.200012,40.992001,361.119995
933.056030,39.040001,361.119995
935.007996,50.751999,365.023987
923.296021,39.040001,368.928009
929.151978,23.424000,366.976013
931.104004,37.088001,359.167999
921.343994,27.327999,359.167999
931.104004,19.520000,359.167999
931.104004,19.520000,366.976013
929.151978,27.327999,372.832001
923.296021,33.183998,374.783997
929.151978,21.472000,378.687988
936.960022,15.616000,374.783997
923.296021,21.472000,374.783997
919.392029,21.472000,384.544006
923.296021,17.568001,376.735992
919.392029,25.375999,372.832001
913.536011,17.568001,376.735992
913.536011,19.520000,368.928009
915.487976,21.472000,384.544006
917.440002,19.520000,376.735992
913.536011,27.327999,380.640015
909.632019,27.327999,370.880005
909.632019,31.232000,374.783997
905.728027,27.327999,363.071991
897.919983,37.088001,374.783997
907.679993,35.136002,370.880005
897.919983,35.136002,366.976013
890.112000,42.944000,355.264008
897.919983,48.799999,361.119995
907.679993,39.040001,361.119995
897.919983,44.896000,361.119995
895.968018,37.088001,361.119995
899.872009,40.992001,361.119995
895.968018,44.896000,357.216003
897.919983,44.896000,361.119995
890.112000,44.896000,355.264008
888.159973,46.848000,357.216003
882.304016,48.799999,357.216003
886.208008,52.703999,351.359985
882.304016,52.703999,351.359985
892.064026,62.464001,349.407990
888.159973,72.223999,353.312012
880.351990,58.560001,357.216003
872.544006,60.512001,357.216003
878.400024,74.176003,353.312012
870.591980,70.272003,351.359985
872.544006,78.080002,343.552002
884.255981,70.272003,345.503998
878.400024,68.320000,343.552002
874.495972,80.031998,347.455994
876.447998,83.935997,335.743988
878.400024,85.888000,331.839996
882.304016,93.695999,349.407990
878.400024,81.984001,337.696014
882.304016,76.127998,335.743988
882.304016,89.792000,337.696014
876.447998,99.552002,339.648010
876.447998,97.599998,341.600006
888.159973,91.744003,345.503998
878.400024,93.695999,335.743988
890.112000,107.360001,333.791992
905.728027,93.695999,331.839996
913.536011,95.648003,325.984009
909.632019,121.024002,329.888000
915.487976,121.024002,324.032013
907.679993,111.264000,320.127991
888.159973,121.024002,318.175995
892.064026,148.352005,312.320007
892.064026,162.016006,312.320007
876.447998,124.928001,318.175995
880.351990,121.024002,306.463989
884.255981,148.352005,306.463989
890.112000,146.399994,292.799988
897.919983,113.216003,294.752014
901.823975,122.975998,302.559998
905.728027,130.783997,304.511993
901.823975,132.735992,296.704010
894.015991,122.975998,302.559998
892.064026,128.832001,308.415985
899.872009,146.399994,306.463989
895.968018,158.112000,310.368011
901.823975,148.352005,304.511993
905.728027,146.399994,314.272003
913.536011,144.447998,308.415985
911.583984,163.968002,304.511993
913.536011,156.160004,314.272003
923.296021,136.639999,310.368011
931.104004,144.447998,300.608002
927.200012,160.063995,292.799988
935.007996,158.112000,298.656006
935.007996,146.399994,300.608002
927.200012,148.352005,296.704010
931.104004,152.255997,294.752014
936.960022,154.207993,294.752014
938.911987,146.399994,292.799988
935.007996,156.160004,290.847992
940.864014,156.160004,286.944000
940.864014,146.399994,284.992004
944.768005,142.496002,283.040009
956.479980,146.399994,288.895996
956.479980,154.207993,294.752014
962.335999,148.352005,292.799988
956.479980,152.255997,300.608002
962.335999,165.919998,306.463989
958.432007,158.112000,302.559998
954.528015,163.968002,304.511993
958.432007,179.584000,302.559998
956.479980,179.584000,298.656006
956.479980,181.535995,302.559998
960.383972,185.440002,296.704010
966.239990,185.440002,294.752014
960.383972,175.679993,296.704010
962.335999,181.535995,292.799988
966.239990,167.871994,281.088013
966.239990,165.919998,288.895996
962.335999,162.016006,290.847992
960.383972,167.871994,292.799988
962.335999,162.016006,288.895996
956.479980,154.207993,294.752014
962.335999,150.304001,294.752014
977.952026,148.352005,294.752014
964.288025,142.496002,288.895996
974.047974,144.447998,290.847992
977.952026,128.832001,292.799988
987.711975,119.071999,298.656006
993.567993,83.935997,294.752014
985.760010,62.464001,290.847992
958.432007,126.879997,296.704010
956.479980,294.752014,296.704010
956.479980,273.279999,302.559998
964.288025,97.599998,306.463989
977.952026,68.320000,316.223999
993.567993,158.112000,318.175995
968.192017,193.248001,316.223999
964.288025,162.016006,316.223999
972.096008,140.544006,325.984009
966.239990,144.447998,320.127991
977.952026,140.544006,322.079987
976.000000,146.399994,320.127991
976.000000,146.399994,327.936005
979.903992,126.879997,331.839996
977.952026,113.216003,337.696014
979.903992,101.503998,339.648010
979.903992,113.216003,351.359985
977.952026,107.360001,353.312012
993.567993,91.744003,353.312012
983.807983,83.935997,347.455994
983.807983,81.984001,351.359985
972.096008,91.744003,349.407990
970.143982,91.744003,345.503998
968.192017,78.080002,337.696014
972.096008,83.935997,335.743988
966.239990,91.744003,335.743988
966.239990,78.080002,337.696014
956.479980,78.080002,343.552002
964.288025,87.839996,353.312012
974.047974,81.984001,366.976013
960.383972,85.888000,366.976013
972.096008,91.744003,372.832001
972.096008,87.839996,374.783997
983.807983,91.744003,390.399994
987.711975,85.888000,396.256012
997.471985,81.984001,396.256012
993.567993,72.223999,406.015991
993.567993,76.127998,404.063995
995.520020,66.367996,402.112000
997.471985,62.464001,415.776001
997.471985,56.608002,409.920013
993.567993,60.512001,407.967987
1001.375977,60.512001,396.256012
995.520020,58.560001,407.967987
1003.328003,56.608002,406.015991
995.520020,46.848000,402.112000
989.664001,50.751999,406.015991
997.471985,56.608002,398.208008
995.520020,56.608002,409.920013
1001.375977,60.512001,406.015991
997.471985,64.416000,398.208008
993.567993,64.416000,406.015991
997.471985,62.464001,415.776001
1003.328003,68.320000,423.584015
1001.375977,70.272003,417.727997
1011.135986,58.560001,425.536011
1007.231995,70.272003,421.631989
1003.328003,68.320000,413.824005
1001.375977,68.320000,421.631989
1003.328003,66.367996,411.872009
1001.375977,62.464001,413.824005
993.567993,72.223999,406.015991
995.520020,62.464001,413.824005
993.567993,74.176003,423.584015
993.567993,70.272003,415.776001
989.664001,64.416000,398.208008
987.711975,70.272003,398.208008
989.664001,64.416000,402.112000
993.567993,66.367996,394.303986
981.856018,66.367996,390.399994
979.903992,58.560001,392.351990
972.096008,80.031998,382.592010
977.952026,66.367996,378.687988
974.047974,76.127998,370.880005
966.239990,81.984001,366.976013
958.432007,91.744003,353.312012
954.528015,87.839996,343.552002
958.432007,89.792000,339.648010
962.335999,89.792000,333.791992
966.239990,91.744003,333.791992
948.671997,95.648003,331.839996
948.671997,91.744003,324.032013
950.624023,97.599998,316.223999
946.719971,109.311996,322.079987
936.960022,107.360001,310.368011
936.960022,107.360001,306.463989
933.056030,103.456001,298.656006
923.296021,107.360001,308.415985
925.247986,101.503998,296.704010
929.151978,105.407997,286.944000
929.151978,101.503998,286.944000
931.104004,97.599998,275.231995
933.056030,103.456001,275.231995
931.104004,91.744003,265.471985
936.960022,95.648003,269.376007
933.056030,97.599998,279.135986
933.056030,109.311996,271.328003
929.151978,109.311996,275.231995
927.200012,117.120003,279.135986
929.151978,115.167999,279.135986
938.911987,121.024002,283.040009
940.864014,130.783997,267.424011
950.624023,130.783997,275.231995
950.624023,169.824005,286.944000
950.624023,195.199997,296.704010
948.671997,203.007996,300.608002
940.864014,201.056000,304.511993
931.104004,197.151993,312.320007
931.104004,191.296005,312.320007
921.343994,177.632004,318.175995
931.104004,152.255997,329.888000
923.296021,134.688004,316.223999
929.151978,99.552002,325.984009
938.911987,74.176003,325.984009
925.247986,52.703999,320.127991
933.056030,37.088001,320.127991
921.343994,15.616000,327.936005
921.343994,5.856000,329.888000
915.487976,-3.904000,325.984009
911.583984,-5.856000,322.079987
907.679993,1.952000,314.272003
909.632019,-1.952000,300.608002
903.776001,7.808000,298.656006
911.583984,15.616000,279.135986
901.823975,23.424000,284.992004
911.583984,37.088001,281.088013
911.583984,40.992001,286.944000
919.392029,68.320000,279.135986
923.296021,76.127998,279.135986
915.487976,89.792000,279.135986
915.487976,91.744003,275.231995
907.679993,103.456001,265.471985
909.632019,115.167999,284.992004
905.728027,126.879997,273.279999
909.632019,117.120003,275.231995
901.823975,126.879997,273.279999
897.919983,121.024002,273.279999
895.968018,97.599998,275.231995
899.872009,83.935997,267.424011
905.728027,76.127998,275.231995
911.583984,74.176003,279.135986
909.632019,68.320000,294.752014
919.392029,60.512001,286.944000
938.911987,58.560001,296.704010
936.960022,64.416000,304.511993
935.007996,72.223999,318.175995
927.200012,72.223999,320.127991
929.151978,80.031998,327.936005
931.104004,89.792000,327.936005
929.151978,93.695999,347.455994
923.296021,95.648003,357.216003
935.007996,93.695999,359.167999
933.056030,83.935997,359.167999
940.864014,74.176003,355.264008
944.768005,78.080002,368.928009
944.768005,68.320000,365.023987
954.528015,62.464001,368.928009
952.575989,54.655998,372.832001
948.671997,44.896000,368.928009
944.768005,40.992001,366.976013
944.768005,31.232000,363.071991
948.671997,23.424000,363.071991
944.768005,27.327999,361.119995
946.719971,25.375999,361.119995
956.479980,33.183998,357.216003
974.047974,19.520000,359.167999
966.239990,15.616000,372.832001
970.143982,27.327999,366.976013
977.952026,19.520000,366.976013
985.760010,23.424000,366.976013
989.664001,35.136002,378.687988
987.711975,42.944000,384.544006
987.711975,54.655998,382.592010
995.520020,60.512001,384.544006
991.616028,68.320000,394.303986
993.567993,78.080002,394.303986
1005.280029,78.080002,388.447998
1005.280029,80.031998,396.256012
1003.328003,78.080002,386.496002
1007.231995,91.744003,388.447998
1007.231995,83.935997,386.496002
1009.184021,78.080002,384.544006
1007.231995,78.080002,382.592010
1020.895996,76.127998,388.447998
1020.895996,56.608002,378.687988
1007.231995,58.560001,386.496002
1016.992004,52.703999,384.544006
1016.992004,52.703999,378.687988
1007.231995,54.655998,382.592010
1007.231995,54.655998,392.351990
1009.184021,56.608002,392.351990
1024.800049,52.703999,400.160004
1024.800049,44.896000,404.063995
1020.895996,52.703999,398.208008
1022.848022,60.512001,398.208008
1022.848022,58.560001,404.063995
1024.800049,66.367996,406.015991
1020.895996,66.367996,402.112000
1022.848022,66.367996,406.015991
1028.703979,70.272003,407.967987
1024.800049,74.176003,406.015991
1018.943970,74.176003,411.872009
1015.039978,70.272003,392.351990
1020.895996,68.320000,392.351990
1018.943970,68.320000,398.208008
1013.088013,66.367996,390.399994
1020.895996,58.560001,396.256012
1011.135986,58.560001,388.447998
1011.135986,64.416000,388.447998
1013.088013,58.560001,380.640015
1009.184021,54.655998,368.928009
995.520020,52.703999,376.735992
1005.280029,42.944000,370.880005
1003.328003,48.799999,363.071991
991.616028,48.799999,355.264008
1001.375977,46.848000,357.216003
1003.328003,52.703999,345.503998
997.471985,44.896000,341.600006
991.616028,46.848000,349.407990
993.567993,44.896000,337.696014
989.664001,42.944000,339.648010
987.711975,44.896000,337.696014
993.567993,46.848000,335.743988
979.903992,50.751999,333.791992
979.903992,52.703999,331.839996
974.047974,48.799999,335.743988
976.000000,52.703999,331.839996
970.143982,50.751999,329.888000
977.952026,60.512001,329.888000
977.952026,35.136002,333.791992
976.000000,33.183998,331.839996
970.143982,42.944000,329.888000
968.192017,29.280001,327.936005
970.143982,19.520000,337.696014
964.288025,27.327999,327.936005
962.335999,19.520000,335.743988
966.239990,19.520000,325.984009
970.143982,19.520000,327.936005
970.143982,17.568001,329.888000
966.239990,23.424000,337.696014
962.335999,29.280001,327.936005
964.288025,25.375999,333.791992
966.239990,25.375999,327.936005
968.192017,31.232000,327.936005
970.143982,40.992001,333.791992
968.192017,44.896000,341.600006
968.192017,37.088001,341.600006
956.479980,40.992001,337.696014
962.335999,35.136002,339.648010
960.383972,33.183998,341.600006
958.432007,40.992001,349.407990
954.528015,42.944000,343.552002
958.432007,31.232000,337.696014
952.575989,31.232000,349.407990
958.432007,35.136002,353.312012
962.335999,33.183998,337.696014
960.383972,35.136002,345.503998
962.335999,23.424000,341.600006
952.575989,29.280001,337.696014
958.432007,23.424000,335.743988
948.671997,23.424000,324.032013
956.479980,27.327999,331.839996
952.575989,23.424000,335.743988
962.335999,19.520000,327.936005
944.768005,23.424000,325.984009
948.671997,27.327999,329.888000
952.575989,29.280001,324.032013
954.528015,27.327999,327.936005
956.479980,25.375999,322.079987
950.624023,33.183998,320.127991
942.815979,27.327999,327.936005
948.671997,29.280001,322.079987
946.719971,33.183998,324.032013
942.815979,31.232000,325.984009
944.768005,23.424000,320.127991
950.624023,15.616000,316.223999
950.624023,15.616000,316.223999
946.719971,15.616000,327.936005
948.671997,23.424000,331.839996
946.719971,15.616000,325.984009
940.864014,19.520000,324.032013
948.671997,33.183998,324.032013
944.768005,25.375999,324.032013
954.528015,23.424000,312.320007
956.479980,31.232000,322.079987
952.575989,33.183998,318.175995
950.624023,31.232000,312.320007
989.664001,44.896000,316.223999
1009.184021,33.183998,312.320007
987.711975,126.879997,304.511993
966.239990,185.440002,325.984009
942.815979,154.207993,322.079987
923.296021,163.968002,318.175995
894.015991,244.000000,306.463989
899.872009,210.815994,300.608002
897.919983,115.167999,288.895996
894.015991,101.503998,284.992004
909.632019,115.167999,275.231995
935.007996,31.232000,245.951996
946.719971,-33.183998,238.143997
942.815979,-3.904000,214.720001
935.007996,0.000000,216.671997
925.247986,-62.464001,214.720001
911.583984,-58.560001,212.768005
897.919983,-15.616000,212.768005
890.112000,-17.568001,222.528000
901.823975,-40.992001,220.576004
915.487976,-19.520000,230.335999
931.104004,0.000000,242.048004
946.719971,0.000000,257.664001
954.528015,7.808000,271.328003
952.575989,39.040001,281.088013
960.383972,39.040001,294.752014
970.143982,62.464001,310.368011
977.952026,99.552002,312.320007
979.903992,126.879997,325.984009
993.567993,126.879997,335.743988
993.567993,154.207993,337.696014
995.520020,171.776001,343.552002
1007.231995,165.919998,347.455994
1007.231995,148.352005,351.359985
1007.231995,146.399994,361.119995
1007.231995,144.447998,349.407990
1003.328003,113.216003,345.503998
1009.184021,85.888000,343.552002
1015.039978,99.552002,343.552002
1015.039978,91.744003,337.696014
1016.992004,66.367996,345.503998
1018.943970,54.655998,349.407990
1011.135986,58.560001,341.600006
1009.184021,60.512001,337.696014
1003.328003,56.608002,349.407990
1009.184021,60.512001,353.312012
1015.039978,74.176003,349.407990
1003.328003,83.935997,353.312012
1011.135986,95.648003,349.407990
1007.231995,103.456001,349.407990
1005.280029,113.216003,347.455994
995.520020,113.216003,351.359985
1009.184021,140.544006,347.455994
1007.231995,144.447998,347.455994
1009.184021,142.496002,349.407990
991.616028,138.591995,355.264008
1003.328003,144.447998,363.071991
995.520020,134.688004,361.119995
997.471985,124.928001,357.216003
999.424011,107.360001,357.216003
995.520020,99.552002,355.264008
995.520020,85.888000,347.455994
999.424011,70.272003,349.407990
991.616028,58.560001,347.455994
991.616028,54.655998,335.743988
1003.328003,46.848000,335.743988
995.520020,54.655998,333.791992
981.856018,46.848000,327.936005
983.807983,52.703999,335.743988
987.711975,68.320000,327.936005
987.711975,87.839996,324.032013
991.616028,101.503998,320.127991
979.903992,107.360001,314.272003
981.856018,115.167999,314.272003
981.856018,124.928001,306.463989
979.903992,130.783997,304.511993
979.903992,142.496002,316.223999
976.000000,144.447998,310.368011
981.856018,144.447998,308.415985
976.000000,138.591995,304.511993
977.952026,130.783997,314.272003
976.000000,124.928001,304.511993
977.952026,113.216003,306.463989
976.000000,103.456001,304.511993
972.096008,91.744003,306.463989
977.952026,81.984001,312.320007
974.047974,78.080002,308.415985
976.000000,74.176003,314.272003
981.856018,68.320000,306.463989
972.096008,76.127998,296.704010
966.239990,72.223999,300.608002
974.047974,80.031998,302.559998
974.047974,81.984001,296.704010
972.096008,83.935997,304.511993
977.952026,93.695999,306.463989
972.096008,103.456001,304.511993
981.856018,122.975998,298.656006
1028.703979,128.832001,302.559998
1003.328003,140.544006,298.656006
995.520020,228.384003,306.463989
970.143982,244.000000,304.511993
952.575989,203.007996,304.511993
946.719971,238.143997,312.320007
931.104004,271.328003,306.463989
940.864014,199.104004,296.704010
946.719971,132.735992,294.752014
956.479980,134.688004,294.752014
966.239990,121.024002,277.183990
976.000000,44.896000,271.328003
981.856018,9.760000,271.328003
983.807983,25.375999,255.712006
970.143982,29.280001,249.856003
966.239990,-9.760000,259.615997
958.432007,-15.616000,255.712006
938.911987,17.568001,253.759995
936.960022,37.088001,255.712006
935.007996,17.568001,255.712006
931.104004,39.040001,253.759995
946.719971,52.703999,259.615997
952.575989,46.848000,257.664001
966.239990,56.608002,263.519989
964.288025,74.176003,269.376007
972.096008,89.792000,277.183990
979.903992,105.407997,286.944000
972.096008,132.735992,288.895996
976.000000,158.112000,298.656006
964.288025,152.255997,310.368011
970.143982,165.919998,312.320007
966.239990,181.535995,316.223999
960.383972,156.160004,320.127991
970.143982,144.447998,333.791992
977.952026,128.832001,333.791992
979.903992,105.407997,339.648010
977.952026,81.984001,339.648010
983.807983,54.655998,331.839996
989.664001,52.703999,327.936005
977.952026,46.848000,333.791992
972.096008,33.183998,325.984009
962.335999,25.375999,325.984009
956.479980,42.944000,320.127991
966.239990,35.136002,318.175995
952.575989,44.896000,318.175995
956.479980,56.608002,316.223999
950.624023,62.464001,310.368011
952.575989,60.512001,306.463989
948.671997,70.272003,308.415985
956.479980,80.031998,304.511993
948.671997,91.744003,300.608002
950.624023,97.599998,294.752014
952.575989,91.744003,294.752014
956.479980,97.599998,294.752014
948.671997,95.648003,288.895996
948.671997,95.648003,286.944000
946.719971,97.599998,290.847992
944.768005,83.935997,292.799988
942.815979,83.935997,290.847992
946.719971,72.223999,284.992004
958.432007,56.608002,283.040009
942.815979,42.944000,284.992004
942.815979,44.896000,283.040009
950.624023,33.183998,281.088013
938.911987,29.280001,286.944000
946.719971,31.232000,281.088013
950.624023,31.232000,281.088013
942.815979,50.751999,283.040009
931.104004,56.608002,284.992004
933.056030,64.416000,283.040009
931.104004,74.176003,275.231995
931.104004,99.552002,283.040009
931.104004,109.311996,273.279999
929.151978,91.744003,273.279999
927.200012,105.407997,269.376007
919.392029,109.311996,271.328003
923.296021,107.360001,275.231995
931.104004,97.599998,273.279999
921.343994,95.648003,271.328003
931.104004,103.456001,275.231995
935.007996,81.984001,265.471985
929.151978,80.031998,267.424011
970.143982,76.127998,265.471985
972.096008,72.223999,273.279999
946.719971,140.544006,275.231995
921.343994,181.535995,279.135986
909.632019,132.735992,281.088013
892.064026,165.919998,273.279999
868.640015,236.192001,277.183990
882.304016,171.776001,271.328003
882.304016,105.407997,263.519989
886.208008,128.832001,249.856003
909.632019,148.352005,238.143997
929.151978,76.127998,226.432007
929.151978,23.424000,216.671997
936.960022,91.744003,210.815994
929.151978,101.503998,210.815994
911.583984,33.183998,216.671997
903.776001,50.751999,214.720001
892.064026,101.503998,220.576004
892.064026,81.984001,218.623993
901.823975,39.040001,232.287994
903.776001,54.655998,226.432007
909.632019,87.839996,236.192001
915.487976,56.608002,242.048004
925.247986,40.992001,244.000000
929.151978,72.223999,253.759995
927.200012,64.416000,259.615997
925.247986,60.512001,265.471985
931.104004,95.648003,273.279999
942.815979,107.360001,275.231995
933.056030,83.935997,273.279999
935.007996,105.407997,271.328003
944.768005,128.832001,269.376007
946.719971,115.167999,275.231995
942.815979,107.360001,286.944000
942.815979,121.024002,271.328003
944.768005,142.496002,283.040009
944.768005,105.407997,279.135986
946.719971,93.695999,281.088013
954.528015,113.216003,273.279999
948.671997,111.264000,277.183990
946.719971,91.744003,281.088013
940.864014,76.127998,286.944000
946.719971,87.839996,277.183990
946.719971,83.935997,275.231995
946.719971,60.512001,283.040009
944.768005,74.176003,290.847992
946.719971,72.223999,290.847992
944.768005,66.367996,292.799988
950.624023,64.416000,302.559998
948.671997,76.127998,310.368011
954.528015,68.320000,312.320007
944.768005,74.176003,316.223999
954.528015,83.935997,324.032013
966.239990,87.839996,333.791992
956.479980,78.080002,343.552002
956.479980,85.888000,331.839996
962.335999,93.695999,345.503998
962.335999,97.599998,339.648010
960.383972,91.744003,343.552002
966.239990,85.888000,349.407990
970.143982,83.935997,343.552002
972.096008,72.223999,365.023987
968.192017,70.272003,357.216003
966.239990,74.176003,349.407990
972.096008,64.416000,347.455994
970.143982,64.416000,347.455994
972.096008,58.560001,347.455994
972.096008,50.751999,349.407990
970.143982,50.751999,349.407990
964.288025,50.751999,345.503998
970.143982,66.367996,333.791992
958.432007,54.655998,335.743988
964.288025,54.655998,333.791992
960.383972,64.416000,333.791992
956.479980,62.464001,325.984009
954.528015,74.176003,327.936005
958.432007,76.127998,324.032013
962.335999,80.031998,318.175995
948.671997,70.272003,322.079987
944.768005,78.080002,320.127991
954.528015,78.080002,318.175995
946.719971,72.223999,316.223999
950.624023,70.272003,306.463989
936.960022,76.127998,310.368011
935.007996,78.080002,312.320007
936.960022,85.888000,314.272003
940.864014,66.367996,314.272003
940.864014,68.320000,308.415985
929.151978,76.127998,306.463989
925.247986,56.608002,302.559998
938.911987,56.608002,298.656006
936.960022,68.320000,296.704010
929.151978,66.367996,306.463989
938.911987,62.464001,298.656006
935.007996,62.464001,298.656006
929.151978,70.272003,300.608002
921.343994,62.464001,300.608002
925.247986,58.560001,296.704010
921.343994,62.464001,310.368011
925.247986,76.127998,304.511993
931.104004,72.223999,300.608002
923.296021,74.176003,308.415985
923.296021,80.031998,302.559998
927.200012,70.272003,300.608002
923.296021,72.223999,306.463989
921.343994,76.127998,294.752014
927.200012,66.367996,296.704010
921.343994,74.176003,300.608002
921.343994,62.464001,306.463989
919.392029,74.176003,304.511993
929.151978,66.367996,304.511993
921.343994,58.560001,306.463989
925.247986,70.272003,312.320007
923.296021,68.320000,304.511993
927.200012,58.560001,310.368011
913.536011,62.464001,304.511993
919.392029,68.320000,304.511993
913.536011,60.512001,300.608002
917.440002,50.751999,304.511993
915.487976,56.608002,308.415985
911.583984,70.272003,302.559998
925.247986,64.416000,296.704010
923.296021,68.320000,304.511993
923.296021,58.560001,298.656006
915.487976,66.367996,294.752014
919.392029,68.320000,296.704010
923.296021,62.464001,302.559998
925.247986,62.464001,302.559998
919.392029,64.416000,302.559998
927.200012,50.751999,308.415985
927.200012,58.560001,310.368011
915.487976,62.464001,310.368011
913.536011,68.320000,304.511993
915.487976,62.464001,306.463989
919.392029,56.608002,306.463989
915.487976,60.512001,308.415985
917.440002,64.416000,304.511993
915.487976,60.512001,306.463989
931.104004,52.703999,310.368011
929.151978,56.608002,304.511993
931.104004,62.464001,302.559998
921.343994,66.367996,296.704010
927.200012,66.367996,302.559998
925.247986,60.512001,302.559998
931.104004,58.560001,294.752014
938.911987,68.320000,298.656006
935.007996,72.223999,306.463989
933.056030,66.367996,304.511993
936.960022,66.367996,300.608002
936.960022,74.176003,300.608002
940.864014,85.888000,306.463989
933.056030,76.127998,306.463989
944.768005,83.935997,296.704010
942.815979,74.176003,304.511993
944.768005,81.984001,310.368011
944.768005,80.031998,302.559998
942.815979,78.080002,302.559998
944.768005,74.176003,304.511993
944.768005,70.272003,308.415985
942.815979,70.272003,314.272003
948.671997,70.272003,308.415985
944.768005,70.272003,304.511993
950.624023,76.127998,302.559998
954.528015,76.127998,302.559998
940.864014,74.176003,306.463989
950.624023,81.984001,308.415985
948.671997,76.127998,314.272003
952.575989,87.839996,306.463989
940.864014,89.792000,308.415985
958.432007,87.839996,300.608002
954.528015,91.744003,306.463989
958.432007,91.744003,302.559998
958.432007,105.407997,300.608002
989.664001,105.407997,300.608002
1015.039978,101.503998,302.559998
985.760010,152.255997,296.704010
946.719971,228.384003,308.415985
946.719971,185.440002,306.463989
917.440002,187.391998,316.223999
913.536011,271.328003,308.415985
913.536011,236.192001,294.752014
938.911987,140.544006,294.752014
938.911987,138.591995,292.799988
954.528015,162.016006,269.376007
956.479980,85.888000,261.567993
968.192017,29.280001,265.471985
976.000000,50.751999,259.615997
962.335999,76.127998,249.856003
954.528015,19.520000,255.712006
948.671997,3.904000,257.664001
931.104004,54.655998,275.231995
931.104004,70.272003,277.183990
931.104004,46.848000,275.231995
940.864014,62.464001,279.135986
948.671997,99.552002,281.088013
968.192017,111.264000,288.895996
974.047974,113.216003,300.608002
979.903992,138.591995,304.511993
989.664001,144.447998,314.272003
977.952026,146.399994,316.223999
987.711975,183.488007,322.079987
983.807983,199.104004,325.984009
997.471985,169.824005,333.791992
983.807983,171.776001,333.791992
991.616028,201.056000,331.839996
989.664001,173.727997,339.648010
997.471985,138.591995,333.791992
991.616028,134.688004,335.743988
987.711975,144.447998,327.936005
977.952026,119.071999,333.791992
974.047974,89.792000,324.032013
989.664001,81.984001,312.320007
979.903992,99.552002,316.223999
985.760010,74.176003,316.223999
983.807983,62.464001,306.463989
970.143982,81.984001,306.463989
964.288025,95.648003,304.511993
968.192017,101.503998,302.559998
962.335999,101.503998,304.511993
968.192017,124.928001,296.704010
968.192017,132.735992,298.656006
974.047974,138.591995,302.559998
970.143982,154.207993,300.608002
970.143982,156.160004,300.608002
976.000000,162.016006,300.608002
974.047974,175.679993,302.559998
976.000000,173.727997,300.608002
977.952026,158.112000,294.752014
970.143982,158.112000,300.608002
979.903992,160.063995,296.704010
968.192017,140.544006,296.704010
972.096008,113.216003,296.704010
976.000000,115.167999,288.895996
972.096008,109.311996,292.799988
981.856018,99.552002,290.847992
976.000000,85.888000,288.895996
977.952026,87.839996,286.944000
977.952026,87.839996,281.088013
979.903992,85.888000,286.944000
977.952026,95.648003,279.135986
972.096008,111.264000,288.895996
979.903992,117.120003,286.944000
970.143982,132.735992,288.895996
972.096008,136.639999,290.847992
979.903992,148.352005,292.799988
985.760010,160.063995,286.944000
993.567993,177.632004,281.088013
983.807983,177.632004,290.847992
985.760010,173.727997,284.992004
997.471985,177.632004,304.511993
993.567993,165.919998,308.415985
983.807983,160.063995,296.704010
1001.375977,158.112000,304.511993
995.520020,136.639999,300.608002
997.471985,126.879997,308.415985
1001.375977,109.311996,310.368011
997.471985,105.407997,306.463989
997.471985,103.456001,306.463989
1003.328003,107.360001,302.559998
1005.280029,101.503998,312.320007
997.471985,105.407997,308.415985
1003.328003,111.264000,306.463989
1005.280029,111.264000,314.272003
1009.184021,126.879997,306.463989
997.471985,136.639999,310.368011
1007.231995,140.544006,296.704010
1009.184021,150.304001,308.415985
1003.328003,162.016006,298.656006
1005.280029,169.824005,306.463989
1011.135986,169.824005,308.415985
1005.280029,167.871994,304.511993
1011.135986,169.824005,314.272003
1005.280029,163.968002,308.415985
1016.992004,165.919998,312.320007
1001.375977,158.112000,310.368011
995.520020,140.544006,310.368011
1005.280029,134.688004,306.463989
999.424011,128.832001,308.415985
1003.328003,113.216003,306.463989
1001.375977,113.216003,298.656006
997.471985,105.407997,300.608002
995.520020,111.264000,298.656006
987.711975,109.311996,306.463989
993.567993,119.071999,296.704010
993.567993,126.879997,296.704010
995.520020,130.783997,296.704010
983.807983,134.688004,290.847992
989.664001,140.544006,294.752014
983.807983,144.447998,294.752014
979.903992,158.112000,294.752014
974.047974,160.063995,298.656006
981.856018,160.063995,296.704010
976.000000,162.016006,284.992004
977.952026,148.352005,292.799988
972.096008,152.255997,284.992004
972.096008,138.591995,292.799988
968.192017,144.447998,294.752014
966.239990,128.832001,294.752014
974.047974,132.735992,302.559998
972.096008,122.975998,300.608002
968.192017,117.120003,298.656006
964.288025,109.311996,302.559998
964.288025,111.264000,292.799988
964.288025,111.264000,288.895996
958.432007,113.216003,302.559998
958.432007,111.264000,298.656006
958.432007,113.216003,288.895996
956.479980,117.120003,294.752014
966.239990,119.071999,292.799988
954.528015,122.975998,288.895996
952.575989,132.735992,288.895996
948.671997,134.688004,292.799988
950.624023,128.832001,286.944000
954.528015,136.639999,286.944000
940.864014,138.591995,286.944000
944.768005,132.735992,281.088013
948.671997,130.783997,284.992004
950.624023,124.928001,288.895996
942.815979,117.120003,294.752014
944.768005,122.975998,290.847992
940.864014,105.407997,288.895996
946.719971,101.503998,296.704010
950.624023,103.456001,292.799988
950.624023,91.744003,306.463989
946.719971,93.695999,300.608002
946.719971,91.744003,290.847992
942.815979,91.744003,290.847992
946.719971,93.695999,281.088013
936.960022,99.552002,296.704010
940.864014,93.695999,294.752014
933.056030,99.552002,292.799988
935.007996,91.744003,294.752014
933.056030,99.552002,288.895996
933.056030,111.264000,288.895996
927.200012,101.503998,286.944000
931.104004,105.407997,281.088013
933.056030,109.311996,283.040009
933.056030,99.552002,294.752014
940.864014,101.503998,298.656006
962.335999,103.456001,290.847992
985.760010,83.935997,286.944000
964.288025,122.975998,298.656006
952.575989,169.824005,292.799988
940.864014,156.160004,296.704010
927.200012,154.207993,304.511993
917.440002,175.679993,302.559998
921.343994,158.112000,288.895996
919.392029,107.360001,294.752014
919.392029,91.744003,290.847992
927.200012,87.839996,283.040009
931.104004,31.232000,279.135986
938.911987,-3.904000,271.328003
938.911987,23.424000,265.471985
938.911987,29.280001,257.664001
929.151978,-1.952000,269.376007
909.632019,3.904000,283.040009
905.728027,56.608002,273.279999
892.064026,68.320000,273.279999
909.632019,54.655998,273.279999
911.583984,83.935997,273.279999
917.440002,105.407997,284.992004
931.104004,101.503998,286.944000
929.151978,95.648003,281.088013
940.864014,119.071999,300.608002
929.151978,115.167999,304.511993
944.768005,105.407997,314.272003
936.960022,109.311996,310.368011
936.960022,101.503998,308.415985
940.864014,95.648003,310.368011
936.960022,109.311996,314.272003
929.151978,95.648003,316.223999
929.151978,81.984001,322.079987
931.104004,68.320000,316.223999
925.247986,72.223999,310.368011
919.392029,62.464001,304.511993
923.296021,33.183998,298.656006
917.440002,39.040001,284.992004
913.536011,42.944000,283.040009
915.487976,40.992001,279.135986
919.392029,31.232000,277.183990
911.583984,42.944000,281.088013
907.679993,66.367996,263.519989
907.679993,66.367996,265.471985
901.823975,64.416000,271.328003
907.679993,83.935997,273.279999
909.632019,93.695999,283.040009
905.728027,103.456001,281.088013
915.487976,97.599998,284.992004
921.343994,101.503998,294.752014
913.536011,103.456001,292.799988
913.536011,97.599998,300.608002
917.440002,95.648003,294.752014
925.247986,89.792000,302.559998
925.247986,85.888000,298.656006
929.151978,85.888000,304.511993
931.104004,76.127998,300.608002
933.056030,62.464001,298.656006
923.296021,50.751999,284.992004
935.007996,56.608002,279.135986
936.960022,42.944000,283.040009
933.056030,27.327999,277.183990
936.960022,27.327999,269.376007
936.960022,40.992001,275.231995
942.815979,48.799999,279.135986
942.815979,52.703999,275.231995
948.671997,68.320000,277.183990
936.960022,66.367996,277.183990
940.864014,78.080002,286.944000
944.768005,89.792000,281.088013
944.768005,101.503998,284.992004
958.432007,115.167999,284.992004
954.528015,115.167999,292.799988
960.383972,111.264000,288.895996
960.383972,101.503998,294.752014
952.575989,107.360001,296.704010
960.383972,99.552002,298.656006
964.288025,83.935997,304.511993
960.383972,68.320000,300.608002
960.383972,50.751999,296.704010
956.479980,60.512001,290.847992
956.479980,46.848000,298.656006
964.288025,39.040001,298.656006
960.383972,42.944000,298.656006
962.335999,52.703999,288.895996
958.432007,48.799999,294.752014
948.671997,52.703999,298.656006
946.719971,54.655998,288.895996
946.719971,64.416000,288.895996
946.719971,64.416000,286.944000
938.911987,80.031998,288.895996
946.719971,87.839996,284.992004
938.911987,89.792000,281.088013
946.719971,93.695999,281.088013
944.768005,103.456001,273.279999
940.864014,103.456001,279.135986
946.719971,93.695999,279.135986
940.864014,87.839996,286.944000
942.815979,83.935997,288.895996
936.960022,58.560001,286.944000
933.056030,66.367996,283.040009
936.960022,60.512001,296.704010
935.007996,60.512001,296.704010
933.056030,48.799999,288.895996
931.104004,46.848000,288.895996
929.151978,42.944000,292.799988
931.104004,50.751999,290.847992
931.104004,52.703999,281.088013
925.247986,56.608002,284.992004
925.247986,48.799999,283.040009
927.200012,58.560001,279.135986
927.200012,58.560001,279.135986
921.343994,68.320000,279.135986
931.104004,76.127998,269.376007
919.392029,78.080002,265.471985
921.343994,72.223999,265.471985
925.247986,81.984001,265.471985
921.343994,72.223999,271.328003
935.007996,62.464001,259.615997
923.296021,58.560001,275.231995
923.296021,66.367996,275.231995
921.343994,64.416000,273.279999
927.200012,52.703999,273.279999
925.247986,48.799999,283.040009
927.200012,42.944000,288.895996
927.200012,42.944000,294.752014
925.247986,48.799999,283.040009
935.007996,44.896000,281.088013
925.247986,42.944000,298.656006
927.200012,46.848000,292.799988
917.440002,46.848000,292.799988
915.487976,46.848000,290.847992
931.104004,52.703999,281.088013
929.151978,54.655998,283.040009
927.200012,62.464001,286.944000
929.151978,64.416000,281.088013
929.151978,64.416000,283.040009
927.200012,66.367996,273.279999
925.247986,72.223999,273.279999
923.296021,72.223999,283.040009
929.151978,58.560001,284.992004
929.151978,58.560001,283.040009
935.007996,60.512001,286.944000
931.104004,52.703999,281.088013
935.007996,52.703999,283.040009
925.247986,48.799999,290.847992
929.151978,44.896000,294.752014
940.864014,35.136002,290.847992
938.911987,48.799999,300.608002
935.007996,40.992001,281.088013
944.768005,35.136002,302.559998
946.719971,40.992001,294.752014
944.768005,42.944000,302.559998
950.624023,52.703999,298.656006
948.671997,54.655998,300.608002
958.432007,50.751999,300.608002
952.575989,54.655998,292.799988
946.719971,64.416000,294.752014
936.960022,64.416000,288.895996
942.815979,64.416000,298.656006
936.960022,60.512001,288.895996
942.815979,58.560001,292.799988
935.007996,56.608002,290.847992
946.719971,56.608002,281.088013
944.768005,64.416000,294.752014
944.768005,64.416000,286.944000
948.671997,64.416000,286.944000
944.768005,50.751999,283.040009
944.768005,52.703999,288.895996
933.056030,48.799999,292.799988
942.815979,50.751999,294.752014
950.624023,52.703999,288.895996
944.768005,60.512001,292.799988
942.815979,56.608002,296.704010
946.719971,52.703999,290.847992
944.768005,52.703999,292.799988
942.815979,56.608002,292.799988
936.960022,62.464001,292.799988
935.007996,68.320000,290.847992
938.911987,58.560001,284.992004
936.960022,52.703999,283.040009
933.056030,54.655998,283.040009
936.960022,56.608002,284.992004
940.864014,56.608002,279.135986
936.960022,54.655998,288.895996
938.911987,52.703999,277.183990
940.864014,60.512001,284.992004
938.911987,54.655998,286.944000
933.056030,52.703999,290.847992
938.911987,44.896000,286.944000
929.151978,52.703999,284.992004
940.864014,60.512001,288.895996
942.815979,50.751999,284.992004
936.960022,42.944000,284.992004
946.719971,56.608002,281.088013
929.151978,52.703999,292.799988
936.960022,50.751999,284.992004
936.960022,52.703999,286.944000
929.151978,54.655998,284.992004
936.960022,56.608002,290.847992
938.911987,52.703999,292.799988
938.911987,54.655998,290.847992
944.768005,64.416000,292.799988
936.960022,58.560001,294.752014
942.815979,60.512001,290.847992
936.960022,54.655998,286.944000
950.624023,58.560001,286.944000
938.911987,72.223999,286.944000
940.864014,64.416000,284.992004
946.719971,58.560001,281.088013
944.768005,58.560001,288.895996
944.768005,56.608002,288.895996
948.671997,60.512001,288.895996
954.528015,58.560001,288.895996
948.671997,52.703999,288.895996
956.479980,42.944000,290.847992
958.432007,40.992001,286.944000
952.575989,40.992001,292.799988
952.575989,39.040001,286.944000
954.528015,27.327999,292.799988
960.383972,37.088001,292.799988
960.383972,33.183998,284.992004
960.383972,31.232000,294.752014
972.096008,35.136002,290.847992
970.143982,27.327999,302.559998
964.288025,23.424000,296.704010
962.335999,29.280001,296.704010
972.096008,23.424000,302.559998
981.856018,15.616000,302.559998
981.856018,19.520000,300.608002
985.760010,15.616000,306.463989
987.711975,13.664000,300.608002
991.616028,3.904000,302.559998
995.520020,3.904000,308.415985
985.760010,15.616000,310.368011
987.711975,7.808000,300.608002
995.520020,5.856000,298.656006
995.520020,-3.904000,302.559998
993.567993,-11.712000,302.559998
1001.375977,-7.808000,304.511993
997.471985,-9.760000,310.368011
997.471985,-15.616000,306.463989
987.711975,-15.616000,306.463989
993.567993,-19.520000,300.608002
991.616028,-9.760000,302.559998
991.616028,-7.808000,310.368011
997.471985,-15.616000,312.320007
995.520020,-11.712000,298.656006
997.471985,-7.808000,304.511993
997.471985,-9.760000,300.608002
987.711975,3.904000,306.463989
987.711975,7.808000,304.511993
993.567993,3.904000,300.608002
989.664001,-7.808000,296.704010
987.711975,0.000000,302.559998
985.760010,1.952000,296.704010
981.856018,-5.856000,308.415985
977.952026,-11.712000,300.608002
985.760010,-11.712000,298.656006
972.096008,-13.664000,298.656006
976.000000,-3.904000,292.799988
977.952026,-15.616000,288.895996
974.047974,-13.664000,296.704010
966.239990,-5.856000,294.752014
962.335999,-15.616000,302.559998
962.335999,-17.568001,288.895996
962.335999,-11.712000,296.704010
958.432007,-9.760000,279.135986
960.383972,-13.664000,288.895996
962.335999,-1.952000,290.847992
962.335999,-1.952000,290.847992
964.288025,7.808000,290.847992
954.528015,-1.952000,284.992004
954.528015,-1.952000,290.847992
948.671997,0.000000,281.088013
956.479980,-3.904000,286.944000
950.624023,-1.952000,286.944000
950.624023,9.760000,288.895996
952.575989,-1.952000,281.088013
950.624023,0.000000,281.088013
944.768005,9.760000,279.135986
946.719971,0.000000,279.135986
942.815979,9.760000,281.088013
954.528015,9.760000,279.135986
948.671997,7.808000,283.040009
948.671997,11.712000,271.328003
946.719971,13.664000,271.328003
940.864014,9.760000,271.328003
933.056030,21.472000,269.376007
935.007996,15.616000,269.376007
933.056030,21.472000,277.183990
935.007996,27.327999,271.328003
940.864014,25.375999,257.664001
950.624023,37.088001,269.376007
948.671997,39.040001,279.135986
942.815979,39.040001,273.279999
944.768005,40.992001,273.279999
942.815979,40.992001,269.376007
944.768005,39.040001,273.279999
944.768005,39.040001,279.135986
948.671997,44.896000,283.040009
944.768005,42.944000,271.328003
946.719971,40.992001,271.328003
942.815979,39.040001,283.040009
950.624023,37.088001,281.088013
948.671997,42.944000,273.279999
942.815979,44.896000,283.040009
944.768005,48.799999,273.279999
944.768005,46.848000,273.279999
946.719971,48.799999,275.231995
942.815979,48.799999,273.279999
948.671997,46.848000,273.279999
954.528015,48.799999,283.040009
958.432007,58.560001,283.040009
958.432007,56.608002,275.231995
970.143982,54.655998,273.279999
960.383972,54.655998,271.328003
956.479980,62.464001,277.183990
960.383972,64.416000,273.279999
960.383972,62.464001,271.328003
962.335999,66.367996,275.231995
960.383972,66.367996,277.183990
970.143982,66.367996,275.231995
966.239990,72.223999,277.183990
962.335999,72.223999,279.135986
964.288025,72.223999,281.088013
956.479980,72.223999,283.040009
964.288025,72.223999,279.135986
962.335999,66.367996,279.135986
962.335999,78.080002,281.088013
966.239990,78.080002,281.088013
960.383972,80.031998,281.088013
962.335999,72.223999,277.183990
966.239990,78.080002,275.231995
966.239990,78.080002,275.231995
968.192017,80.031998,283.040009
962.335999,78.080002,279.135986
966.239990,76.127998,279.135986
968.192017,74.176003,279.135986
964.288025,78.080002,275.231995
956.479980,76.127998,284.992004
964.288025,83.935997,284.992004
960.383972,85.888000,283.040009
960.383972,83.935997,283.040009
960.383972,83.935997,277.183990
966.239990,78.080002,277.183990
960.383972,85.888000,273.279999
958.432007,83.935997,281.088013
960.383972,83.935997,273.279999
960.383972,81.984001,283.040009
966.239990,78.080002,281.088013
956.479980,78.080002,269.376007
964.288025,85.888000,273.279999
964.288025,83.935997,273.279999
966.239990,89.792000,273.279999
960.383972,95.648003,279.135986
966.239990,74.176003,279.135986
960.383972,80.031998,267.424011
964.288025,83.935997,277.183990
964.288025,81.984001,263.519989
960.383972,80.031998,269.376007
962.335999,81.984001,271.328003
966.239990,87.839996,271.328003
966.239990,78.080002,275.231995
958.432007,70.272003,269.376007
966.239990,72.223999,269.376007
962.335999,76.127998,269.376007
956.479980,76.127998,275.231995
966.239990,78.080002,269.376007
962.335999,76.127998,273.279999
968.192017,87.839996,273.279999
966.239990,76.127998,277.183990
966.239990,83.935997,275.231995
956.479980,80.031998,283.040009
962.335999,83.935997,269.376007
952.575989,87.839996,281.088013
960.383972,91.744003,273.279999
966.239990,91.744003,283.040009
948.671997,85.888000,275.231995
956.479980,91.744003,265.471985
960.383972,91.744003,279.135986
948.671997,91.744003,267.424011
962.335999,93.695999,265.471985
954.528015,93.695999,263.519989
954.528015,97.599998,255.712006
942.815979,91.744003,255.712006
954.528015,95.648003,263.519989
940.864014,93.695999,249.856003
946.719971,89.792000,255.712006
946.719971,97.599998,253.759995
944.768005,85.888000,257.664001
946.719971,89.792000,249.856003
940.864014,85.888000,255.712006
938.911987,91.744003,249.856003
942.815979,97.599998,249.856003
946.719971,93.695999,245.951996
938.911987,91.744003,245.951996
942.815979,93.695999,259.615997
946.719971,89.792000,247.904007
940.864014,95.648003,251.807999
948.671997,83.935997,257.664001
946.719971,93.695999,247.904007
936.960022,97.599998,244.000000
946.719971,93.695999,255.712006
933.056030,85.888000,247.904007
942.815979,99.552002,251.807999
946.719971,78.080002,253.759995
938.911987,87.839996,255.712006
940.864014,78.080002,259.615997
933.056030,74.176003,255.712006
940.864014,70.272003,253.759995
942.815979,80.031998,245.951996
938.911987,72.223999,261.567993
946.719971,80.031998,267.424011
948.671997,78.080002,261.567993
946.719971,70.272003,267.424011
950.624023,78.080002,271.328003
944.768005,74.176003,273.279999
948.671997,70.272003,273.279999
944.768005,80.031998,271.328003
940.864014,78.080002,265.471985
938.911987,70.272003,269.376007
936.960022,74.176003,267.424011
954.528015,68.320000,279.135986
946.719971,68.320000,273.279999
940.864014,66.367996,271.328003
938.911987,74.176003,275.231995
938.911987,64.416000,279.135986
935.007996,62.464001,265.471985
936.960022,62.464001,267.424011
935.007996,62.464001,271.328003
927.200012,68.320000,269.376007
931.104004,60.512001,265.471985
925.247986,64.416000,257.664001
919.392029,58.560001,263.519989
919.392029,76.127998,267.424011
923.296021,56.608002,259.615997
919.392029,58.560001,267.424011
917.440002,54.655998,257.664001
913.536011,54.655998,265.471985
915.487976,60.512001,275.231995
913.536011,50.751999,273.279999
919.392029,60.512001,275.231995
919.392029,56.608002,269.376007
927.200012,46.848000,273.279999
921.343994,58.560001,283.040009
927.200012,58.560001,279.135986
919.392029,62.464001,286.944000
915.487976,58.560001,281.088013
917.440002,50.751999,283.040009
919.392029,56.608002,275.231995
925.247986,50.751999,265.471985
911.583984,42.944000,277.183990
913.536011,42.944000,279.135986
911.583984,46.848000,273.279999
911.583984,42.944000,277.183990
917.440002,46.848000,283.040009
919.392029,52.703999,269.376007
923.296021,44.896000,273.279999
935.007996,42.944000,267.424011
931.104004,56.608002,267.424011
935.007996,62.464001,271.328003
921.343994,68.320000,277.183990
931.104004,72.223999,275.231995
911.583984,80.031998,273.279999
915.487976,81.984001,269.376007
925.247986,72.223999,271.328003
921.343994,66.367996,273.279999
917.440002,76.127998,277.183990
925.247986,66.367996,281.088013
927.200012,52.703999,279.135986
919.392029,64.416000,269.376007
917.440002,74.176003,273.279999
921.343994,62.464001,275.231995
919.392029,50.751999,267.424011
913.536011,66.367996,261.567993
915.487976,64.416000,253.759995
911.583984,52.703999,255.712006
909.632019,56.608002,247.904007
878.400024,60.512001,245.951996
870.591980,58.560001,242.048004
860.831970,40.992001,238.143997
847.168030,23.424000,226.432007
849.119995,27.327999,230.335999
856.927979,15.616000,230.335999
856.927979,15.616000,226.432007
862.783997,25.375999,228.384003
866.687988,17.568001,232.287994
880.351990,33.183998,238.143997
884.255981,56.608002,244.000000
880.351990,70.272003,247.904007
872.544006,66.367996,249.856003
874.495972,85.888000,263.519989
872.544006,93.695999,265.471985
884.255981,97.599998,271.328003
878.400024,74.176003,269.376007
886.208008,80.031998,279.135986
890.112000,80.031998,273.279999
897.919983,56.608002,273.279999
890.112000,35.136002,271.328003
895.968018,48.799999,269.376007
890.112000,33.183998,271.328003
886.208008,17.568001,273.279999
895.968018,15.616000,265.471985
911.583984,25.375999,259.615997
913.536011,23.424000,263.519989
917.440002,33.183998,263.519989
931.104004,37.088001,259.615997
915.487976,35.136002,257.664001
894.015991,44.896000,251.807999
882.304016,46.848000,261.567993
866.687988,25.375999,251.807999
868.640015,21.472000,244.000000
870.591980,21.472000,240.095993
880.351990,3.904000,247.904007
899.872009,-11.712000,234.240005
911.583984,-7.808000,236.192001
927.200012,23.424000,236.192001
917.440002,29.280001,236.192001
899.872009,17.568001,245.951996
862.783997,33.183998,253.759995
853.023987,29.280001,263.519989
841.312012,23.424000,265.471985
853.023987,15.616000,261.567993
868.640015,-11.712000,259.615997
880.351990,1.952000,267.424011
878.400024,-1.952000,267.424011
872.544006,-5.856000,259.615997
864.736023,-3.904000,273.279999
847.168030,-15.616000,261.567993
839.359985,-11.712000,263.519989
829.599976,1.952000,255.712006
833.504028,-15.616000,253.759995
831.552002,-19.520000,255.712006
851.072021,-3.904000,259.615997
862.783997,7.808000,251.807999
870.591980,3.904000,251.807999
870.591980,21.472000,242.048004
860.831970,23.424000,245.951996
854.976013,27.327999,255.712006
845.216003,23.424000,247.904007
839.359985,35.136002,247.904007
843.263977,37.088001,230.335999
841.312012,15.616000,216.671997
843.263977,21.472000,212.768005
864.736023,17.568001,204.960007
876.447998,7.808000,187.391998
882.304016,13.664000,183.488007
872.544006,15.616000,181.535995
864.736023,-1.952000,171.776001
876.447998,-23.424000,160.063995
878.400024,-15.616000,136.639999
895.968018,5.856000,122.975998
870.591980,-19.520000,111.264000
849.119995,-19.520000,97.599998
835.455994,7.808000,97.599998
810.080017,9.760000,83.935997
821.791992,-5.856000,87.839996
835.455994,0.000000,95.648003
862.783997,25.375999,105.407997
845.216003,37.088001,122.975998
851.072021,37.088001,128.832001
880.351990,29.280001,134.688004
886.208008,31.232000,142.496002
858.880005,83.935997,169.824005
853.023987,91.744003,175.679993
854.976013,33.183998,191.296005
884.255981,3.904000,189.343994
866.687988,74.176003,210.815994
872.544006,134.688004,224.479996
897.919983,48.799999,232.287994
915.487976,-7.808000,234.240005
876.447998,95.648003,245.951996
862.783997,146.399994,242.048004
870.591980,27.327999,245.951996
858.880005,-19.520000,249.856003
870.591980,76.127998,249.856003
882.304016,105.407997,232.287994
899.872009,29.280001,242.048004
903.776001,-5.856000,242.048004
907.679993,15.616000,244.000000
895.968018,72.223999,240.095993
905.728027,62.464001,247.904007
890.112000,23.424000,247.904007
884.255981,17.568001,234.240005
829.599976,85.888000,228.384003
835.455994,121.024002,216.671997
845.216003,42.944000,210.815994
856.927979,11.712000,195.199997
866.687988,97.599998,204.960007
892.064026,128.832001,201.056000
897.919983,52.703999,201.056000
894.015991,42.944000,206.912003
919.392029,121.024002,197.151993
919.392029,138.591995,201.056000
899.872009,113.216003,208.863998
886.208008,142.496002,214.720001
870.591980,162.016006,228.384003
833.504028,154.207993,236.192001
806.176025,144.447998,236.192001
819.840027,148.352005,232.287994
841.312012,103.456001,216.671997
849.119995,56.608002,203.007996
845.216003,64.416000,197.151993
854.976013,56.608002,195.199997
884.255981,19.520000,187.391998
892.064026,23.424000,183.488007
882.304016,50.751999,189.343994
868.640015,58.560001,191.296005
856.927979,62.464001,193.248001
829.599976,80.031998,181.535995
817.888000,109.311996,177.632004
806.176025,122.975998,177.632004
804.223999,109.311996,162.016006
819.840027,103.456001,154.207993
823.744019,83.935997,140.544006
835.455994,95.648003,126.879997
843.263977,95.648003,124.928001
853.023987,64.416000,115.167999
851.072021,64.416000,93.695999
851.072021,99.552002,74.176003
847.168030,107.360001,64.416000
845.216003,83.935997,58.560001
831.552002,93.695999,46.848000
825.695984,119.071999,50.751999
829.599976,103.456001,52.703999
843.263977,85.888000,40.992001
843.263977,87.839996,56.608002
833.504028,95.648003,64.416000
851.072021,81.984001,66.367996
853.023987,85.888000,78.080002
864.736023,95.648003,97.599998
868.640015,89.792000,105.407997
866.687988,89.792000,109.311996
870.591980,97.599998,126.879997
864.736023,111.264000,138.591995
868.640015,103.456001,154.207993
862.783997,91.744003,140.544006
880.351990,87.839996,146.399994
876.447998,89.792000,158.112000
888.159973,78.080002,173.727997
899.872009,66.367996,181.535995
901.823975,68.320000,201.056000
909.632019,64.416000,216.671997
915.487976,64.416000,218.623993
915.487976,66.367996,228.384003
911.583984,72.223999,228.384003
913.536011,74.176003,242.048004
909.632019,83.935997,259.615997
925.247986,78.080002,267.424011
931.104004,72.223999,275.231995
944.768005,72.223999,283.040009
946.719971,56.608002,277.183990
944.768005,76.127998,277.183990
940.864014,91.744003,283.040009
950.624023,93.695999,286.944000
952.575989,87.839996,288.895996
958.432007,87.839996,310.368011
960.383972,89.792000,312.320007
960.383972,81.984001,320.127991
974.047974,89.792000,327.936005
987.711975,87.839996,324.032013
1005.280029,80.031998,341.600006
1015.039978,80.031998,349.407990
1026.751953,64.416000,363.071991
1026.751953,76.127998,368.928009
1044.319946,80.031998,366.976013
1034.560059,76.127998,359.167999
1034.560059,72.223999,353.312012
1032.608032,66.367996,347.455994
1034.560059,56.608002,337.696014
1034.560059,54.655998,331.839996
1034.560059,56.608002,308.415985
1036.511963,46.848000,304.511993
1042.368042,35.136002,286.944000
1054.079956,35.136002,283.040009
1054.079956,31.232000,288.895996
1057.984009,39.040001,279.135986
1054.079956,62.464001,277.183990
1048.223999,76.127998,279.135986
1061.887939,85.888000,284.992004
1044.319946,85.888000,296.704010
1124.352051,87.839996,298.656006
1054.079956,117.120003,296.704010
1098.975952,152.255997,298.656006
1083.359985,138.591995,298.656006
1100.927979,124.928001,304.511993
1087.264038,175.679993,306.463989
1085.312012,189.343994,306.463989
1100.927979,158.112000,306.463989
1091.167969,163.968002,296.704010
1087.264038,185.440002,292.799988
1075.552002,160.063995,290.847992
995.520020,242.048004,347.455994
985.760010,286.944000,624.640015
972.096008,-189.343994,632.447998
1016.992004,-148.352005,366.976013
1077.504028,279.135986,138.591995
1120.447998,68.320000,66.367996
1093.119995,-146.399994,177.632004
1054.079956,-5.856000,363.071991
1001.375977,-68.320000,386.496002
1040.416016,-31.232000,261.567993
1057.984009,199.104004,160.063995
1061.887939,64.416000,154.207993
1075.552002,-52.703999,203.007996
1059.936035,119.071999,253.759995
1034.560059,144.447998,230.335999
1034.560059,66.367996,183.488007
1032.608032,173.727997,169.824005
1038.463989,189.343994,175.679993
1044.319946,74.176003,187.391998
1032.608032,156.160004,187.391998
1015.039978,189.343994,160.063995
1009.184021,121.024002,132.735992
1015.039978,134.688004,122.975998
1007.231995,134.688004,134.688004
1016.992004,78.080002,134.688004
1024.800049,95.648003,117.120003
1038.463989,109.311996,103.456001
1032.608032,70.272003,93.695999
1040.416016,109.311996,101.503998
1016.992004,124.928001,117.120003
1007.231995,76.127998,113.216003
1018.943970,91.744003,130.783997
1022.848022,124.928001,134.688004
1005.280029,111.264000,138.591995
1001.375977,76.127998,148.352005
977.952026,72.223999,163.968002
991.616028,109.311996,162.016006
1005.280029,101.503998,156.160004
995.520020,78.080002,148.352005
997.471985,85.888000,156.160004
999.424011,107.360001,160.063995
1005.280029,113.216003,177.632004
1022.848022,87.839996,179.584000
1024.800049,74.176003,183.488007
1018.943970,99.552002,179.584000
1013.088013,113.216003,183.488007
1007.231995,99.552002,197.151993
995.520020,83.935997,212.768005
995.520020,93.695999,216.671997
993.567993,109.311996,212.768005
983.807983,89.792000,210.815994
993.567993,87.839996,220.576004
985.760010,97.599998,216.671997
989.664001,85.888000,214.720001
981.856018,91.744003,193.248001
981.856018,93.695999,187.391998
977.952026,109.311996,171.776001
974.047974,107.360001,158.112000
962.335999,115.167999,144.447998
970.143982,138.591995,132.735992
960.383972,156.160004,126.879997
958.432007,163.968002,111.264000
956.479980,185.440002,89.792000
966.239990,216.671997,78.080002
958.432007,234.240005,62.464001
936.960022,245.951996,40.992001
936.960022,265.471985,29.280001
936.960022,271.328003,17.568001
919.392029,302.559998,3.904000
933.056030,281.088013,-3.904000
933.056030,210.815994,-27.327999
921.343994,212.768005,-54.655998
905.728027,292.799988,-56.608002
899.872009,322.079987,-72.223999
882.304016,288.895996,-81.984001
866.687988,-15.616000,-68.320000
917.440002,-540.703979,-62.464001
946.719971,-878.400024,-29.280001
962.335999,-761.280029,-5.856000
903.776001,-425.536011,-17.568001
882.304016,-52.703999,-42.944000
870.591980,204.960007,-74.176003
866.687988,269.376007,-111.264000
845.216003,113.216003,-146.399994
849.119995,-148.352005,-169.824005
868.640015,-372.832001,-181.535995
868.640015,-439.200012,-191.296005
866.687988,-429.440002,-206.912003
854.976013,-394.303986,-212.768005
868.640015,-302.559998,-220.576004
854.976013,-226.432007,-222.528000
841.312012,-177.632004,-228.384003
757.375977,-189.343994,-208.863998
876.447998,-216.671997,-171.776001
880.351990,-259.615997,-119.071999
962.335999,-193.248001,-91.744003
935.007996,-58.560001,-62.464001
1059.936035,-333.791992,-93.695999
1034.560059,-1596.735962,37.088001
1016.992004,-1715.807983,144.447998
964.288025,-251.807999,179.584000
962.335999,1253.183960,204.960007
1018.943970,1788.031982,220.576004
1042.368042,1663.104004,218.623993
974.047974,903.776001,234.240005
1028.703979,-366.976013,261.567993
1104.832031,-1315.647949,329.888000
1143.871948,-1229.760010,382.592010
1124.352051,-249.856003,345.503998
1071.647949,726.143982,273.279999
1059.936035,1120.447998,201.056000
1056.031982,917.440002,158.112000
1046.271973,298.656006,140.544006
1059.936035,-462.623993,113.216003
1077.504028,-993.567993,103.456001
1073.599976,-997.471985,101.503998
1069.696045,-562.176025,109.311996
1052.128052,-3.904000,74.176003
1024.800049,361.119995,40.992001
1020.895996,435.295990,27.327999
1001.375977,185.440002,35.136002
999.424011,-212.768005,31.232000
995.520020,-220.576004,68.320000
1013.088013,42.944000,126.879997
1032.608032,242.048004,201.056000
1042.368042,222.528000,230.335999
1059.936035,-68.320000,244.000000
1095.072021,-489.951996,247.904007
1130.208008,-732.000000,242.048004
1128.255981,-659.776001,230.335999
1085.312012,-353.312012,236.192001
1073.599976,23.424000,226.432007
1061.887939,236.192001,244.000000
1077.504028,54.655998,265.471985
1067.744019,-386.496002,329.888000
1075.552002,-614.880005,365.023987
1087.264038,-400.160004,398.208008
1108.735962,50.751999,413.824005
1120.447998,398.208008,413.824005
1134.112061,400.160004,415.776001
1153.631958,119.071999,394.303986
1177.056030,-136.639999,353.312012
1161.439941,-208.863998,322.079987
1143.871948,-74.176003,267.424011
1114.592041,189.343994,214.720001
1098.975952,394.303986,179.584000
1044.319946,396.256012,152.255997
1028.703979,189.343994,144.447998
1001.375977,-81.984001,132.735992
1013.088013,-251.807999,132.735992
1020.895996,-284.992004,126.879997
1013.088013,-189.343994,119.071999
997.471985,-115.167999,101.503998
970.143982,-126.879997,70.272003
964.288025,-230.335999,40.992001
962.335999,-308.415985,13.664000
948.671997,-320.127991,-3.904000
946.719971,-232.287994,-9.760000
925.247986,-121.024002,-3.904000
923.296021,-23.424000,-11.712000
909.632019,42.944000,-19.520000
897.919983,78.080002,-31.232000
882.304016,78.080002,-52.703999
880.351990,72.223999,-74.176003
853.023987,76.127998,-111.264000
841.312012,103.456001,-144.447998
812.031982,150.304001,-173.727997
788.607971,163.968002,-204.960007
774.943970,101.503998,-242.048004
761.280029,27.327999,-263.519989
755.424011,-50.751999,-302.559998
747.616028,-113.216003,-331.839996
728.096008,-171.776001,-357.216003
710.528015,-173.727997,-380.640015
691.007996,-134.688004,-429.440002
661.728027,-76.127998,-466.528015
634.400024,-54.655998,-511.424011
616.831970,-70.272003,-562.176025
589.504028,-72.223999,-601.216003
593.408020,9.760000,-636.351990
573.888000,197.151993,-622.687988
558.271973,380.640015,-609.023987
554.367981,388.447998,-585.599976
571.935974,163.968002,-566.080017
593.408020,-76.127998,-575.840027
609.023987,-232.287994,-591.455994
620.736023,-267.424011,-624.640015
616.831970,-294.752014,-644.159973
599.263977,-593.408020,-651.968018
560.223999,-901.823975,-640.255981
521.184021,-753.471985,-612.927979
509.471985,-80.031998,-593.408020
556.320007,653.919983,-599.263977
605.119995,997.471985,-607.072021
638.304016,894.015991,-634.400024
655.872009,530.943970,-671.487976
667.583984,167.871994,-718.335999
638.304016,21.472000,-780.799988
675.392029,216.671997,-817.888000
675.392029,552.416016,-892.064026
696.864014,792.512024,-944.768005
673.440002,732.000000,-1001.375977
644.159973,460.671997,-1095.072021
622.687988,60.512001,-1169.248047
636.351990,-400.160004,-1229.760010
622.687988,-616.831970,-1243.423950
589.504028,-37.088001,-1173.151978
491.903992,776.895996,-1073.599976
503.615997,1177.056030,-1005.280029
577.791992,718.335999,-1001.375977
644.159973,-511.424011,-1024.800049
694.911987,-2018.368042,-1005.280029
702.719971,-2541.503906,-1038.463989
634.400024,-1891.488037,-1073.599976
618.783997,-486.048004,-1071.647949
616.831970,853.023987,-1089.215942
591.455994,1493.280029,-1098.975952
735.903992,1571.359985,-1106.784058
991.616028,1608.447998,-1139.968018
1155.583984,2039.839966,-1290.271973
1009.184021,1973.472046,-1097.024048
802.271973,437.247986,-917.440002
614.880005,-1553.791992,-856.927979
786.656006,-2812.832031,-782.752014
970.143982,-2334.592041,-620.736023
962.335999,-726.143982,-474.335999
1007.231995,521.184021,-558.271973
1116.543945,2147.199951,-484.096008
1247.328003,3375.008057,-277.183990
1292.223999,3554.592041,-257.664001
1206.336060,3015.840088,-271.328003
1227.807983,2625.439941,-294.752014
972.096008,1569.407959,-203.007996
1139.968018,-1819.264038,-286.944000
1754.848022,-4317.824219,-454.816010
1764.608032,-6289.344238,-249.856003
1241.472046,-4581.344238,-152.255997
839.359985,284.992004,-50.751999
1093.119995,2104.256104,-124.928001
1358.592041,2826.496094,-265.471985
1475.712036,3214.944092,-325.984009
1378.112061,3076.352051,-394.303986
1329.312012,2516.127930,-470.432007
1354.687988,1975.423950,-568.031982
1415.199951,1784.128052,-585.599976
1284.416016,1649.439941,-431.391998
702.719971,-1067.744019,-183.488007
1167.296021,-3958.656006,-167.871994
2188.191895,-5159.136230,708.575989
3261.791992,-6424.032227,3585.823975
3987.936035,-4089.439941,5820.863770
3437.471924,-1434.719971,4686.751953
2123.775879,374.783997,1551.839966
1114.592041,1387.871948,-892.064026
706.624023,1791.936035,-1905.151978
620.736023,2020.319946,-2254.560059
630.495972,2141.343994,-2311.167969
712.479980,2318.976074,-2285.791992
962.335999,3002.176025,-2135.488037
1134.112061,3622.912109,-1774.368042
1342.975952,3058.783936,-1382.015991
1098.975952,1735.328003,-1097.024048
624.640015,1165.343994,-1196.576050
-195.199997,-503.615997,-1311.744019
158.112000,-3248.127930,-1680.671997
692.960022,-2988.511963,-2162.815918
583.648010,-2965.087891,-2172.575928
718.335999,-2728.895996,-2252.607910
560.223999,-2457.568115,-2205.760010
54.655998,-1497.183960,-1733.375977
1506.943970,-880.351990,753.471985
4089.439941,-3634.624023,8223.776367
6347.903809,-4965.888184,11452.383789
5049.824219,-6408.416016,9018.240234
3142.719971,-2356.063965,1766.560059
1141.920044,359.167999,-3476.511963
370.880005,560.223999,-5051.775879
-327.936005,634.400024,-4940.512207
-329.888000,700.768005,-4706.271973
130.783997,1268.800049,-4434.943848
357.216003,2717.184082,-4126.527832
163.968002,2765.983887,-2765.983887
1419.104004,2100.352051,-665.632019
1585.024048,2277.983887,677.343994
1797.791992,2268.224121,1309.791992
1967.615967,1321.504028,1957.855957
2192.095947,-470.432007,2422.431885
1702.144043,-3205.184082,2197.951904
1296.128052,-3650.239990,550.463989
774.943970,-2324.832031,-1567.456055
454.816010,-618.783997,-2838.208008
359.167999,1315.647949,-2834.303955
704.671997,1850.495972,-1829.024048
1368.352051,1376.160034,-162.016006
2008.608032,892.064026,1694.336060
2666.431885,579.744019,2953.375977
2978.751953,571.935974,3082.208008
2711.327881,858.880005,1907.104004
2156.959961,1272.703979,132.735992
1748.991943,1444.479980,-767.135986
1506.943970,1387.871948,-687.104004
1452.287964,1212.192017,-396.256012
1526.463989,687.104004,-146.399994
1598.687988,482.144012,-60.512001
1600.640015,788.607971,11.712000
1817.312012,989.664001,191.296005
2197.951904,365.023987,603.168030
2250.656006,-501.664001,970.143982
2203.808105,-958.432007,870.591980
1940.287964,-976.000000,404.063995
1542.079956,-925.247986,-230.335999
1210.239990,-64.416000,-628.544006
1114.592041,636.351990,-550.463989
1278.560059,1073.599976,-191.296005
1452.287964,1163.391968,81.984001
1508.895996,936.960022,85.888000
1436.671997,759.328003,-216.671997
1296.128052,398.208008,-550.463989
1255.135986,95.648003,-646.112000
1288.319946,-152.255997,-497.760010
1374.208008,-109.311996,-255.712006
1438.624023,54.655998,-117.120003
1450.336060,175.679993,-158.112000
1413.248047,187.391998,-306.463989
1307.839966,146.399994,-470.432007
1190.719971,70.272003,-614.880005
1124.352051,105.407997,-659.776001
1110.687988,216.671997,-708.575989
1141.920044,142.496002,-712.479980
1186.816040,-80.031998,-714.432007
1169.248047,-224.479996,-655.872009
1184.864014,-158.112000,-556.320007
1116.543945,-60.512001,-583.648010
1089.215942,-13.664000,-677.343994
1056.031982,23.424000,-831.552002
1026.751953,-37.088001,-786.656006
1081.407959,-78.080002,-577.791992
1108.735962,19.520000,-478.239990
1089.215942,3.904000,-521.184021
1077.504028,-107.360001,-630.495972
1083.359985,-242.048004,-706.624023
1110.687988,-372.832001,-685.151978
1118.495972,-345.503998,-687.104004
1112.640015,-242.048004,-661.728027
1120.447998,-128.832001,-634.400024
1118.495972,-74.176003,-603.168030
1095.072021,-126.879997,-601.216003
1079.456055,-216.671997,-575.840027
1054.079956,-210.815994,-575.840027
1032.608032,-154.207993,-597.312012
1013.088013,-83.935997,-638.304016
995.520020,-60.512001,-665.632019
1011.135986,-37.088001,-648.064026
1015.039978,-52.703999,-630.495972
1013.088013,-70.272003,-659.776001
987.711975,-111.264000,-704.671997
979.903992,-513.375977,-716.383972
989.664001,-564.127991,-704.671997
997.471985,-257.664001,-679.296021
1048.223999,40.992001,-618.783997
1065.791992,267.424011,-558.271973
1077.504028,263.519989,-528.992004
1056.031982,228.384003,-569.984009
1018.943970,111.264000,-626.591980
1016.992004,-29.280001,-653.919983
1024.800049,-70.272003,-650.015991
1030.656006,0.000000,-626.591980
831.552002,-9.760000,-562.176025
1145.823975,163.968002,-712.479980
1428.864014,612.927979,-948.671997
1594.784058,306.463989,-854.976013
1442.527954,160.063995,-386.496002
1473.760010,89.792000,-128.832001
1294.176025,-443.104004,-144.447998
1139.968018,-333.791992,-343.552002
1095.072021,-218.623993,-458.720001
1020.895996,-478.239990,-429.440002
1044.319946,-181.535995,-394.303986
1059.936035,160.063995,-421.631989
1098.975952,201.056000,-402.112000
1063.839966,29.280001,-370.880005
1147.776001,-162.016006,-372.832001
1374.208008,-220.576004,-384.544006
1218.047974,-119.071999,-306.463989
1296.128052,-27.327999,-265.471985
1313.696045,-189.343994,-255.712006
1249.280029,-308.415985,-361.119995
1337.119995,-443.104004,-437.247986
1169.248047,-222.528000,-409.920013
1161.439941,39.040001,-386.496002
1130.208008,-21.472000,-386.496002
1138.015991,-58.560001,-462.623993
1167.296021,-109.311996,-527.039978
1223.904053,-136.639999,-548.512024
1300.031982,-132.735992,-511.424011
1286.368042,-83.935997,-517.280029
1298.079956,15.616000,-609.023987
1262.943970,111.264000,-712.479980
1282.463989,156.160004,-759.328003
1274.656006,195.199997,-726.143982
1290.271973,181.535995,-665.632019
1290.271973,181.535995,-663.679993
1286.368042,167.871994,-675.392029
1270.751953,163.968002,-661.728027
1278.560059,191.296005,-632.447998
1286.368042,253.759995,-612.927979
1288.319946,286.944000,-610.976013
1251.232056,281.088013,-644.159973
1214.144043,265.471985,-679.296021
1198.527954,224.479996,-671.487976
1204.384033,167.871994,-636.351990
1180.959961,128.832001,-612.927979
1128.255981,87.839996,-622.687988
1071.647949,0.000000,-651.968018
1042.368042,0.000000,-710.528015
1097.024048,-76.127998,-774.943970
1180.959961,0.000000,-759.328003
1221.952026,23.424000,-681.247986
1227.807983,-3.904000,-583.648010
1206.336060,-19.520000,-581.695984
1192.671997,-50.751999,-616.831970
1163.391968,-40.992001,-618.783997
1186.816040,64.416000,-593.408020
1188.767944,163.968002,-560.223999
1173.151978,185.440002,-540.703979
1124.352051,177.632004,-564.127991
1091.167969,162.016006,-620.736023
1100.927979,121.024002,-632.447998
1116.543945,119.071999,-622.687988
1147.776001,101.503998,-601.216003
1163.391968,76.127998,-593.408020
1138.015991,35.136002,-622.687988
1124.352051,5.856000,-661.728027
1104.832031,13.664000,-685.151978
1093.119995,27.327999,-677.343994
1091.167969,58.560001,-675.392029
1077.504028,58.560001,-653.919983
1079.456055,35.136002,-644.159973
1098.975952,13.664000,-624.640015
1116.543945,-9.760000,-620.736023
1120.447998,-3.904000,-595.359985
1130.208008,15.616000,-568.031982
1134.112061,37.088001,-556.320007
1145.823975,56.608002,-566.080017
1134.112061,58.560001,-556.320007
1130.208008,58.560001,-556.320007
1114.592041,46.848000,-564.127991
1116.543945,35.136002,-564.127991
1104.832031,39.040001,-571.935974
1087.264038,48.799999,-589.504028
1079.456055,27.327999,-607.072021
1073.599976,23.424000,-616.831970
1056.031982,7.808000,-618.783997
1067.744019,-1.952000,-612.927979
1063.839966,-27.327999,-603.168030
1071.647949,-40.992001,-603.168030
1073.599976,-33.183998,-603.168030
1073.599976,-50.751999,-603.168030
1083.359985,-44.896000,-585.599976
1087.264038,-37.088001,-560.223999
1085.312012,-39.040001,-558.271973
1087.264038,-31.232000,-550.463989
1079.456055,-37.088001,-542.656006
1079.456055,-46.848000,-538.752014
1073.599976,-35.136002,-544.607971
1061.887939,-29.280001,-542.656006
1059.936035,-11.712000,-540.703979
1056.031982,-23.424000,-556.320007
1040.416016,-35.136002,-568.031982
1032.608032,-42.944000,-566.080017
1044.319946,-62.464001,-575.840027
1024.800049,-64.416000,-577.791992
1032.608032,-62.464001,-581.695984
1036.511963,-70.272003,-579.744019
1026.751953,-68.320000,-571.935974
1028.703979,-72.223999,-556.320007
1011.135986,-74.176003,-562.176025
1024.800049,-76.127998,-552.416016
1016.992004,-76.127998,-552.416016
1009.184021,-68.320000,-542.656006
1015.039978,-66.367996,-534.848022
999.424011,-81.984001,-532.895996
993.567993,-83.935997,-536.799988
987.711975,-72.223999,-544.607971
989.664001,-81.984001,-548.512024
983.807983,-87.839996,-544.607971
966.239990,-80.031998,-536.799988
964.288025,-97.599998,-540.703979
948.671997,-93.695999,-538.752014
942.815979,-101.503998,-550.463989
921.343994,-87.839996,-556.320007
929.151978,-91.744003,-552.416016
936.960022,-99.552002,-552.416016
940.864014,-111.264000,-552.416016
936.960022,-117.120003,-548.512024
935.007996,-124.928001,-552.416016
933.056030,-128.832001,-552.416016
933.056030,-117.120003,-546.559998
942.815979,-103.456001,-542.656006
946.719971,-93.695999,-536.799988
942.815979,-109.311996,-532.895996
948.671997,-93.695999,-536.799988
950.624023,-99.552002,-528.992004
962.335999,-81.984001,-530.943970
960.383972,-85.888000,-527.039978
970.143982,-89.792000,-525.088013
964.288025,-85.888000,-527.039978
977.952026,-85.888000,-515.328003
977.952026,-89.792000,-515.328003
977.952026,-81.984001,-515.328003
970.143982,-89.792000,-515.328003
964.288025,-87.839996,-517.280029
977.952026,-91.744003,-515.328003
977.952026,-89.792000,-509.471985
977.952026,-80.031998,-509.471985
974.047974,-97.599998,-513.375977
956.479980,-87.839996,-513.375977
960.383972,-87.839996,-511.424011
962.335999,-93.695999,-507.519989
962.335999,-91.744003,-501.664001
948.671997,-91.744003,-513.375977
950.624023,-97.599998,-519.231995
942.815979,-91.744003,-513.375977
942.815979,-89.792000,-519.231995
942.815979,-101.503998,-513.375977
942.815979,-89.792000,-513.375977
938.911987,-83.935997,-515.328003
936.960022,-87.839996,-513.375977
938.911987,-76.127998,-509.471985
940.864014,-85.888000,-513.375977
933.056030,-87.839996,-511.424011
938.911987,-93.695999,-505.567993
946.719971,-89.792000,-515.328003
948.671997,-93.695999,-507.519989
940.864014,-83.935997,-515.328003
936.960022,-97.599998,-513.375977
946.719971,-91.744003,-511.424011
944.768005,-93.695999,-511.424011
946.719971,-93.695999,-501.664001
944.768005,-81.984001,-495.808014
944.768005,-89.792000,-493.855988
938.911987,-93.695999,-503.615997
938.911987,-91.744003,-501.664001
944.768005,-93.695999,-497.760010
936.960022,-93.695999,-491.903992
936.960022,-93.695999,-491.903992
929.151978,-99.552002,-497.760010
925.247986,-111.264000,-493.855988
923.296021,-111.264000,-493.855988
921.343994,-115.167999,-484.096008
925.247986,-124.928001,-491.903992
929.151978,-121.024002,-489.951996
913.536011,-121.024002,-480.191986
915.487976,-121.024002,-488.000000
907.679993,-109.311996,-476.287994
909.632019,-107.360001,-482.144012
907.679993,-117.120003,-484.096008
892.064026,-122.975998,-480.191986
886.208008,-122.975998,-488.000000
884.255981,-117.120003,-478.239990
876.447998,-121.024002,-472.384003
878.400024,-126.879997,-476.287994
878.400024,-136.639999,-480.191986
880.351990,-126.879997,-480.191986
880.351990,-130.783997,-484.096008
880.351990,-130.783997,-480.191986
874.495972,-136.639999,-470.432007
868.640015,-130.783997,-480.191986
868.640015,-128.832001,-470.432007
868.640015,-124.928001,-464.575989
862.783997,-119.071999,-462.623993
858.880005,-122.975998,-464.575989
856.927979,-130.783997,-462.623993
853.023987,-124.928001,-468.480011
847.168030,-124.928001,-462.623993
853.023987,-126.879997,-462.623993
847.168030,-128.832001,-464.575989
849.119995,-136.639999,-458.720001
839.359985,-117.120003,-454.816010
839.359985,-121.024002,-450.911987
831.552002,-115.167999,-462.623993
833.504028,-117.120003,-456.768005
835.455994,-115.167999,-454.816010
829.599976,-124.928001,-464.575989
827.648010,-126.879997,-466.528015
819.840027,-119.071999,-464.575989
819.840027,-119.071999,-466.528015
837.408020,-115.167999,-462.623993
823.744019,-121.024002,-452.864014
815.935974,-117.120003,-454.816010
806.176025,-124.928001,-464.575989
810.080017,-121.024002,-478.239990
810.080017,-117.120003,-480.191986
819.840027,-105.407997,-466.528015
813.984009,-99.552002,-468.480011
812.031982,-109.311996,-474.335999
819.840027,-115.167999,-480.191986
821.791992,-109.311996,-488.000000
819.840027,-91.744003,-484.096008
819.840027,-83.935997,-458.720001
821.791992,-101.503998,-460.671997
806.176025,-81.984001,-468.480011
806.176025,-83.935997,-476.287994
812.031982,-76.127998,-470.432007
821.791992,-68.320000,-460.671997
821.791992,-78.080002,-456.768005
825.695984,-78.080002,-454.816010
829.599976,-74.176003,-466.528015
833.504028,-78.080002,-466.528015
837.408020,-72.223999,-462.623993
845.216003,-58.560001,-456.768005
841.312012,-70.272003,-458.720001
837.408020,-64.416000,-464.575989
837.408020,-68.320000,-464.575989
831.552002,-58.560001,-462.623993
835.455994,-60.512001,-464.575989
837.408020,-58.560001,-460.671997
841.312012,-56.608002,-464.575989
823.744019,-40.992001,-460.671997
829.599976,-42.944000,-464.575989
827.648010,-37.088001,-472.384003
837.408020,-37.088001,-456.768005
837.408020,-33.183998,-458.720001
835.455994,-23.424000,-450.911987
835.455994,-31.232000,-450.911987
833.504028,-27.327999,-466.528015
829.599976,-33.183998,-456.768005
831.552002,-21.472000,-450.911987
839.359985,-23.424000,-452.864014
831.552002,-27.327999,-441.152008
827.648010,-31.232000,-448.959991
825.695984,-21.472000,-447.007996
817.888000,-31.232000,-454.816010
815.935974,-15.616000,-452.864014
817.888000,-5.856000,-447.007996
810.080017,-11.712000,-454.816010
813.984009,-13.664000,-460.671997
815.935974,-15.616000,-456.768005
804.223999,-13.664000,-460.671997
810.080017,-3.904000,-458.720001
800.320007,0.000000,-464.575989
800.320007,1.952000,-464.575989
790.559998,9.760000,-458.720001
804.223999,3.904000,-464.575989
810.080017,3.904000,-454.816010
808.127991,13.664000,-450.911987
810.080017,9.760000,-468.480011
796.416016,9.760000,-458.720001
802.271973,7.808000,-460.671997
808.127991,17.568001,-454.816010
812.031982,15.616000,-450.911987
815.935974,13.664000,-452.864014
810.080017,5.856000,-443.104004
808.127991,11.712000,-448.959991
813.984009,11.712000,-454.816010
813.984009,21.472000,-447.007996
810.080017,33.183998,-447.007996
819.840027,23.424000,-443.104004
810.080017,15.616000,-439.200012
810.080017,23.424000,-447.007996
802.271973,33.183998,-447.007996
804.223999,35.136002,-437.247986
810.080017,39.040001,-448.959991
806.176025,29.280001,-452.864014
800.320007,25.375999,-450.911987
802.271973,23.424000,-464.575989
800.320007,33.183998,-447.007996
800.320007,29.280001,-447.007996
808.127991,29.280001,-447.007996
798.367981,19.520000,-445.056000
790.559998,23.424000,-443.104004
784.703979,25.375999,-443.104004
782.752014,27.327999,-447.007996
780.799988,21.472000,-443.104004
784.703979,21.472000,-452.864014
776.895996,31.232000,-450.911987
776.895996,31.232000,-454.816010
774.943970,25.375999,-456.768005
774.943970,25.375999,-458.720001
778.848022,27.327999,-452.864014
774.943970,23.424000,-456.768005
772.992004,33.183998,-458.720001
772.992004,31.232000,-454.816010
761.280029,27.327999,-456.768005
759.328003,35.136002,-458.720001
769.088013,27.327999,-454.816010
767.135986,19.520000,-454.816010
767.135986,23.424000,-454.816010
759.328003,15.616000,-454.816010
761.280029,23.424000,-450.911987
757.375977,25.375999,-454.816010
759.328003,21.472000,-452.864014
763.231995,15.616000,-458.720001
767.135986,23.424000,-456.768005
761.280029,21.472000,-452.864014
765.184021,15.616000,-452.864014
765.184021,15.616000,-447.007996
771.039978,25.375999,-445.056000
771.039978,17.568001,-450.911987
757.375977,15.616000,-452.864014
757.375977,25.375999,-448.959991
771.039978,11.712000,-447.007996
769.088013,13.664000,-443.104004
763.231995,13.664000,-452.864014
771.039978,21.472000,-447.007996
761.280029,11.712000,-439.200012
765.184021,15.616000,-445.056000
774.943970,3.904000,-448.959991
761.280029,3.904000,-452.864014
772.992004,5.856000,-450.911987
774.943970,-1.952000,-448.959991
774.943970,0.000000,-445.056000
774.943970,3.904000,-448.959991
780.799988,0.000000,-447.007996
769.088013,-1.952000,-456.768005
767.135986,-3.904000,-443.104004
771.039978,-11.712000,-450.911987
771.039978,-11.712000,-452.864014
778.848022,-1.952000,-447.007996
778.848022,-15.616000,-443.104004
772.992004,-5.856000,-445.056000
778.848022,-13.664000,-450.911987
774.943970,-17.568001,-441.152008
774.943970,-21.472000,-441.152008
772.992004,-29.280001,-439.200012
776.895996,-23.424000,-441.152008
778.848022,-40.992001,-439.200012
774.943970,-33.183998,-433.343994
778.848022,-39.040001,-445.056000
782.752014,-29.280001,-439.200012
765.184021,-33.183998,-441.152008
774.943970,-35.136002,-445.056000
771.039978,-40.992001,-443.104004
774.943970,-37.088001,-447.007996
778.848022,-42.944000,-448.959991
767.135986,-44.896000,-439.200012
774.943970,-40.992001,-441.152008
771.039978,-40.992001,-435.295990
765.184021,-40.992001,-445.056000
763.231995,-37.088001,-441.152008
772.992004,-37.088001,-445.056000
772.992004,-42.944000,-443.104004
772.992004,-40.992001,-447.007996
769.088013,-48.799999,-448.959991
780.799988,-52.703999,-435.295990
780.799988,-52.703999,-439.200012
780.799988,-48.799999,-441.152008
776.895996,-46.848000,-439.200012
782.752014,-40.992001,-435.295990
786.656006,-46.848000,-437.247986
786.656006,-56.608002,-445.056000
786.656006,-42.944000,-439.200012
786.656006,-48.799999,-439.200012
776.895996,-46.848000,-439.200012
788.607971,-44.896000,-441.152008
776.895996,-52.703999,-443.104004
788.607971,-50.751999,-439.200012
780.799988,-58.560001,-445.056000
782.752014,-52.703999,-431.391998
778.848022,-58.560001,-441.152008
776.895996,-60.512001,-439.200012
782.752014,-60.512001,-445.056000
774.943970,-60.512001,-441.152008
776.895996,-60.512001,-445.056000
778.848022,-60.512001,-435.295990
784.703979,-54.655998,-437.247986
790.559998,-62.464001,-445.056000
786.656006,-62.464001,-441.152008
790.559998,-68.320000,-441.152008
792.512024,-66.367996,-429.440002
792.512024,-64.416000,-437.247986
784.703979,-62.464001,-435.295990
796.416016,-74.176003,-437.247986
790.559998,-64.416000,-431.391998
788.607971,-74.176003,-435.295990
798.367981,-80.031998,-435.295990
798.367981,-70.272003,-429.440002
804.223999,-81.984001,-425.536011
800.320007,-76.127998,-435.295990
802.271973,-72.223999,-427.488007
804.223999,-85.888000,-425.536011
800.320007,-76.127998,-429.440002
802.271973,-85.888000,-431.391998
800.320007,-89.792000,-431.391998
798.367981,-80.031998,-437.247986
806.176025,-83.935997,-437.247986
806.176025,-91.744003,-437.247986
812.031982,-89.792000,-435.295990
806.176025,-83.935997,-441.152008
808.127991,-83.935997,-429.440002
800.320007,-83.935997,-435.295990
800.320007,-81.984001,-433.343994
804.223999,-85.888000,-423.584015
806.176025,-80.031998,-431.391998
800.320007,-89.792000,-429.440002
804.223999,-93.695999,-427.488007
806.176025,-89.792000,-437.247986
810.080017,-101.503998,-427.488007
802.271973,-97.599998,-435.295990
810.080017,-97.599998,-427.488007
806.176025,-99.552002,-435.295990
796.416016,-101.503998,-435.295990
800.320007,-103.456001,-435.295990
792.512024,-99.552002,-433.343994
810.080017,-101.503998,-433.343994
800.320007,-93.695999,-425.536011
798.367981,-103.456001,-429.440002
800.320007,-105.407997,-427.488007
804.223999,-107.360001,-429.440002
806.176025,-105.407997,-427.488007
792.512024,-97.599998,-429.440002
796.416016,-95.648003,-431.391998
794.463989,-99.552002,-437.247986
800.320007,-91.744003,-431.391998
800.320007,-103.456001,-431.391998
798.367981,-97.599998,-423.584015
806.176025,-93.695999,-433.343994
802.271973,-95.648003,-431.391998
802.271973,-101.503998,-431.391998
810.080017,-95.648003,-433.343994
812.031982,-91.744003,-427.488007
806.176025,-87.839996,-427.488007
808.127991,-87.839996,-429.440002
819.840027,-87.839996,-437.247986
819.840027,-76.127998,-427.488007
821.791992,-80.031998,-421.631989
815.935974,-99.552002,-429.440002
821.791992,-83.935997,-433.343994
817.888000,-91.744003,-423.584015
813.984009,-91.744003,-427.488007
812.031982,-85.888000,-419.679993
821.791992,-76.127998,-431.391998
815.935974,-78.080002,-427.488007
815.935974,-76.127998,-429.440002
815.935974,-76.127998,-423.584015
815.935974,-72.223999,-425.536011
810.080017,-68.320000,-433.343994
819.840027,-70.272003,-429.440002
808.127991,-70.272003,-435.295990
812.031982,-68.320000,-433.343994
813.984009,-70.272003,-433.343994
813.984009,-66.367996,-435.295990
808.127991,-66.367996,-435.295990
810.080017,-64.416000,-435.295990
813.984009,-66.367996,-431.391998
821.791992,-58.560001,-427.488007
812.031982,-56.608002,-423.584015
806.176025,-58.560001,-439.200012
800.320007,-46.848000,-441.152008
806.176025,-54.655998,-437.247986
804.223999,-44.896000,-437.247986
808.127991,-40.992001,-439.200012
804.223999,-54.655998,-431.391998
810.080017,-40.992001,-431.391998
806.176025,-44.896000,-429.440002
808.127991,-48.799999,-427.488007
810.080017,-46.848000,-429.440002
796.416016,-31.232000,-431.391998
810.080017,-44.896000,-427.488007
806.176025,-42.944000,-427.488007
804.223999,-40.992001,-427.488007
806.176025,-42.944000,-419.679993
802.271973,-44.896000,-429.440002
806.176025,-31.232000,-427.488007
806.176025,-42.944000,-427.488007
796.416016,-42.944000,-429.440002
802.271973,-42.944000,-419.679993
796.416016,-54.655998,-429.440002
794.463989,-40.992001,-429.440002
810.080017,-42.944000,-427.488007
794.463989,-46.848000,-415.776001
796.416016,-40.992001,-425.536011
810.080017,-42.944000,-425.536011
800.320007,-48.799999,-437.247986
802.271973,-48.799999,-421.631989
796.416016,-48.799999,-427.488007
802.271973,-40.992001,-425.536011
792.512024,-40.992001,-427.488007
798.367981,-40.992001,-429.440002
802.271973,-54.655998,-423.584015
804.223999,-33.183998,-421.631989
796.416016,-48.799999,-421.631989
798.367981,-54.655998,-415.776001
802.271973,-50.751999,-415.776001
810.080017,-52.703999,-417.727997
817.888000,-56.608002,-407.967987
802.271973,-60.512001,-413.824005
798.367981,-56.608002,-415.776001
800.320007,-58.560001,-419.679993
796.416016,-54.655998,-423.584015
796.416016,-52.703999,-415.776001
796.416016,-44.896000,-421.631989
804.223999,-54.655998,-419.679993
792.512024,-50.751999,-413.824005
794.463989,-42.944000,-417.727997
798.367981,-54.655998,-413.824005
792.512024,-40.992001,-411.872009
790.559998,-50.751999,-415.776001
796.416016,-46.848000,-415.776001
798.367981,-54.655998,-421.631989
798.367981,-44.896000,-413.824005
798.367981,-39.040001,-411.872009
800.320007,-48.799999,-411.872009
796.416016,-40.992001,-415.776001
794.463989,-48.799999,-421.631989
784.703979,-48.799999,-415.776001
794.463989,-46.848000,-404.063995
788.607971,-50.751999,-407.967987
798.367981,-50.751999,-415.776001
804.223999,-54.655998,-419.679993
804.223999,-46.848000,-406.015991
798.367981,-48.799999,-415.776001
798.367981,-39.040001,-419.679993
806.176025,-48.799999,-409.920013
802.271973,-40.992001,-415.776001
796.416016,-46.848000,-425.536011
798.367981,-40.992001,-419.679993
796.416016,-39.040001,-419.679993
798.367981,-40.992001,-423.584015
796.416016,-46.848000,-419.679993
802.271973,-50.751999,-419.679993
802.271973,-52.703999,-421.631989
806.176025,-52.703999,-417.727997
802.271973,-46.848000,-425.536011
806.176025,-58.560001,-415.776001
804.223999,-48.799999,-425.536011
812.031982,-46.848000,-437.247986
810.080017,-50.751999,-423.584015
819.840027,-58.560001,-419.679993
804.223999,-48.799999,-421.631989
804.223999,-46.848000,-413.824005
810.080017,-48.799999,-419.679993
808.127991,-52.703999,-417.727997
810.080017,-54.655998,-429.440002
810.080017,-52.703999,-411.872009
806.176025,-48.799999,-419.679993
821.791992,-58.560001,-425.536011
808.127991,-56.608002,-425.536011
815.935974,-50.751999,-427.488007
813.984009,-56.608002,-425.536011
819.840027,-54.655998,-411.872009
815.935974,-54.655998,-419.679993
808.127991,-54.655998,-423.584015
821.791992,-50.751999,-425.536011
827.648010,-37.088001,-425.536011
829.599976,-39.040001,-429.440002
833.504028,-44.896000,-419.679993
829.599976,-54.655998,-415.776001
833.504028,-48.799999,-421.631989
833.504028,-48.799999,-421.631989
835.455994,-54.655998,-419.679993
835.455994,-48.799999,-419.679993
845.216003,-54.655998,-417.727997
841.312012,-50.751999,-419.679993
845.216003,-58.560001,-421.631989
837.408020,-62.464001,-423.584015
841.312012,-62.464001,-413.824005
845.216003,-56.608002,-419.679993
839.359985,-60.512001,-421.631989
841.312012,-58.560001,-415.776001
837.408020,-62.464001,-427.488007
837.408020,-62.464001,-425.536011
831.552002,-62.464001,-421.631989
831.552002,-62.464001,-421.631989
837.408020,-62.464001,-415.776001
841.312012,-64.416000,-423.584015
833.504028,-64.416000,-421.631989
823.744019,-64.416000,-423.584015
833.504028,-54.655998,-423.584015
823.744019,-58.560001,-427.488007
831.552002,-70.272003,-431.391998
827.648010,-68.320000,-441.152008
833.504028,-72.223999,-425.536011
835.455994,-68.320000,-421.631989
829.599976,-68.320000,-423.584015
831.552002,-66.367996,-429.440002
831.552002,-74.176003,-423.584015
833.504028,-70.272003,-415.776001
833.504028,-74.176003,-417.727997
839.359985,-74.176003,-415.776001
835.455994,-74.176003,-425.536011
827.648010,-54.655998,-419.679993
837.408020,-74.176003,-425.536011
841.312012,-62.464001,-421.631989
837.408020,-68.320000,-427.488007
845.216003,-66.367996,-417.727997
835.455994,-64.416000,-423.584015
843.263977,-68.320000,-421.631989
853.023987,-78.080002,-421.631989
841.312012,-70.272003,-419.679993
853.023987,-72.223999,-415.776001
856.927979,-68.320000,-409.920013
849.119995,-70.272003,-419.679993
843.263977,-62.464001,-419.679993
851.072021,-60.512001,-417.727997
845.216003,-62.464001,-425.536011
856.927979,-54.655998,-413.824005
839.359985,-58.560001,-417.727997
851.072021,-62.464001,-419.679993
845.216003,-64.416000,-407.967987
841.312012,-68.320000,-421.631989
843.263977,-54.655998,-415.776001
843.263977,-58.560001,-417.727997
833.504028,-56.608002,-419.679993
837.408020,-58.560001,-417.727997
835.455994,-54.655998,-423.584015
833.504028,-58.560001,-421.631989
839.359985,-54.655998,-419.679993
841.312012,-50.751999,-411.872009
839.359985,-48.799999,-419.679993
847.168030,-50.751999,-425.536011
841.312012,-54.655998,-419.679993
849.119995,-58.560001,-419.679993
847.168030,-46.848000,-423.584015
845.216003,-56.608002,-423.584015
845.216003,-54.655998,-417.727997
847.168030,-48.799999,-419.679993
851.072021,-50.751999,-411.872009
851.072021,-50.751999,-413.824005
847.168030,-42.944000,-417.727997
845.216003,-50.751999,-419.679993
847.168030,-52.703999,-421.631989
851.072021,-44.896000,-413.824005
854.976013,-54.655998,-415.776001
851.072021,-44.896000,-415.776001
843.263977,-40.992001,-413.824005
841.312012,-40.992001,-417.727997
849.119995,-37.088001,-421.631989
847.168030,-48.799999,-419.679993
839.359985,-42.944000,-419.679993
845.216003,-42.944000,-419.679993
843.263977,-46.848000,-415.776001
845.216003,-42.944000,-406.015991
839.359985,-44.896000,-419.679993
839.359985,-40.992001,-419.679993
837.408020,-33.183998,-425.536011
843.263977,-35.136002,-421.631989
841.312012,-35.136002,-413.824005
847.168030,-35.136002,-417.727997
851.072021,-39.040001,-423.584015
843.263977,-40.992001,-417.727997
847.168030,-31.232000,-407.967987
843.263977,-37.088001,-421.631989
851.072021,-35.136002,-411.872009
854.976013,-40.992001,-419.679993
847.168030,-44.896000,-419.679993
851.072021,-39.040001,-421.631989
853.023987,-35.136002,-407.967987
851.072021,-33.183998,-419.679993
849.119995,-42.944000,-415.776001
856.927979,-35.136002,-417.727997
856.927979,-35.136002,-417.727997
849.119995,-35.136002,-415.776001
853.023987,-37.088001,-411.872009
849.119995,-25.375999,-411.872009
853.023987,-31.232000,-411.872009
860.831970,-35.136002,-411.872009
843.263977,-31.232000,-415.776001
854.976013,-29.280001,-425.536011
849.119995,-35.136002,-425.536011
853.023987,-31.232000,-406.015991
854.976013,-31.232000,-417.727997
854.976013,-35.136002,-419.679993
847.168030,-40.992001,-421.631989
843.263977,-37.088001,-423.584015
839.359985,-25.375999,-419.679993
843.263977,-33.183998,-427.488007
841.312012,-37.088001,-421.631989
839.359985,-39.040001,-415.776001
845.216003,-39.040001,-433.343994
843.263977,-33.183998,-425.536011
843.263977,-31.232000,-423.584015
841.312012,-33.183998,-423.584015
851.072021,-33.183998,-431.391998
839.359985,-35.136002,-435.295990
851.072021,-35.136002,-429.440002
849.119995,-35.136002,-419.679993
853.023987,-35.136002,-421.631989
849.119995,-39.040001,-417.727997
851.072021,-39.040001,-419.679993
860.831970,-39.040001,-419.679993
862.783997,-39.040001,-413.824005
858.880005,-31.232000,-409.920013
856.927979,-42.944000,-409.920013
856.927979,-35.136002,-411.872009
862.783997,-39.040001,-419.679993
860.831970,-25.375999,-415.776001
866.687988,-31.232000,-417.727997
862.783997,-21.472000,-417.727997
866.687988,-21.472000,-419.679993
864.736023,-33.183998,-417.727997
860.831970,-27.327999,-417.727997
856.927979,-23.424000,-425.536011
856.927979,-17.568001,-421.631989
864.736023,-23.424000,-421.631989
854.976013,-13.664000,-413.824005
854.976013,-13.664000,-411.872009
856.927979,-25.375999,-411.872009
851.072021,-27.327999,-409.920013
860.831970,-33.183998,-415.776001
853.023987,-27.327999,-417.727997
847.168030,-17.568001,-413.824005
847.168030,-15.616000,-415.776001
853.023987,-23.424000,-425.536011
856.927979,-27.327999,-415.776001
854.976013,-27.327999,-425.536011
