ACC_X,ACC_Y,ACC_Z
733.952026,497.760010,433.343994
737.856018,503.615997,431.391998
741.760010,495.808014,429.440002
739.807983,491.903992,433.343994
739.807983,495.808014,437.247986
739.807983,499.712006,435.295990
733.952026,499.712006,431.391998
739.807983,501.664001,429.440002
733.952026,505.567993,435.295990
733.952026,505.567993,433.343994
737.856018,503.615997,425.536011
739.807983,501.664001,427.488007
732.000000,497.760010,435.295990
735.903992,488.000000,437.247986
739.807983,493.855988,435.295990
733.952026,491.903992,433.343994
733.952026,495.808014,433.343994
737.856018,499.712006,435.295990
741.760010,497.760010,429.440002
732.000000,495.808014,431.391998
739.807983,499.712006,431.391998
741.760010,501.664001,429.440002
745.664001,495.808014,437.247986
739.807983,495.808014,431.391998
739.807983,501.664001,439.200012
739.807983,491.903992,439.200012
737.856018,501.664001,435.295990
735.903992,507.519989,427.488007
735.903992,505.567993,435.295990
739.807983,497.760010,435.295990
735.903992,505.567993,429.440002
733.952026,499.712006,437.247986
732.000000,493.855988,443.104004
733.952026,491.903992,435.295990
743.711975,484.096008,425.536011
751.520020,499.712006,429.440002
741.760010,497.760010,441.152008
737.856018,503.615997,435.295990
730.047974,505.567993,433.343994
733.952026,499.712006,431.391998
741.760010,499.712006,441.152008
739.807983,503.615997,439.200012
741.760010,497.760010,437.247986
733.952026,495.808014,435.295990
735.903992,505.567993,439.200012
733.952026,499.712006,443.104004
733.952026,499.712006,437.247986
735.903992,505.567993,439.200012
737.856018,503.615997,437.247986
737.856018,505.567993,439.200012
733.952026,499.712006,433.343994
735.903992,507.519989,433.343994
739.807983,491.903992,435.295990
730.047974,505.567993,435.295990
741.760010,501.664001,439.200012
730.047974,499.712006,431.391998
720.288025,505.567993,437.247986
728.096008,495.808014,435.295990
728.096008,507.519989,429.440002
724.192017,507.519989,439.200012
722.239990,499.712006,439.200012
733.952026,501.664001,437.247986
724.192017,507.519989,447.007996
720.288025,491.903992,437.247986
722.239990,499.712006,435.295990
722.239990,499.712006,435.295990
720.288025,501.664001,429.440002
720.288025,491.903992,433.343994
722.239990,495.808014,439.200012
718.335999,503.615997,435.295990
714.432007,501.664001,433.343994
720.288025,499.712006,433.343994
720.288025,501.664001,435.295990
714.432007,501.664001,433.343994
710.528015,511.424011,431.391998
726.143982,505.567993,433.343994
714.432007,497.760010,437.247986
714.432007,501.664001,435.295990
718.335999,503.615997,433.343994
714.432007,505.567993,445.056000
724.192017,513.375977,439.200012
718.335999,499.712006,439.200012
712.479980,501.664001,433.343994
716.383972,499.712006,443.104004
712.479980,503.615997,435.295990
718.335999,501.664001,439.200012
716.383972,509.471985,443.104004
714.432007,503.615997,429.440002
718.335999,509.471985,433.343994
724.192017,509.471985,425.536011
726.143982,499.712006,433.343994
722.239990,503.615997,441.152008
720.288025,499.712006,437.247986
716.383972,503.615997,443.104004
724.192017,499.712006,447.007996
714.432007,507.519989,443.104004
718.335999,511.424011,433.343994
722.239990,499.712006,443.104004
712.479980,497.760010,447.007996
730.047974,499.712006,447.007996
726.143982,503.615997,439.200012
722.239990,501.664001,441.152008
728.096008,495.808014,437.247986
724.192017,501.664001,435.295990
728.096008,497.760010,437.247986
732.000000,501.664001,441.152008
724.192017,489.951996,443.104004
726.143982,493.855988,433.343994
728.096008,497.760010,443.104004
728.096008,493.855988,437.247986
722.239990,499.712006,433.343994
726.143982,505.567993,441.152008
739.807983,499.712006,443.104004
730.047974,495.808014,445.056000
735.903992,497.760010,445.056000
726.143982,491.903992,445.056000
733.952026,505.567993,437.247986
730.047974,501.664001,445.056000
733.952026,497.760010,443.104004
728.096008,493.855988,437.247986
733.952026,493.855988,433.343994
735.903992,501.664001,445.056000
735.903992,503.615997,435.295990
732.000000,501.664001,441.152008
737.856018,497.760010,445.056000
743.711975,499.712006,447.007996
743.711975,499.712006,447.007996
735.903992,503.615997,443.104004
743.711975,503.615997,435.295990
737.856018,513.375977,443.104004
737.856018,499.712006,441.152008
735.903992,495.808014,445.056000
737.856018,499.712006,441.152008
732.000000,505.567993,441.152008
737.856018,503.615997,431.391998
743.711975,503.615997,437.247986
733.952026,503.615997,439.200012
733.952026,497.760010,443.104004
733.952026,505.567993,437.247986
726.143982,499.712006,439.200012
737.856018,507.519989,431.391998
741.760010,507.519989,443.104004
733.952026,499.712006,433.343994
737.856018,515.328003,435.295990
737.856018,497.760010,441.152008
728.096008,499.712006,443.104004
732.000000,509.471985,441.152008
730.047974,491.903992,437.247986
733.952026,501.664001,439.200012
728.096008,507.519989,441.152008
724.192017,509.471985,437.247986
735.903992,513.375977,439.200012
737.856018,511.424011,439.200012
732.000000,495.808014,445.056000
732.000000,503.615997,447.007996
732.000000,503.615997,447.007996
730.047974,511.424011,439.200012
724.192017,501.664001,445.056000
728.096008,503.615997,439.200012
735.903992,517.280029,441.152008
718.335999,509.471985,433.343994
733.952026,507.519989,447.007996
733.952026,511.424011,441.152008
728.096008,511.424011,441.152008
728.096008,509.471985,441.152008
720.288025,503.615997,441.152008
724.192017,505.567993,441.152008
724.192017,511.424011,437.247986
726.143982,515.328003,431.391998
726.143982,519.231995,433.343994
724.192017,515.328003,437.247986
726.143982,507.519989,439.200012
728.096008,513.375977,447.007996
724.192017,513.375977,435.295990
726.143982,509.471985,439.200012
726.143982,517.280029,439.200012
722.239990,513.375977,441.152008
726.143982,511.424011,433.343994
718.335999,515.328003,429.440002
714.432007,527.039978,439.200012
722.239990,513.375977,429.440002
718.335999,517.280029,439.200012
718.335999,517.280029,441.152008
730.047974,517.280029,441.152008
730.047974,519.231995,435.295990
722.239990,519.231995,443.104004
722.239990,521.184021,441.152008
728.096008,521.184021,447.007996
714.432007,527.039978,433.343994
726.143982,521.184021,445.056000
726.143982,521.184021,443.104004
730.047974,521.184021,443.104004
726.143982,519.231995,437.247986
730.047974,523.135986,447.007996
724.192017,527.039978,443.104004
726.143982,536.799988,439.200012
730.047974,515.328003,441.152008
733.952026,530.943970,443.104004
737.856018,530.943970,441.152008
733.952026,525.088013,443.104004
733.952026,525.088013,433.343994
722.239990,525.088013,437.247986
728.096008,534.848022,447.007996
722.239990,536.799988,439.200012
728.096008,530.943970,445.056000
730.047974,525.088013,437.247986
737.856018,527.039978,443.104004
733.952026,528.992004,443.104004
732.000000,528.992004,443.104004
724.192017,532.895996,445.056000
732.000000,527.039978,448.959991
730.047974,527.039978,443.104004
739.807983,532.895996,441.152008
730.047974,538.752014,435.295990
726.143982,536.799988,435.295990
728.096008,528.992004,437.247986
728.096008,519.231995,433.343994
724.192017,523.135986,437.247986
726.143982,527.039978,437.247986
732.000000,536.799988,443.104004
730.047974,532.895996,445.056000
724.192017,532.895996,435.295990
724.192017,530.943970,439.200012
728.096008,530.943970,439.200012
732.000000,525.088013,435.295990
739.807983,528.992004,435.295990
728.096008,528.992004,437.247986
728.096008,525.088013,443.104004
732.000000,536.799988,437.247986
732.000000,530.943970,437.247986
732.000000,530.943970,443.104004
726.143982,544.607971,433.343994
735.903992,536.799988,429.440002
735.903992,534.848022,443.104004
726.143982,530.943970,437.247986
733.952026,525.088013,437.247986
726.143982,532.895996,437.247986
739.807983,532.895996,439.200012
737.856018,530.943970,447.007996
732.000000,523.135986,445.056000
735.903992,532.895996,445.056000
735.903992,532.895996,445.056000
739.807983,536.799988,445.056000
735.903992,532.895996,445.056000
737.856018,530.943970,448.959991
735.903992,540.703979,443.104004
739.807983,540.703979,452.864014
743.711975,536.799988,447.007996
743.711975,536.799988,450.911987
743.711975,527.039978,447.007996
737.856018,532.895996,445.056000
739.807983,536.799988,450.911987
733.952026,538.752014,450.911987
733.952026,532.895996,458.720001
743.711975,530.943970,454.816010
733.952026,544.607971,448.959991
733.952026,532.895996,450.911987
739.807983,538.752014,450.911987
733.952026,538.752014,448.959991
737.856018,540.703979,456.768005
735.903992,532.895996,450.911987
739.807983,536.799988,450.911987
743.711975,530.943970,450.911987
741.760010,538.752014,448.959991
743.711975,527.039978,452.864014
735.903992,527.039978,448.959991
743.711975,536.799988,458.720001
743.711975,536.799988,452.864014
739.807983,530.943970,454.816010
743.711975,525.088013,439.200012
732.000000,532.895996,447.007996
735.903992,527.039978,445.056000
730.047974,523.135986,445.056000
737.856018,530.943970,452.864014
730.047974,528.992004,445.056000
735.903992,532.895996,445.056000
732.000000,521.184021,443.104004
726.143982,523.135986,447.007996
728.096008,521.184021,447.007996
732.000000,536.799988,441.152008
733.952026,532.895996,441.152008
733.952026,525.088013,443.104004
735.903992,528.992004,447.007996
726.143982,527.039978,445.056000
726.143982,532.895996,443.104004
732.000000,528.992004,439.200012
732.000000,525.088013,441.152008
722.239990,525.088013,437.247986
728.096008,530.943970,433.343994
728.096008,519.231995,431.391998
730.047974,521.184021,441.152008
728.096008,519.231995,425.536011
732.000000,519.231995,425.536011
726.143982,515.328003,439.200012
730.047974,509.471985,441.152008
730.047974,517.280029,437.247986
730.047974,517.280029,441.152008
726.143982,519.231995,448.959991
733.952026,517.280029,439.200012
735.903992,515.328003,443.104004
739.807983,528.992004,435.295990
735.903992,515.328003,437.247986
739.807983,523.135986,439.200012
741.760010,521.184021,439.200012
733.952026,519.231995,433.343994
733.952026,521.184021,433.343994
737.856018,519.231995,447.007996
743.711975,530.943970,447.007996
741.760010,521.184021,433.343994
741.760010,528.992004,429.440002
741.760010,528.992004,429.440002
737.856018,521.184021,437.247986
745.664001,525.088013,439.200012
745.664001,532.895996,441.152008
745.664001,521.184021,435.295990
751.520020,521.184021,439.200012
745.664001,515.328003,443.104004
747.616028,519.231995,447.007996
755.424011,521.184021,445.056000
755.424011,521.184021,445.056000
759.328003,515.328003,450.911987
751.520020,521.184021,439.200012
757.375977,517.280029,441.152008
763.231995,521.184021,439.200012
749.567993,525.088013,447.007996
763.231995,527.039978,437.247986
753.471985,523.135986,433.343994
753.471985,517.280029,433.343994
757.375977,517.280029,429.440002
759.328003,525.088013,437.247986
759.328003,521.184021,439.200012
751.520020,515.328003,437.247986
755.424011,515.328003,435.295990
757.375977,517.280029,429.440002
765.184021,519.231995,435.295990
761.280029,515.328003,441.152008
761.280029,525.088013,433.343994
755.424011,528.992004,443.104004
761.280029,525.088013,443.104004
763.231995,515.328003,441.152008
759.328003,525.088013,431.391998
761.280029,517.280029,429.440002
767.135986,519.231995,427.488007
763.231995,515.328003,421.631989
767.135986,515.328003,429.440002
763.231995,519.231995,425.536011
767.135986,517.280029,429.440002
765.184021,519.231995,425.536011
765.184021,517.280029,435.295990
761.280029,517.280029,429.440002
771.039978,525.088013,429.440002
765.184021,515.328003,421.631989
761.280029,517.280029,429.440002
769.088013,515.328003,433.343994
761.280029,519.231995,429.440002
761.280029,523.135986,417.727997
763.231995,513.375977,415.776001
765.184021,519.231995,413.824005
765.184021,515.328003,423.584015
763.231995,509.471985,421.631989
771.039978,511.424011,425.536011
761.280029,517.280029,421.631989
759.328003,515.328003,427.488007
767.135986,519.231995,427.488007
763.231995,511.424011,421.631989
761.280029,513.375977,421.631989
771.039978,517.280029,417.727997
771.039978,521.184021,429.440002
771.039978,517.280029,423.584015
763.231995,515.328003,421.631989
763.231995,515.328003,421.631989
757.375977,527.039978,417.727997
765.184021,515.328003,421.631989
778.848022,521.184021,419.679993
771.039978,517.280029,423.584015
771.039978,521.184021,417.727997
774.943970,519.231995,423.584015
774.943970,521.184021,435.295990
772.992004,532.895996,427.488007
774.943970,519.231995,421.631989
769.088013,521.184021,423.584015
774.943970,519.231995,421.631989
780.799988,523.135986,423.584015
769.088013,519.231995,429.440002
778.848022,519.231995,419.679993
772.992004,525.088013,421.631989
774.943970,521.184021,425.536011
778.848022,519.231995,419.679993
772.992004,523.135986,427.488007
780.799988,527.039978,423.584015
771.039978,525.088013,425.536011
772.992004,523.135986,409.920013
778.848022,525.088013,419.679993
769.088013,528.992004,421.631989
772.992004,525.088013,413.824005
771.039978,527.039978,427.488007
765.184021,534.848022,431.391998
774.943970,530.943970,415.776001
769.088013,530.943970,415.776001
774.943970,528.992004,419.679993
772.992004,532.895996,417.727997
769.088013,525.088013,413.824005
771.039978,536.799988,413.824005
765.184021,534.848022,409.920013
771.039978,532.895996,409.920013
763.231995,523.135986,413.824005
767.135986,527.039978,417.727997
763.231995,534.848022,415.776001
763.231995,538.752014,421.631989
765.184021,530.943970,431.391998
765.184021,532.895996,423.584015
769.088013,534.848022,421.631989
761.280029,530.943970,419.679993
769.088013,530.943970,419.679993
769.088013,527.039978,413.824005
763.231995,523.135986,419.679993
767.135986,532.895996,419.679993
769.088013,530.943970,409.920013
767.135986,536.799988,409.920013
767.135986,532.895996,423.584015
761.280029,521.184021,413.824005
765.184021,534.848022,415.776001
761.280029,525.088013,415.776001
759.328003,528.992004,413.824005
763.231995,536.799988,409.920013
761.280029,530.943970,407.967987
753.471985,536.799988,413.824005
757.375977,530.943970,409.920013
755.424011,528.992004,415.776001
755.424011,523.135986,413.824005
759.328003,530.943970,406.015991
761.280029,536.799988,404.063995
757.375977,532.895996,413.824005
759.328003,532.895996,413.824005
757.375977,532.895996,413.824005
757.375977,536.799988,409.920013
749.567993,527.039978,423.584015
751.520020,530.943970,431.391998
753.471985,540.703979,417.727997
747.616028,530.943970,417.727997
745.664001,536.799988,413.824005
745.664001,542.656006,413.824005
753.471985,540.703979,415.776001
757.375977,528.992004,413.824005
755.424011,528.992004,429.440002
755.424011,521.184021,417.727997
749.567993,532.895996,419.679993
743.711975,527.039978,419.679993
757.375977,527.039978,413.824005
745.664001,530.943970,421.631989
755.424011,525.088013,415.776001
749.567993,519.231995,421.631989
749.567993,527.039978,421.631989
749.567993,530.943970,415.776001
753.471985,528.992004,413.824005
749.567993,530.943970,419.679993
741.760010,528.992004,417.727997
743.711975,528.992004,423.584015
741.760010,538.752014,425.536011
749.567993,540.703979,425.536011
751.520020,536.799988,425.536011
745.664001,532.895996,435.295990
747.616028,532.895996,431.391998
745.664001,536.799988,433.343994
741.760010,536.799988,417.727997
743.711975,530.943970,419.679993
747.616028,530.943970,419.679993
743.711975,528.992004,417.727997
743.711975,517.280029,417.727997
741.760010,528.992004,427.488007
741.760010,536.799988,419.679993
741.760010,530.943970,419.679993
743.711975,515.328003,413.824005
745.664001,519.231995,421.631989
739.807983,519.231995,413.824005
732.000000,513.375977,415.776001
730.047974,517.280029,423.584015
737.856018,519.231995,419.679993
739.807983,517.280029,417.727997
735.903992,517.280029,433.343994
735.903992,513.375977,429.440002
735.903992,515.328003,433.343994
741.760010,521.184021,427.488007
735.903992,513.375977,429.440002
735.903992,517.280029,429.440002
737.856018,513.375977,429.440002
730.047974,517.280029,429.440002
726.143982,517.280029,433.343994
737.856018,515.328003,435.295990
730.047974,511.424011,425.536011
747.616028,515.328003,431.391998
735.903992,511.424011,433.343994
732.000000,507.519989,431.391998
733.952026,513.375977,427.488007
737.856018,509.471985,435.295990
726.143982,505.567993,439.200012
726.143982,517.280029,427.488007
735.903992,511.424011,431.391998
733.952026,517.280029,419.679993
733.952026,515.328003,419.679993
739.807983,517.280029,413.824005
745.664001,507.519989,425.536011
737.856018,509.471985,423.584015
733.952026,511.424011,427.488007
739.807983,523.135986,433.343994
733.952026,517.280029,433.343994
737.856018,511.424011,437.247986
737.856018,511.424011,431.391998
739.807983,509.471985,431.391998
735.903992,505.567993,433.343994
733.952026,505.567993,435.295990
739.807983,495.808014,429.440002
733.952026,501.664001,433.343994
741.760010,495.808014,429.440002
739.807983,495.808014,433.343994
737.856018,489.951996,431.391998
737.856018,499.712006,439.200012
728.096008,495.808014,433.343994
739.807983,499.712006,435.295990
732.000000,493.855988,425.536011
739.807983,495.808014,437.247986
739.807983,497.760010,431.391998
739.807983,484.096008,441.152008
741.760010,488.000000,437.247986
739.807983,493.855988,431.391998
739.807983,489.951996,435.295990
735.903992,488.000000,439.200012
735.903992,495.808014,445.056000
739.807983,489.951996,445.056000
747.616028,484.096008,443.104004
751.520020,491.903992,441.152008
741.760010,480.191986,443.104004
735.903992,486.048004,441.152008
743.711975,484.096008,439.200012
732.000000,484.096008,447.007996
743.711975,484.096008,437.247986
745.664001,484.096008,437.247986
743.711975,482.144012,443.104004
737.856018,472.384003,435.295990
743.711975,482.144012,443.104004
735.903992,484.096008,441.152008
741.760010,489.951996,433.343994
743.711975,472.384003,437.247986
735.903992,474.335999,435.295990
743.711975,482.144012,439.200012
739.807983,478.239990,447.007996
739.807983,480.191986,443.104004
733.952026,480.191986,445.056000
733.952026,484.096008,441.152008
733.952026,478.239990,441.152008
749.567993,486.048004,435.295990
745.664001,476.287994,450.911987
741.760010,474.335999,445.056000
745.664001,476.287994,445.056000
735.903992,470.432007,443.104004
739.807983,474.335999,443.104004
743.711975,478.239990,443.104004
730.047974,482.144012,433.343994
737.856018,484.096008,443.104004
733.952026,478.239990,439.200012
733.952026,468.480011,431.391998
730.047974,480.191986,441.152008
730.047974,486.048004,433.343994
732.000000,478.239990,437.247986
733.952026,464.575989,437.247986
726.143982,478.239990,435.295990
726.143982,482.144012,433.343994
728.096008,474.335999,431.391998
733.952026,478.239990,423.584015
735.903992,480.191986,429.440002
733.952026,476.287994,429.440002
737.856018,472.384003,431.391998
733.952026,474.335999,437.247986
730.047974,480.191986,435.295990
730.047974,480.191986,433.343994
726.143982,476.287994,435.295990
735.903992,480.191986,429.440002
737.856018,480.191986,425.536011
739.807983,476.287994,425.536011
735.903992,474.335999,427.488007
733.952026,478.239990,427.488007
730.047974,476.287994,429.440002
730.047974,474.335999,425.536011
739.807983,480.191986,423.584015
730.047974,482.144012,429.440002
741.760010,476.287994,423.584015
726.143982,466.528015,421.631989
732.000000,472.384003,427.488007
739.807983,476.287994,423.584015
741.760010,482.144012,425.536011
737.856018,478.239990,425.536011
737.856018,480.191986,435.295990
739.807983,472.384003,429.440002
741.760010,464.575989,429.440002
743.711975,482.144012,435.295990
730.047974,482.144012,427.488007
733.952026,468.480011,425.536011
737.856018,474.335999,415.776001
741.760010,468.480011,423.584015
733.952026,476.287994,425.536011
737.856018,480.191986,435.295990
743.711975,480.191986,431.391998
743.711975,476.287994,433.343994
747.616028,476.287994,421.631989
747.616028,493.855988,429.440002
741.760010,472.384003,433.343994
747.616028,472.384003,431.391998
747.616028,484.096008,431.391998
749.567993,480.191986,431.391998
747.616028,480.191986,435.295990
741.760010,489.951996,427.488007
745.664001,482.144012,423.584015
743.711975,476.287994,431.391998
743.711975,472.384003,435.295990
743.711975,472.384003,437.247986
743.711975,472.384003,433.343994
741.760010,472.384003,429.440002
745.664001,474.335999,417.727997
745.664001,486.048004,431.391998
753.471985,488.000000,431.391998
751.520020,478.239990,427.488007
747.616028,482.144012,431.391998
741.760010,486.048004,421.631989
749.567993,488.000000,427.488007
745.664001,484.096008,421.631989
753.471985,478.239990,425.536011
749.567993,484.096008,425.536011
755.424011,489.951996,425.536011
747.616028,480.191986,431.391998
753.471985,489.951996,427.488007
759.328003,488.000000,431.391998
761.280029,474.335999,431.391998
759.328003,482.144012,427.488007
761.280029,480.191986,429.440002
757.375977,474.335999,429.440002
759.328003,484.096008,429.440002
761.280029,474.335999,435.295990
757.375977,480.191986,433.343994
769.088013,482.144012,433.343994
767.135986,482.144012,429.440002
761.280029,482.144012,429.440002
763.231995,476.287994,427.488007
759.328003,486.048004,435.295990
759.328003,480.191986,437.247986
761.280029,495.808014,429.440002
763.231995,497.760010,425.536011
761.280029,491.903992,425.536011
765.184021,488.000000,425.536011
765.184021,491.903992,431.391998
767.135986,486.048004,429.440002
769.088013,484.096008,435.295990
772.992004,482.144012,423.584015
771.039978,491.903992,431.391998
765.184021,488.000000,431.391998
769.088013,491.903992,425.536011
767.135986,480.191986,425.536011
769.088013,484.096008,437.247986
772.992004,491.903992,429.440002
767.135986,486.048004,427.488007
772.992004,489.951996,433.343994
772.992004,486.048004,437.247986
769.088013,484.096008,425.536011
771.039978,489.951996,433.343994
774.943970,493.855988,429.440002
765.184021,488.000000,425.536011
774.943970,491.903992,433.343994
765.184021,491.903992,435.295990
774.943970,476.287994,433.343994
767.135986,484.096008,433.343994
771.039978,491.903992,427.488007
771.039978,484.096008,429.440002
771.039978,489.951996,429.440002
774.943970,484.096008,435.295990
771.039978,488.000000,431.391998
774.943970,484.096008,431.391998
772.992004,484.096008,425.536011
772.992004,480.191986,419.679993
757.375977,482.144012,433.343994
767.135986,486.048004,435.295990
769.088013,480.191986,433.343994
761.280029,482.144012,427.488007
761.280029,476.287994,429.440002
767.135986,472.384003,435.295990
765.184021,474.335999,423.584015
761.280029,482.144012,421.631989
751.520020,484.096008,425.536011
761.280029,476.287994,429.440002
757.375977,480.191986,421.631989
765.184021,484.096008,427.488007
763.231995,476.287994,427.488007
753.471985,476.287994,417.727997
761.280029,478.239990,423.584015
763.231995,478.239990,417.727997
751.520020,484.096008,421.631989
753.471985,478.239990,433.343994
749.567993,472.384003,427.488007
761.280029,474.335999,427.488007
755.424011,488.000000,427.488007
759.328003,480.191986,431.391998
749.567993,472.384003,431.391998
753.471985,488.000000,423.584015
751.520020,472.384003,419.679993
747.616028,474.335999,427.488007
759.328003,472.384003,421.631989
751.520020,472.384003,421.631989
759.328003,480.191986,419.679993
757.375977,476.287994,429.440002
747.616028,474.335999,421.631989
745.664001,486.048004,425.536011
755.424011,488.000000,429.440002
753.471985,478.239990,421.631989
747.616028,484.096008,423.584015
757.375977,480.191986,427.488007
745.664001,480.191986,423.584015
757.375977,489.951996,425.536011
749.567993,482.144012,433.343994
757.375977,476.287994,439.200012
753.471985,488.000000,443.104004
759.328003,478.239990,439.200012
769.088013,460.671997,448.959991
761.280029,478.239990,448.959991
759.328003,489.951996,439.200012
763.231995,484.096008,447.007996
772.992004,486.048004,445.056000
774.943970,488.000000,445.056000
771.039978,491.903992,439.200012
765.184021,505.567993,443.104004
765.184021,497.760010,437.247986
753.471985,493.855988,437.247986
747.616028,511.424011,437.247986
747.616028,507.519989,435.295990
745.664001,511.424011,435.295990
743.711975,505.567993,421.631989
743.711975,499.712006,421.631989
737.856018,499.712006,421.631989
743.711975,488.000000,415.776001
747.616028,488.000000,415.776001
745.664001,476.287994,419.679993
739.807983,486.048004,417.727997
739.807983,478.239990,423.584015
737.856018,472.384003,423.584015
741.760010,464.575989,425.536011
743.711975,482.144012,435.295990
735.903992,484.096008,425.536011
733.952026,474.335999,433.343994
730.047974,476.287994,429.440002
732.000000,484.096008,433.343994
726.143982,499.712006,437.247986
722.239990,491.903992,435.295990
728.096008,493.855988,433.343994
722.239990,513.375977,431.391998
722.239990,499.712006,435.295990
722.239990,501.664001,439.200012
722.239990,501.664001,433.343994
730.047974,505.567993,427.488007
726.143982,503.615997,425.536011
724.192017,503.615997,425.536011
714.432007,497.760010,429.440002
730.047974,489.951996,427.488007
733.952026,491.903992,431.391998
728.096008,484.096008,427.488007
732.000000,486.048004,435.295990
732.000000,476.287994,435.295990
732.000000,480.191986,439.200012
730.047974,486.048004,439.200012
732.000000,480.191986,433.343994
730.047974,486.048004,439.200012
733.952026,488.000000,437.247986
730.047974,486.048004,433.343994
726.143982,488.000000,437.247986
728.096008,493.855988,431.391998
732.000000,493.855988,443.104004
726.143982,505.567993,439.200012
732.000000,505.567993,431.391998
728.096008,488.000000,431.391998
728.096008,495.808014,431.391998
730.047974,493.855988,437.247986
733.952026,499.712006,431.391998
739.807983,499.712006,431.391998
732.000000,488.000000,437.247986
722.239990,478.239990,447.007996
735.903992,460.671997,445.056000
726.143982,474.335999,443.104004
735.903992,480.191986,433.343994
743.711975,458.720001,439.200012
741.760010,470.432007,435.295990
730.047974,476.287994,441.152008
732.000000,478.239990,447.007996
730.047974,497.760010,448.959991
730.047974,486.048004,433.343994
728.096008,489.951996,441.152008
728.096008,507.519989,443.104004
735.903992,505.567993,439.200012
733.952026,495.808014,435.295990
735.903992,507.519989,435.295990
743.711975,507.519989,437.247986
739.807983,501.664001,441.152008
735.903992,507.519989,439.200012
730.047974,501.664001,445.056000
743.711975,505.567993,441.152008
733.952026,513.375977,445.056000
733.952026,501.664001,447.007996
733.952026,482.144012,447.007996
743.711975,474.335999,448.959991
745.664001,480.191986,452.864014
747.616028,480.191986,448.959991
737.856018,468.480011,445.056000
737.856018,472.384003,443.104004
737.856018,478.239990,435.295990
730.047974,476.287994,439.200012
728.096008,488.000000,429.440002
735.903992,482.144012,429.440002
730.047974,493.855988,429.440002
730.047974,497.760010,431.391998
728.096008,493.855988,431.391998
732.000000,488.000000,433.343994
728.096008,493.855988,425.536011
722.239990,501.664001,429.440002
730.047974,495.808014,443.104004
735.903992,493.855988,443.104004
737.856018,489.951996,443.104004
730.047974,491.903992,443.104004
728.096008,489.951996,452.864014
728.096008,480.191986,447.007996
733.952026,482.144012,447.007996
728.096008,478.239990,447.007996
718.335999,476.287994,445.056000
722.239990,482.144012,441.152008
716.383972,470.432007,441.152008
712.479980,472.384003,433.343994
724.192017,482.144012,433.343994
724.192017,482.144012,425.536011
706.624023,489.951996,431.391998
710.528015,482.144012,425.536011
710.528015,491.903992,429.440002
704.671997,493.855988,427.488007
706.624023,489.951996,435.295990
710.528015,493.855988,427.488007
716.383972,501.664001,429.440002
720.288025,497.760010,435.295990
720.288025,493.855988,435.295990
708.575989,501.664001,441.152008
708.575989,484.096008,441.152008
712.479980,486.048004,454.816010
714.432007,486.048004,447.007996
704.671997,480.191986,443.104004
694.911987,484.096008,445.056000
696.864014,489.951996,441.152008
704.671997,486.048004,439.200012
696.864014,480.191986,439.200012
708.575989,489.951996,421.631989
700.768005,488.000000,419.679993
698.815979,495.808014,415.776001
687.104004,495.808014,417.727997
708.575989,499.712006,423.584015
704.671997,491.903992,421.631989
696.864014,489.951996,423.584015
700.768005,497.760010,431.391998
712.479980,499.712006,427.488007
700.768005,495.808014,431.391998
698.815979,505.567993,431.391998
706.624023,495.808014,443.104004
704.671997,489.951996,437.247986
706.624023,499.712006,448.959991
712.479980,495.808014,454.816010
712.479980,503.615997,456.768005
706.624023,499.712006,448.959991
710.528015,501.664001,462.623993
712.479980,505.567993,448.959991
712.479980,499.712006,448.959991
710.528015,507.519989,443.104004
702.719971,505.567993,447.007996
708.575989,509.471985,441.152008
702.719971,511.424011,437.247986
708.575989,495.808014,433.343994
706.624023,507.519989,429.440002
698.815979,511.424011,427.488007
710.528015,513.375977,431.391998
698.815979,517.280029,427.488007
708.575989,521.184021,439.200012
704.671997,517.280029,441.152008
696.864014,519.231995,437.247986
704.671997,517.280029,441.152008
714.432007,517.280029,445.056000
706.624023,521.184021,450.911987
706.624023,517.280029,454.816010
714.432007,521.184021,460.671997
708.575989,521.184021,460.671997
714.432007,528.992004,452.864014
710.528015,517.280029,448.959991
706.624023,521.184021,448.959991
710.528015,517.280029,445.056000
712.479980,525.088013,450.911987
712.479980,519.231995,450.911987
710.528015,519.231995,437.247986
714.432007,523.135986,439.200012
702.719971,521.184021,439.200012
710.528015,527.039978,439.200012
708.575989,525.088013,431.391998
702.719971,530.943970,431.391998
712.479980,528.992004,427.488007
710.528015,528.992004,439.200012
708.575989,527.039978,435.295990
710.528015,532.895996,439.200012
710.528015,521.184021,437.247986
712.479980,527.039978,452.864014
716.383972,515.328003,443.104004
718.335999,527.039978,454.816010
722.239990,528.992004,462.623993
722.239990,530.943970,456.768005
718.335999,527.039978,452.864014
726.143982,532.895996,445.056000
716.383972,534.848022,443.104004
718.335999,536.799988,447.007996
716.383972,532.895996,439.200012
714.432007,532.895996,439.200012
716.383972,540.703979,443.104004
712.479980,534.848022,435.295990
716.383972,534.848022,431.391998
712.479980,540.703979,435.295990
716.383972,536.799988,427.488007
712.479980,538.752014,419.679993
706.624023,540.703979,429.440002
714.432007,536.799988,421.631989
720.288025,534.848022,433.343994
722.239990,525.088013,429.440002
728.096008,523.135986,437.247986
718.335999,530.943970,441.152008
718.335999,534.848022,443.104004
724.192017,536.799988,447.007996
728.096008,540.703979,441.152008
728.096008,544.607971,450.911987
735.903992,538.752014,443.104004
726.143982,530.943970,439.200012
728.096008,536.799988,437.247986
732.000000,544.607971,429.440002
732.000000,550.463989,431.391998
726.143982,540.703979,433.343994
726.143982,536.799988,433.343994
724.192017,536.799988,429.440002
722.239990,548.512024,425.536011
733.952026,542.656006,423.584015
728.096008,546.559998,417.727997
730.047974,544.607971,431.391998
730.047974,540.703979,433.343994
718.335999,536.799988,427.488007
726.143982,548.512024,429.440002
726.143982,536.799988,433.343994
726.143982,538.752014,429.440002
730.047974,536.799988,433.343994
732.000000,527.039978,435.295990
730.047974,538.752014,435.295990
733.952026,530.943970,431.391998
735.903992,538.752014,433.343994
735.903992,538.752014,435.295990
730.047974,552.416016,431.391998
730.047974,548.512024,435.295990
730.047974,552.416016,425.536011
732.000000,552.416016,425.536011
728.096008,550.463989,431.391998
726.143982,548.512024,429.440002
732.000000,558.271973,421.631989
732.000000,546.559998,419.679993
718.335999,546.559998,425.536011
728.096008,542.656006,417.727997
726.143982,542.656006,421.631989
726.143982,556.320007,425.536011
720.288025,546.559998,421.631989
714.432007,536.799988,417.727997
724.192017,552.416016,425.536011
726.143982,546.559998,419.679993
722.239990,546.559998,421.631989
718.335999,542.656006,425.536011
714.432007,544.607971,419.679993
718.335999,558.271973,421.631989
714.432007,538.752014,419.679993
720.288025,560.223999,425.536011
718.335999,558.271973,417.727997
718.335999,560.223999,427.488007
716.383972,562.176025,417.727997
720.288025,560.223999,425.536011
724.192017,554.367981,413.824005
710.528015,560.223999,427.488007
716.383972,558.271973,415.776001
714.432007,558.271973,421.631989
714.432007,548.512024,425.536011
714.432007,566.080017,427.488007
716.383972,558.271973,429.440002
710.528015,552.416016,427.488007
720.288025,546.559998,423.584015
718.335999,558.271973,425.536011
718.335999,556.320007,423.584015
712.479980,554.367981,417.727997
708.575989,554.367981,427.488007
706.624023,558.271973,421.631989
714.432007,556.320007,423.584015
712.479980,550.463989,415.776001
698.815979,556.320007,413.824005
704.671997,560.223999,415.776001
712.479980,562.176025,421.631989
712.479980,562.176025,417.727997
712.479980,562.176025,421.631989
714.432007,562.176025,427.488007
716.383972,560.223999,417.727997
714.432007,556.320007,419.679993
712.479980,556.320007,427.488007
708.575989,558.271973,427.488007
718.335999,564.127991,425.536011
714.432007,554.367981,429.440002
716.383972,546.559998,431.391998
712.479980,542.656006,419.679993
716.383972,550.463989,423.584015
710.528015,548.512024,421.631989
712.479980,544.607971,427.488007
714.432007,544.607971,413.824005
714.432007,536.799988,413.824005
714.432007,538.752014,419.679993
716.383972,550.463989,419.679993
716.383972,560.223999,419.679993
712.479980,546.559998,413.824005
712.479980,550.463989,415.776001
718.335999,550.463989,417.727997
716.383972,556.320007,421.631989
716.383972,550.463989,421.631989
718.335999,546.559998,423.584015
720.288025,544.607971,423.584015
724.192017,546.559998,425.536011
716.383972,546.559998,425.536011
720.288025,534.848022,425.536011
722.239990,532.895996,421.631989
718.335999,536.799988,417.727997
722.239990,527.039978,429.440002
737.856018,525.088013,425.536011
718.335999,527.039978,423.584015
724.192017,528.992004,423.584015
724.192017,532.895996,423.584015
726.143982,525.088013,413.824005
730.047974,527.039978,411.872009
730.047974,532.895996,417.727997
726.143982,532.895996,413.824005
728.096008,527.039978,425.536011
730.047974,534.848022,413.824005
726.143982,534.848022,419.679993
730.047974,534.848022,421.631989
732.000000,530.943970,425.536011
737.856018,528.992004,423.584015
739.807983,525.088013,429.440002
741.760010,525.088013,429.440002
751.520020,523.135986,435.295990
741.760010,521.184021,433.343994
739.807983,523.135986,429.440002
741.760010,527.039978,429.440002
743.711975,523.135986,427.488007
751.520020,519.231995,425.536011
749.567993,519.231995,427.488007
743.711975,519.231995,421.631989
741.760010,517.280029,421.631989
741.760010,517.280029,413.824005
747.616028,519.231995,419.679993
743.711975,519.231995,417.727997
743.711975,519.231995,415.776001
751.520020,521.184021,417.727997
737.856018,523.135986,417.727997
747.616028,519.231995,417.727997
747.616028,530.943970,419.679993
755.424011,525.088013,411.872009
751.520020,515.328003,413.824005
753.471985,519.231995,421.631989
751.520020,521.184021,429.440002
757.375977,521.184021,423.584015
753.471985,517.280029,421.631989
751.520020,523.135986,429.440002
751.520020,528.992004,427.488007
757.375977,515.328003,419.679993
759.328003,523.135986,419.679993
759.328003,521.184021,421.631989
753.471985,521.184021,415.776001
749.567993,519.231995,409.920013
745.664001,517.280029,413.824005
755.424011,527.039978,419.679993
753.471985,527.039978,411.872009
753.471985,532.895996,407.967987
751.520020,532.895996,409.920013
747.616028,528.992004,409.920013
757.375977,519.231995,411.872009
757.375977,523.135986,419.679993
759.328003,521.184021,409.920013
767.135986,528.992004,413.824005
763.231995,523.135986,419.679993
761.280029,530.943970,417.727997
769.088013,523.135986,419.679993
767.135986,527.039978,419.679993
774.943970,530.943970,421.631989
772.992004,528.992004,421.631989
769.088013,527.039978,415.776001
774.943970,527.039978,409.920013
772.992004,523.135986,415.776001
774.943970,527.039978,419.679993
774.943970,530.943970,415.776001
771.039978,536.799988,417.727997
772.992004,538.752014,411.872009
776.895996,528.992004,415.776001
774.943970,534.848022,406.015991
782.752014,534.848022,409.920013
774.943970,538.752014,419.679993
771.039978,540.703979,413.824005
774.943970,542.656006,406.015991
771.039978,540.703979,419.679993
772.992004,548.512024,419.679993
772.992004,536.799988,417.727997
778.848022,534.848022,425.536011
772.992004,540.703979,417.727997
774.943970,540.703979,425.536011
769.088013,528.992004,419.679993
765.184021,536.799988,415.776001
771.039978,536.799988,413.824005
765.184021,538.752014,423.584015
774.943970,534.848022,411.872009
774.943970,538.752014,415.776001
769.088013,534.848022,417.727997
767.135986,544.607971,409.920013
774.943970,550.463989,417.727997
771.039978,540.703979,419.679993
765.184021,550.463989,411.872009
772.992004,538.752014,419.679993
776.895996,536.799988,409.920013
772.992004,548.512024,413.824005
774.943970,550.463989,415.776001
772.992004,544.607971,419.679993
769.088013,538.752014,425.536011
769.088013,544.607971,427.488007
771.039978,536.799988,413.824005
769.088013,530.943970,419.679993
772.992004,536.799988,417.727997
769.088013,530.943970,415.776001
774.943970,538.752014,431.391998
769.088013,540.703979,431.391998
772.992004,536.799988,417.727997
771.039978,532.895996,427.488007
767.135986,536.799988,429.440002
769.088013,530.943970,417.727997
769.088013,534.848022,425.536011
771.039978,538.752014,419.679993
774.943970,530.943970,419.679993
772.992004,548.512024,413.824005
776.895996,550.463989,415.776001
778.848022,538.752014,413.824005
772.992004,540.703979,417.727997
772.992004,536.799988,425.536011
769.088013,527.039978,419.679993
769.088013,528.992004,419.679993
771.039978,530.943970,417.727997
772.992004,527.039978,427.488007
776.895996,530.943970,417.727997
776.895996,534.848022,429.440002
778.848022,528.992004,427.488007
786.656006,528.992004,427.488007
778.848022,528.992004,429.440002
776.895996,521.184021,427.488007
782.752014,532.895996,427.488007
784.703979,523.135986,429.440002
782.752014,527.039978,429.440002
786.656006,530.943970,429.440002
776.895996,521.184021,429.440002
774.943970,534.848022,431.391998
780.799988,525.088013,427.488007
784.703979,532.895996,439.200012
786.656006,517.280029,429.440002
786.656006,517.280029,437.247986
784.703979,525.088013,433.343994
782.752014,521.184021,429.440002
786.656006,515.328003,433.343994
780.799988,521.184021,443.104004
782.752014,515.328003,437.247986
780.799988,509.471985,443.104004
782.752014,513.375977,447.007996
788.607971,517.280029,433.343994
788.607971,511.424011,439.200012
790.559998,511.424011,448.959991
788.607971,521.184021,445.056000
782.752014,517.280029,443.104004
780.799988,517.280029,447.007996
790.559998,507.519989,448.959991
784.703979,517.280029,454.816010
788.607971,523.135986,454.816010
784.703979,517.280029,448.959991
802.271973,517.280029,448.959991
802.271973,519.231995,445.056000
804.223999,517.280029,445.056000
798.367981,515.328003,450.911987
802.271973,515.328003,452.864014
796.416016,507.519989,448.959991
790.559998,515.328003,454.816010
798.367981,503.615997,452.864014
800.320007,509.471985,460.671997
804.223999,505.567993,454.816010
802.271973,507.519989,458.720001
798.367981,513.375977,462.623993
796.416016,499.712006,454.816010
804.223999,517.280029,448.959991
806.176025,515.328003,462.623993
800.320007,509.471985,452.864014
802.271973,517.280029,454.816010
802.271973,507.519989,456.768005
792.512024,513.375977,448.959991
798.367981,499.712006,452.864014
796.416016,513.375977,450.911987
804.223999,505.567993,456.768005
804.223999,517.280029,445.056000
802.271973,501.664001,458.720001
790.559998,515.328003,452.864014
798.367981,505.567993,458.720001
804.223999,507.519989,445.056000
790.559998,503.615997,450.911987
794.463989,513.375977,448.959991
790.559998,503.615997,448.959991
794.463989,509.471985,452.864014
790.559998,503.615997,450.911987
792.512024,509.471985,441.152008
794.463989,513.375977,447.007996
790.559998,503.615997,441.152008
794.463989,503.615997,439.200012
788.607971,505.567993,433.343994
788.607971,507.519989,441.152008
790.559998,503.615997,447.007996
788.607971,505.567993,441.152008
780.799988,513.375977,431.391998
778.848022,513.375977,437.247986
788.607971,503.615997,443.104004
786.656006,509.471985,439.200012
784.703979,507.519989,431.391998
786.656006,513.375977,433.343994
778.848022,515.328003,437.247986
782.752014,509.471985,441.152008
786.656006,503.615997,437.247986
778.848022,509.471985,433.343994
776.895996,509.471985,439.200012
772.992004,505.567993,437.247986
774.943970,505.567993,439.200012
778.848022,509.471985,425.536011
780.799988,507.519989,431.391998
776.895996,517.280029,423.584015
776.895996,507.519989,425.536011
782.752014,509.471985,417.727997
772.992004,505.567993,425.536011
780.799988,509.471985,431.391998
782.752014,505.567993,427.488007
776.895996,513.375977,431.391998
769.088013,505.567993,427.488007
772.992004,513.375977,417.727997
772.992004,503.615997,411.872009
769.088013,499.712006,415.776001
778.848022,517.280029,415.776001
772.992004,507.519989,419.679993
780.799988,515.328003,425.536011
776.895996,517.280029,417.727997
769.088013,509.471985,411.872009
776.895996,511.424011,421.631989
772.992004,503.615997,423.584015
772.992004,509.471985,417.727997
774.943970,515.328003,411.872009
765.184021,513.375977,413.824005
771.039978,511.424011,415.776001
774.943970,515.328003,406.015991
774.943970,507.519989,404.063995
771.039978,511.424011,415.776001
765.184021,505.567993,419.679993
763.231995,505.567993,407.967987
759.328003,499.712006,406.015991
767.135986,503.615997,406.015991
765.184021,511.424011,407.967987
765.184021,499.712006,404.063995
772.992004,501.664001,398.208008
763.231995,499.712006,406.015991
765.184021,501.664001,396.256012
761.280029,517.280029,404.063995
757.375977,509.471985,400.160004
763.231995,509.471985,396.256012
757.375977,511.424011,398.208008
772.992004,503.615997,396.256012
759.328003,513.375977,396.256012
757.375977,507.519989,400.160004
759.328003,501.664001,394.303986
763.231995,503.615997,396.256012
771.039978,517.280029,392.351990
763.231995,513.375977,396.256012
771.039978,505.567993,386.496002
765.184021,505.567993,386.496002
767.135986,501.664001,390.399994
774.943970,499.712006,392.351990
765.184021,507.519989,396.256012
765.184021,501.664001,398.208008
757.375977,501.664001,392.351990
767.135986,501.664001,394.303986
771.039978,495.808014,398.208008
772.992004,503.615997,396.256012
767.135986,503.615997,400.160004
767.135986,505.567993,398.208008
778.848022,501.664001,406.015991
776.895996,499.712006,390.399994
782.752014,501.664001,404.063995
776.895996,491.903992,404.063995
778.848022,493.855988,407.967987
778.848022,495.808014,396.256012
776.895996,493.855988,398.208008
771.039978,491.903992,406.015991
772.992004,491.903992,404.063995
772.992004,501.664001,404.063995
772.992004,501.664001,402.112000
774.943970,495.808014,407.967987
772.992004,495.808014,402.112000
771.039978,491.903992,400.160004
772.992004,484.096008,398.208008
774.943970,484.096008,411.872009
769.088013,488.000000,409.920013
772.992004,489.951996,404.063995
769.088013,484.096008,404.063995
771.039978,480.191986,415.776001
774.943970,484.096008,404.063995
769.088013,486.048004,402.112000
769.088013,478.239990,398.208008
769.088013,480.191986,402.112000
769.088013,484.096008,406.015991
769.088013,476.287994,411.872009
765.184021,482.144012,415.776001
769.088013,470.432007,411.872009
765.184021,474.335999,411.872009
771.039978,476.287994,415.776001
765.184021,486.048004,411.872009
765.184021,482.144012,413.824005
761.280029,474.335999,409.920013
769.088013,466.528015,409.920013
765.184021,484.096008,421.631989
772.992004,468.480011,425.536011
761.280029,462.623993,419.679993
761.280029,460.671997,417.727997
757.375977,462.623993,419.679993
759.328003,462.623993,417.727997
761.280029,462.623993,413.824005
761.280029,458.720001,413.824005
753.471985,462.623993,411.872009
763.231995,460.671997,413.824005
755.424011,462.623993,419.679993
755.424011,460.671997,423.584015
757.375977,458.720001,427.488007
757.375977,454.816010,421.631989
759.328003,452.864014,421.631989
759.328003,447.007996,409.920013
771.039978,462.623993,411.872009
765.184021,462.623993,419.679993
767.135986,462.623993,423.584015
771.039978,462.623993,431.391998
759.328003,470.432007,427.488007
759.328003,468.480011,425.536011
763.231995,466.528015,429.440002
767.135986,464.575989,417.727997
763.231995,458.720001,423.584015
763.231995,454.816010,435.295990
771.039978,464.575989,429.440002
774.943970,452.864014,435.295990
767.135986,456.768005,423.584015
769.088013,458.720001,431.391998
761.280029,445.056000,435.295990
755.424011,452.864014,425.536011
765.184021,456.768005,435.295990
769.088013,460.671997,431.391998
767.135986,466.528015,417.727997
763.231995,460.671997,425.536011
761.280029,454.816010,433.343994
761.280029,456.768005,429.440002
765.184021,458.720001,425.536011
772.992004,452.864014,425.536011
774.943970,450.911987,425.536011
769.088013,452.864014,433.343994
771.039978,468.480011,437.247986
771.039978,460.671997,429.440002
763.231995,460.671997,437.247986
765.184021,460.671997,433.343994
757.375977,462.623993,441.152008
767.135986,462.623993,433.343994
765.184021,466.528015,431.391998
763.231995,458.720001,427.488007
763.231995,445.056000,427.488007
755.424011,456.768005,435.295990
755.424011,454.816010,429.440002
761.280029,460.671997,425.536011
763.231995,456.768005,429.440002
749.567993,464.575989,429.440002
763.231995,456.768005,431.391998
755.424011,468.480011,433.343994
763.231995,462.623993,425.536011
759.328003,464.575989,425.536011
749.567993,462.623993,431.391998
759.328003,462.623993,431.391998
749.567993,456.768005,435.295990
759.328003,460.671997,425.536011
761.280029,466.528015,423.584015
759.328003,466.528015,425.536011
751.520020,462.623993,429.440002
755.424011,456.768005,419.679993
761.280029,458.720001,419.679993
761.280029,466.528015,419.679993
757.375977,464.575989,417.727997
755.424011,458.720001,417.727997
759.328003,454.816010,409.920013
755.424011,462.623993,415.776001
747.616028,466.528015,409.920013
745.664001,454.816010,411.872009
751.520020,454.816010,413.824005
749.567993,466.528015,419.679993
751.520020,464.575989,407.967987
755.424011,458.720001,419.679993
755.424011,470.432007,417.727997
755.424011,462.623993,409.920013
755.424011,464.575989,413.824005
753.471985,472.384003,415.776001
747.616028,462.623993,415.776001
741.760010,474.335999,415.776001
751.520020,480.191986,417.727997
757.375977,470.432007,417.727997
755.424011,476.287994,409.920013
753.471985,468.480011,413.824005
749.567993,464.575989,413.824005
743.711975,466.528015,407.967987
749.567993,464.575989,409.920013
749.567993,474.335999,407.967987
745.664001,482.144012,407.967987
737.856018,486.048004,409.920013
743.711975,480.191986,404.063995
745.664001,480.191986,411.872009
757.375977,474.335999,407.967987
743.711975,474.335999,409.920013
743.711975,478.239990,411.872009
743.711975,480.191986,411.872009
747.616028,486.048004,419.679993
743.711975,482.144012,406.015991
743.711975,488.000000,415.776001
743.711975,484.096008,406.015991
745.664001,484.096008,404.063995
737.856018,484.096008,406.015991
743.711975,488.000000,415.776001
743.711975,480.191986,411.872009
741.760010,480.191986,413.824005
741.760010,476.287994,413.824005
739.807983,484.096008,415.776001
737.856018,484.096008,404.063995
739.807983,501.664001,409.920013
733.952026,491.903992,413.824005
733.952026,493.855988,406.015991
732.000000,489.951996,409.920013
733.952026,493.855988,400.160004
741.760010,489.951996,398.208008
739.807983,489.951996,402.112000
730.047974,493.855988,404.063995
733.952026,499.712006,406.015991
732.000000,499.712006,404.063995
728.096008,497.760010,402.112000
726.143982,493.855988,402.112000
730.047974,499.712006,406.015991
722.239990,493.855988,413.824005
726.143982,501.664001,411.872009
737.856018,503.615997,404.063995
732.000000,497.760010,411.872009
726.143982,505.567993,398.208008
732.000000,505.567993,407.967987
728.096008,505.567993,404.063995
730.047974,509.471985,404.063995
726.143982,503.615997,406.015991
726.143982,507.519989,404.063995
718.335999,509.471985,404.063995
730.047974,509.471985,411.872009
733.952026,501.664001,404.063995
724.192017,515.328003,394.303986
718.335999,511.424011,406.015991
730.047974,517.280029,407.967987
730.047974,517.280029,407.967987
730.047974,517.280029,407.967987
728.096008,517.280029,402.112000
733.952026,515.328003,409.920013
733.952026,507.519989,398.208008
735.903992,505.567993,407.967987
735.903992,519.231995,406.015991
739.807983,519.231995,406.015991
733.952026,525.088013,406.015991
739.807983,521.184021,407.967987
733.952026,530.943970,406.015991
735.903992,517.280029,406.015991
732.000000,523.135986,411.872009
739.807983,521.184021,407.967987
739.807983,530.943970,406.015991
739.807983,521.184021,402.112000
735.903992,525.088013,407.967987
735.903992,517.280029,404.063995
732.000000,527.039978,394.303986
730.047974,515.328003,390.399994
733.952026,521.184021,398.208008
732.000000,525.088013,398.208008
739.807983,519.231995,404.063995
735.903992,517.280029,398.208008
737.856018,528.992004,409.920013
732.000000,525.088013,406.015991
730.047974,517.280029,407.967987
733.952026,523.135986,407.967987
735.903992,519.231995,404.063995
737.856018,515.328003,400.160004
735.903992,521.184021,406.015991
741.760010,521.184021,404.063995
739.807983,521.184021,407.967987
737.856018,521.184021,402.112000
743.711975,521.184021,398.208008
733.952026,521.184021,404.063995
735.903992,517.280029,398.208008
728.096008,519.231995,400.160004
733.952026,515.328003,390.399994
741.760010,517.280029,394.303986
743.711975,521.184021,404.063995
733.952026,519.231995,400.160004
735.903992,509.471985,390.399994
743.711975,515.328003,400.160004
749.567993,513.375977,394.303986
737.856018,515.328003,404.063995
743.711975,493.855988,396.256012
741.760010,501.664001,404.063995
743.711975,513.375977,404.063995
743.711975,513.375977,400.160004
741.760010,511.424011,394.303986
747.616028,507.519989,400.160004
755.424011,509.471985,400.160004
749.567993,509.471985,402.112000
745.664001,509.471985,402.112000
755.424011,509.471985,404.063995
749.567993,513.375977,404.063995
747.616028,503.615997,398.208008
749.567993,507.519989,400.160004
755.424011,507.519989,398.208008
755.424011,507.519989,396.256012
763.231995,513.375977,396.256012
753.471985,511.424011,392.351990
757.375977,511.424011,398.208008
759.328003,509.471985,396.256012
755.424011,517.280029,398.208008
749.567993,503.615997,400.160004
755.424011,507.519989,402.112000
751.520020,503.615997,402.112000
755.424011,507.519989,406.015991
757.375977,513.375977,407.967987
763.231995,505.567993,406.015991
755.424011,507.519989,402.112000
757.375977,513.375977,407.967987
757.375977,509.471985,398.208008
761.280029,505.567993,398.208008
763.231995,517.280029,407.967987
767.135986,517.280029,407.967987
767.135986,503.615997,404.063995
757.375977,511.424011,402.112000
755.424011,511.424011,407.967987
763.231995,515.328003,400.160004
763.231995,499.712006,394.303986
763.231995,497.760010,400.160004
757.375977,505.567993,398.208008
757.375977,503.615997,390.399994
761.280029,505.567993,398.208008
753.471985,499.712006,404.063995
757.375977,513.375977,398.208008
757.375977,505.567993,407.967987
763.231995,511.424011,404.063995
759.328003,509.471985,407.967987
757.375977,505.567993,407.967987
763.231995,503.615997,396.256012
767.135986,505.567993,407.967987
761.280029,505.567993,402.112000
761.280029,507.519989,407.967987
763.231995,499.712006,400.160004
765.184021,505.567993,400.160004
759.328003,511.424011,400.160004
749.567993,515.328003,402.112000
759.328003,503.615997,396.256012
757.375977,507.519989,407.967987
759.328003,511.424011,404.063995
755.424011,513.375977,400.160004
763.231995,511.424011,407.967987
753.471985,519.231995,402.112000
753.471985,517.280029,400.160004
759.328003,511.424011,396.256012
763.231995,515.328003,396.256012
745.664001,513.375977,402.112000
757.375977,507.519989,404.063995
745.664001,515.328003,400.160004
749.567993,513.375977,406.015991
755.424011,517.280029,404.063995
749.567993,509.471985,406.015991
753.471985,505.567993,404.063995
743.711975,509.471985,400.160004
749.567993,515.328003,400.160004
755.424011,517.280029,400.160004
743.711975,507.519989,396.256012
739.807983,507.519989,390.399994
739.807983,511.424011,390.399994
743.711975,497.760010,390.399994
741.760010,501.664001,398.208008
751.520020,501.664001,398.208008
753.471985,501.664001,394.303986
747.616028,505.567993,400.160004
741.760010,489.951996,398.208008
743.711975,503.615997,396.256012
747.616028,499.712006,390.399994
751.520020,497.760010,398.208008
751.520020,497.760010,406.015991
751.520020,495.808014,398.208008
739.807983,499.712006,404.063995
743.711975,509.471985,400.160004
751.520020,501.664001,402.112000
751.520020,497.760010,396.256012
755.424011,495.808014,396.256012
747.616028,495.808014,390.399994
739.807983,495.808014,400.160004
743.711975,499.712006,390.399994
747.616028,499.712006,390.399994
751.520020,501.664001,402.112000
749.567993,497.760010,396.256012
747.616028,501.664001,398.208008
739.807983,501.664001,396.256012
751.520020,497.760010,398.208008
745.664001,495.808014,396.256012
749.567993,493.855988,396.256012
751.520020,491.903992,396.256012
743.711975,501.664001,398.208008
753.471985,495.808014,400.160004
749.567993,491.903992,398.208008
751.520020,491.903992,398.208008
755.424011,499.712006,390.399994
753.471985,491.903992,392.351990
753.471985,497.760010,400.160004
749.567993,486.048004,390.399994
743.711975,497.760010,390.399994
751.520020,495.808014,394.303986
749.567993,501.664001,392.351990
761.280029,495.808014,394.303986
745.664001,501.664001,398.208008
741.760010,505.567993,394.303986
751.520020,493.855988,404.063995
757.375977,501.664001,394.303986
751.520020,499.712006,400.160004
751.520020,499.712006,404.063995
751.520020,493.855988,407.967987
759.328003,489.951996,409.920013
753.471985,497.760010,407.967987
751.520020,488.000000,400.160004
745.664001,491.903992,402.112000
753.471985,482.144012,390.399994
747.616028,493.855988,396.256012
755.424011,499.712006,390.399994
751.520020,484.096008,396.256012
749.567993,491.903992,392.351990
759.328003,495.808014,394.303986
755.424011,495.808014,386.496002
759.328003,489.951996,396.256012
761.280029,495.808014,392.351990
761.280029,489.951996,386.496002
761.280029,493.855988,392.351990
759.328003,484.096008,382.592010
763.231995,489.951996,392.351990
767.135986,488.000000,390.399994
769.088013,495.808014,386.496002
772.992004,486.048004,382.592010
776.895996,488.000000,386.496002
772.992004,486.048004,382.592010
772.992004,495.808014,390.399994
778.848022,488.000000,390.399994
780.799988,484.096008,400.160004
778.848022,493.855988,386.496002
784.703979,501.664001,396.256012
774.943970,497.760010,388.447998
784.703979,484.096008,390.399994
796.416016,491.903992,398.208008
788.607971,509.471985,396.256012
790.559998,495.808014,400.160004
794.463989,493.855988,394.303986
798.367981,495.808014,402.112000
800.320007,501.664001,404.063995
792.512024,499.712006,394.303986
800.320007,501.664001,394.303986
802.271973,495.808014,409.920013
806.176025,488.000000,407.967987
804.223999,495.808014,398.208008
802.271973,495.808014,398.208008
804.223999,503.615997,394.303986
808.127991,505.567993,390.399994
813.984009,501.664001,396.256012
808.127991,505.567993,394.303986
815.935974,499.712006,402.112000
815.935974,495.808014,402.112000
806.176025,507.519989,394.303986
810.080017,503.615997,400.160004
812.031982,505.567993,392.351990
815.935974,499.712006,400.160004
812.031982,505.567993,396.256012
810.080017,511.424011,402.112000
808.127991,503.615997,398.208008
817.888000,505.567993,398.208008
812.031982,503.615997,394.303986
821.791992,497.760010,400.160004
812.031982,503.615997,406.015991
821.791992,507.519989,400.160004
812.031982,505.567993,404.063995
812.031982,505.567993,398.208008
817.888000,509.471985,398.208008
812.031982,505.567993,398.208008
812.031982,509.471985,394.303986
813.984009,491.903992,398.208008
808.127991,495.808014,398.208008
813.984009,497.760010,400.160004
804.223999,495.808014,390.399994
798.367981,491.903992,390.399994
800.320007,497.760010,384.544006
804.223999,491.903992,378.687988
796.416016,507.519989,384.544006
804.223999,505.567993,380.640015
806.176025,495.808014,380.640015
800.320007,495.808014,386.496002
806.176025,499.712006,384.544006
804.223999,501.664001,398.208008
808.127991,482.144012,402.112000
804.223999,493.855988,396.256012
810.080017,489.951996,400.160004
804.223999,491.903992,398.208008
802.271973,495.808014,398.208008
806.176025,482.144012,400.160004
806.176025,491.903992,398.208008
808.127991,501.664001,402.112000
810.080017,509.471985,400.160004
813.984009,499.712006,398.208008
806.176025,499.712006,396.256012
800.320007,507.519989,398.208008
800.320007,499.712006,390.399994
798.367981,499.712006,396.256012
806.176025,497.760010,388.447998
810.080017,497.760010,390.399994
804.223999,488.000000,386.496002
802.271973,488.000000,392.351990
806.176025,499.712006,396.256012
810.080017,491.903992,400.160004
810.080017,480.191986,400.160004
813.984009,491.903992,402.112000
817.888000,488.000000,398.208008
813.984009,497.760010,400.160004
810.080017,497.760010,398.208008
806.176025,499.712006,409.920013
808.127991,497.760010,407.967987
812.031982,489.951996,404.063995
813.984009,495.808014,398.208008
808.127991,499.712006,390.399994
812.031982,509.471985,400.160004
808.127991,503.615997,404.063995
806.176025,503.615997,400.160004
808.127991,503.615997,398.208008
806.176025,509.471985,402.112000
812.031982,499.712006,396.256012
813.984009,505.567993,394.303986
815.935974,499.712006,400.160004
806.176025,503.615997,400.160004
808.127991,491.903992,406.015991
813.984009,497.760010,400.160004
815.935974,495.808014,402.112000
810.080017,501.664001,407.967987
808.127991,501.664001,407.967987
804.223999,501.664001,402.112000
806.176025,503.615997,402.112000
813.984009,497.760010,407.967987
808.127991,501.664001,407.967987
812.031982,513.375977,402.112000
810.080017,499.712006,409.920013
806.176025,511.424011,411.872009
808.127991,507.519989,413.824005
810.080017,515.328003,411.872009
802.271973,521.184021,409.920013
804.223999,503.615997,400.160004
806.176025,509.471985,406.015991
806.176025,515.328003,406.015991
806.176025,513.375977,411.872009
808.127991,517.280029,411.872009
798.367981,513.375977,402.112000
798.367981,507.519989,402.112000
800.320007,501.664001,407.967987
802.271973,501.664001,402.112000
802.271973,505.567993,406.015991
806.176025,505.567993,409.920013
802.271973,499.712006,411.872009
804.223999,513.375977,413.824005
798.367981,505.567993,409.920013
796.416016,507.519989,411.872009
792.512024,517.280029,409.920013
796.416016,513.375977,407.967987
790.559998,503.615997,409.920013
792.512024,519.231995,411.872009
794.463989,515.328003,415.776001
794.463989,513.375977,419.679993
806.176025,511.424011,406.015991
788.607971,515.328003,409.920013
798.367981,513.375977,407.967987
794.463989,503.615997,411.872009
788.607971,509.471985,413.824005
788.607971,511.424011,402.112000
782.752014,507.519989,413.824005
780.799988,507.519989,407.967987
786.656006,517.280029,409.920013
786.656006,505.567993,398.208008
780.799988,503.615997,411.872009
792.512024,511.424011,404.063995
788.607971,503.615997,413.824005
784.703979,507.519989,411.872009
782.752014,509.471985,409.920013
776.895996,513.375977,411.872009
778.848022,515.328003,411.872009
780.799988,515.328003,404.063995
776.895996,517.280029,411.872009
782.752014,515.328003,407.967987
776.895996,523.135986,402.112000
778.848022,525.088013,409.920013
782.752014,521.184021,409.920013
784.703979,521.184021,407.967987
776.895996,519.231995,415.776001
778.848022,519.231995,415.776001
776.895996,509.471985,423.584015
772.992004,519.231995,417.727997
772.992004,507.519989,413.824005
780.799988,515.328003,406.015991
782.752014,517.280029,406.015991
776.895996,501.664001,409.920013
774.943970,515.328003,411.872009
774.943970,509.471985,406.015991
772.992004,507.519989,417.727997
771.039978,515.328003,415.776001
771.039978,509.471985,419.679993
776.895996,515.328003,411.872009
774.943970,517.280029,415.776001
782.752014,521.184021,409.920013
782.752014,513.375977,415.776001
778.848022,519.231995,413.824005
784.703979,521.184021,419.679993
782.752014,517.280029,417.727997
774.943970,513.375977,407.967987
772.992004,517.280029,419.679993
776.895996,525.088013,421.631989
782.752014,513.375977,413.824005
776.895996,509.471985,423.584015
772.992004,505.567993,417.727997
772.992004,507.519989,413.824005
778.848022,507.519989,406.015991
771.039978,511.424011,413.824005
780.799988,503.615997,411.872009
776.895996,513.375977,411.872009
778.848022,503.615997,411.872009
771.039978,505.567993,423.584015
771.039978,511.424011,417.727997
774.943970,511.424011,406.015991
771.039978,517.280029,413.824005
772.992004,517.280029,417.727997
771.039978,517.280029,413.824005
765.184021,509.471985,413.824005
763.231995,507.519989,411.872009
765.184021,511.424011,411.872009
771.039978,515.328003,415.776001
771.039978,517.280029,419.679993
765.184021,511.424011,415.776001
772.992004,513.375977,417.727997
771.039978,507.519989,419.679993
767.135986,513.375977,402.112000
765.184021,501.664001,409.920013
763.231995,505.567993,402.112000
765.184021,505.567993,411.872009
767.135986,501.664001,417.727997
765.184021,501.664001,407.967987
763.231995,499.712006,407.967987
763.231995,507.519989,404.063995
761.280029,505.567993,407.967987
763.231995,499.712006,406.015991
761.280029,497.760010,394.303986
763.231995,503.615997,394.303986
767.135986,513.375977,402.112000
755.424011,513.375977,404.063995
761.280029,511.424011,411.872009
759.328003,511.424011,402.112000
761.280029,505.567993,398.208008
765.184021,499.712006,406.015991
763.231995,507.519989,406.015991
755.424011,513.375977,409.920013
761.280029,501.664001,406.015991
761.280029,509.471985,407.967987
763.231995,499.712006,407.967987
763.231995,507.519989,407.967987
759.328003,499.712006,404.063995
757.375977,501.664001,411.872009
753.471985,501.664001,402.112000
757.375977,507.519989,407.967987
749.567993,503.615997,402.112000
751.520020,505.567993,406.015991
751.520020,503.615997,407.967987
757.375977,507.519989,404.063995
751.520020,507.519989,402.112000
755.424011,511.424011,402.112000
759.328003,503.615997,396.256012
755.424011,509.471985,406.015991
759.328003,505.567993,398.208008
757.375977,507.519989,398.208008
763.231995,499.712006,400.160004
759.328003,505.567993,406.015991
751.520020,501.664001,409.920013
757.375977,505.567993,409.920013
755.424011,509.471985,411.872009
757.375977,507.519989,407.967987
755.424011,495.808014,411.872009
757.375977,513.375977,407.967987
755.424011,509.471985,402.112000
749.567993,501.664001,398.208008
745.664001,501.664001,407.967987
747.616028,509.471985,400.160004
749.567993,503.615997,404.063995
753.471985,499.712006,400.160004
759.328003,499.712006,394.303986
749.567993,503.615997,400.160004
759.328003,499.712006,400.160004
759.328003,499.712006,400.160004
759.328003,505.567993,400.160004
749.567993,505.567993,402.112000
759.328003,497.760010,400.160004
759.328003,501.664001,411.872009
755.424011,505.567993,400.160004
759.328003,493.855988,406.015991
749.567993,495.808014,409.920013
753.471985,499.712006,404.063995
755.424011,493.855988,400.160004
751.520020,501.664001,398.208008
753.471985,501.664001,402.112000
753.471985,499.712006,404.063995
759.328003,499.712006,406.015991
763.231995,503.615997,407.967987
749.567993,503.615997,400.160004
753.471985,497.760010,402.112000
753.471985,501.664001,407.967987
753.471985,499.712006,404.063995
763.231995,505.567993,400.160004
765.184021,499.712006,402.112000
765.184021,497.760010,398.208008
757.375977,503.615997,400.160004
759.328003,517.280029,407.967987
763.231995,513.375977,404.063995
769.088013,505.567993,402.112000
759.328003,499.712006,411.872009
751.520020,497.760010,402.112000
757.375977,499.712006,407.967987
759.328003,497.760010,407.967987
761.280029,497.760010,413.824005
761.280029,499.712006,411.872009
761.280029,505.567993,407.967987
759.328003,497.760010,404.063995
761.280029,499.712006,406.015991
763.231995,497.760010,406.015991
765.184021,495.808014,402.112000
759.328003,495.808014,404.063995
763.231995,499.712006,411.872009
759.328003,503.615997,409.920013
763.231995,497.760010,406.015991
761.280029,495.808014,407.967987
771.039978,495.808014,400.160004
763.231995,497.760010,400.160004
761.280029,505.567993,404.063995
761.280029,495.808014,406.015991
767.135986,495.808014,404.063995
763.231995,499.712006,406.015991
771.039978,495.808014,411.872009
769.088013,499.712006,415.776001
761.280029,491.903992,411.872009
765.184021,493.855988,404.063995
759.328003,497.760010,411.872009
755.424011,501.664001,406.015991
757.375977,501.664001,400.160004
759.328003,497.760010,402.112000
763.231995,499.712006,404.063995
759.328003,499.712006,404.063995
761.280029,499.712006,402.112000
763.231995,495.808014,404.063995
759.328003,488.000000,400.160004
753.471985,497.760010,407.967987
765.184021,501.664001,402.112000
757.375977,495.808014,400.160004
755.424011,491.903992,404.063995
759.328003,499.712006,400.160004
751.520020,488.000000,402.112000
759.328003,493.855988,411.872009
757.375977,495.808014,411.872009
759.328003,497.760010,402.112000
761.280029,495.808014,406.015991
749.567993,488.000000,402.112000
761.280029,493.855988,402.112000
763.231995,499.712006,400.160004
759.328003,489.951996,404.063995
763.231995,493.855988,406.015991
763.231995,501.664001,396.256012
757.375977,497.760010,406.015991
759.328003,499.712006,402.112000
759.328003,493.855988,394.303986
761.280029,488.000000,398.208008
763.231995,499.712006,400.160004
763.231995,497.760010,402.112000
761.280029,491.903992,394.303986
759.328003,493.855988,394.303986
749.567993,501.664001,400.160004
753.471985,501.664001,398.208008
761.280029,501.664001,404.063995
763.231995,493.855988,394.303986
751.520020,493.855988,394.303986
757.375977,491.903992,392.351990
755.424011,493.855988,392.351990
761.280029,501.664001,394.303986
757.375977,491.903992,386.496002
761.280029,495.808014,392.351990
761.280029,497.760010,400.160004
763.231995,497.760010,388.447998
763.231995,505.567993,392.351990
759.328003,489.951996,390.399994
753.471985,495.808014,396.256012
761.280029,491.903992,394.303986
761.280029,491.903992,392.351990
759.328003,488.000000,400.160004
772.992004,486.048004,394.303986
774.943970,497.760010,390.399994
769.088013,488.000000,390.399994
771.039978,488.000000,400.160004
778.848022,493.855988,396.256012
769.088013,484.096008,394.303986
772.992004,489.951996,390.399994
778.848022,486.048004,400.160004
774.943970,495.808014,396.256012
788.607971,489.951996,394.303986
776.895996,497.760010,390.399994
786.656006,489.951996,382.592010
786.656006,488.000000,390.399994
786.656006,491.903992,394.303986
776.895996,489.951996,396.256012
786.656006,482.144012,394.303986
790.559998,488.000000,407.967987
784.703979,503.615997,398.208008
794.463989,493.855988,406.015991
786.656006,493.855988,404.063995
788.607971,501.664001,400.160004
788.607971,499.712006,400.160004
790.559998,491.903992,406.015991
798.367981,493.855988,407.967987
794.463989,488.000000,402.112000
790.559998,499.712006,402.112000
792.512024,499.712006,394.303986
796.416016,488.000000,400.160004
806.176025,499.712006,396.256012
792.512024,491.903992,392.351990
804.223999,497.760010,396.256012
802.271973,491.903992,390.399994
798.367981,493.855988,396.256012
802.271973,495.808014,390.399994
802.271973,501.664001,396.256012
796.416016,501.664001,404.063995
800.320007,503.615997,400.160004
802.271973,501.664001,398.208008
804.223999,501.664001,398.208008
802.271973,499.712006,404.063995
790.559998,503.615997,396.256012
798.367981,493.855988,388.447998
792.512024,497.760010,394.303986
798.367981,501.664001,396.256012
804.223999,497.760010,404.063995
802.271973,495.808014,400.160004
792.512024,503.615997,396.256012
804.223999,501.664001,398.208008
802.271973,499.712006,394.303986
800.320007,501.664001,394.303986
794.463989,499.712006,400.160004
790.559998,503.615997,396.256012
796.416016,501.664001,398.208008
796.416016,497.760010,402.112000
794.463989,503.615997,390.399994
788.607971,503.615997,394.303986
800.320007,503.615997,400.160004
786.656006,501.664001,392.351990
798.367981,505.567993,400.160004
798.367981,505.567993,394.303986
788.607971,501.664001,390.399994
794.463989,501.664001,392.351990
792.512024,491.903992,388.447998
788.607971,503.615997,396.256012
792.512024,493.855988,394.303986
788.607971,497.760010,390.399994
780.799988,507.519989,398.208008
788.607971,505.567993,394.303986
788.607971,505.567993,396.256012
788.607971,495.808014,388.447998
786.656006,509.471985,392.351990
784.703979,511.424011,390.399994
788.607971,497.760010,388.447998
792.512024,503.615997,386.496002
786.656006,501.664001,392.351990
776.895996,499.712006,388.447998
784.703979,505.567993,392.351990
784.703979,499.712006,392.351990
782.752014,507.519989,382.592010
778.848022,497.760010,386.496002
780.799988,499.712006,386.496002
780.799988,501.664001,386.496002
780.799988,501.664001,392.351990
790.559998,497.760010,400.160004
790.559998,491.903992,400.160004
786.656006,501.664001,394.303986
782.752014,501.664001,396.256012
786.656006,507.519989,398.208008
786.656006,495.808014,394.303986
790.559998,503.615997,390.399994
786.656006,501.664001,388.447998
788.607971,501.664001,386.496002
784.703979,495.808014,400.160004
786.656006,503.615997,388.447998
792.512024,497.760010,382.592010
794.463989,503.615997,386.496002
788.607971,497.760010,392.351990
794.463989,505.567993,394.303986
788.607971,509.471985,396.256012
788.607971,501.664001,394.303986
788.607971,501.664001,392.351990
788.607971,501.664001,394.303986
786.656006,503.615997,394.303986
792.512024,513.375977,390.399994
788.607971,503.615997,396.256012
798.367981,509.471985,394.303986
794.463989,509.471985,392.351990
784.703979,495.808014,398.208008
784.703979,495.808014,394.303986
794.463989,507.519989,396.256012
784.703979,499.712006,400.160004
794.463989,499.712006,400.160004
794.463989,499.712006,400.160004
794.463989,499.712006,402.112000
806.176025,495.808014,404.063995
792.512024,488.000000,398.208008
792.512024,499.712006,394.303986
788.607971,501.664001,392.351990
786.656006,501.664001,386.496002
798.367981,509.471985,396.256012
796.416016,505.567993,396.256012
792.512024,501.664001,392.351990
792.512024,499.712006,404.063995
790.559998,493.855988,394.303986
790.559998,495.808014,406.015991
788.607971,488.000000,404.063995
778.848022,495.808014,396.256012
782.752014,495.808014,400.160004
784.703979,493.855988,394.303986
784.703979,497.760010,398.208008
790.559998,499.712006,400.160004
782.752014,501.664001,392.351990
786.656006,497.760010,396.256012
794.463989,497.760010,400.160004
784.703979,499.712006,400.160004
784.703979,501.664001,398.208008
788.607971,501.664001,392.351990
790.559998,499.712006,394.303986
780.799988,499.712006,396.256012
786.656006,501.664001,394.303986
778.848022,501.664001,404.063995
780.799988,501.664001,396.256012
780.799988,493.855988,394.303986
784.703979,493.855988,400.160004
776.895996,493.855988,396.256012
784.703979,501.664001,390.399994
782.752014,491.903992,390.399994
784.703979,491.903992,396.256012
774.943970,493.855988,396.256012
782.752014,491.903992,398.208008
784.703979,501.664001,390.399994
780.799988,484.096008,394.303986
776.895996,493.855988,396.256012
782.752014,493.855988,398.208008
774.943970,482.144012,402.112000
776.895996,489.951996,402.112000
772.992004,493.855988,400.160004
772.992004,489.951996,406.015991
772.992004,489.951996,402.112000
782.752014,489.951996,402.112000
772.992004,489.951996,404.063995
776.895996,489.951996,398.208008
772.992004,484.096008,400.160004
772.992004,488.000000,404.063995
782.752014,482.144012,400.160004
772.992004,489.951996,400.160004
774.943970,484.096008,400.160004
778.848022,484.096008,406.015991
771.039978,491.903992,398.208008
780.799988,480.191986,400.160004
771.039978,486.048004,394.303986
776.895996,488.000000,407.967987
778.848022,484.096008,400.160004
774.943970,489.951996,411.872009
772.992004,489.951996,398.208008
774.943970,484.096008,404.063995
763.231995,493.855988,406.015991
771.039978,493.855988,400.160004
769.088013,491.903992,390.399994
769.088013,491.903992,390.399994
778.848022,478.239990,404.063995
767.135986,480.191986,398.208008
769.088013,491.903992,394.303986
767.135986,482.144012,402.112000
769.088013,482.144012,396.256012
772.992004,484.096008,400.160004
774.943970,493.855988,398.208008
774.943970,484.096008,394.303986
761.280029,486.048004,394.303986
765.184021,493.855988,402.112000
765.184021,482.144012,388.447998
772.992004,484.096008,394.303986
765.184021,484.096008,396.256012
769.088013,484.096008,394.303986
769.088013,488.000000,398.208008
771.039978,484.096008,390.399994
776.895996,489.951996,398.208008
774.943970,482.144012,398.208008
776.895996,489.951996,406.015991
771.039978,484.096008,409.920013
780.799988,489.951996,404.063995
767.135986,484.096008,402.112000
774.943970,488.000000,396.256012
772.992004,493.855988,396.256012
771.039978,484.096008,390.399994
769.088013,484.096008,400.160004
765.184021,489.951996,398.208008
767.135986,486.048004,402.112000
774.943970,480.191986,400.160004
774.943970,484.096008,394.303986
776.895996,482.144012,392.351990
771.039978,486.048004,392.351990
774.943970,476.287994,394.303986
774.943970,482.144012,400.160004
772.992004,478.239990,396.256012
776.895996,478.239990,400.160004
771.039978,478.239990,398.208008
771.039978,489.951996,398.208008
771.039978,486.048004,390.399994
772.992004,482.144012,392.351990
772.992004,489.951996,398.208008
778.848022,476.287994,402.112000
774.943970,482.144012,400.160004
780.799988,480.191986,388.447998
778.848022,484.096008,400.160004
765.184021,484.096008,396.256012
771.039978,491.903992,398.208008
767.135986,488.000000,392.351990
771.039978,482.144012,390.399994
765.184021,478.239990,392.351990
772.992004,476.287994,388.447998
761.280029,486.048004,390.399994
765.184021,484.096008,398.208008
767.135986,488.000000,386.496002
776.895996,488.000000,396.256012
767.135986,493.855988,390.399994
769.088013,489.951996,392.351990
769.088013,484.096008,394.303986
774.943970,497.760010,390.399994
765.184021,486.048004,394.303986
767.135986,489.951996,386.496002
772.992004,488.000000,398.208008
774.943970,484.096008,404.063995
767.135986,484.096008,398.208008
774.943970,499.712006,396.256012
765.184021,495.808014,398.208008
771.039978,495.808014,396.256012
778.848022,488.000000,396.256012
757.375977,482.144012,398.208008
769.088013,501.664001,400.160004
765.184021,491.903992,394.303986
761.280029,486.048004,396.256012
774.943970,488.000000,390.399994
763.231995,486.048004,400.160004
771.039978,486.048004,382.592010
767.135986,484.096008,394.303986
767.135986,489.951996,386.496002
765.184021,488.000000,392.351990
765.184021,495.808014,392.351990
767.135986,491.903992,388.447998
759.328003,499.712006,400.160004
761.280029,491.903992,388.447998
759.328003,484.096008,386.496002
761.280029,488.000000,396.256012
763.231995,491.903992,394.303986
761.280029,491.903992,392.351990
765.184021,488.000000,394.303986
761.280029,486.048004,396.256012
771.039978,476.287994,392.351990
765.184021,491.903992,396.256012
767.135986,489.951996,392.351990
763.231995,488.000000,394.303986
761.280029,497.760010,386.496002
763.231995,493.855988,394.303986
757.375977,491.903992,386.496002
763.231995,480.191986,388.447998
761.280029,491.903992,394.303986
757.375977,491.903992,388.447998
759.328003,499.712006,394.303986
771.039978,484.096008,388.447998
757.375977,480.191986,396.256012
769.088013,489.951996,392.351990
771.039978,489.951996,384.544006
767.135986,491.903992,392.351990
765.184021,486.048004,392.351990
761.280029,495.808014,386.496002
761.280029,491.903992,394.303986
771.039978,488.000000,394.303986
771.039978,497.760010,396.256012
769.088013,501.664001,400.160004
767.135986,493.855988,392.351990
774.943970,489.951996,396.256012
761.280029,499.712006,400.160004
767.135986,499.712006,388.447998
771.039978,499.712006,392.351990
765.184021,497.760010,396.256012
763.231995,495.808014,394.303986
771.039978,493.855988,396.256012
767.135986,495.808014,392.351990
761.280029,491.903992,394.303986
761.280029,488.000000,398.208008
763.231995,505.567993,398.208008
763.231995,488.000000,394.303986
763.231995,488.000000,392.351990
767.135986,501.664001,382.592010
761.280029,503.615997,390.399994
771.039978,501.664001,398.208008
767.135986,495.808014,392.351990
761.280029,499.712006,400.160004
765.184021,503.615997,390.399994
761.280029,488.000000,396.256012
765.184021,495.808014,398.208008
767.135986,488.000000,394.303986
765.184021,499.712006,404.063995
767.135986,505.567993,398.208008
765.184021,495.808014,396.256012
759.328003,501.664001,400.160004
769.088013,499.712006,398.208008
772.992004,499.712006,398.208008
765.184021,501.664001,398.208008
769.088013,495.808014,396.256012
769.088013,507.519989,396.256012
763.231995,499.712006,400.160004
761.280029,497.760010,392.351990
774.943970,501.664001,388.447998
771.039978,501.664001,396.256012
771.039978,503.615997,398.208008
771.039978,505.567993,392.351990
769.088013,515.328003,394.303986
767.135986,517.280029,398.208008
776.895996,505.567993,390.399994
776.895996,501.664001,398.208008
772.992004,501.664001,404.063995
772.992004,507.519989,394.303986
769.088013,505.567993,396.256012
782.752014,501.664001,398.208008
774.943970,513.375977,394.303986
771.039978,505.567993,400.160004
771.039978,505.567993,394.303986
772.992004,503.615997,394.303986
776.895996,517.280029,392.351990
769.088013,505.567993,396.256012
769.088013,509.471985,394.303986
769.088013,513.375977,400.160004
772.992004,501.664001,398.208008
769.088013,509.471985,400.160004
772.992004,507.519989,394.303986
772.992004,515.328003,398.208008
771.039978,503.615997,398.208008
765.184021,505.567993,400.160004
771.039978,499.712006,394.303986
772.992004,513.375977,396.256012
769.088013,509.471985,400.160004
765.184021,499.712006,400.160004
771.039978,517.280029,394.303986
767.135986,513.375977,398.208008
763.231995,513.375977,396.256012
765.184021,505.567993,404.063995
759.328003,505.567993,404.063995
765.184021,503.615997,396.256012
761.280029,513.375977,407.967987
772.992004,507.519989,390.399994
769.088013,511.424011,398.208008
767.135986,503.615997,396.256012
761.280029,501.664001,400.160004
757.375977,517.280029,404.063995
759.328003,511.424011,388.447998
763.231995,513.375977,396.256012
767.135986,501.664001,386.496002
769.088013,505.567993,390.399994
763.231995,509.471985,390.399994
757.375977,503.615997,396.256012
757.375977,507.519989,398.208008
757.375977,517.280029,398.208008
757.375977,513.375977,398.208008
767.135986,513.375977,396.256012
765.184021,507.519989,394.303986
767.135986,509.471985,396.256012
767.135986,513.375977,398.208008
767.135986,513.375977,400.160004
767.135986,507.519989,400.160004
765.184021,499.712006,404.063995
767.135986,505.567993,398.208008
771.039978,511.424011,396.256012
767.135986,513.375977,406.015991
769.088013,509.471985,406.015991
763.231995,505.567993,400.160004
772.992004,501.664001,398.208008
771.039978,507.519989,394.303986
772.992004,501.664001,398.208008
774.943970,499.712006,396.256012
774.943970,509.471985,402.112000
769.088013,509.471985,404.063995
774.943970,505.567993,390.399994
767.135986,505.567993,404.063995
761.280029,505.567993,406.015991
776.895996,503.615997,404.063995
772.992004,501.664001,398.208008
769.088013,509.471985,398.208008
774.943970,511.424011,402.112000
776.895996,505.567993,409.920013
776.895996,503.615997,398.208008
769.088013,503.615997,400.160004
772.992004,509.471985,407.967987
769.088013,509.471985,404.063995
778.848022,515.328003,407.967987
778.848022,513.375977,398.208008
778.848022,513.375977,406.015991
780.799988,511.424011,398.208008
769.088013,511.424011,400.160004
774.943970,509.471985,394.303986
776.895996,503.615997,404.063995
772.992004,503.615997,400.160004
778.848022,503.615997,406.015991
780.799988,515.328003,400.160004
782.752014,507.519989,388.447998
771.039978,499.712006,402.112000
776.895996,501.664001,404.063995
776.895996,495.808014,398.208008
776.895996,503.615997,398.208008
772.992004,505.567993,394.303986
776.895996,501.664001,407.967987
782.752014,503.615997,404.063995
778.848022,503.615997,402.112000
778.848022,511.424011,394.303986
782.752014,503.615997,398.208008
776.895996,513.375977,394.303986
774.943970,503.615997,400.160004
776.895996,513.375977,392.351990
774.943970,513.375977,400.160004
778.848022,511.424011,392.351990
780.799988,511.424011,404.063995
784.703979,505.567993,402.112000
778.848022,509.471985,404.063995
782.752014,511.424011,400.160004
782.752014,501.664001,398.208008
784.703979,505.567993,394.303986
782.752014,503.615997,396.256012
776.895996,505.567993,396.256012
782.752014,505.567993,413.824005
784.703979,509.471985,388.447998
786.656006,501.664001,392.351990
780.799988,503.615997,400.160004
784.703979,501.664001,407.967987
784.703979,497.760010,402.112000
782.752014,501.664001,409.920013
778.848022,511.424011,404.063995
782.752014,509.471985,394.303986
790.559998,509.471985,396.256012
780.799988,503.615997,400.160004
788.607971,505.567993,400.160004
786.656006,499.712006,396.256012
784.703979,511.424011,388.447998
786.656006,507.519989,398.208008
784.703979,505.567993,394.303986
788.607971,507.519989,398.208008
776.895996,503.615997,398.208008
788.607971,499.712006,398.208008
790.559998,495.808014,394.303986
792.512024,501.664001,392.351990
786.656006,505.567993,398.208008
790.559998,509.471985,396.256012
788.607971,507.519989,402.112000
790.559998,509.471985,388.447998
792.512024,505.567993,396.256012
784.703979,499.712006,390.399994
792.512024,513.375977,398.208008
796.416016,505.567993,394.303986
792.512024,507.519989,398.208008
790.559998,503.615997,407.967987
788.607971,501.664001,394.303986
784.703979,503.615997,388.447998
792.512024,503.615997,394.303986
792.512024,511.424011,398.208008
788.607971,519.231995,396.256012
790.559998,507.519989,390.399994
792.512024,513.375977,404.063995
784.703979,503.615997,398.208008
784.703979,505.567993,402.112000
786.656006,509.471985,398.208008
784.703979,519.231995,392.351990
790.559998,507.519989,400.160004
792.512024,513.375977,398.208008
790.559998,509.471985,396.256012
786.656006,503.615997,404.063995
780.799988,513.375977,402.112000
784.703979,509.471985,382.592010
794.463989,505.567993,396.256012
790.559998,517.280029,398.208008
782.752014,501.664001,396.256012
790.559998,505.567993,396.256012
780.799988,503.615997,394.303986
788.607971,503.615997,394.303986
784.703979,513.375977,392.351990
784.703979,505.567993,396.256012
776.895996,505.567993,394.303986
786.656006,505.567993,398.208008
784.703979,513.375977,386.496002
780.799988,507.519989,400.160004
772.992004,507.519989,390.399994
771.039978,511.424011,392.351990
780.799988,509.471985,404.063995
780.799988,513.375977,400.160004
778.848022,515.328003,394.303986
778.848022,515.328003,394.303986
776.895996,517.280029,392.351990
771.039978,513.375977,394.303986
774.943970,513.375977,394.303986
769.088013,513.375977,398.208008
774.943970,515.328003,400.160004
772.992004,517.280029,386.496002
771.039978,517.280029,394.303986
776.895996,517.280029,394.303986
784.703979,513.375977,392.351990
776.895996,515.328003,394.303986
771.039978,517.280029,394.303986
778.848022,513.375977,400.160004
780.799988,525.088013,396.256012
771.039978,523.135986,390.399994
782.752014,521.184021,390.399994
771.039978,519.231995,394.303986
776.895996,523.135986,398.208008
778.848022,519.231995,388.447998
774.943970,519.231995,390.399994
782.752014,515.328003,390.399994
765.184021,519.231995,398.208008
763.231995,521.184021,396.256012
769.088013,519.231995,390.399994
778.848022,521.184021,394.303986
776.895996,515.328003,394.303986
769.088013,517.280029,402.112000
765.184021,523.135986,396.256012
771.039978,517.280029,382.592010
769.088013,519.231995,396.256012
772.992004,517.280029,400.160004
772.992004,521.184021,400.160004
774.943970,521.184021,406.015991
772.992004,532.895996,398.208008
769.088013,523.135986,394.303986
769.088013,525.088013,390.399994
769.088013,519.231995,396.256012
769.088013,525.088013,390.399994
767.135986,521.184021,390.399994
765.184021,525.088013,398.208008
772.992004,521.184021,398.208008
769.088013,515.328003,402.112000
772.992004,517.280029,392.351990
767.135986,515.328003,400.160004
763.231995,517.280029,396.256012
765.184021,519.231995,392.351990
765.184021,513.375977,390.399994
763.231995,515.328003,386.496002
765.184021,511.424011,390.399994
763.231995,517.280029,398.208008
761.280029,517.280029,396.256012
767.135986,509.471985,398.208008
763.231995,513.375977,390.399994
765.184021,503.615997,392.351990
780.799988,511.424011,400.160004
776.895996,513.375977,394.303986
771.039978,509.471985,398.208008
769.088013,511.424011,400.160004
765.184021,505.567993,400.160004
774.943970,507.519989,394.303986
771.039978,511.424011,390.399994
772.992004,513.375977,386.496002
774.943970,495.808014,390.399994
772.992004,507.519989,394.303986
769.088013,497.760010,388.447998
774.943970,499.712006,396.256012
772.992004,505.567993,390.399994
774.943970,503.615997,404.063995
765.184021,493.855988,394.303986
771.039978,497.760010,398.208008
763.231995,491.903992,392.351990
769.088013,495.808014,400.160004
772.992004,495.808014,398.208008
774.943970,493.855988,390.399994
771.039978,495.808014,406.015991
780.799988,499.712006,396.256012
776.895996,501.664001,402.112000
771.039978,497.760010,404.063995
772.992004,495.808014,398.208008
778.848022,497.760010,390.399994
772.992004,497.760010,396.256012
778.848022,493.855988,396.256012
772.992004,489.951996,396.256012
772.992004,488.000000,394.303986
776.895996,491.903992,398.208008
776.895996,497.760010,398.208008
776.895996,501.664001,398.208008
782.752014,495.808014,398.208008
778.848022,486.048004,394.303986
778.848022,497.760010,404.063995
776.895996,493.855988,390.399994
782.752014,491.903992,398.208008
782.752014,491.903992,398.208008
778.848022,484.096008,402.112000
782.752014,491.903992,406.015991
780.799988,495.808014,396.256012
778.848022,489.951996,402.112000
780.799988,484.096008,394.303986
776.895996,484.096008,400.160004
778.848022,480.191986,400.160004
774.943970,484.096008,394.303986
782.752014,491.903992,404.063995
780.799988,488.000000,396.256012
778.848022,486.048004,394.303986
782.752014,470.432007,398.208008
780.799988,486.048004,398.208008
780.799988,486.048004,407.967987
780.799988,484.096008,404.063995
774.943970,482.144012,404.063995
788.607971,476.287994,402.112000
780.799988,480.191986,400.160004
780.799988,480.191986,400.160004
778.848022,480.191986,400.160004
778.848022,484.096008,406.015991
780.799988,482.144012,398.208008
786.656006,484.096008,407.967987
786.656006,482.144012,406.015991
780.799988,482.144012,400.160004
776.895996,482.144012,400.160004
776.895996,480.191986,400.160004
788.607971,486.048004,407.967987
788.607971,472.384003,402.112000
780.799988,480.191986,402.112000
792.512024,480.191986,402.112000
786.656006,476.287994,404.063995
780.799988,482.144012,400.160004
786.656006,480.191986,406.015991
788.607971,486.048004,402.112000
772.992004,484.096008,398.208008
780.799988,484.096008,402.112000
780.799988,484.096008,407.967987
790.559998,486.048004,411.872009
780.799988,484.096008,400.160004
784.703979,478.239990,396.256012
792.512024,482.144012,398.208008
786.656006,484.096008,404.063995
784.703979,491.903992,406.015991
788.607971,486.048004,402.112000
782.752014,489.951996,402.112000
786.656006,486.048004,402.112000
780.799988,484.096008,400.160004
776.895996,480.191986,411.872009
792.512024,493.855988,400.160004
784.703979,488.000000,402.112000
790.559998,493.855988,400.160004
784.703979,493.855988,402.112000
784.703979,488.000000,404.063995
780.799988,486.048004,398.208008
786.656006,488.000000,388.447998
784.703979,488.000000,394.303986
782.752014,495.808014,400.160004
774.943970,495.808014,396.256012
778.848022,489.951996,402.112000
772.992004,501.664001,396.256012
778.848022,497.760010,396.256012
780.799988,484.096008,400.160004
776.895996,491.903992,398.208008
769.088013,495.808014,392.351990
765.184021,491.903992,400.160004
772.992004,489.951996,396.256012
774.943970,484.096008,398.208008
778.848022,495.808014,396.256012
778.848022,501.664001,402.112000
776.895996,495.808014,390.399994
771.039978,495.808014,394.303986
771.039978,501.664001,398.208008
765.184021,499.712006,400.160004
771.039978,501.664001,396.256012
772.992004,501.664001,398.208008
771.039978,503.615997,396.256012
769.088013,503.615997,400.160004
765.184021,503.615997,396.256012
767.135986,501.664001,394.303986
771.039978,507.519989,394.303986
765.184021,501.664001,402.112000
763.231995,505.567993,400.160004
761.280029,507.519989,396.256012
757.375977,503.615997,394.303986
767.135986,503.615997,392.351990
761.280029,501.664001,388.447998
767.135986,505.567993,396.256012
757.375977,509.471985,396.256012
753.471985,503.615997,390.399994
759.328003,497.760010,394.303986
767.135986,505.567993,390.399994
765.184021,517.280029,394.303986
761.280029,513.375977,396.256012
759.328003,501.664001,390.399994
757.375977,503.615997,392.351990
765.184021,497.760010,394.303986
763.231995,509.471985,388.447998
767.135986,495.808014,394.303986
767.135986,501.664001,388.447998
759.328003,513.375977,390.399994
767.135986,513.375977,398.208008
761.280029,517.280029,398.208008
761.280029,517.280029,390.399994
767.135986,497.760010,378.687988
761.280029,501.664001,388.447998
769.088013,499.712006,390.399994
767.135986,503.615997,394.303986
774.943970,507.519989,402.112000
772.992004,509.471985,402.112000
767.135986,505.567993,404.063995
771.039978,501.664001,400.160004
769.088013,505.567993,398.208008
774.943970,493.855988,407.967987
772.992004,495.808014,396.256012
761.280029,499.712006,398.208008
769.088013,491.903992,394.303986
759.328003,495.808014,400.160004
759.328003,499.712006,400.160004
771.039978,499.712006,396.256012
774.943970,497.760010,396.256012
774.943970,499.712006,396.256012
774.943970,495.808014,390.399994
763.231995,505.567993,402.112000
761.280029,499.712006,396.256012
774.943970,488.000000,386.496002
774.943970,499.712006,396.256012
772.992004,493.855988,400.160004
769.088013,499.712006,396.256012
772.992004,495.808014,398.208008
769.088013,495.808014,388.447998
774.943970,489.951996,400.160004
776.895996,495.808014,398.208008
774.943970,488.000000,396.256012
767.135986,489.951996,384.544006
774.943970,491.903992,388.447998
774.943970,484.096008,400.160004
774.943970,489.951996,394.303986
771.039978,493.855988,394.303986
774.943970,497.760010,394.303986
772.992004,503.615997,398.208008
776.895996,495.808014,396.256012
776.895996,491.903992,400.160004
782.752014,488.000000,392.351990
774.943970,493.855988,396.256012
774.943970,484.096008,400.160004
778.848022,493.855988,396.256012
774.943970,491.903992,390.399994
782.752014,497.760010,398.208008
776.895996,495.808014,396.256012
784.703979,491.903992,400.160004
788.607971,486.048004,396.256012
790.559998,488.000000,402.112000
784.703979,491.903992,396.256012
788.607971,493.855988,392.351990
788.607971,486.048004,398.208008
788.607971,486.048004,398.208008
788.607971,486.048004,400.160004
782.752014,482.144012,396.256012
790.559998,474.335999,402.112000
784.703979,488.000000,406.015991
784.703979,489.951996,402.112000
786.656006,480.191986,407.967987
786.656006,486.048004,404.063995
782.752014,486.048004,392.351990
784.703979,486.048004,392.351990
784.703979,482.144012,396.256012
780.799988,482.144012,400.160004
780.799988,476.287994,402.112000
778.848022,484.096008,404.063995
788.607971,486.048004,396.256012
786.656006,480.191986,400.160004
782.752014,488.000000,404.063995
780.799988,482.144012,400.160004
780.799988,482.144012,406.015991
788.607971,486.048004,402.112000
782.752014,486.048004,394.303986
778.848022,484.096008,404.063995
778.848022,489.951996,394.303986
772.992004,484.096008,400.160004
780.799988,484.096008,402.112000
772.992004,474.335999,392.351990
772.992004,486.048004,392.351990
776.895996,486.048004,388.447998
774.943970,480.191986,400.160004
774.943970,484.096008,400.160004
771.039978,489.951996,402.112000
772.992004,489.951996,402.112000
771.039978,486.048004,392.351990
767.135986,489.951996,396.256012
767.135986,482.144012,400.160004
765.184021,478.239990,394.303986
767.135986,476.287994,398.208008
763.231995,486.048004,402.112000
769.088013,484.096008,400.160004
765.184021,484.096008,392.351990
765.184021,489.951996,386.496002
767.135986,488.000000,398.208008
757.375977,486.048004,400.160004
765.184021,486.048004,394.303986
765.184021,489.951996,404.063995
759.328003,484.096008,390.399994
759.328003,488.000000,400.160004
761.280029,484.096008,392.351990
765.184021,480.191986,394.303986
767.135986,484.096008,400.160004
757.375977,476.287994,398.208008
759.328003,472.384003,396.256012
765.184021,484.096008,396.256012
763.231995,480.191986,396.256012
757.375977,478.239990,398.208008
759.328003,488.000000,402.112000
767.135986,486.048004,398.208008
759.328003,484.096008,396.256012
759.328003,488.000000,394.303986
757.375977,484.096008,390.399994
755.424011,478.239990,398.208008
753.471985,476.287994,400.160004
755.424011,486.048004,402.112000
753.471985,488.000000,402.112000
749.567993,484.096008,396.256012
755.424011,476.287994,396.256012
755.424011,488.000000,398.208008
749.567993,486.048004,396.256012
757.375977,476.287994,404.063995
749.567993,480.191986,394.303986
755.424011,478.239990,392.351990
759.328003,472.384003,390.399994
749.567993,486.048004,398.208008
749.567993,476.287994,396.256012
755.424011,480.191986,400.160004
753.471985,489.951996,396.256012
755.424011,482.144012,398.208008
751.520020,493.855988,406.015991
755.424011,486.048004,402.112000
749.567993,484.096008,400.160004
755.424011,484.096008,398.208008
751.520020,484.096008,400.160004
757.375977,486.048004,398.208008
749.567993,478.239990,400.160004
757.375977,476.287994,404.063995
743.711975,486.048004,409.920013
757.375977,480.191986,396.256012
759.328003,482.144012,396.256012
757.375977,482.144012,398.208008
759.328003,476.287994,404.063995
761.280029,486.048004,398.208008
755.424011,486.048004,396.256012
757.375977,491.903992,394.303986
749.567993,489.951996,406.015991
749.567993,482.144012,400.160004
755.424011,489.951996,394.303986
749.567993,484.096008,404.063995
755.424011,484.096008,402.112000
759.328003,486.048004,396.256012
755.424011,489.951996,394.303986
757.375977,480.191986,398.208008
755.424011,482.144012,398.208008
747.616028,489.951996,402.112000
753.471985,489.951996,398.208008
751.520020,489.951996,398.208008
745.664001,489.951996,396.256012
743.711975,489.951996,398.208008
745.664001,486.048004,394.303986
749.567993,484.096008,398.208008
757.375977,478.239990,398.208008
755.424011,472.384003,394.303986
759.328003,478.239990,388.447998
753.471985,480.191986,386.496002
753.471985,489.951996,390.399994
753.471985,488.000000,394.303986
751.520020,482.144012,394.303986
755.424011,493.855988,396.256012
759.328003,484.096008,390.399994
761.280029,476.287994,398.208008
757.375977,486.048004,396.256012
749.567993,489.951996,392.351990
763.231995,486.048004,398.208008
755.424011,486.048004,402.112000
757.375977,486.048004,396.256012
761.280029,476.287994,396.256012
763.231995,486.048004,390.399994
769.088013,489.951996,394.303986
769.088013,488.000000,390.399994
772.992004,495.808014,398.208008
769.088013,497.760010,390.399994
772.992004,484.096008,398.208008
767.135986,489.951996,394.303986
765.184021,495.808014,394.303986
782.752014,491.903992,396.256012
784.703979,497.760010,400.160004
782.752014,495.808014,402.112000
772.992004,493.855988,398.208008
778.848022,497.760010,398.208008
776.895996,501.664001,402.112000
782.752014,495.808014,402.112000
778.848022,495.808014,407.967987
776.895996,499.712006,400.160004
784.703979,489.951996,398.208008
782.752014,497.760010,398.208008
780.799988,495.808014,398.208008
782.752014,501.664001,398.208008
782.752014,489.951996,398.208008
790.559998,495.808014,400.160004
776.895996,501.664001,407.967987
776.895996,501.664001,398.208008
784.703979,501.664001,398.208008
782.752014,509.471985,400.160004
790.559998,509.471985,390.399994
786.656006,505.567993,396.256012
788.607971,505.567993,396.256012
788.607971,509.471985,396.256012
788.607971,509.471985,398.208008
788.607971,511.424011,398.208008
772.992004,501.664001,404.063995
778.848022,503.615997,398.208008
780.799988,507.519989,392.351990
782.752014,507.519989,400.160004
786.656006,515.328003,400.160004
790.559998,503.615997,396.256012
774.943970,515.328003,394.303986
771.039978,509.471985,396.256012
780.799988,511.424011,402.112000
769.088013,517.280029,402.112000
784.703979,511.424011,394.303986
772.992004,515.328003,404.063995
778.848022,513.375977,404.063995
772.992004,511.424011,392.351990
778.848022,515.328003,406.015991
771.039978,515.328003,388.447998
774.943970,515.328003,394.303986
776.895996,513.375977,400.160004
774.943970,515.328003,400.160004
769.088013,515.328003,406.015991
774.943970,515.328003,400.160004
767.135986,513.375977,402.112000
774.943970,515.328003,400.160004
772.992004,521.184021,390.399994
774.943970,515.328003,400.160004
774.943970,511.424011,394.303986
774.943970,515.328003,394.303986
769.088013,517.280029,396.256012
769.088013,515.328003,394.303986
767.135986,517.280029,398.208008
767.135986,517.280029,398.208008
769.088013,521.184021,394.303986
767.135986,517.280029,398.208008
771.039978,511.424011,382.592010
767.135986,515.328003,394.303986
771.039978,511.424011,392.351990
769.088013,515.328003,394.303986
771.039978,513.375977,392.351990
761.280029,513.375977,398.208008
765.184021,509.471985,388.447998
774.943970,509.471985,394.303986
767.135986,519.231995,390.399994
763.231995,519.231995,402.112000
767.135986,509.471985,402.112000
761.280029,505.567993,398.208008
769.088013,513.375977,398.208008
767.135986,513.375977,398.208008
769.088013,517.280029,396.256012
759.328003,513.375977,396.256012
767.135986,507.519989,396.256012
761.280029,505.567993,398.208008
761.280029,501.664001,400.160004
763.231995,499.712006,396.256012
755.424011,507.519989,400.160004
759.328003,507.519989,396.256012
761.280029,511.424011,398.208008
769.088013,515.328003,402.112000
767.135986,517.280029,390.399994
763.231995,513.375977,390.399994
757.375977,521.184021,394.303986
761.280029,507.519989,398.208008
767.135986,513.375977,398.208008
769.088013,507.519989,398.208008
763.231995,511.424011,398.208008
769.088013,509.471985,400.160004
767.135986,499.712006,396.256012
763.231995,505.567993,394.303986
761.280029,505.567993,398.208008
767.135986,501.664001,386.496002
771.039978,501.664001,396.256012
761.280029,497.760010,392.351990
767.135986,501.664001,392.351990
774.943970,507.519989,400.160004
769.088013,499.712006,388.447998
774.943970,493.855988,386.496002
772.992004,507.519989,392.351990
772.992004,499.712006,394.303986
778.848022,499.712006,392.351990
772.992004,497.760010,396.256012
774.943970,505.567993,392.351990
774.943970,497.760010,388.447998
774.943970,491.903992,398.208008
772.992004,497.760010,398.208008
780.799988,501.664001,392.351990
780.799988,484.096008,394.303986
788.607971,501.664001,386.496002
784.703979,507.519989,396.256012
778.848022,499.712006,384.544006
784.703979,509.471985,394.303986
786.656006,489.951996,392.351990
790.559998,493.855988,404.063995
786.656006,493.855988,390.399994
780.799988,497.760010,390.399994
782.752014,491.903992,390.399994
788.607971,491.903992,394.303986
784.703979,491.903992,392.351990
782.752014,497.760010,400.160004
778.848022,507.519989,404.063995
784.703979,505.567993,390.399994
786.656006,501.664001,406.015991
786.656006,499.712006,394.303986
784.703979,503.615997,396.256012
790.559998,499.712006,394.303986
798.367981,491.903992,394.303986
784.703979,497.760010,404.063995
796.416016,499.712006,394.303986
786.656006,507.519989,404.063995
788.607971,505.567993,394.303986
786.656006,495.808014,394.303986
790.559998,497.760010,400.160004
790.559998,499.712006,400.160004
784.703979,505.567993,400.160004
792.512024,499.712006,402.112000
794.463989,505.567993,398.208008
788.607971,499.712006,400.160004
788.607971,493.855988,398.208008
790.559998,505.567993,400.160004
798.367981,501.664001,400.160004
794.463989,505.567993,400.160004
792.512024,501.664001,394.303986
792.512024,505.567993,394.303986
786.656006,503.615997,392.351990
786.656006,501.664001,396.256012
778.848022,503.615997,394.303986
782.752014,501.664001,398.208008
786.656006,501.664001,394.303986
786.656006,503.615997,400.160004
786.656006,517.280029,396.256012
786.656006,511.424011,394.303986
790.559998,499.712006,394.303986
784.703979,513.375977,398.208008
790.559998,509.471985,396.256012
780.799988,509.471985,400.160004
774.943970,507.519989,396.256012
778.848022,511.424011,400.160004
772.992004,511.424011,394.303986
774.943970,519.231995,390.399994
772.992004,507.519989,394.303986
771.039978,511.424011,388.447998
774.943970,511.424011,400.160004
769.088013,505.567993,390.399994
771.039978,507.519989,400.160004
774.943970,509.471985,404.063995
771.039978,517.280029,394.303986
759.328003,513.375977,388.447998
763.231995,507.519989,390.399994
769.088013,499.712006,388.447998
763.231995,509.471985,388.447998
761.280029,521.184021,388.447998
761.280029,501.664001,392.351990
767.135986,517.280029,398.208008
769.088013,515.328003,402.112000
759.328003,507.519989,396.256012
761.280029,511.424011,398.208008
765.184021,501.664001,398.208008
765.184021,511.424011,390.399994
767.135986,517.280029,398.208008
765.184021,517.280029,394.303986
763.231995,513.375977,396.256012
761.280029,513.375977,402.112000
763.231995,519.231995,394.303986
753.471985,519.231995,400.160004
761.280029,517.280029,402.112000
763.231995,505.567993,396.256012
761.280029,507.519989,398.208008
765.184021,509.471985,392.351990
771.039978,505.567993,394.303986
757.375977,507.519989,396.256012
761.280029,507.519989,396.256012
759.328003,509.471985,396.256012
763.231995,513.375977,396.256012
755.424011,505.567993,400.160004
757.375977,517.280029,398.208008
763.231995,517.280029,396.256012
757.375977,517.280029,398.208008
759.328003,515.328003,390.399994
759.328003,499.712006,394.303986
755.424011,511.424011,396.256012
765.184021,503.615997,390.399994
761.280029,501.664001,392.351990
767.135986,505.567993,396.256012
771.039978,505.567993,392.351990
759.328003,511.424011,392.351990
769.088013,513.375977,398.208008
767.135986,499.712006,386.496002
767.135986,513.375977,406.015991
761.280029,505.567993,404.063995
767.135986,505.567993,398.208008
772.992004,497.760010,404.063995
763.231995,511.424011,390.399994
771.039978,509.471985,392.351990
769.088013,505.567993,396.256012
767.135986,497.760010,396.256012
771.039978,499.712006,400.160004
765.184021,495.808014,396.256012
759.328003,488.000000,400.160004
769.088013,501.664001,394.303986
772.992004,501.664001,398.208008
769.088013,501.664001,400.160004
765.184021,497.760010,402.112000
761.280029,488.000000,398.208008
769.088013,488.000000,396.256012
776.895996,491.903992,398.208008
771.039978,497.760010,398.208008
774.943970,489.951996,400.160004
774.943970,497.760010,396.256012
772.992004,484.096008,402.112000
769.088013,476.287994,407.967987
784.703979,484.096008,398.208008
774.943970,484.096008,402.112000
772.992004,491.903992,396.256012
771.039978,491.903992,404.063995
771.039978,486.048004,406.015991
772.992004,489.951996,396.256012
772.992004,489.951996,404.063995
778.848022,476.287994,394.303986
769.088013,480.191986,400.160004
769.088013,484.096008,400.160004
774.943970,482.144012,404.063995
769.088013,486.048004,409.920013
774.943970,493.855988,415.776001
767.135986,476.287994,415.776001
772.992004,486.048004,409.920013
774.943970,472.384003,406.015991
772.992004,484.096008,402.112000
778.848022,484.096008,402.112000
776.895996,484.096008,407.967987
774.943970,482.144012,402.112000
772.992004,489.951996,409.920013
772.992004,480.191986,411.872009
774.943970,488.000000,417.727997
769.088013,489.951996,411.872009
771.039978,491.903992,402.112000
771.039978,486.048004,413.824005
767.135986,476.287994,409.920013
765.184021,482.144012,409.920013
761.280029,488.000000,409.920013
767.135986,480.191986,407.967987
767.135986,491.903992,411.872009
769.088013,480.191986,398.208008
755.424011,480.191986,404.063995
757.375977,478.239990,409.920013
759.328003,484.096008,409.920013
761.280029,478.239990,409.920013
755.424011,484.096008,406.015991
753.471985,488.000000,406.015991
757.375977,491.903992,413.824005
759.328003,484.096008,415.776001
759.328003,493.855988,406.015991
741.760010,497.760010,417.727997
755.424011,484.096008,406.015991
747.616028,478.239990,411.872009
751.520020,480.191986,411.872009
747.616028,484.096008,406.015991
743.711975,486.048004,407.967987
745.664001,476.287994,413.824005
733.952026,488.000000,400.160004
745.664001,484.096008,404.063995
751.520020,484.096008,406.015991
747.616028,478.239990,407.967987
749.567993,484.096008,406.015991
741.760010,495.808014,402.112000
741.760010,495.808014,398.208008
741.760010,486.048004,394.303986
747.616028,480.191986,404.063995
747.616028,497.760010,398.208008
735.903992,484.096008,400.160004
739.807983,489.951996,398.208008
739.807983,491.903992,398.208008
747.616028,491.903992,398.208008
741.760010,489.951996,402.112000
745.664001,491.903992,396.256012
733.952026,486.048004,382.592010
743.711975,488.000000,386.496002
741.760010,484.096008,400.160004
749.567993,493.855988,386.496002
739.807983,488.000000,392.351990
747.616028,497.760010,396.256012
747.616028,488.000000,396.256012
749.567993,501.664001,400.160004
741.760010,484.096008,400.160004
743.711975,497.760010,392.351990
743.711975,499.712006,396.256012
739.807983,501.664001,398.208008
749.567993,499.712006,396.256012
751.520020,491.903992,396.256012
749.567993,497.760010,390.399994
751.520020,491.903992,390.399994
751.520020,489.951996,384.544006
751.520020,493.855988,388.447998
753.471985,484.096008,392.351990
755.424011,495.808014,386.496002
757.375977,495.808014,394.303986
761.280029,497.760010,388.447998
755.424011,495.808014,388.447998
755.424011,495.808014,384.544006
749.567993,499.712006,388.447998
757.375977,495.808014,388.447998
759.328003,491.903992,388.447998
755.424011,493.855988,398.208008
751.520020,491.903992,402.112000
753.471985,493.855988,394.303986
759.328003,489.951996,396.256012
763.231995,505.567993,392.351990
757.375977,501.664001,388.447998
767.135986,499.712006,392.351990
759.328003,499.712006,394.303986
767.135986,497.760010,392.351990
771.039978,489.951996,386.496002
755.424011,499.712006,390.399994
755.424011,495.808014,390.399994
755.424011,488.000000,378.687988
755.424011,499.712006,384.544006
757.375977,497.760010,392.351990
761.280029,489.951996,388.447998
753.471985,486.048004,382.592010
759.328003,484.096008,384.544006
755.424011,489.951996,382.592010
751.520020,489.951996,378.687988
759.328003,480.191986,384.544006
761.280029,482.144012,388.447998
765.184021,480.191986,390.399994
757.375977,489.951996,392.351990
763.231995,489.951996,390.399994
765.184021,482.144012,390.399994
759.328003,482.144012,390.399994
753.471985,486.048004,396.256012
753.471985,489.951996,378.687988
755.424011,488.000000,370.880005
755.424011,484.096008,374.783997
757.375977,486.048004,370.880005
759.328003,488.000000,380.640015
755.424011,480.191986,370.880005
755.424011,489.951996,380.640015
763.231995,482.144012,372.832001
755.424011,476.287994,372.832001
747.616028,484.096008,370.880005
753.471985,476.287994,374.783997
759.328003,482.144012,376.735992
759.328003,478.239990,378.687988
759.328003,478.239990,384.544006
745.664001,474.335999,384.544006
751.520020,470.432007,378.687988
757.375977,480.191986,396.256012
755.424011,468.480011,388.447998
759.328003,478.239990,390.399994
759.328003,482.144012,398.208008
753.471985,486.048004,388.447998
763.231995,484.096008,396.256012
757.375977,484.096008,394.303986
751.520020,488.000000,400.160004
757.375977,488.000000,402.112000
763.231995,488.000000,400.160004
767.135986,497.760010,394.303986
763.231995,499.712006,406.015991
763.231995,497.760010,402.112000
761.280029,495.808014,404.063995
763.231995,499.712006,400.160004
763.231995,505.567993,406.015991
767.135986,507.519989,404.063995
765.184021,495.808014,407.967987
774.943970,499.712006,415.776001
769.088013,499.712006,415.776001
765.184021,513.375977,415.776001
761.280029,509.471985,415.776001
771.039978,505.567993,413.824005
767.135986,511.424011,419.679993
765.184021,519.231995,417.727997
763.231995,519.231995,411.872009
763.231995,521.184021,417.727997
761.280029,527.039978,406.015991
765.184021,519.231995,400.160004
763.231995,528.992004,411.872009
761.280029,536.799988,407.967987
759.328003,527.039978,404.063995
759.328003,525.088013,406.015991
761.280029,519.231995,409.920013
763.231995,528.992004,406.015991
757.375977,530.943970,406.015991
751.520020,523.135986,407.967987
757.375977,527.039978,413.824005
761.280029,528.992004,415.776001
755.424011,527.039978,413.824005
755.424011,519.231995,415.776001
757.375977,523.135986,413.824005
757.375977,528.992004,415.776001
757.375977,523.135986,411.872009
753.471985,528.992004,411.872009
747.616028,536.799988,419.679993
751.520020,538.752014,411.872009
751.520020,530.943970,404.063995
745.664001,532.895996,407.967987
745.664001,527.039978,398.208008
749.567993,523.135986,411.872009
745.664001,523.135986,404.063995
749.567993,517.280029,402.112000
737.856018,517.280029,415.776001
743.711975,515.328003,404.063995
745.664001,515.328003,409.920013
743.711975,519.231995,409.920013
741.760010,517.280029,413.824005
733.952026,519.231995,406.015991
737.856018,515.328003,402.112000
749.567993,517.280029,406.015991
743.711975,509.471985,406.015991
741.760010,517.280029,400.160004
743.711975,515.328003,406.015991
747.616028,507.519989,406.015991
747.616028,501.664001,415.776001
741.760010,517.280029,413.824005
741.760010,517.280029,413.824005
747.616028,503.615997,411.872009
745.664001,505.567993,411.872009
741.760010,507.519989,413.824005
741.760010,513.375977,417.727997
739.807983,515.328003,415.776001
737.856018,519.231995,415.776001
753.471985,511.424011,413.824005
747.616028,509.471985,402.112000
751.520020,503.615997,409.920013
755.424011,503.615997,411.872009
751.520020,503.615997,409.920013
753.471985,491.903992,409.920013
757.375977,497.760010,411.872009
755.424011,501.664001,413.824005
757.375977,484.096008,406.015991
757.375977,489.951996,413.824005
759.328003,484.096008,409.920013
759.328003,484.096008,421.631989
761.280029,486.048004,409.920013
763.231995,493.855988,406.015991
767.135986,484.096008,411.872009
761.280029,488.000000,406.015991
771.039978,489.951996,415.776001
763.231995,491.903992,406.015991
772.992004,491.903992,409.920013
765.184021,493.855988,406.015991
765.184021,488.000000,404.063995
767.135986,489.951996,413.824005
778.848022,493.855988,409.920013
776.895996,488.000000,413.824005
772.992004,493.855988,413.824005
778.848022,489.951996,411.872009
782.752014,491.903992,409.920013
788.607971,484.096008,421.631989
790.559998,482.144012,417.727997
802.271973,474.335999,419.679993
788.607971,470.432007,419.679993
800.320007,472.384003,411.872009
798.367981,464.575989,406.015991
796.416016,468.480011,407.967987
802.271973,476.287994,413.824005
802.271973,474.335999,411.872009
802.271973,476.287994,413.824005
808.127991,474.335999,419.679993
808.127991,474.335999,415.776001
808.127991,470.432007,407.967987
806.176025,466.528015,409.920013
817.888000,486.048004,409.920013
815.935974,474.335999,402.112000
819.840027,474.335999,407.967987
817.888000,472.384003,402.112000
819.840027,482.144012,407.967987
812.031982,472.384003,406.015991
823.744019,474.335999,407.967987
819.840027,472.384003,406.015991
819.840027,470.432007,413.824005
821.791992,472.384003,409.920013
819.840027,476.287994,407.967987
815.935974,456.768005,406.015991
823.744019,454.816010,398.208008
825.695984,458.720001,398.208008
827.648010,464.575989,396.256012
823.744019,470.432007,394.303986
823.744019,466.528015,394.303986
825.695984,474.335999,400.160004
821.791992,468.480011,400.160004
815.935974,468.480011,402.112000
823.744019,464.575989,394.303986
819.840027,474.335999,388.447998
817.888000,486.048004,398.208008
827.648010,484.096008,378.687988
821.791992,489.951996,384.544006
821.791992,484.096008,382.592010
821.791992,484.096008,390.399994
827.648010,484.096008,388.447998
823.744019,489.951996,386.496002
823.744019,472.384003,380.640015
823.744019,489.951996,384.544006
823.744019,482.144012,384.544006
819.840027,486.048004,378.687988
823.744019,486.048004,370.880005
829.599976,478.239990,365.023987
829.599976,493.855988,366.976013
819.840027,493.855988,363.071991
815.935974,488.000000,363.071991
833.504028,489.951996,366.976013
819.840027,497.760010,363.071991
825.695984,499.712006,368.928009
823.744019,505.567993,365.023987
825.695984,507.519989,359.167999
829.599976,513.375977,365.023987
825.695984,509.471985,365.023987
837.408020,503.615997,368.928009
823.744019,507.519989,359.167999
831.552002,519.231995,359.167999
825.695984,515.328003,359.167999
827.648010,507.519989,355.264008
833.504028,503.615997,366.976013
825.695984,511.424011,353.312012
821.791992,513.375977,347.455994
823.744019,501.664001,351.359985
823.744019,503.615997,351.359985
823.744019,507.519989,353.312012
819.840027,501.664001,355.264008
819.840027,505.567993,345.503998
829.599976,511.424011,345.503998
825.695984,505.567993,341.600006
823.744019,507.519989,341.600006
819.840027,499.712006,347.455994
823.744019,501.664001,355.264008
829.599976,495.808014,353.312012
821.791992,503.615997,365.023987
812.031982,507.519989,349.407990
821.791992,503.615997,359.167999
825.695984,515.328003,359.167999
825.695984,521.184021,359.167999
821.791992,515.328003,353.312012
821.791992,521.184021,353.312012
821.791992,519.231995,349.407990
819.840027,507.519989,347.455994
808.127991,517.280029,357.216003
806.176025,507.519989,355.264008
804.223999,505.567993,347.455994
804.223999,515.328003,349.407990
804.223999,513.375977,341.600006
806.176025,513.375977,343.552002
796.416016,507.519989,353.312012
800.320007,503.615997,341.600006
798.367981,507.519989,345.503998
800.320007,511.424011,343.552002
792.512024,499.712006,343.552002
804.223999,507.519989,351.359985
800.320007,499.712006,365.023987
796.416016,503.615997,353.312012
810.080017,515.328003,349.407990
806.176025,507.519989,353.312012
802.271973,507.519989,361.119995
804.223999,517.280029,361.119995
804.223999,511.424011,355.264008
794.463989,511.424011,361.119995
800.320007,503.615997,363.071991
792.512024,501.664001,357.216003
796.416016,511.424011,355.264008
804.223999,507.519989,351.359985
802.271973,497.760010,339.648010
792.512024,501.664001,351.359985
794.463989,497.760010,341.600006
794.463989,488.000000,349.407990
786.656006,491.903992,357.216003
788.607971,491.903992,349.407990
782.752014,495.808014,355.264008
776.895996,499.712006,357.216003
788.607971,495.808014,361.119995
792.512024,501.664001,361.119995
794.463989,499.712006,349.407990
798.367981,493.855988,361.119995
790.559998,489.951996,359.167999
786.656006,501.664001,363.071991
786.656006,501.664001,363.071991
782.752014,489.951996,366.976013
778.848022,489.951996,370.880005
782.752014,489.951996,372.832001
784.703979,488.000000,374.783997
786.656006,491.903992,355.264008
780.799988,486.048004,361.119995
774.943970,488.000000,359.167999
774.943970,486.048004,361.119995
774.943970,486.048004,357.216003
771.039978,491.903992,366.976013
771.039978,488.000000,370.880005
761.280029,474.335999,372.832001
763.231995,466.528015,363.071991
771.039978,482.144012,361.119995
763.231995,472.384003,359.167999
774.943970,462.623993,359.167999
774.943970,462.623993,365.023987
772.992004,466.528015,366.976013
765.184021,464.575989,376.735992
763.231995,462.623993,374.783997
753.471985,466.528015,370.880005
757.375977,474.335999,376.735992
771.039978,464.575989,374.783997
765.184021,468.480011,368.928009
763.231995,462.623993,370.880005
771.039978,464.575989,370.880005
759.328003,456.768005,363.071991
763.231995,448.959991,359.167999
765.184021,456.768005,368.928009
763.231995,454.816010,366.976013
761.280029,448.959991,372.832001
759.328003,456.768005,366.976013
763.231995,435.295990,368.928009
753.471985,437.247986,368.928009
761.280029,439.200012,357.216003
757.375977,437.247986,365.023987
749.567993,433.343994,365.023987
763.231995,439.200012,359.167999
759.328003,433.343994,357.216003
749.567993,437.247986,365.023987
755.424011,439.200012,357.216003
747.616028,437.247986,359.167999
755.424011,439.200012,363.071991
749.567993,441.152008,370.880005
767.135986,443.104004,372.832001
759.328003,443.104004,374.783997
763.231995,437.247986,368.928009
757.375977,443.104004,372.832001
763.231995,443.104004,370.880005
763.231995,437.247986,374.783997
759.328003,437.247986,374.783997
757.375977,439.200012,380.640015
757.375977,439.200012,380.640015
757.375977,431.391998,372.832001
761.280029,423.584015,370.880005
765.184021,429.440002,370.880005
763.231995,433.343994,372.832001
759.328003,431.391998,372.832001
763.231995,435.295990,368.928009
759.328003,425.536011,368.928009
763.231995,419.679993,366.976013
771.039978,419.679993,380.640015
771.039978,427.488007,370.880005
765.184021,417.727997,382.592010
771.039978,419.679993,382.592010
769.088013,407.967987,366.976013
782.752014,419.679993,374.783997
772.992004,415.776001,382.592010
778.848022,406.015991,392.351990
784.703979,411.872009,400.160004
772.992004,402.112000,398.208008
786.656006,406.015991,390.399994
788.607971,413.824005,398.208008
788.607971,411.872009,396.256012
780.799988,406.015991,390.399994
794.463989,409.920013,392.351990
790.559998,409.920013,388.447998
792.512024,415.776001,378.687988
794.463989,402.112000,388.447998
790.559998,415.776001,388.447998
784.703979,409.920013,386.496002
788.607971,407.967987,390.399994
780.799988,400.160004,392.351990
786.656006,411.872009,388.447998
788.607971,407.967987,388.447998
790.559998,404.063995,388.447998
788.607971,407.967987,380.640015
792.512024,402.112000,388.447998
788.607971,398.208008,382.592010
794.463989,407.967987,394.303986
786.656006,398.208008,392.351990
784.703979,402.112000,394.303986
786.656006,396.256012,392.351990
790.559998,404.063995,400.160004
786.656006,390.399994,394.303986
784.703979,400.160004,402.112000
784.703979,394.303986,392.351990
774.943970,400.160004,392.351990
782.752014,398.208008,396.256012
780.799988,386.496002,396.256012
763.231995,400.160004,400.160004
771.039978,396.256012,390.399994
771.039978,392.351990,388.447998
772.992004,398.208008,398.208008
774.943970,394.303986,390.399994
767.135986,386.496002,390.399994
761.280029,396.256012,388.447998
771.039978,386.496002,382.592010
771.039978,392.351990,382.592010
767.135986,390.399994,386.496002
765.184021,386.496002,382.592010
761.280029,396.256012,382.592010
761.280029,382.592010,378.687988
753.471985,384.544006,386.496002
759.328003,378.687988,396.256012
765.184021,392.351990,392.351990
761.280029,384.544006,390.399994
755.424011,384.544006,382.592010
751.520020,384.544006,386.496002
753.471985,390.399994,388.447998
759.328003,384.544006,386.496002
757.375977,392.351990,396.256012
749.567993,396.256012,386.496002
745.664001,392.351990,382.592010
745.664001,390.399994,380.640015
751.520020,382.592010,386.496002
747.616028,384.544006,380.640015
753.471985,400.160004,372.832001
743.711975,384.544006,370.880005
