ACC_X,ACC_Y,ACC_Z
819.840027,402.112000,298.656006
823.744019,388.447998,294.752014
835.455994,380.640015,298.656006
841.312012,390.399994,306.463989
831.552002,386.496002,300.608002
833.504028,406.015991,300.608002
835.455994,402.112000,296.704010
835.455994,386.496002,300.608002
839.359985,384.544006,286.944000
841.312012,394.303986,281.088013
837.408020,402.112000,290.847992
835.455994,411.872009,296.704010
831.552002,402.112000,298.656006
841.312012,394.303986,292.799988
845.216003,398.208008,294.752014
843.263977,406.015991,292.799988
835.455994,406.015991,296.704010
841.312012,404.063995,292.799988
839.359985,407.967987,296.704010
849.119995,400.160004,292.799988
843.263977,402.112000,296.704010
856.927979,409.920013,294.752014
849.119995,409.920013,300.608002
851.072021,409.920013,292.799988
851.072021,402.112000,298.656006
854.976013,407.967987,298.656006
862.783997,406.015991,296.704010
858.880005,394.303986,286.944000
856.927979,415.776001,292.799988
858.880005,409.920013,292.799988
860.831970,402.112000,288.895996
862.783997,402.112000,290.847992
864.736023,404.063995,283.040009
868.640015,406.015991,290.847992
864.736023,419.679993,286.944000
862.783997,411.872009,284.992004
860.831970,406.015991,281.088013
866.687988,400.160004,286.944000
870.591980,409.920013,286.944000
872.544006,409.920013,281.088013
858.880005,421.631989,290.847992
862.783997,435.295990,296.704010
866.687988,417.727997,298.656006
872.544006,417.727997,292.799988
876.447998,419.679993,281.088013
858.880005,417.727997,294.752014
876.447998,421.631989,286.944000
874.495972,407.967987,292.799988
880.351990,402.112000,290.847992
884.255981,411.872009,286.944000
878.400024,406.015991,279.135986
880.351990,415.776001,279.135986
870.591980,423.584015,288.895996
870.591980,411.872009,292.799988
866.687988,407.967987,279.135986
872.544006,413.824005,281.088013
872.544006,419.679993,275.231995
868.640015,413.824005,275.231995
868.640015,417.727997,281.088013
868.640015,427.488007,281.088013
874.495972,409.920013,275.231995
872.544006,417.727997,281.088013
872.544006,415.776001,277.183990
864.736023,419.679993,286.944000
866.687988,429.440002,284.992004
866.687988,421.631989,283.040009
870.591980,425.536011,277.183990
858.880005,423.584015,281.088013
868.640015,423.584015,283.040009
864.736023,429.440002,279.135986
854.976013,429.440002,286.944000
864.736023,421.631989,273.279999
856.927979,409.920013,273.279999
856.927979,409.920013,265.471985
858.880005,413.824005,277.183990
853.023987,429.440002,283.040009
847.168030,421.631989,283.040009
860.831970,419.679993,279.135986
860.831970,417.727997,279.135986
872.544006,413.824005,279.135986
866.687988,429.440002,275.231995
866.687988,429.440002,277.183990
868.640015,435.295990,290.847992
866.687988,431.391998,283.040009
858.880005,429.440002,283.040009
868.640015,427.488007,294.752014
870.591980,433.343994,283.040009
866.687988,443.104004,286.944000
854.976013,433.343994,281.088013
862.783997,427.488007,288.895996
858.880005,439.200012,298.656006
856.927979,439.200012,294.752014
860.831970,429.440002,286.944000
870.591980,441.152008,283.040009
870.591980,439.200012,273.279999
866.687988,421.631989,281.088013
858.880005,437.247986,283.040009
862.783997,437.247986,284.992004
856.927979,448.959991,294.752014
851.072021,447.007996,302.559998
860.831970,437.247986,306.463989
860.831970,439.200012,298.656006
864.736023,447.007996,298.656006
872.544006,437.247986,294.752014
866.687988,450.911987,286.944000
872.544006,447.007996,292.799988
864.736023,443.104004,292.799988
866.687988,447.007996,292.799988
858.880005,445.056000,298.656006
876.447998,456.768005,294.752014
864.736023,460.671997,306.463989
864.736023,458.720001,302.559998
872.544006,447.007996,286.944000
858.880005,450.911987,290.847992
860.831970,456.768005,290.847992
860.831970,458.720001,288.895996
858.880005,456.768005,286.944000
868.640015,456.768005,284.992004
858.880005,452.864014,292.799988
851.072021,448.959991,284.992004
858.880005,452.864014,284.992004
864.736023,454.816010,286.944000
872.544006,452.864014,281.088013
872.544006,441.152008,275.231995
866.687988,443.104004,263.519989
868.640015,429.440002,271.328003
868.640015,427.488007,275.231995
862.783997,447.007996,269.376007
870.591980,447.007996,275.231995
872.544006,450.911987,267.424011
876.447998,458.720001,273.279999
884.255981,450.911987,265.471985
884.255981,452.864014,273.279999
884.255981,454.816010,275.231995
888.159973,454.816010,265.471985
886.208008,452.864014,281.088013
888.159973,458.720001,275.231995
888.159973,468.480011,279.135986
888.159973,468.480011,286.944000
897.919983,472.384003,273.279999
886.208008,464.575989,288.895996
886.208008,466.528015,288.895996
892.064026,482.144012,277.183990
892.064026,482.144012,275.231995
882.304016,486.048004,273.279999
890.112000,480.191986,271.328003
890.112000,484.096008,271.328003
895.968018,495.808014,275.231995
876.447998,499.712006,269.376007
886.208008,493.855988,279.135986
888.159973,495.808014,281.088013
888.159973,499.712006,277.183990
884.255981,497.760010,279.135986
886.208008,493.855988,279.135986
884.255981,488.000000,277.183990
895.968018,488.000000,286.944000
897.919983,495.808014,283.040009
897.919983,491.903992,283.040009
890.112000,476.287994,281.088013
895.968018,484.096008,273.279999
890.112000,482.144012,265.471985
882.304016,478.239990,277.183990
888.159973,486.048004,275.231995
882.304016,488.000000,273.279999
882.304016,489.951996,269.376007
892.064026,493.855988,269.376007
895.968018,503.615997,265.471985
882.304016,495.808014,267.424011
886.208008,491.903992,257.664001
892.064026,495.808014,267.424011
892.064026,491.903992,261.567993
888.159973,505.567993,279.135986
897.919983,495.808014,273.279999
899.872009,505.567993,263.519989
897.919983,499.712006,267.424011
899.872009,499.712006,265.471985
903.776001,491.903992,271.328003
899.872009,497.760010,265.471985
899.872009,497.760010,271.328003
901.823975,497.760010,273.279999
901.823975,505.567993,265.471985
903.776001,499.712006,263.519989
903.776001,499.712006,263.519989
901.823975,495.808014,271.328003
903.776001,497.760010,263.519989
899.872009,497.760010,259.615997
901.823975,493.855988,253.759995
895.968018,499.712006,263.519989
899.872009,493.855988,265.471985
897.919983,484.096008,265.471985
899.872009,488.000000,253.759995
905.728027,488.000000,251.807999
894.015991,491.903992,269.376007
901.823975,497.760010,265.471985
903.776001,480.191986,263.519989
899.872009,488.000000,267.424011
897.919983,486.048004,261.567993
894.015991,488.000000,265.471985
903.776001,489.951996,277.183990
897.919983,497.760010,271.328003
899.872009,491.903992,263.519989
894.015991,489.951996,275.231995
897.919983,489.951996,273.279999
895.968018,491.903992,265.471985
892.064026,491.903992,269.376007
892.064026,486.048004,265.471985
888.159973,482.144012,265.471985
888.159973,482.144012,271.328003
886.208008,482.144012,267.424011
895.968018,480.191986,265.471985
895.968018,476.287994,265.471985
894.015991,478.239990,275.231995
892.064026,478.239990,273.279999
892.064026,486.048004,283.040009
886.208008,486.048004,271.328003
894.015991,474.335999,273.279999
899.872009,480.191986,275.231995
903.776001,482.144012,265.471985
897.919983,505.567993,275.231995
894.015991,517.280029,284.992004
886.208008,499.712006,271.328003
892.064026,493.855988,263.519989
897.919983,478.239990,263.519989
890.112000,480.191986,269.376007
878.400024,497.760010,277.183990
870.591980,488.000000,273.279999
882.304016,474.335999,275.231995
890.112000,466.528015,275.231995
903.776001,454.816010,265.471985
897.919983,452.864014,275.231995
895.968018,480.191986,288.895996
888.159973,489.951996,292.799988
892.064026,482.144012,296.704010
895.968018,464.575989,286.944000
897.919983,454.816010,292.799988
894.015991,466.528015,288.895996
892.064026,493.855988,296.704010
888.159973,495.808014,298.656006
886.208008,493.855988,288.895996
892.064026,462.623993,288.895996
890.112000,452.864014,290.847992
886.208008,478.239990,290.847992
878.400024,480.191986,290.847992
870.591980,486.048004,296.704010
872.544006,464.575989,298.656006
874.495972,443.104004,286.944000
876.447998,435.295990,279.135986
868.640015,458.720001,281.088013
868.640015,452.864014,277.183990
872.544006,452.864014,284.992004
854.976013,450.911987,288.895996
856.927979,437.247986,286.944000
856.927979,450.911987,294.752014
851.072021,468.480011,292.799988
853.023987,476.287994,296.704010
851.072021,476.287994,308.415985
856.927979,456.768005,306.463989
862.783997,429.440002,288.895996
851.072021,458.720001,302.559998
847.168030,460.671997,302.559998
847.168030,450.911987,294.752014
843.263977,454.816010,296.704010
839.359985,435.295990,294.752014
839.359985,415.776001,281.088013
841.312012,433.343994,284.992004
837.408020,425.536011,290.847992
837.408020,431.391998,292.799988
837.408020,423.584015,284.992004
847.168030,415.776001,286.944000
853.023987,421.631989,294.752014
856.927979,435.295990,288.895996
856.927979,441.152008,290.847992
860.831970,441.152008,300.608002
868.640015,437.247986,302.559998
872.544006,439.200012,284.992004
882.304016,439.200012,298.656006
882.304016,454.816010,304.511993
878.400024,454.816010,300.608002
868.640015,452.864014,306.463989
878.400024,445.056000,300.608002
886.208008,413.824005,294.752014
888.159973,404.063995,275.231995
894.015991,402.112000,277.183990
892.064026,380.640015,279.135986
892.064026,378.687988,275.231995
897.919983,359.167999,279.135986
899.872009,359.167999,277.183990
905.728027,365.023987,281.088013
895.968018,366.976013,279.135986
897.919983,384.544006,292.799988
899.872009,394.303986,292.799988
899.872009,380.640015,286.944000
905.728027,384.544006,294.752014
919.392029,386.496002,304.511993
911.583984,392.351990,304.511993
919.392029,407.967987,310.368011
907.679993,400.160004,308.415985
915.487976,390.399994,316.223999
917.440002,392.351990,302.559998
915.487976,388.447998,296.704010
915.487976,396.256012,294.752014
905.728027,396.256012,300.608002
901.823975,392.351990,288.895996
905.728027,365.023987,290.847992
899.872009,349.407990,281.088013
894.015991,351.359985,283.040009
892.064026,355.264008,284.992004
886.208008,351.359985,283.040009
882.304016,351.359985,283.040009
888.159973,341.600006,281.088013
878.400024,341.600006,273.279999
884.255981,347.455994,290.847992
892.064026,357.216003,283.040009
882.304016,368.928009,296.704010
888.159973,370.880005,306.463989
890.112000,359.167999,294.752014
874.495972,374.783997,290.847992
884.255981,376.735992,288.895996
876.447998,382.592010,288.895996
866.687988,380.640015,290.847992
868.640015,368.928009,277.183990
866.687988,365.023987,273.279999
854.976013,365.023987,265.471985
851.072021,361.119995,277.183990
847.168030,357.216003,265.471985
847.168030,353.312012,261.567993
845.216003,339.648010,259.615997
843.263977,339.648010,267.424011
851.072021,339.648010,257.664001
853.023987,347.455994,271.328003
853.023987,361.119995,275.231995
868.640015,353.312012,281.088013
866.687988,361.119995,288.895996
868.640015,355.264008,288.895996
862.783997,361.119995,294.752014
862.783997,374.783997,292.799988
866.687988,386.496002,294.752014
864.736023,382.592010,292.799988
862.783997,370.880005,298.656006
868.640015,374.783997,286.944000
856.927979,363.071991,284.992004
868.640015,366.976013,284.992004
868.640015,365.023987,273.279999
856.927979,366.976013,269.376007
860.831970,365.023987,267.424011
851.072021,361.119995,271.328003
845.216003,351.359985,267.424011
856.927979,359.167999,259.615997
860.831970,359.167999,269.376007
858.880005,368.928009,286.944000
858.880005,361.119995,286.944000
854.976013,366.976013,288.895996
872.544006,392.351990,292.799988
880.351990,390.399994,306.463989
888.159973,392.351990,300.608002
888.159973,386.496002,294.752014
884.255981,390.399994,294.752014
882.304016,392.351990,294.752014
874.495972,400.160004,292.799988
882.304016,398.208008,288.895996
874.495972,392.351990,294.752014
884.255981,390.399994,284.992004
874.495972,392.351990,283.040009
878.400024,407.967987,284.992004
874.495972,400.160004,286.944000
876.447998,396.256012,284.992004
874.495972,404.063995,294.752014
892.064026,407.967987,292.799988
894.015991,404.063995,294.752014
897.919983,404.063995,302.559998
901.823975,407.967987,308.415985
899.872009,409.920013,306.463989
897.919983,417.727997,310.368011
890.112000,431.391998,312.320007
894.015991,421.631989,306.463989
890.112000,417.727997,300.608002
894.015991,427.488007,292.799988
895.968018,423.584015,281.088013
895.968018,413.824005,290.847992
886.208008,413.824005,283.040009
880.351990,409.920013,286.944000
882.304016,406.015991,273.279999
880.351990,413.824005,273.279999
882.304016,417.727997,283.040009
878.400024,431.391998,279.135986
878.400024,423.584015,286.944000
880.351990,435.295990,284.992004
870.591980,435.295990,279.135986
878.400024,435.295990,279.135986
878.400024,441.152008,290.847992
876.447998,443.104004,288.895996
880.351990,437.247986,290.847992
878.400024,437.247986,286.944000
876.447998,437.247986,281.088013
870.591980,443.104004,283.040009
870.591980,433.343994,284.992004
866.687988,443.104004,281.088013
866.687988,439.200012,281.088013
864.736023,437.247986,281.088013
866.687988,433.343994,283.040009
864.736023,439.200012,277.183990
866.687988,435.295990,271.328003
864.736023,437.247986,273.279999
866.687988,447.007996,271.328003
856.927979,437.247986,275.231995
860.831970,445.056000,273.279999
858.880005,437.247986,275.231995
860.831970,447.007996,277.183990
868.640015,452.864014,275.231995
862.783997,450.911987,277.183990
860.831970,452.864014,275.231995
864.736023,454.816010,261.567993
868.640015,460.671997,265.471985
864.736023,456.768005,269.376007
862.783997,445.056000,275.231995
862.783997,458.720001,273.279999
870.591980,448.959991,269.376007
860.831970,454.816010,261.567993
868.640015,443.104004,267.424011
864.736023,443.104004,269.376007
866.687988,443.104004,267.424011
872.544006,445.056000,261.567993
864.736023,439.200012,259.615997
866.687988,445.056000,257.664001
870.591980,445.056000,255.712006
868.640015,458.720001,255.712006
870.591980,454.816010,259.615997
872.544006,445.056000,257.664001
870.591980,454.816010,267.424011
876.447998,454.816010,263.519989
866.687988,447.007996,255.712006
878.400024,448.959991,267.424011
878.400024,448.959991,269.376007
876.447998,450.911987,269.376007
882.304016,435.295990,275.231995
880.351990,437.247986,283.040009
874.495972,445.056000,273.279999
874.495972,439.200012,275.231995
880.351990,437.247986,277.183990
868.640015,439.200012,279.135986
870.591980,425.536011,273.279999
874.495972,427.488007,273.279999
886.208008,409.920013,265.471985
901.823975,406.015991,263.519989
899.872009,396.256012,275.231995
894.015991,402.112000,271.328003
899.872009,409.920013,277.183990
903.776001,421.631989,281.088013
899.872009,421.631989,286.944000
903.776001,427.488007,281.088013
905.728027,439.200012,273.279999
901.823975,439.200012,279.135986
905.728027,441.152008,277.183990
915.487976,450.911987,271.328003
901.823975,437.247986,271.328003
913.536011,431.391998,263.519989
913.536011,447.007996,273.279999
919.392029,435.295990,275.231995
915.487976,443.104004,277.183990
913.536011,443.104004,273.279999
919.392029,425.536011,277.183990
921.343994,417.727997,279.135986
917.440002,423.584015,275.231995
923.296021,419.679993,283.040009
925.247986,415.776001,277.183990
921.343994,404.063995,279.135986
927.200012,406.015991,279.135986
929.151978,421.631989,273.279999
921.343994,427.488007,277.183990
919.392029,425.536011,275.231995
921.343994,427.488007,271.328003
909.632019,425.536011,275.231995
913.536011,429.440002,267.424011
917.440002,427.488007,267.424011
909.632019,417.727997,269.376007
909.632019,417.727997,265.471985
901.823975,425.536011,263.519989
903.776001,406.015991,271.328003
899.872009,407.967987,273.279999
899.872009,409.920013,277.183990
901.823975,407.967987,271.328003
901.823975,407.967987,273.279999
894.015991,411.872009,271.328003
901.823975,415.776001,275.231995
894.015991,419.679993,281.088013
892.064026,423.584015,283.040009
890.112000,423.584015,281.088013
886.208008,413.824005,279.135986
894.015991,413.824005,275.231995
886.208008,415.776001,271.328003
890.112000,406.015991,275.231995
878.400024,402.112000,269.376007
882.304016,402.112000,263.519989
874.495972,400.160004,265.471985
878.400024,394.303986,275.231995
882.304016,382.592010,265.471985
870.591980,400.160004,267.424011
872.544006,390.399994,275.231995
862.783997,390.399994,275.231995
874.495972,382.592010,279.135986
874.495972,378.687988,275.231995
870.591980,390.399994,277.183990
868.640015,392.351990,279.135986
866.687988,396.256012,283.040009
858.880005,404.063995,284.992004
872.544006,396.256012,288.895996
884.255981,353.312012,283.040009
890.112000,368.928009,277.183990
894.015991,355.264008,298.656006
888.159973,347.455994,333.791992
895.968018,374.783997,349.407990
897.919983,372.832001,363.071991
909.632019,363.071991,361.119995
911.583984,398.208008,355.264008
907.679993,376.735992,365.023987
897.919983,413.824005,366.976013
894.015991,431.391998,370.880005
895.968018,390.399994,357.216003
907.679993,404.063995,339.648010
903.776001,380.640015,331.839996
890.112000,376.735992,320.127991
882.304016,407.967987,308.415985
868.640015,398.208008,294.752014
866.687988,402.112000,273.279999
854.976013,400.160004,267.424011
849.119995,366.976013,247.904007
833.504028,372.832001,240.095993
831.552002,396.256012,228.384003
819.840027,390.399994,228.384003
813.984009,361.119995,212.768005
806.176025,353.312012,206.912003
821.791992,347.455994,208.863998
806.176025,355.264008,206.912003
804.223999,357.216003,204.960007
804.223999,368.928009,208.863998
796.416016,355.264008,206.912003
802.271973,363.071991,214.720001
808.127991,365.023987,216.671997
808.127991,363.071991,226.432007
804.223999,394.303986,238.143997
804.223999,388.447998,247.904007
815.935974,380.640015,255.712006
812.031982,372.832001,259.615997
808.127991,374.783997,267.424011
810.080017,386.496002,275.231995
815.935974,390.399994,271.328003
821.791992,392.351990,286.944000
815.935974,388.447998,298.656006
821.791992,388.447998,290.847992
817.888000,370.880005,298.656006
812.031982,374.783997,290.847992
817.888000,374.783997,292.799988
808.127991,392.351990,292.799988
815.935974,380.640015,284.992004
812.031982,374.783997,275.231995
812.031982,388.447998,275.231995
810.080017,382.592010,273.279999
806.176025,382.592010,273.279999
804.223999,404.063995,275.231995
813.984009,386.496002,269.376007
813.984009,396.256012,265.471985
817.888000,390.399994,259.615997
810.080017,382.592010,267.424011
827.648010,396.256012,265.471985
829.599976,394.303986,267.424011
823.744019,384.544006,271.328003
837.408020,388.447998,269.376007
837.408020,376.735992,277.183990
825.695984,378.687988,286.944000
823.744019,380.640015,284.992004
831.552002,382.592010,281.088013
831.552002,376.735992,281.088013
841.312012,378.687988,284.992004
843.263977,380.640015,284.992004
841.312012,388.447998,288.895996
847.168030,400.160004,288.895996
847.168030,409.920013,284.992004
849.119995,402.112000,298.656006
856.927979,417.727997,288.895996
860.831970,407.967987,286.944000
862.783997,390.399994,286.944000
860.831970,413.824005,284.992004
860.831970,394.303986,292.799988
853.023987,390.399994,296.704010
851.072021,398.208008,286.944000
862.783997,394.303986,290.847992
872.544006,400.160004,298.656006
858.880005,413.824005,296.704010
853.023987,388.447998,292.799988
860.831970,419.679993,302.559998
864.736023,406.015991,298.656006
868.640015,400.160004,290.847992
876.447998,415.776001,284.992004
866.687988,402.112000,283.040009
862.783997,409.920013,290.847992
872.544006,429.440002,284.992004
870.591980,421.631989,284.992004
868.640015,435.295990,279.135986
864.736023,421.631989,290.847992
868.640015,435.295990,284.992004
868.640015,441.152008,298.656006
872.544006,423.584015,290.847992
874.495972,415.776001,281.088013
878.400024,413.824005,290.847992
878.400024,402.112000,281.088013
884.255981,415.776001,290.847992
884.255981,402.112000,290.847992
876.447998,392.351990,294.752014
868.640015,398.208008,290.847992
872.544006,398.208008,283.040009
864.736023,400.160004,286.944000
866.687988,402.112000,284.992004
866.687988,407.967987,281.088013
866.687988,415.776001,283.040009
876.447998,419.679993,275.231995
874.495972,419.679993,281.088013
868.640015,431.391998,271.328003
880.351990,425.536011,265.471985
866.687988,425.536011,271.328003
872.544006,439.200012,273.279999
872.544006,439.200012,277.183990
866.687988,439.200012,277.183990
870.591980,431.391998,273.279999
864.736023,413.824005,267.424011
858.880005,415.776001,265.471985
868.640015,419.679993,275.231995
862.783997,423.584015,277.183990
858.880005,423.584015,273.279999
862.783997,409.920013,279.135986
864.736023,404.063995,273.279999
858.880005,402.112000,279.135986
862.783997,417.727997,275.231995
872.544006,425.536011,269.376007
872.544006,415.776001,275.231995
870.591980,411.872009,257.664001
874.495972,407.967987,269.376007
864.736023,425.536011,269.376007
862.783997,435.295990,261.567993
858.880005,445.056000,269.376007
866.687988,431.391998,271.328003
868.640015,425.536011,265.471985
866.687988,417.727997,267.424011
868.640015,437.247986,255.712006
876.447998,437.247986,267.424011
870.591980,423.584015,257.664001
866.687988,423.584015,255.712006
866.687988,413.824005,263.519989
872.544006,421.631989,255.712006
866.687988,427.488007,253.759995
870.591980,417.727997,261.567993
866.687988,411.872009,259.615997
870.591980,415.776001,263.519989
872.544006,413.824005,263.519989
870.591980,425.536011,263.519989
878.400024,415.776001,253.759995
884.255981,423.584015,255.712006
892.064026,431.391998,253.759995
888.159973,417.727997,253.759995
874.495972,425.536011,261.567993
870.591980,439.200012,273.279999
864.736023,445.056000,263.519989
862.783997,443.104004,277.183990
862.783997,450.911987,269.376007
872.544006,429.440002,263.519989
876.447998,425.536011,257.664001
876.447998,429.440002,253.759995
882.304016,425.536011,263.519989
880.351990,427.488007,257.664001
882.304016,419.679993,255.712006
888.159973,402.112000,257.664001
899.872009,413.824005,259.615997
886.208008,423.584015,259.615997
884.255981,427.488007,265.471985
882.304016,433.343994,269.376007
880.351990,433.343994,265.471985
886.208008,431.391998,261.567993
888.159973,429.440002,263.519989
886.208008,429.440002,261.567993
894.015991,441.152008,265.471985
894.015991,456.768005,263.519989
890.112000,454.816010,257.664001
895.968018,448.959991,257.664001
884.255981,443.104004,261.567993
895.968018,454.816010,265.471985
894.015991,470.432007,267.424011
894.015991,456.768005,261.567993
895.968018,439.200012,259.615997
892.064026,431.391998,259.615997
892.064026,429.440002,259.615997
886.208008,431.391998,265.471985
884.255981,443.104004,273.279999
870.591980,439.200012,273.279999
876.447998,427.488007,273.279999
884.255981,425.536011,269.376007
882.304016,439.200012,263.519989
878.400024,443.104004,255.712006
872.544006,437.247986,261.567993
872.544006,450.911987,269.376007
872.544006,443.104004,261.567993
874.495972,431.391998,253.759995
880.351990,435.295990,267.424011
868.640015,443.104004,267.424011
862.783997,452.864014,269.376007
868.640015,448.959991,263.519989
864.736023,441.152008,279.135986
854.976013,431.391998,267.424011
868.640015,421.631989,275.231995
854.976013,427.488007,271.328003
856.927979,419.679993,265.471985
847.168030,415.776001,259.615997
849.119995,398.208008,263.519989
851.072021,398.208008,269.376007
853.023987,409.920013,261.567993
839.359985,419.679993,267.424011
849.119995,435.295990,271.328003
827.648010,423.584015,267.424011
833.504028,413.824005,261.567993
837.408020,409.920013,249.856003
843.263977,417.727997,257.664001
831.552002,431.391998,257.664001
831.552002,425.536011,259.615997
833.504028,421.631989,261.567993
833.504028,407.967987,251.807999
837.408020,421.631989,255.712006
829.599976,406.015991,261.567993
833.504028,413.824005,257.664001
831.552002,406.015991,259.615997
837.408020,398.208008,253.759995
839.359985,384.544006,259.615997
839.359985,394.303986,259.615997
849.119995,394.303986,265.471985
851.072021,402.112000,261.567993
843.263977,400.160004,261.567993
853.023987,398.208008,277.183990
851.072021,398.208008,261.567993
853.023987,394.303986,251.807999
856.927979,396.256012,265.471985
860.831970,407.967987,261.567993
854.976013,406.015991,267.424011
858.880005,402.112000,271.328003
876.447998,388.447998,275.231995
860.831970,394.303986,271.328003
858.880005,390.399994,271.328003
868.640015,388.447998,269.376007
860.831970,388.447998,269.376007
847.168030,384.544006,271.328003
843.263977,390.399994,255.712006
837.408020,374.783997,263.519989
845.216003,392.351990,267.424011
845.216003,390.399994,253.759995
833.504028,380.640015,255.712006
833.504028,388.447998,255.712006
776.895996,392.351990,261.567993
774.943970,353.312012,269.376007
798.367981,327.936005,251.807999
821.791992,296.704010,216.671997
815.935974,273.279999,214.720001
804.223999,279.135986,238.143997
788.607971,265.471985,265.471985
792.512024,259.615997,251.807999
812.031982,261.567993,244.000000
806.176025,290.847992,251.807999
800.320007,304.511993,249.856003
794.463989,325.984009,271.328003
794.463989,370.880005,275.231995
796.416016,400.160004,265.471985
794.463989,394.303986,242.048004
810.080017,388.447998,247.904007
804.223999,374.783997,253.759995
812.031982,406.015991,251.807999
817.888000,443.104004,242.048004
815.935974,425.536011,249.856003
823.744019,394.303986,255.712006
821.791992,394.303986,263.519989
821.791992,396.256012,259.615997
819.840027,415.776001,271.328003
827.648010,392.351990,286.944000
837.408020,366.976013,290.847992
837.408020,359.167999,286.944000
856.927979,353.312012,284.992004
862.783997,347.455994,286.944000
868.640015,355.264008,286.944000
864.736023,355.264008,292.799988
866.687988,343.552002,288.895996
864.736023,339.648010,284.992004
860.831970,351.359985,279.135986
853.023987,359.167999,277.183990
821.791992,376.735992,267.424011
798.367981,368.928009,265.471985
784.703979,353.312012,269.376007
778.848022,347.455994,263.519989
763.231995,357.216003,265.471985
765.184021,355.264008,259.615997
761.280029,337.696014,257.664001
749.567993,294.752014,263.519989
751.520020,267.424011,249.856003
757.375977,267.424011,245.951996
753.471985,286.944000,255.712006
741.760010,269.376007,269.376007
745.664001,273.279999,277.183990
741.760010,265.471985,277.183990
755.424011,281.088013,271.328003
755.424011,325.984009,271.328003
774.943970,325.984009,286.944000
778.848022,329.888000,298.656006
798.367981,359.167999,306.463989
806.176025,365.023987,298.656006
815.935974,361.119995,290.847992
837.408020,370.880005,294.752014
843.263977,353.312012,288.895996
858.880005,363.071991,281.088013
872.544006,376.735992,284.992004
892.064026,359.167999,286.944000
897.919983,345.503998,279.135986
911.583984,351.359985,275.231995
911.583984,347.455994,281.088013
921.343994,359.167999,273.279999
933.056030,363.071991,292.799988
933.056030,347.455994,306.463989
936.960022,361.119995,308.415985
948.671997,370.880005,320.127991
946.719971,366.976013,316.223999
950.624023,388.447998,325.984009
958.432007,386.496002,320.127991
946.719971,386.496002,316.223999
940.864014,394.303986,320.127991
948.671997,402.112000,318.175995
935.007996,398.208008,316.223999
917.440002,386.496002,314.272003
927.200012,380.640015,318.175995
915.487976,380.640015,306.463989
907.679993,380.640015,300.608002
901.823975,366.976013,310.368011
892.064026,366.976013,302.559998
874.495972,366.976013,296.704010
872.544006,368.928009,292.799988
866.687988,366.976013,302.559998
862.783997,366.976013,296.704010
868.640015,363.071991,290.847992
862.783997,366.976013,290.847992
866.687988,355.264008,286.944000
868.640015,355.264008,286.944000
876.447998,359.167999,283.040009
880.351990,333.791992,277.183990
933.056030,284.992004,265.471985
987.711975,183.488007,245.951996
1007.231995,138.591995,247.904007
1018.943970,224.479996,284.992004
995.520020,257.664001,337.696014
966.239990,279.135986,361.119995
989.664001,318.175995,333.791992
989.664001,279.135986,322.079987
966.239990,318.175995,322.079987
925.247986,429.440002,333.791992
892.064026,501.664001,363.071991
882.304016,552.416016,363.071991
890.112000,484.096008,341.600006
911.583984,382.592010,320.127991
905.728027,361.119995,304.511993
890.112000,386.496002,312.320007
856.927979,450.911987,308.415985
831.552002,441.152008,294.752014
813.984009,374.783997,275.231995
815.935974,329.888000,240.095993
802.271973,335.743988,204.960007
778.848022,396.256012,208.863998
737.856018,468.480011,212.768005
732.000000,460.671997,220.576004
726.143982,407.967987,212.768005
730.047974,363.071991,185.440002
737.856018,349.407990,158.112000
741.760010,386.496002,165.919998
743.711975,409.920013,187.391998
741.760010,409.920013,204.960007
759.328003,390.399994,212.768005
772.992004,368.928009,216.671997
784.703979,359.167999,230.335999
784.703979,390.399994,261.567993
788.607971,406.015991,294.752014
802.271973,396.256012,310.368011
819.840027,327.936005,298.656006
849.119995,292.799988,294.752014
864.736023,284.992004,290.847992
858.880005,281.088013,277.183990
856.927979,304.511993,284.992004
853.023987,320.127991,273.279999
841.312012,304.511993,257.664001
849.119995,292.799988,234.240005
853.023987,302.559998,230.335999
835.455994,349.407990,228.384003
825.695984,386.496002,236.192001
812.031982,396.256012,226.432007
821.791992,386.496002,220.576004
831.552002,378.687988,224.479996
833.504028,372.832001,222.528000
839.359985,390.399994,232.287994
833.504028,394.303986,257.664001
841.312012,388.447998,267.424011
853.023987,366.976013,279.135986
872.544006,345.503998,286.944000
876.447998,339.648010,283.040009
870.591980,351.359985,306.463989
864.736023,339.648010,314.272003
868.640015,353.312012,312.320007
880.351990,347.455994,306.463989
882.304016,327.936005,300.608002
884.255981,349.407990,308.415985
882.304016,366.976013,302.559998
876.447998,392.351990,298.656006
880.351990,402.112000,306.463989
874.495972,392.351990,292.799988
874.495972,402.112000,290.847992
880.351990,409.920013,286.944000
882.304016,415.776001,294.752014
880.351990,439.200012,286.944000
878.400024,423.584015,300.608002
890.112000,409.920013,290.847992
907.679993,388.447998,294.752014
901.823975,372.832001,302.559998
907.679993,388.447998,304.511993
903.776001,378.687988,312.320007
894.015991,374.783997,314.272003
905.728027,359.167999,308.415985
905.728027,351.359985,318.175995
927.200012,363.071991,306.463989
915.487976,384.544006,300.608002
919.392029,390.399994,308.415985
909.632019,407.967987,314.272003
907.679993,402.112000,304.511993
905.728027,411.872009,314.272003
903.776001,429.440002,304.511993
903.776001,437.247986,302.559998
913.536011,429.440002,288.895996
907.679993,445.056000,292.799988
907.679993,448.959991,302.559998
911.583984,435.295990,290.847992
909.632019,427.488007,296.704010
915.487976,433.343994,294.752014
911.583984,435.295990,288.895996
903.776001,423.584015,292.799988
901.823975,425.536011,292.799988
907.679993,415.776001,284.992004
915.487976,407.967987,284.992004
923.296021,386.496002,283.040009
925.247986,400.160004,283.040009
917.440002,406.015991,284.992004
907.679993,425.536011,286.944000
905.728027,441.152008,279.135986
899.872009,421.631989,286.944000
892.064026,447.007996,279.135986
892.064026,454.816010,273.279999
882.304016,464.575989,275.231995
890.112000,466.528015,257.664001
890.112000,448.959991,261.567993
895.968018,445.056000,269.376007
903.776001,448.959991,261.567993
892.064026,441.152008,267.424011
894.015991,456.768005,273.279999
897.919983,454.816010,292.799988
894.015991,439.200012,286.944000
897.919983,450.911987,286.944000
901.823975,437.247986,292.799988
915.487976,439.200012,296.704010
913.536011,429.440002,298.656006
917.440002,450.911987,302.559998
917.440002,439.200012,314.272003
909.632019,443.104004,310.368011
897.919983,450.911987,298.656006
890.112000,454.816010,288.895996
886.208008,470.432007,286.944000
892.064026,472.384003,283.040009
888.159973,464.575989,275.231995
890.112000,480.191986,263.519989
895.968018,460.671997,267.424011
892.064026,466.528015,259.615997
895.968018,478.239990,267.424011
888.159973,468.480011,275.231995
878.400024,468.480011,275.231995
886.208008,466.528015,283.040009
880.351990,454.816010,284.992004
886.208008,454.816010,290.847992
886.208008,454.816010,283.040009
890.112000,452.864014,290.847992
897.919983,454.816010,288.895996
894.015991,445.056000,288.895996
897.919983,447.007996,296.704010
895.968018,429.440002,300.608002
897.919983,448.959991,298.656006
894.015991,454.816010,296.704010
894.015991,456.768005,294.752014
894.015991,448.959991,290.847992
886.208008,450.911987,283.040009
890.112000,454.816010,273.279999
882.304016,454.816010,277.183990
876.447998,454.816010,269.376007
880.351990,445.056000,277.183990
880.351990,458.720001,265.471985
886.208008,458.720001,275.231995
890.112000,443.104004,273.279999
884.255981,445.056000,271.328003
882.304016,447.007996,277.183990
874.495972,443.104004,271.328003
878.400024,439.200012,284.992004
882.304016,429.440002,288.895996
886.208008,421.631989,294.752014
882.304016,423.584015,283.040009
876.447998,409.920013,294.752014
878.400024,421.631989,292.799988
878.400024,419.679993,296.704010
860.831970,415.776001,286.944000
868.640015,417.727997,279.135986
860.831970,411.872009,283.040009
862.783997,415.776001,269.376007
853.023987,421.631989,261.567993
856.927979,419.679993,261.567993
854.976013,409.920013,255.712006
853.023987,411.872009,249.856003
843.263977,417.727997,249.856003
849.119995,421.631989,244.000000
851.072021,419.679993,247.904007
849.119995,427.488007,244.000000
849.119995,415.776001,247.904007
856.927979,423.584015,247.904007
856.927979,413.824005,245.951996
868.640015,421.631989,247.904007
854.976013,415.776001,251.807999
864.736023,417.727997,253.759995
868.640015,413.824005,251.807999
870.591980,407.967987,251.807999
872.544006,413.824005,245.951996
858.880005,402.112000,242.048004
864.736023,409.920013,240.095993
860.831970,402.112000,238.143997
862.783997,366.976013,232.287994
866.687988,355.264008,230.335999
874.495972,355.264008,228.384003
866.687988,345.503998,240.095993
864.736023,361.119995,238.143997
868.640015,363.071991,236.192001
872.544006,347.455994,247.904007
870.591980,363.071991,232.287994
882.304016,372.832001,234.240005
880.351990,388.447998,249.856003
876.447998,415.776001,265.471985
882.304016,402.112000,255.712006
886.208008,400.160004,257.664001
901.823975,392.351990,257.664001
911.583984,372.832001,259.615997
917.440002,384.544006,265.471985
915.487976,394.303986,273.279999
921.343994,394.303986,275.231995
929.151978,384.544006,286.944000
927.200012,372.832001,275.231995
935.007996,370.880005,273.279999
944.768005,380.640015,275.231995
956.479980,394.303986,267.424011
981.856018,380.640015,283.040009
991.616028,365.023987,281.088013
989.664001,368.928009,318.175995
985.760010,359.167999,347.455994
1001.375977,409.920013,363.071991
1022.848022,482.144012,359.167999
1034.560059,448.959991,368.928009
1030.656006,445.056000,372.832001
1024.800049,423.584015,384.544006
1007.231995,417.727997,382.592010
1001.375977,480.191986,380.640015
983.807983,448.959991,365.023987
954.528015,386.496002,345.503998
936.960022,351.359985,322.079987
919.392029,288.895996,281.088013
905.728027,306.463989,238.143997
886.208008,325.984009,206.912003
856.927979,325.984009,187.391998
837.408020,349.407990,167.871994
817.888000,343.552002,146.399994
806.176025,351.359985,138.591995
808.127991,404.063995,128.832001
798.367981,431.391998,136.639999
800.320007,456.768005,160.063995
815.935974,462.623993,189.343994
833.504028,452.864014,216.671997
853.023987,456.768005,255.712006
854.976013,464.575989,286.944000
878.400024,482.144012,306.463989
888.159973,476.287994,329.888000
901.823975,441.152008,357.216003
915.487976,435.295990,366.976013
923.296021,411.872009,357.216003
931.104004,400.160004,347.455994
933.056030,400.160004,331.839996
946.719971,378.687988,304.511993
954.528015,355.264008,265.471985
958.432007,345.503998,232.287994
968.192017,337.696014,197.151993
976.000000,353.312012,167.871994
977.952026,376.735992,165.919998
974.047974,402.112000,160.063995
960.383972,423.584015,163.968002
956.479980,433.343994,167.871994
944.768005,466.528015,201.056000
940.864014,489.951996,224.479996
931.104004,501.664001,253.759995
925.247986,509.471985,277.183990
929.151978,480.191986,294.752014
933.056030,462.623993,308.415985
942.815979,433.343994,306.463989
935.007996,402.112000,300.608002
938.911987,390.399994,290.847992
923.296021,382.592010,281.088013
901.823975,376.735992,251.807999
901.823975,376.735992,238.143997
888.159973,390.399994,193.248001
878.400024,411.872009,183.488007
872.544006,439.200012,167.871994
854.976013,472.384003,167.871994
851.072021,474.335999,158.112000
860.831970,484.096008,162.016006
866.687988,482.144012,169.824005
884.255981,476.287994,179.584000
886.208008,478.239990,185.440002
895.968018,464.575989,208.863998
905.728027,456.768005,240.095993
925.247986,443.104004,255.712006
931.104004,419.679993,277.183990
938.911987,398.208008,279.135986
950.624023,392.351990,275.231995
950.624023,372.832001,279.135986
940.864014,374.783997,286.944000
944.768005,374.783997,267.424011
940.864014,374.783997,249.856003
938.911987,390.399994,232.287994
921.343994,411.872009,218.623993
903.776001,433.343994,201.056000
899.872009,460.671997,185.440002
888.159973,480.191986,177.632004
882.304016,495.808014,175.679993
880.351990,497.760010,165.919998
876.447998,499.712006,177.632004
884.255981,491.903992,183.488007
882.304016,476.287994,191.296005
892.064026,464.575989,210.815994
899.872009,448.959991,236.192001
905.728027,413.824005,255.712006
913.536011,402.112000,265.471985
917.440002,374.783997,273.279999
915.487976,368.928009,286.944000
917.440002,376.735992,296.704010
923.296021,366.976013,294.752014
911.583984,365.023987,294.752014
907.679993,382.592010,281.088013
892.064026,394.303986,265.471985
880.351990,409.920013,275.231995
872.544006,427.488007,242.048004
858.880005,439.200012,234.240005
847.168030,456.768005,218.623993
847.168030,462.623993,210.815994
845.216003,470.432007,206.912003
831.552002,480.191986,206.912003
839.359985,472.384003,203.007996
835.455994,452.864014,220.576004
849.119995,441.152008,224.479996
841.312012,433.343994,245.951996
856.927979,419.679993,259.615997
856.927979,409.920013,271.328003
866.687988,386.496002,288.895996
872.544006,384.544006,288.895996
868.640015,370.880005,294.752014
874.495972,366.976013,298.656006
872.544006,366.976013,302.559998
860.831970,382.592010,294.752014
853.023987,396.256012,288.895996
841.312012,409.920013,279.135986
833.504028,409.920013,271.328003
837.408020,413.824005,249.856003
819.840027,419.679993,261.567993
833.504028,433.343994,245.951996
815.935974,443.104004,226.432007
819.840027,433.343994,232.287994
817.888000,437.247986,234.240005
827.648010,421.631989,234.240005
821.791992,419.679993,240.095993
821.791992,400.160004,249.856003
827.648010,396.256012,255.712006
825.695984,380.640015,267.424011
835.455994,370.880005,279.135986
841.312012,368.928009,279.135986
839.359985,361.119995,288.895996
835.455994,353.312012,288.895996
839.359985,349.407990,290.847992
843.263977,357.216003,286.944000
851.072021,351.359985,284.992004
845.216003,361.119995,290.847992
845.216003,370.880005,279.135986
845.216003,372.832001,273.279999
847.168030,374.783997,279.135986
847.168030,388.447998,273.279999
831.552002,402.112000,269.376007
835.455994,392.351990,269.376007
851.072021,404.063995,265.471985
851.072021,394.303986,267.424011
856.927979,378.687988,265.471985
851.072021,386.496002,273.279999
854.976013,366.976013,275.231995
864.736023,363.071991,279.135986
870.591980,337.696014,273.279999
868.640015,327.936005,271.328003
878.400024,324.032013,267.424011
897.919983,308.415985,273.279999
899.872009,302.559998,286.944000
905.728027,304.511993,290.847992
917.440002,294.752014,302.559998
901.823975,302.559998,322.079987
899.872009,322.079987,351.359985
888.159973,327.936005,382.592010
880.351990,366.976013,411.872009
880.351990,386.496002,402.112000
880.351990,398.208008,384.544006
895.968018,413.824005,349.407990
892.064026,409.920013,320.127991
886.208008,419.679993,294.752014
876.447998,425.536011,279.135986
860.831970,419.679993,267.424011
851.072021,394.303986,257.664001
843.263977,365.023987,224.479996
841.312012,345.503998,206.912003
841.312012,331.839996,197.151993
851.072021,316.223999,187.391998
847.168030,318.175995,175.679993
862.783997,306.463989,167.871994
866.687988,290.847992,175.679993
874.495972,281.088013,197.151993
882.304016,294.752014,214.720001
890.112000,318.175995,251.807999
901.823975,316.223999,279.135986
923.296021,316.223999,292.799988
935.007996,314.272003,314.272003
946.719971,314.272003,320.127991
948.671997,335.743988,329.888000
944.768005,361.119995,335.743988
948.671997,374.783997,325.984009
946.719971,368.928009,314.272003
931.104004,366.976013,294.752014
927.200012,370.880005,275.231995
919.392029,386.496002,251.807999
901.823975,411.872009,230.335999
892.064026,404.063995,214.720001
888.159973,384.544006,201.056000
886.208008,359.167999,193.248001
874.495972,349.407990,185.440002
882.304016,349.407990,189.343994
884.255981,351.359985,197.151993
880.351990,349.407990,210.815994
894.015991,339.648010,226.432007
907.679993,333.791992,251.807999
927.200012,331.839996,257.664001
938.911987,339.648010,281.088013
950.624023,353.312012,302.559998
948.671997,351.359985,314.272003
948.671997,365.023987,320.127991
962.335999,372.832001,325.984009
962.335999,386.496002,318.175995
954.528015,390.399994,310.368011
944.768005,398.208008,294.752014
935.007996,415.776001,286.944000
923.296021,421.631989,267.424011
907.679993,402.112000,245.951996
903.776001,411.872009,232.287994
888.159973,406.015991,218.623993
884.255981,396.256012,204.960007
872.544006,400.160004,203.007996
858.880005,382.592010,201.056000
862.783997,374.783997,203.007996
864.736023,366.976013,212.768005
858.880005,363.071991,224.479996
858.880005,376.735992,240.095993
872.544006,378.687988,251.807999
876.447998,376.735992,253.759995
884.255981,390.399994,265.471985
888.159973,386.496002,281.088013
894.015991,392.351990,284.992004
882.304016,404.063995,294.752014
884.255981,415.776001,290.847992
892.064026,407.967987,292.799988
874.495972,411.872009,277.183990
876.447998,407.967987,273.279999
870.591980,413.824005,265.471985
868.640015,421.631989,249.856003
856.927979,406.015991,247.904007
851.072021,396.256012,226.432007
854.976013,382.592010,210.815994
849.119995,376.735992,212.768005
851.072021,376.735992,224.479996
845.216003,370.880005,222.528000
843.263977,363.071991,236.192001
845.216003,370.880005,242.048004
851.072021,376.735992,255.712006
849.119995,380.640015,253.759995
858.880005,388.447998,265.471985
851.072021,384.544006,283.040009
862.783997,402.112000,292.799988
874.495972,398.208008,292.799988
874.495972,392.351990,284.992004
866.687988,392.351990,288.895996
870.591980,398.208008,296.704010
868.640015,398.208008,294.752014
866.687988,407.967987,283.040009
854.976013,382.592010,284.992004
854.976013,386.496002,283.040009
845.216003,374.783997,269.376007
845.216003,372.832001,269.376007
831.552002,368.928009,263.519989
831.552002,376.735992,267.424011
837.408020,366.976013,261.567993
831.552002,363.071991,261.567993
837.408020,361.119995,271.328003
853.023987,357.216003,265.471985
851.072021,357.216003,279.135986
851.072021,368.928009,275.231995
854.976013,363.071991,281.088013
860.831970,372.832001,288.895996
862.783997,374.783997,290.847992
864.736023,372.832001,304.511993
858.880005,378.687988,302.559998
876.447998,366.976013,304.511993
870.591980,376.735992,304.511993
874.495972,359.167999,310.368011
872.544006,359.167999,298.656006
878.400024,351.359985,298.656006
862.783997,345.503998,288.895996
872.544006,355.264008,283.040009
866.687988,345.503998,279.135986
866.687988,347.455994,273.279999
866.687988,329.888000,271.328003
870.591980,345.503998,271.328003
868.640015,343.552002,265.471985
876.447998,345.503998,271.328003
872.544006,345.503998,273.279999
880.351990,341.600006,263.519989
884.255981,341.600006,275.231995
892.064026,339.648010,275.231995
884.255981,341.600006,281.088013
886.208008,351.359985,284.992004
899.872009,353.312012,286.944000
899.872009,359.167999,286.944000
901.823975,347.455994,286.944000
901.823975,345.503998,286.944000
905.728027,341.600006,294.752014
909.632019,345.503998,273.279999
899.872009,351.359985,281.088013
901.823975,333.791992,279.135986
915.487976,337.696014,275.231995
911.583984,329.888000,273.279999
915.487976,337.696014,275.231995
927.200012,353.312012,263.519989
929.151978,343.552002,269.376007
925.247986,337.696014,263.519989
931.104004,337.696014,261.567993
936.960022,337.696014,259.615997
946.719971,351.359985,275.231995
956.479980,347.455994,275.231995
944.768005,351.359985,273.279999
954.528015,351.359985,281.088013
958.432007,345.503998,284.992004
974.047974,345.503998,281.088013
976.000000,351.359985,279.135986
983.807983,353.312012,284.992004
987.711975,349.407990,284.992004
976.000000,345.503998,298.656006
987.711975,349.407990,310.368011
987.711975,351.359985,308.415985
989.664001,357.216003,322.079987
995.520020,355.264008,329.888000
1001.375977,351.359985,337.696014
999.424011,347.455994,345.503998
1009.184021,357.216003,353.312012
1009.184021,359.167999,355.264008
1003.328003,365.023987,355.264008
983.807983,374.783997,351.359985
979.903992,351.359985,339.648010
972.096008,365.023987,333.791992
968.192017,368.928009,320.127991
970.143982,370.880005,314.272003
964.288025,372.832001,304.511993
948.671997,363.071991,294.752014
942.815979,355.264008,290.847992
927.200012,361.119995,277.183990
919.392029,351.359985,269.376007
911.583984,361.119995,271.328003
899.872009,366.976013,259.615997
901.823975,361.119995,257.664001
886.208008,351.359985,251.807999
888.159973,345.503998,240.095993
897.919983,339.648010,234.240005
890.112000,347.455994,222.528000
888.159973,353.312012,228.384003
868.640015,339.648010,236.192001
841.312012,341.600006,242.048004
962.335999,341.600006,220.576004
1323.456055,804.223999,58.560001
919.392029,253.759995,136.639999
968.192017,195.199997,353.312012
901.823975,486.048004,581.695984
854.976013,337.696014,687.104004
974.047974,774.943970,630.495972
1095.072021,569.984009,585.599976
1013.088013,113.216003,700.768005
985.760010,62.464001,704.671997
921.343994,-271.328003,815.935974
1079.456055,-64.416000,769.088013
1063.839966,-162.016006,739.807983
1083.359985,66.367996,681.247986
960.383972,474.335999,626.591980
1022.848022,480.191986,546.559998
1009.184021,277.183990,503.615997
985.760010,374.783997,470.432007
968.192017,558.271973,435.295990
995.520020,530.943970,396.256012
958.432007,447.007996,386.496002
936.960022,448.959991,394.303986
954.528015,474.335999,390.399994
960.383972,366.976013,392.351990
964.288025,236.192001,394.303986
960.383972,201.056000,415.776001
936.960022,210.815994,423.584015
931.104004,222.528000,404.063995
917.440002,210.815994,386.496002
917.440002,245.951996,380.640015
925.247986,277.183990,384.544006
927.200012,290.847992,390.399994
911.583984,310.368011,382.592010
909.632019,353.312012,368.928009
925.247986,390.399994,353.312012
913.536011,452.864014,345.503998
884.255981,597.312012,327.936005
915.487976,644.159973,310.368011
899.872009,673.440002,292.799988
921.343994,708.575989,283.040009
917.440002,730.047974,281.088013
909.632019,650.015991,310.368011
890.112000,552.416016,361.119995
899.872009,476.287994,396.256012
903.776001,370.880005,435.295990
882.304016,244.000000,462.623993
890.112000,136.639999,486.048004
886.208008,72.223999,499.712006
882.304016,56.608002,511.424011
913.536011,19.520000,495.808014
915.487976,50.751999,484.096008
948.671997,91.744003,472.384003
935.007996,199.104004,464.575989
960.383972,320.127991,450.911987
958.432007,427.488007,431.391998
968.192017,548.512024,411.872009
983.807983,724.192017,386.496002
1044.319946,839.359985,347.455994
1052.128052,819.840027,353.312012
1061.887939,786.656006,363.071991
1054.079956,784.703979,382.592010
1085.312012,704.671997,394.303986
1063.839966,499.712006,431.391998
1024.800049,298.656006,460.671997
1030.656006,193.248001,489.951996
1022.848022,85.888000,499.712006
1020.895996,-1.952000,538.752014
995.520020,-60.512001,546.559998
976.000000,-19.520000,530.943970
1001.375977,64.416000,515.328003
1011.135986,146.399994,511.424011
1020.895996,197.151993,499.712006
1018.943970,304.511993,486.048004
991.616028,521.184021,462.623993
1046.271973,747.616028,406.015991
1018.943970,938.911987,372.832001
1097.024048,948.671997,339.648010
1083.359985,905.728027,343.552002
1097.024048,931.104004,357.216003
1114.592041,895.968018,392.351990
1095.072021,710.528015,429.440002
1063.839966,466.528015,468.480011
1054.079956,265.471985,491.903992
1067.744019,138.591995,511.424011
1073.599976,3.904000,542.656006
1063.839966,-138.591995,577.791992
1046.271973,-249.856003,609.023987
1087.264038,-296.704010,634.400024
1126.303955,-327.936005,636.351990
1139.968018,-404.063995,655.872009
1098.975952,-304.511993,677.343994
1112.640015,-66.367996,692.960022
1079.456055,316.223999,683.200012
864.736023,1153.631958,648.064026
1319.552002,1141.920044,497.760010
1225.855957,1138.015991,515.328003
1247.328003,1323.456055,497.760010
1339.072021,1538.176025,466.528015
1305.887939,1428.864014,480.191986
1239.520020,1093.119995,513.375977
1182.911987,794.463989,546.559998
1171.199951,675.392029,583.648010
1061.887939,782.752014,542.656006
1157.536011,749.567993,484.096008
1087.264038,603.168030,491.903992
1085.312012,466.528015,484.096008
1052.128052,519.231995,466.528015
1085.312012,579.744019,413.824005
1073.599976,538.752014,413.824005
1038.463989,419.679993,441.152008
1016.992004,406.015991,470.432007
1052.128052,476.287994,472.384003
1048.223999,538.752014,472.384003
1042.368042,517.280029,482.144012
1030.656006,501.664001,478.239990
983.807983,554.367981,464.575989
1030.656006,634.400024,433.343994
1005.280029,708.575989,423.584015
1036.511963,716.383972,368.928009
1007.231995,728.096008,325.984009
1030.656006,767.135986,277.183990
968.192017,774.943970,257.664001
977.952026,706.624023,244.000000
907.679993,-201.056000,265.471985
892.064026,-2186.239990,388.447998
349.407990,-1946.144043,577.791992
804.223999,-1087.264038,489.951996
958.432007,263.519989,431.391998
1239.520020,523.135986,365.023987
974.047974,197.151993,435.295990
794.463989,19.520000,448.959991
851.072021,162.016006,406.015991
894.015991,23.424000,372.832001
868.640015,3.904000,341.600006
798.367981,181.535995,363.071991
794.463989,489.951996,345.503998
905.728027,681.247986,286.944000
962.335999,687.104004,247.904007
905.728027,283.040009,242.048004
772.992004,-56.608002,277.183990
675.392029,97.599998,279.135986
726.143982,411.872009,222.528000
886.208008,610.976013,144.447998
790.559998,607.072021,128.832001
732.000000,425.536011,89.792000
630.495972,402.112000,68.320000
732.000000,447.007996,29.280001
759.328003,507.519989,-3.904000
739.807983,427.488007,3.904000
735.903992,273.279999,11.712000
714.432007,220.576004,31.232000
722.239990,220.576004,33.183998
732.000000,206.912003,29.280001
708.575989,238.143997,19.520000
726.143982,238.143997,42.944000
757.375977,197.151993,60.512001
800.320007,150.304001,78.080002
837.408020,187.391998,128.832001
856.927979,269.376007,144.447998
954.528015,284.992004,130.783997
232.287994,1085.312012,199.104004
185.440002,1063.839966,156.160004
1081.407959,17.568001,54.655998
1069.696045,-171.776001,122.975998
685.151978,259.615997,197.151993
735.903992,388.447998,193.248001
985.760010,283.040009,177.632004
915.487976,460.671997,199.104004
767.135986,624.640015,242.048004
933.056030,462.623993,245.951996
1210.239990,394.303986,249.856003
722.239990,976.000000,355.264008
154.207993,977.952026,427.488007
776.895996,-284.992004,349.407990
1243.423950,-296.704010,359.167999
919.392029,359.167999,437.247986
751.520020,523.135986,484.096008
1032.608032,312.320007,460.671997
1288.319946,396.256012,448.959991
1179.008057,884.255981,489.951996
1241.472046,798.367981,528.992004
1186.816040,538.752014,544.607971
-1428.864014,1938.336060,786.656006
568.031982,-152.255997,447.007996
1057.984009,83.935997,501.664001
591.455994,218.623993,509.471985
884.255981,179.584000,495.808014
886.208008,220.576004,507.519989
109.311996,-421.631989,632.447998
-497.760010,-817.888000,712.479980
0.000000,-62.464001,550.463989
646.112000,702.719971,353.312012
1048.223999,482.144012,240.095993
999.424011,48.799999,275.231995
749.567993,134.688004,324.032013
406.015991,294.752014,355.264008
466.528015,199.104004,325.984009
728.096008,78.080002,288.895996
747.616028,210.815994,300.608002
696.864014,310.368011,335.743988
683.200012,242.048004,347.455994
593.408020,156.160004,355.264008
407.967987,195.199997,380.640015
513.375977,429.440002,357.216003
659.776001,511.424011,341.600006
687.104004,343.552002,331.839996
694.911987,226.432007,335.743988
628.544006,345.503998,357.216003
573.888000,544.607971,359.167999
626.591980,536.799988,353.312012
689.056030,341.600006,341.600006
700.768005,300.608002,351.359985
696.864014,365.023987,370.880005
679.296021,390.399994,394.303986
671.487976,365.023987,402.112000
681.247986,320.127991,411.872009
691.007996,308.415985,413.824005
691.007996,327.936005,437.247986
702.719971,327.936005,429.440002
683.200012,333.791992,448.959991
679.296021,339.648010,468.480011
691.007996,329.888000,484.096008
685.151978,343.552002,484.096008
691.007996,365.023987,501.664001
706.624023,357.216003,488.000000
724.192017,349.407990,501.664001
712.479980,368.928009,513.375977
704.671997,365.023987,521.184021
720.288025,365.023987,528.992004
726.143982,363.071991,532.895996
735.903992,349.407990,527.039978
733.952026,345.503998,532.895996
722.239990,347.455994,534.848022
718.335999,366.976013,534.848022
753.471985,368.928009,544.607971
741.760010,374.783997,546.559998
732.000000,374.783997,558.271973
761.280029,353.312012,538.752014
751.520020,339.648010,546.559998
759.328003,347.455994,540.703979
776.895996,347.455994,544.607971
796.416016,322.079987,542.656006
790.559998,296.704010,532.895996
819.840027,255.712006,532.895996
808.127991,218.623993,528.992004
786.656006,171.776001,528.992004
681.247986,46.848000,538.752014
530.943970,-64.416000,519.231995
583.648010,-37.088001,497.760010
726.143982,-5.856000,454.816010
786.656006,-15.616000,447.007996
737.856018,-56.608002,448.959991
683.200012,-68.320000,448.959991
692.960022,29.280001,439.200012
636.351990,230.335999,419.679993
546.559998,540.703979,390.399994
550.463989,853.023987,347.455994
579.744019,1077.504028,318.175995
618.783997,1126.303955,318.175995
700.768005,765.184021,341.600006
648.064026,-523.135986,339.648010
700.768005,-1104.832031,314.272003
700.768005,156.160004,327.936005
614.880005,1184.864014,333.791992
655.872009,687.104004,343.552002
650.015991,-160.063995,361.119995
669.536011,-42.944000,322.079987
636.351990,456.768005,335.743988
624.640015,573.888000,359.167999
640.255981,208.863998,384.544006
663.679993,93.695999,388.447998
669.536011,322.079987,394.303986
632.447998,441.152008,409.920013
644.159973,347.455994,431.391998
677.343994,271.328003,445.056000
691.007996,300.608002,448.959991
687.104004,363.071991,476.287994
685.151978,386.496002,484.096008
700.768005,345.503998,489.951996
702.719971,312.320007,493.855988
708.575989,349.407990,501.664001
706.624023,368.928009,515.328003
704.671997,343.552002,523.135986
722.239990,306.463989,523.135986
716.383972,324.032013,538.752014
724.192017,302.559998,540.703979
726.143982,265.471985,542.656006
728.096008,284.992004,544.607971
733.952026,286.944000,538.752014
735.903992,277.183990,538.752014
730.047974,265.471985,538.752014
726.143982,283.040009,548.512024
728.096008,290.847992,546.559998
726.143982,290.847992,534.848022
726.143982,296.704010,550.463989
722.239990,300.608002,538.752014
726.143982,316.223999,540.703979
728.096008,316.223999,540.703979
732.000000,325.984009,540.703979
739.807983,327.936005,542.656006
733.952026,327.936005,542.656006
735.903992,339.648010,544.607971
735.903992,341.600006,542.656006
749.567993,335.743988,548.512024
741.760010,329.888000,552.416016
749.567993,331.839996,554.367981
749.567993,320.127991,560.223999
749.567993,329.888000,546.559998
753.471985,324.032013,548.512024
749.567993,320.127991,548.512024
759.328003,312.320007,550.463989
759.328003,308.415985,546.559998
761.280029,310.368011,548.512024
771.039978,308.415985,556.320007
769.088013,300.608002,544.607971
765.184021,304.511993,546.559998
778.848022,314.272003,542.656006
784.703979,325.984009,546.559998
780.799988,324.032013,554.367981
786.656006,325.984009,558.271973
798.367981,329.888000,562.176025
792.512024,329.888000,564.127991
806.176025,325.984009,562.176025
802.271973,327.936005,564.127991
806.176025,335.743988,566.080017
806.176025,337.696014,571.935974
804.223999,341.600006,569.984009
815.935974,324.032013,573.888000
810.080017,329.888000,573.888000
813.984009,320.127991,569.984009
821.791992,325.984009,575.840027
819.840027,318.175995,566.080017
821.791992,324.032013,571.935974
825.695984,320.127991,575.840027
825.695984,314.272003,571.935974
819.840027,318.175995,566.080017
819.840027,320.127991,564.127991
823.744019,320.127991,560.223999
821.791992,327.936005,562.176025
823.744019,329.888000,560.223999
825.695984,324.032013,562.176025
823.744019,320.127991,566.080017
819.840027,331.839996,564.127991
821.791992,322.079987,564.127991
825.695984,331.839996,558.271973
815.935974,327.936005,571.935974
823.744019,335.743988,571.935974
819.840027,333.791992,569.984009
817.888000,325.984009,560.223999
815.935974,320.127991,568.031982
819.840027,320.127991,558.271973
823.744019,324.032013,554.367981
819.840027,322.079987,564.127991
827.648010,314.272003,552.416016
821.791992,322.079987,552.416016
821.791992,322.079987,552.416016
821.791992,320.127991,552.416016
812.031982,308.415985,550.463989
821.791992,318.175995,556.320007
827.648010,316.223999,552.416016
829.599976,320.127991,546.559998
829.599976,320.127991,554.367981
829.599976,318.175995,554.367981
827.648010,322.079987,552.416016
835.455994,325.984009,556.320007
839.359985,324.032013,562.176025
839.359985,322.079987,562.176025
839.359985,327.936005,558.271973
843.263977,324.032013,560.223999
841.312012,324.032013,569.984009
843.263977,327.936005,562.176025
841.312012,320.127991,566.080017
839.359985,322.079987,556.320007
853.023987,320.127991,564.127991
849.119995,318.175995,564.127991
853.023987,312.320007,562.176025
856.927979,325.984009,571.935974
847.168030,327.936005,571.935974
853.023987,324.032013,571.935974
862.783997,333.791992,562.176025
864.736023,339.648010,558.271973
860.831970,345.503998,568.031982
860.831970,339.648010,562.176025
864.736023,349.407990,569.984009
862.783997,343.552002,566.080017
870.591980,337.696014,566.080017
866.687988,343.552002,566.080017
870.591980,337.696014,566.080017
876.447998,339.648010,577.791992
882.304016,335.743988,569.984009
878.400024,349.407990,571.935974
888.159973,345.503998,571.935974
886.208008,345.503998,569.984009
890.112000,337.696014,562.176025
894.015991,345.503998,568.031982
897.919983,345.503998,558.271973
890.112000,333.791992,558.271973
897.919983,341.600006,564.127991
899.872009,339.648010,564.127991
897.919983,337.696014,560.223999
903.776001,351.359985,558.271973
913.536011,355.264008,564.127991
909.632019,347.455994,566.080017
909.632019,357.216003,568.031982
919.392029,374.783997,568.031982
913.536011,368.928009,569.984009
905.728027,368.928009,569.984009
901.823975,370.880005,583.648010
903.776001,374.783997,577.791992
894.015991,378.687988,587.552002
894.015991,378.687988,587.552002
888.159973,374.783997,593.408020
890.112000,378.687988,595.359985
878.400024,374.783997,587.552002
862.783997,372.832001,577.791992
860.831970,365.023987,569.984009
860.831970,374.783997,575.840027
843.263977,370.880005,569.984009
843.263977,366.976013,562.176025
829.599976,368.928009,554.367981
817.888000,365.023987,548.512024
815.935974,378.687988,544.607971
802.271973,374.783997,538.752014
802.271973,376.735992,534.848022
794.463989,374.783997,530.943970
786.656006,376.735992,538.752014
788.607971,384.544006,528.992004
784.703979,388.447998,527.039978
780.799988,392.351990,523.135986
778.848022,390.399994,525.088013
772.992004,396.256012,527.039978
767.135986,376.735992,525.088013
761.280029,382.592010,532.895996
765.184021,378.687988,523.135986
761.280029,382.592010,532.895996
761.280029,372.832001,528.992004
753.471985,366.976013,528.992004
763.231995,374.783997,525.088013
763.231995,363.071991,517.280029
763.231995,359.167999,521.184021
769.088013,347.455994,519.231995
759.328003,363.071991,527.039978
761.280029,351.359985,528.992004
763.231995,363.071991,528.992004
755.424011,357.216003,525.088013
755.424011,363.071991,525.088013
759.328003,361.119995,527.039978
755.424011,355.264008,530.943970
757.375977,368.928009,538.752014
761.280029,366.976013,546.559998
761.280029,357.216003,546.559998
769.088013,361.119995,552.416016
772.992004,355.264008,550.463989
771.039978,353.312012,564.127991
769.088013,347.455994,560.223999
769.088013,349.407990,560.223999
769.088013,345.503998,568.031982
761.280029,337.696014,571.935974
772.992004,339.648010,564.127991
767.135986,337.696014,564.127991
767.135986,329.888000,564.127991
755.424011,345.503998,569.984009
769.088013,329.888000,558.271973
761.280029,329.888000,566.080017
765.184021,325.984009,569.984009
753.471985,339.648010,556.320007
759.328003,337.696014,568.031982
759.328003,335.743988,556.320007
759.328003,337.696014,560.223999
763.231995,337.696014,568.031982
755.424011,341.600006,550.463989
751.520020,333.791992,554.367981
757.375977,329.888000,558.271973
751.520020,339.648010,564.127991
743.711975,324.032013,556.320007
745.664001,333.791992,564.127991
749.567993,322.079987,560.223999
739.807983,320.127991,571.935974
741.760010,314.272003,566.080017
743.711975,310.368011,566.080017
739.807983,308.415985,554.367981
741.760010,308.415985,560.223999
743.711975,316.223999,556.320007
739.807983,308.415985,554.367981
726.143982,304.511993,550.463989
737.856018,314.272003,548.512024
730.047974,306.463989,544.607971
739.807983,306.463989,542.656006
732.000000,296.704010,544.607971
733.952026,300.608002,550.463989
730.047974,298.656006,554.367981
737.856018,306.463989,554.367981
737.856018,302.559998,550.463989
745.664001,302.559998,554.367981
741.760010,298.656006,560.223999
741.760010,296.704010,560.223999
751.520020,284.992004,566.080017
753.471985,283.040009,566.080017
759.328003,284.992004,569.984009
759.328003,277.183990,581.695984
757.375977,288.895996,583.648010
759.328003,292.799988,577.791992
751.520020,292.799988,573.888000
759.328003,290.847992,573.888000
757.375977,286.944000,583.648010
763.231995,284.992004,583.648010
763.231995,296.704010,573.888000
745.664001,294.752014,569.984009
759.328003,296.704010,577.791992
753.471985,290.847992,573.888000
749.567993,277.183990,571.935974
751.520020,292.799988,575.840027
753.471985,290.847992,571.935974
747.616028,296.704010,562.176025
737.856018,286.944000,571.935974
745.664001,288.895996,569.984009
749.567993,286.944000,571.935974
741.760010,284.992004,569.984009
749.567993,288.895996,560.223999
751.520020,284.992004,562.176025
741.760010,286.944000,571.935974
741.760010,292.799988,569.984009
743.711975,281.088013,571.935974
739.807983,296.704010,571.935974
732.000000,284.992004,569.984009
735.903992,281.088013,571.935974
730.047974,290.847992,579.744019
730.047974,286.944000,560.223999
732.000000,286.944000,564.127991
728.096008,284.992004,566.080017
720.288025,279.135986,558.271973
724.192017,281.088013,571.935974
724.192017,269.376007,571.935974
722.239990,283.040009,566.080017
726.143982,275.231995,569.984009
722.239990,271.328003,573.888000
720.288025,271.328003,573.888000
716.383972,269.376007,575.840027
714.432007,267.424011,577.791992
718.335999,269.376007,577.791992
716.383972,263.519989,581.695984
710.528015,269.376007,583.648010
718.335999,275.231995,579.744019
714.432007,267.424011,575.840027
710.528015,275.231995,579.744019
706.624023,273.279999,583.648010
700.768005,265.471985,579.744019
700.768005,265.471985,573.888000
704.671997,277.183990,581.695984
706.624023,273.279999,583.648010
710.528015,261.567993,575.840027
702.719971,265.471985,571.935974
706.624023,267.424011,577.791992
710.528015,267.424011,579.744019
712.479980,275.231995,579.744019
712.479980,265.471985,581.695984
708.575989,263.519989,573.888000
714.432007,277.183990,577.791992
724.192017,265.471985,579.744019
728.096008,263.519989,577.791992
728.096008,253.759995,571.935974
732.000000,251.807999,583.648010
739.807983,267.424011,591.455994
730.047974,255.712006,593.408020
735.903992,255.712006,597.312012
751.520020,251.807999,597.312012
751.520020,247.904007,603.168030
755.424011,245.951996,599.263977
763.231995,251.807999,601.216003
757.375977,249.856003,603.168030
767.135986,251.807999,612.927979
761.280029,245.951996,610.976013
771.039978,259.615997,612.927979
772.992004,255.712006,605.119995
767.135986,245.951996,609.023987
769.088013,251.807999,610.976013
774.943970,255.712006,605.119995
767.135986,249.856003,607.072021
767.135986,251.807999,607.072021
761.280029,257.664001,595.359985
765.184021,265.471985,603.168030
778.848022,267.424011,597.312012
772.992004,267.424011,601.216003
769.088013,263.519989,593.408020
765.184021,261.567993,603.168030
765.184021,257.664001,593.408020
765.184021,267.424011,595.359985
757.375977,259.615997,583.648010
755.424011,259.615997,593.408020
757.375977,267.424011,595.359985
757.375977,257.664001,591.455994
753.471985,261.567993,577.791992
749.567993,253.759995,581.695984
749.567993,253.759995,581.695984
741.760010,251.807999,587.552002
743.711975,255.712006,579.744019
735.903992,247.904007,583.648010
733.952026,253.759995,577.791992
733.952026,247.904007,569.984009
730.047974,247.904007,562.176025
730.047974,251.807999,569.984009
722.239990,253.759995,566.080017
722.239990,251.807999,564.127991
712.479980,253.759995,556.320007
710.528015,251.807999,558.271973
712.479980,253.759995,556.320007
700.768005,242.048004,548.512024
704.671997,242.048004,542.656006
706.624023,242.048004,540.703979
712.479980,249.856003,540.703979
710.528015,245.951996,530.943970
708.575989,240.095993,542.656006
696.864014,253.759995,540.703979
706.624023,251.807999,548.512024
712.479980,259.615997,560.223999
700.768005,259.615997,546.559998
704.671997,257.664001,558.271973
716.383972,263.519989,550.463989
716.383972,259.615997,568.031982
714.432007,265.471985,560.223999
720.288025,259.615997,560.223999
718.335999,261.567993,564.127991
718.335999,265.471985,562.176025
718.335999,265.471985,562.176025
718.335999,259.615997,562.176025
722.239990,263.519989,564.127991
735.903992,257.664001,562.176025
728.096008,263.519989,575.840027
728.096008,263.519989,577.791992
730.047974,251.807999,569.984009
733.952026,257.664001,577.791992
739.807983,259.615997,571.935974
743.711975,263.519989,562.176025
733.952026,263.519989,573.888000
741.760010,261.567993,569.984009
741.760010,257.664001,569.984009
743.711975,269.376007,571.935974
741.760010,275.231995,571.935974
745.664001,257.664001,575.840027
737.856018,267.424011,571.935974
743.711975,261.567993,575.840027
745.664001,271.328003,569.984009
743.711975,255.712006,575.840027
747.616028,261.567993,569.984009
743.711975,267.424011,566.080017
747.616028,255.712006,562.176025
745.664001,271.328003,568.031982
743.711975,259.615997,568.031982
745.664001,257.664001,569.984009
743.711975,263.519989,568.031982
743.711975,257.664001,571.935974
743.711975,261.567993,571.935974
747.616028,245.951996,564.127991
745.664001,255.712006,569.984009
743.711975,255.712006,577.791992
747.616028,255.712006,569.984009
737.856018,245.951996,573.888000
745.664001,242.048004,564.127991
747.616028,251.807999,566.080017
741.760010,253.759995,566.080017
739.807983,253.759995,571.935974
743.711975,253.759995,568.031982
741.760010,255.712006,569.984009
739.807983,255.712006,569.984009
737.856018,251.807999,569.984009
737.856018,255.712006,564.127991
733.952026,245.951996,566.080017
737.856018,251.807999,562.176025
743.711975,255.712006,571.935974
739.807983,259.615997,569.984009
737.856018,249.856003,575.840027
733.952026,257.664001,569.984009
728.096008,253.759995,573.888000
728.096008,253.759995,573.888000
732.000000,259.615997,575.840027
735.903992,263.519989,566.080017
728.096008,263.519989,571.935974
732.000000,275.231995,558.271973
728.096008,267.424011,564.127991
722.239990,271.328003,566.080017
722.239990,273.279999,566.080017
716.383972,275.231995,573.888000
714.432007,271.328003,566.080017
712.479980,265.471985,568.031982
710.528015,257.664001,562.176025
704.671997,257.664001,560.223999
694.911987,253.759995,568.031982
694.911987,259.615997,550.463989
692.960022,263.519989,552.416016
694.911987,269.376007,552.416016
691.007996,261.567993,548.512024
683.200012,261.567993,550.463989
683.200012,271.328003,552.416016
687.104004,261.567993,556.320007
685.151978,261.567993,550.463989
677.343994,269.376007,556.320007
681.247986,269.376007,546.559998
685.151978,279.135986,546.559998
681.247986,279.135986,544.607971
679.296021,269.376007,554.367981
692.960022,277.183990,548.512024
689.056030,265.471985,554.367981
683.200012,271.328003,564.127991
687.104004,271.328003,569.984009
683.200012,263.519989,560.223999
683.200012,267.424011,562.176025
700.768005,261.567993,564.127991
704.671997,257.664001,558.271973
708.575989,271.328003,562.176025
716.383972,263.519989,568.031982
710.528015,271.328003,566.080017
710.528015,263.519989,566.080017
722.239990,255.712006,575.840027
718.335999,253.759995,581.695984
722.239990,259.615997,573.888000
722.239990,263.519989,573.888000
728.096008,265.471985,575.840027
728.096008,257.664001,573.888000
730.047974,271.328003,569.984009
732.000000,257.664001,575.840027
730.047974,251.807999,581.695984
733.952026,261.567993,577.791992
728.096008,261.567993,583.648010
726.143982,265.471985,579.744019
728.096008,265.471985,575.840027
732.000000,265.471985,577.791992
728.096008,261.567993,566.080017
733.952026,253.759995,571.935974
726.143982,261.567993,566.080017
724.192017,259.615997,558.271973
722.239990,251.807999,568.031982
728.096008,265.471985,571.935974
714.432007,273.279999,573.888000
716.383972,265.471985,562.176025
718.335999,259.615997,560.223999
724.192017,267.424011,560.223999
714.432007,271.328003,562.176025
722.239990,267.424011,562.176025
726.143982,269.376007,556.320007
718.335999,259.615997,550.463989
710.528015,253.759995,568.031982
704.671997,255.712006,554.367981
716.383972,267.424011,566.080017
716.383972,265.471985,558.271973
704.671997,255.712006,554.367981
704.671997,257.664001,552.416016
712.479980,249.856003,546.559998
710.528015,251.807999,554.367981
706.624023,253.759995,556.320007
706.624023,245.951996,550.463989
710.528015,251.807999,560.223999
710.528015,245.951996,558.271973
712.479980,242.048004,558.271973
700.768005,245.951996,558.271973
694.911987,242.048004,548.512024
702.719971,230.335999,546.559998
702.719971,245.951996,564.127991
698.815979,244.000000,550.463989
710.528015,234.240005,556.320007
704.671997,240.095993,558.271973
702.719971,238.143997,560.223999
694.911987,240.095993,548.512024
700.768005,238.143997,554.367981
702.719971,247.904007,550.463989
692.960022,238.143997,564.127991
698.815979,230.335999,554.367981
698.815979,230.335999,564.127991
694.911987,232.287994,554.367981
692.960022,230.335999,558.271973
694.911987,232.287994,550.463989
687.104004,234.240005,550.463989
691.007996,222.528000,554.367981
694.911987,214.720001,550.463989
683.200012,222.528000,560.223999
689.056030,214.720001,558.271973
691.007996,216.671997,562.176025
685.151978,214.720001,554.367981
681.247986,210.815994,558.271973
683.200012,220.576004,558.271973
685.151978,214.720001,556.320007
685.151978,222.528000,564.127991
679.296021,214.720001,552.416016
681.247986,220.576004,552.416016
679.296021,214.720001,552.416016
685.151978,203.007996,550.463989
675.392029,210.815994,550.463989
667.583984,197.151993,554.367981
669.536011,199.104004,546.559998
667.583984,199.104004,558.271973
659.776001,193.248001,548.512024
665.632019,183.488007,558.271973
661.728027,181.535995,550.463989
661.728027,185.440002,542.656006
653.919983,181.535995,552.416016
650.015991,175.679993,552.416016
650.015991,171.776001,556.320007
657.823975,162.016006,548.512024
653.919983,173.727997,548.512024
659.776001,165.919998,552.416016
651.968018,163.968002,550.463989
642.208008,165.919998,554.367981
644.159973,163.968002,558.271973
642.208008,173.727997,562.176025
642.208008,163.968002,564.127991
646.112000,150.304001,560.223999
638.304016,154.207993,562.176025
638.304016,152.255997,568.031982
628.544006,142.496002,562.176025
626.591980,150.304001,566.080017
622.687988,132.735992,562.176025
622.687988,138.591995,568.031982
618.783997,140.544006,560.223999
614.880005,128.832001,575.840027
620.736023,130.783997,568.031982
595.359985,121.024002,558.271973
599.263977,130.783997,564.127991
595.359985,111.264000,562.176025
583.648010,115.167999,564.127991
573.888000,107.360001,564.127991
571.935974,103.456001,566.080017
562.176025,103.456001,560.223999
552.416016,97.599998,564.127991
556.320007,91.744003,560.223999
556.320007,103.456001,560.223999
544.607971,93.695999,568.031982
550.463989,103.456001,560.223999
536.799988,99.552002,560.223999
528.992004,97.599998,560.223999
528.992004,97.599998,556.320007
519.231995,99.552002,560.223999
521.184021,91.744003,554.367981
507.519989,91.744003,550.463989
507.519989,95.648003,542.656006
501.664001,85.888000,558.271973
503.615997,89.792000,554.367981
499.712006,93.695999,554.367981
497.760010,76.127998,550.463989
495.808014,81.984001,556.320007
497.760010,83.935997,552.416016
489.951996,83.935997,554.367981
493.855988,81.984001,552.416016
486.048004,78.080002,556.320007
480.191986,81.984001,554.367981
482.144012,74.176003,560.223999
480.191986,70.272003,562.176025
486.048004,72.223999,562.176025
486.048004,58.560001,568.031982
482.144012,68.320000,568.031982
491.903992,72.223999,569.984009
495.808014,68.320000,569.984009
499.712006,74.176003,562.176025
499.712006,72.223999,562.176025
489.951996,66.367996,564.127991
474.335999,68.320000,566.080017
456.768005,74.176003,568.031982
456.768005,72.223999,556.320007
462.623993,70.272003,558.271973
464.575989,64.416000,550.463989
470.432007,58.560001,546.559998
474.335999,58.560001,538.752014
476.287994,54.655998,542.656006
476.287994,52.703999,550.463989
484.096008,44.896000,552.416016
497.760010,46.848000,554.367981
493.855988,31.232000,552.416016
491.903992,33.183998,554.367981
499.712006,35.136002,562.176025
497.760010,35.136002,560.223999
495.808014,21.472000,556.320007
501.664001,23.424000,558.271973
509.471985,19.520000,560.223999
517.280029,23.424000,562.176025
511.424011,11.712000,554.367981
513.375977,3.904000,550.463989
513.375977,17.568001,552.416016
532.895996,9.760000,538.752014
544.607971,-7.808000,530.943970
550.463989,-3.904000,542.656006
550.463989,-13.664000,536.799988
556.320007,0.000000,534.848022
579.744019,-13.664000,528.992004
585.599976,-27.327999,534.848022
599.263977,-13.664000,532.895996
599.263977,-17.568001,527.039978
609.023987,-25.375999,528.992004
616.831970,-17.568001,536.799988
626.591980,-31.232000,536.799988
640.255981,-29.280001,513.375977
659.776001,-29.280001,515.328003
661.728027,-37.088001,521.184021
679.296021,-33.183998,523.135986
691.007996,-46.848000,527.039978
694.911987,-48.799999,523.135986
700.768005,-40.992001,521.184021
716.383972,-46.848000,521.184021
724.192017,-58.560001,517.280029
732.000000,-62.464001,519.231995
739.807983,-48.799999,517.280029
745.664001,-40.992001,503.615997
737.856018,-58.560001,495.808014
759.328003,-58.560001,503.615997
761.280029,-56.608002,497.760010
772.992004,-70.272003,501.664001
778.848022,-62.464001,491.903992
790.559998,-54.655998,499.712006
800.320007,-58.560001,499.712006
806.176025,-52.703999,505.567993
821.791992,-44.896000,507.519989
821.791992,-42.944000,521.184021
831.552002,-19.520000,527.039978
841.312012,7.808000,540.703979
837.408020,42.944000,552.416016
851.072021,89.792000,554.367981
847.168030,124.928001,554.367981
849.119995,167.871994,573.888000
851.072021,214.720001,583.648010
851.072021,251.807999,583.648010
853.023987,283.040009,587.552002
864.736023,306.463989,599.263977
862.783997,312.320007,605.119995
864.736023,318.175995,610.976013
864.736023,308.415985,609.023987
864.736023,288.895996,597.312012
864.736023,277.183990,597.312012
856.927979,255.712006,597.312012
860.831970,218.623993,591.455994
854.976013,193.248001,583.648010
839.359985,173.727997,568.031982
845.216003,152.255997,546.559998
827.648010,146.399994,527.039978
821.791992,162.016006,528.992004
825.695984,169.824005,515.328003
813.984009,187.391998,501.664001
810.080017,218.623993,491.903992
808.127991,249.856003,480.191986
810.080017,281.088013,482.144012
798.367981,306.463989,484.096008
806.176025,314.272003,478.239990
804.223999,333.791992,478.239990
806.176025,339.648010,480.191986
810.080017,343.552002,484.096008
812.031982,343.552002,489.951996
810.080017,327.936005,505.567993
819.840027,324.032013,503.615997
819.840027,294.752014,515.328003
817.888000,286.944000,521.184021
821.791992,257.664001,509.471985
817.888000,244.000000,509.471985
817.888000,244.000000,513.375977
813.984009,240.095993,497.760010
817.888000,236.192001,489.951996
810.080017,238.143997,482.144012
804.223999,251.807999,460.671997
804.223999,269.376007,454.816010
796.416016,288.895996,443.104004
790.559998,312.320007,435.295990
788.607971,324.032013,431.391998
788.607971,345.503998,413.824005
786.656006,343.552002,415.776001
790.559998,355.264008,409.920013
788.607971,351.359985,407.967987
792.512024,355.264008,404.063995
784.703979,347.455994,407.967987
804.223999,337.696014,409.920013
808.127991,331.839996,409.920013
810.080017,318.175995,421.631989
815.935974,306.463989,421.631989
825.695984,290.847992,421.631989
823.744019,277.183990,419.679993
829.599976,273.279999,423.584015
829.599976,261.567993,427.488007
837.408020,265.471985,437.247986
833.504028,269.376007,423.584015
837.408020,273.279999,419.679993
845.216003,281.088013,400.160004
851.072021,298.656006,404.063995
843.263977,300.608002,409.920013
851.072021,312.320007,411.872009
860.831970,312.320007,409.920013
860.831970,318.175995,407.967987
872.544006,316.223999,406.015991
868.640015,314.272003,413.824005
878.400024,318.175995,419.679993
878.400024,316.223999,423.584015
890.112000,306.463989,425.536011
894.015991,286.944000,427.488007
901.823975,283.040009,423.584015
907.679993,277.183990,435.295990
913.536011,249.856003,429.440002
915.487976,238.143997,437.247986
915.487976,234.240005,447.007996
919.392029,234.240005,447.007996
921.343994,234.240005,447.007996
927.200012,234.240005,439.200012
940.864014,244.000000,439.200012
931.104004,240.095993,433.343994
919.392029,255.712006,441.152008
931.104004,259.615997,431.391998
933.056030,259.615997,429.440002
935.007996,253.759995,431.391998
938.911987,261.567993,423.584015
936.960022,273.279999,429.440002
942.815979,257.664001,431.391998
946.719971,249.856003,429.440002
940.864014,245.951996,435.295990
956.479980,245.951996,445.056000
956.479980,234.240005,445.056000
964.288025,236.192001,445.056000
970.143982,226.432007,445.056000
960.383972,224.479996,443.104004
979.903992,203.007996,443.104004
974.047974,199.104004,447.007996
970.143982,203.007996,441.152008
962.335999,195.199997,433.343994
964.288025,189.343994,439.200012
964.288025,183.488007,439.200012
968.192017,183.488007,433.343994
983.807983,185.440002,425.536011
979.903992,179.584000,423.584015
985.760010,189.343994,423.584015
987.711975,183.488007,423.584015
993.567993,187.391998,421.631989
989.664001,187.391998,437.247986
991.616028,191.296005,433.343994
987.711975,187.391998,429.440002
997.471985,189.343994,435.295990
999.424011,195.199997,433.343994
997.471985,195.199997,437.247986
1001.375977,183.488007,439.200012
1005.280029,175.679993,439.200012
1007.231995,171.776001,443.104004
999.424011,165.919998,439.200012
997.471985,154.207993,450.911987
987.711975,158.112000,447.007996
997.471985,150.304001,448.959991
1001.375977,154.207993,452.864014
997.471985,144.447998,448.959991
989.664001,138.591995,454.816010
977.952026,146.399994,448.959991
976.000000,152.255997,456.768005
977.952026,140.544006,452.864014
981.856018,138.591995,441.152008
972.096008,136.639999,443.104004
974.047974,146.399994,443.104004
970.143982,138.591995,447.007996
958.432007,134.688004,447.007996
964.288025,128.832001,439.200012
954.528015,132.735992,425.536011
946.719971,132.735992,435.295990
940.864014,130.783997,439.200012
933.056030,126.879997,425.536011
940.864014,121.024002,429.440002
938.911987,121.024002,429.440002
935.007996,111.264000,427.488007
929.151978,119.071999,427.488007
933.056030,105.407997,423.584015
923.296021,99.552002,417.727997
915.487976,107.360001,415.776001
909.632019,97.599998,415.776001
901.823975,99.552002,423.584015
903.776001,89.792000,409.920013
899.872009,99.552002,415.776001
901.823975,103.456001,404.063995
897.919983,93.695999,411.872009
895.968018,101.503998,411.872009
895.968018,95.648003,402.112000
886.208008,93.695999,400.160004
886.208008,99.552002,407.967987
882.304016,99.552002,398.208008
884.255981,85.888000,406.015991
882.304016,91.744003,411.872009
874.495972,93.695999,415.776001
866.687988,93.695999,411.872009
880.351990,85.888000,413.824005
870.591980,85.888000,409.920013
868.640015,81.984001,415.776001
864.736023,81.984001,411.872009
868.640015,78.080002,411.872009
858.880005,74.176003,415.776001
854.976013,74.176003,406.015991
854.976013,68.320000,407.967987
845.216003,56.608002,404.063995
849.119995,52.703999,394.303986
853.023987,58.560001,400.160004
835.455994,56.608002,398.208008
835.455994,44.896000,394.303986
833.504028,48.799999,392.351990
837.408020,46.848000,392.351990
831.552002,40.992001,400.160004
841.312012,50.751999,386.496002
827.648010,44.896000,382.592010
827.648010,44.896000,382.592010
825.695984,35.136002,388.447998
829.599976,54.655998,380.640015
804.223999,48.799999,366.976013
833.504028,25.375999,370.880005
806.176025,64.416000,378.687988
825.695984,13.664000,374.783997
819.840027,-37.088001,384.544006
806.176025,44.896000,380.640015
823.744019,-5.856000,380.640015
802.271973,-70.272003,382.592010
815.935974,31.232000,376.735992
829.599976,-11.712000,380.640015
813.984009,-15.616000,374.783997
817.888000,17.568001,378.687988
825.695984,9.760000,378.687988
827.648010,19.520000,374.783997
819.840027,5.856000,374.783997
813.984009,21.472000,378.687988
819.840027,21.472000,380.640015
810.080017,19.520000,384.544006
808.127991,11.712000,382.592010
812.031982,3.904000,382.592010
808.127991,13.664000,382.592010
810.080017,21.472000,384.544006
821.791992,-5.856000,392.351990
819.840027,0.000000,386.496002
810.080017,15.616000,372.832001
806.176025,7.808000,374.783997
806.176025,9.760000,366.976013
804.223999,15.616000,368.928009
804.223999,17.568001,361.119995
806.176025,19.520000,359.167999
813.984009,21.472000,355.264008
804.223999,23.424000,345.503998
804.223999,39.040001,329.888000
802.271973,23.424000,331.839996
802.271973,17.568001,324.032013
800.320007,31.232000,320.127991
798.367981,42.944000,310.368011
804.223999,23.424000,302.559998
792.512024,35.136002,294.752014
794.463989,48.799999,294.752014
792.512024,54.655998,286.944000
798.367981,33.183998,286.944000
800.320007,39.040001,271.328003
798.367981,48.799999,259.615997
806.176025,50.751999,251.807999
806.176025,35.136002,238.143997
808.127991,42.944000,236.192001
792.512024,50.751999,222.528000
800.320007,35.136002,214.720001
806.176025,40.992001,218.623993
813.984009,48.799999,212.768005
823.744019,50.751999,206.912003
813.984009,42.944000,195.199997
825.695984,35.136002,195.199997
837.408020,35.136002,187.391998
835.455994,44.896000,187.391998
829.599976,37.088001,189.343994
837.408020,40.992001,187.391998
847.168030,39.040001,193.248001
860.831970,37.088001,185.440002
866.687988,40.992001,181.535995
862.783997,52.703999,175.679993
868.640015,56.608002,171.776001
874.495972,50.751999,169.824005
888.159973,54.655998,183.488007
897.919983,52.703999,179.584000
899.872009,50.751999,179.584000
909.632019,60.512001,181.535995
921.343994,62.464001,183.488007
923.296021,66.367996,183.488007
942.815979,80.031998,191.296005
938.911987,81.984001,197.151993
944.768005,78.080002,201.056000
956.479980,91.744003,203.007996
958.432007,95.648003,210.815994
977.952026,105.407997,218.623993
979.903992,117.120003,226.432007
985.760010,111.264000,222.528000
987.711975,126.879997,230.335999
1003.328003,128.832001,242.048004
1009.184021,121.024002,244.000000
1009.184021,122.975998,247.904007
1015.039978,142.496002,257.664001
1024.800049,144.447998,261.567993
1022.848022,148.352005,273.279999
1036.511963,152.255997,267.424011
1030.656006,158.112000,277.183990
1036.511963,156.160004,271.328003
1036.511963,152.255997,269.376007
1022.848022,160.063995,279.135986
1026.751953,163.968002,269.376007
1026.751953,167.871994,279.135986
1024.800049,167.871994,279.135986
1036.511963,165.919998,283.040009
1018.943970,160.063995,279.135986
1018.943970,165.919998,281.088013
1015.039978,150.304001,269.376007
1032.608032,132.735992,269.376007
1032.608032,146.399994,265.471985
1018.943970,132.735992,255.712006
1032.608032,136.639999,267.424011
1040.416016,140.544006,263.519989
1038.463989,128.832001,263.519989
1028.703979,160.063995,261.567993
1022.848022,189.343994,251.807999
1024.800049,189.343994,244.000000
1032.608032,191.296005,251.807999
1032.608032,212.768005,245.951996
1028.703979,226.432007,255.712006
1013.088013,224.479996,245.951996
1024.800049,234.240005,244.000000
1011.135986,244.000000,230.335999
1013.088013,234.240005,230.335999
1005.280029,240.095993,230.335999
1009.184021,232.287994,222.528000
999.424011,224.479996,216.671997
1001.375977,216.671997,212.768005
993.567993,220.576004,212.768005
999.424011,226.432007,210.815994
997.471985,206.912003,203.007996
989.664001,212.768005,212.768005
979.903992,210.815994,193.248001
976.000000,218.623993,179.584000
972.096008,212.768005,181.535995
960.383972,226.432007,165.919998
964.288025,214.720001,148.352005
954.528015,210.815994,136.639999
962.335999,222.528000,126.879997
946.719971,234.240005,126.879997
948.671997,232.287994,122.975998
933.056030,244.000000,115.167999
909.632019,249.856003,111.264000
935.007996,206.912003,97.599998
940.864014,162.016006,83.935997
936.960022,259.615997,74.176003
933.056030,232.287994,76.127998
907.679993,173.727997,66.367996
882.304016,314.272003,68.320000
892.064026,322.079987,54.655998
901.823975,193.248001,48.799999
901.823975,249.856003,37.088001
882.304016,310.368011,37.088001
894.015991,257.664001,39.040001
909.632019,240.095993,40.992001
919.392029,216.671997,31.232000
919.392029,240.095993,25.375999
925.247986,263.519989,17.568001
940.864014,167.871994,1.952000
925.247986,162.016006,0.000000
921.343994,263.519989,-9.760000
921.343994,220.576004,-5.856000
931.104004,156.160004,-7.808000
935.007996,210.815994,-11.712000
933.056030,234.240005,-9.760000
940.864014,203.007996,-1.952000
950.624023,187.391998,-5.856000
954.528015,177.632004,0.000000
962.335999,160.063995,1.952000
977.952026,179.584000,0.000000
979.903992,148.352005,3.904000
979.903992,173.727997,21.472000
983.807983,232.287994,33.183998
985.760010,206.912003,46.848000
989.664001,162.016006,68.320000
1003.328003,210.815994,78.080002
1003.328003,201.056000,91.744003
1016.992004,158.112000,103.456001
1015.039978,160.063995,105.407997
1018.943970,152.255997,113.216003
1032.608032,128.832001,119.071999
1046.271973,124.928001,138.591995
1067.744019,111.264000,148.352005
1075.552002,107.360001,162.016006
1061.887939,138.591995,171.776001
1061.887939,132.735992,179.584000
1061.887939,126.879997,185.440002
1069.696045,138.591995,197.151993
1079.456055,152.255997,199.104004
1073.599976,132.735992,204.960007
1087.264038,132.735992,224.479996
1091.167969,144.447998,218.623993
1100.927979,124.928001,210.815994
1104.832031,113.216003,210.815994
1102.880005,122.975998,199.104004
1097.024048,121.024002,189.343994
1110.687988,115.167999,193.248001
1114.592041,109.311996,208.863998
1120.447998,122.975998,199.104004
1124.352051,109.311996,189.343994
1130.208008,122.975998,171.776001
1136.063965,119.071999,175.679993
1132.160034,107.360001,173.727997
1020.895996,-126.879997,271.328003
989.664001,-275.231995,468.480011
1077.504028,310.368011,417.727997
985.760010,345.503998,322.079987
1237.567993,-11.712000,308.415985
1380.063965,-228.384003,448.959991
1421.056030,-657.823975,628.544006
1460.095947,-681.247986,700.768005
1452.287964,-361.119995,644.159973
1432.767944,-316.223999,605.119995
1374.208008,-81.984001,519.231995
1327.359985,384.544006,406.015991
1266.848022,675.392029,306.463989
1212.192017,716.383972,271.328003
1175.104004,583.648010,263.519989
1159.488037,458.720001,265.471985
1186.816040,466.528015,265.471985
1237.567993,339.648010,281.088013
1247.328003,150.304001,325.984009
1251.232056,74.176003,324.032013
1255.135986,76.127998,308.415985
1247.328003,99.552002,286.944000
1247.328003,58.560001,238.143997
1231.712036,7.808000,214.720001
1214.144043,11.712000,165.919998
1192.671997,19.520000,122.975998
1167.296021,7.808000,81.984001
1143.871948,39.040001,44.896000
1126.303955,113.216003,5.856000
1108.735962,140.544006,-31.232000
1087.264038,150.304001,-56.608002
1085.312012,181.535995,-83.935997
1085.312012,177.632004,-91.744003
1085.312012,169.824005,-101.503998
1093.119995,113.216003,-91.744003
1097.024048,91.744003,-95.648003
1118.495972,66.367996,-93.695999
1104.832031,29.280001,-109.311996
1100.927979,-11.712000,-107.360001
1100.927979,-37.088001,-124.928001
1095.072021,-56.608002,-126.879997
1098.975952,-70.272003,-142.496002
1100.927979,-85.888000,-163.968002
1097.024048,-89.792000,-177.632004
1100.927979,-85.888000,-199.104004
1102.880005,-52.703999,-206.912003
1102.880005,-17.568001,-230.335999
1100.927979,-7.808000,-238.143997
1110.687988,11.712000,-261.567993
1122.400024,39.040001,-267.424011
1147.776001,48.799999,-261.567993
1184.864014,42.944000,-257.664001
1225.855957,68.320000,-249.856003
1255.135986,128.832001,-226.432007
1257.088013,132.735992,-175.679993
1270.751953,72.223999,-122.975998
1319.552002,9.760000,-70.272003
1389.823975,81.984001,-29.280001
1366.400024,183.488007,21.472000
1376.160034,89.792000,76.127998
1401.536011,23.424000,105.407997
1339.072021,119.071999,134.688004
1282.463989,142.496002,162.016006
1243.423950,117.120003,191.296005
1212.192017,134.688004,216.671997
1165.343994,253.759995,210.815994
1122.400024,337.696014,208.863998
1108.735962,341.600006,224.479996
1104.832031,357.216003,236.192001
1122.400024,365.023987,245.951996
1108.735962,392.351990,257.664001
1098.975952,349.407990,286.944000
1122.400024,249.856003,310.368011
1114.592041,302.559998,308.415985
1097.024048,359.167999,300.608002
1067.744019,298.656006,298.656006
1054.079956,244.000000,284.992004
1067.744019,249.856003,269.376007
1056.031982,279.135986,269.376007
1057.984009,284.992004,257.664001
1069.696045,156.160004,245.951996
1089.215942,64.416000,238.143997
1118.495972,80.031998,206.912003
1116.543945,83.935997,173.727997
1110.687988,60.512001,140.544006
1097.024048,37.088001,97.599998
1093.119995,72.223999,50.751999
1085.312012,99.552002,-1.952000
1071.647949,78.080002,-33.183998
1077.504028,46.848000,-58.560001
1075.552002,39.040001,-78.080002
1091.167969,21.472000,-68.320000
1093.119995,-15.616000,-78.080002
1104.832031,-42.944000,-66.367996
1108.735962,-44.896000,-64.416000
1102.880005,-23.424000,-64.416000
1110.687988,-27.327999,-62.464001
1114.592041,-21.472000,-54.655998
1120.447998,19.520000,-37.088001
1141.920044,70.272003,-31.232000
1124.352051,78.080002,-17.568001
1128.255981,74.176003,-11.712000
1087.264038,136.639999,15.616000
1073.599976,339.648010,115.167999
1110.687988,562.176025,226.432007
1143.871948,767.135986,312.320007
1190.719971,870.591980,318.175995
1231.712036,513.375977,290.847992
1266.848022,-74.176003,249.856003
1290.271973,-550.463989,204.960007
1264.895996,-634.400024,167.871994
1204.384033,-366.976013,136.639999
1157.536011,62.464001,89.792000
1098.975952,437.247986,54.655998
1087.264038,575.840027,11.712000
1052.128052,464.575989,-15.616000
1038.463989,214.720001,-25.375999
1052.128052,25.375999,-37.088001
1061.887939,-3.904000,-58.560001
1079.456055,64.416000,-66.367996
1059.936035,158.112000,-64.416000
1040.416016,249.856003,-56.608002
1032.608032,257.664001,-66.367996
1054.079956,199.104004,-70.272003
1087.264038,132.735992,-83.935997
1046.271973,87.839996,-72.223999
956.479980,52.703999,-64.416000
972.096008,78.080002,-85.888000
962.335999,126.879997,-89.792000
929.151978,121.024002,-91.744003
938.911987,80.031998,-109.311996
960.383972,13.664000,-119.071999
968.192017,-62.464001,-130.783997
983.807983,-134.688004,-132.735992
995.520020,-152.255997,-122.975998
983.807983,-58.560001,-148.352005
976.000000,29.280001,-171.776001
942.815979,121.024002,-183.488007
933.056030,199.104004,-193.248001
903.776001,224.479996,-214.720001
890.112000,199.104004,-228.384003
872.544006,132.735992,-234.240005
872.544006,95.648003,-240.095993
886.208008,64.416000,-251.807999
894.015991,44.896000,-265.471985
903.776001,15.616000,-277.183990
886.208008,5.856000,-316.223999
876.447998,-29.280001,-353.312012
874.495972,-64.416000,-388.447998
870.591980,-228.384003,-417.727997
895.968018,-554.367981,-392.351990
868.640015,-925.247986,-306.463989
831.552002,-935.007996,-203.007996
802.271973,-417.727997,-103.456001
845.216003,351.359985,-33.183998
915.487976,903.776001,-1.952000
970.143982,940.864014,-13.664000
995.520020,532.895996,-37.088001
1056.031982,-58.560001,-64.416000
1098.975952,-468.480011,-78.080002
1145.823975,-501.664001,-85.888000
1194.624023,-271.328003,-91.744003
1249.280029,40.992001,-119.071999
1251.232056,203.007996,-144.447998
1214.144043,128.832001,-142.496002
1171.199951,-35.136002,-162.016006
1100.927979,-136.639999,-165.919998
1057.984009,-64.416000,-150.304001
1061.887939,74.176003,-154.207993
1079.456055,206.912003,-144.447998
1081.407959,204.960007,-134.688004
1100.927979,81.984001,-152.255997
1141.920044,-19.520000,-169.824005
1159.488037,-152.255997,-171.776001
1177.056030,-189.343994,-181.535995
1204.384033,115.167999,-167.871994
1180.959961,571.935974,-74.176003
1196.576050,730.047974,0.000000
1231.712036,495.808014,48.799999
1280.511963,-111.264000,148.352005
1317.599976,-751.520020,273.279999
1344.927979,-1071.647949,378.687988
1358.592041,-921.343994,429.440002
1346.880005,-384.544006,447.007996
1335.167969,181.535995,413.824005
1333.215942,355.264008,355.264008
1348.832031,87.839996,275.231995
1335.167969,-392.351990,187.391998
1333.215942,-704.671997,97.599998
1309.791992,-681.247986,3.904000
1262.943970,-349.407990,-58.560001
1200.479980,72.223999,-91.744003
1171.199951,341.600006,-138.591995
1151.680054,355.264008,-179.584000
1161.439941,128.832001,-216.671997
1182.911987,-165.919998,-224.479996
1208.287964,-394.303986,-240.095993
1206.336060,-413.824005,-253.759995
1179.008057,-242.048004,-257.664001
1151.680054,29.280001,-253.759995
1159.488037,214.720001,-284.992004
1175.104004,242.048004,-296.704010
1157.536011,148.352005,-310.368011
1186.816040,-7.808000,-333.791992
1210.239990,-128.832001,-298.656006
1229.760010,-193.248001,-263.519989
1218.047974,-201.056000,-208.863998
1196.576050,-242.048004,-134.688004
1149.728027,-201.056000,-50.751999
1136.063965,-33.183998,19.520000
1141.920044,183.488007,78.080002
1155.583984,339.648010,126.879997
1192.671997,398.208008,173.727997
1227.807983,269.376007,204.960007
1241.472046,15.616000,210.815994
1245.375977,-249.856003,208.863998
1241.472046,-406.015991,191.296005
1235.615967,-413.824005,150.304001
1194.624023,-212.768005,111.264000
1173.151978,33.183998,42.944000
1138.015991,191.296005,-9.760000
1112.640015,197.151993,-62.464001
1093.119995,76.127998,-115.167999
1085.312012,-60.512001,-167.871994
1059.936035,-146.399994,-212.768005
1040.416016,-142.496002,-259.615997
1032.608032,-74.176003,-284.992004
1001.375977,39.040001,-310.368011
999.424011,119.071999,-327.936005
997.471985,152.255997,-351.359985
1009.184021,150.304001,-372.832001
1011.135986,142.496002,-382.592010
1009.184021,142.496002,-386.496002
1015.039978,122.975998,-396.256012
1044.319946,154.207993,-402.112000
1042.368042,210.815994,-390.399994
1038.463989,265.471985,-372.832001
1044.319946,324.032013,-363.071991
1034.560059,361.119995,-361.119995
1061.887939,335.743988,-357.216003
1063.839966,255.712006,-351.359985
1079.456055,238.143997,-337.696014
1091.167969,257.664001,-327.936005
1097.024048,288.895996,-318.175995
1122.400024,337.696014,-296.704010
1130.208008,365.023987,-261.567993
1124.352051,318.175995,-234.240005
1120.447998,294.752014,-212.768005
1122.400024,273.279999,-193.248001
1108.735962,244.000000,-177.632004
1102.880005,230.335999,-165.919998
1118.495972,247.904007,-160.063995
1093.119995,259.615997,-122.975998
1089.215942,353.312012,-68.320000
1073.599976,493.855988,3.904000
1097.024048,659.776001,81.984001
1138.015991,653.919983,140.544006
1180.959961,388.447998,148.352005
1233.663940,5.856000,74.176003
1266.848022,-349.407990,1.952000
1225.855957,-433.343994,-66.367996
1175.104004,-245.951996,-109.311996
1116.543945,109.311996,-134.688004
1087.264038,394.303986,-167.871994
1093.119995,439.200012,-208.863998
1087.264038,249.856003,-247.904007
1059.936035,-27.327999,-283.040009
999.424011,-226.432007,-337.696014
964.288025,-257.664001,-382.592010
921.343994,-169.824005,-427.488007
888.159973,13.664000,-472.384003
886.208008,216.671997,-489.951996
923.296021,325.984009,-509.471985
968.192017,345.503998,-507.519989
995.520020,162.016006,-517.280029
1003.328003,-33.183998,-566.080017
958.432007,-206.912003,-585.599976
909.632019,-286.944000,-614.880005
858.880005,-269.376007,-634.400024
819.840027,-189.343994,-593.408020
771.039978,121.024002,-546.559998
798.367981,667.583984,-454.816010
810.080017,1110.687988,-339.648010
886.208008,1032.608032,-269.376007
954.528015,450.911987,-216.671997
1065.791992,-314.272003,-218.623993
1120.447998,-856.927979,-228.384003
1100.927979,-854.976013,-288.895996
1057.984009,-357.216003,-337.696014
1032.608032,244.000000,-370.880005
1015.039978,661.728027,-378.687988
997.471985,776.895996,-425.536011
977.952026,558.271973,-474.335999
968.192017,95.648003,-523.135986
964.288025,-411.872009,-550.463989
946.719971,-772.992004,-575.840027
931.104004,-806.176025,-556.320007
884.255981,-392.351990,-515.328003
833.504028,271.328003,-439.200012
892.064026,749.567993,-384.544006
935.007996,853.023987,-353.312012
977.952026,482.144012,-359.167999
985.760010,-103.456001,-382.592010
944.768005,-568.031982,-423.584015
925.247986,-841.312012,-458.720001
905.728027,-691.007996,-527.039978
878.400024,-214.720001,-595.359985
845.216003,329.888000,-622.687988
833.504028,692.960022,-644.159973
815.935974,691.007996,-653.919983
823.744019,400.160004,-691.007996
831.552002,-322.079987,-636.351990
745.664001,-913.536011,-532.895996
655.872009,-683.200012,-486.048004
569.984009,402.112000,-404.063995
648.064026,1594.784058,-275.231995
698.815979,1789.984009,-189.343994
722.239990,966.239990,-281.088013
767.135986,-70.272003,-482.144012
794.463989,-687.104004,-669.536011
897.919983,-991.616028,-821.791992
923.296021,-1793.887939,-798.367981
829.599976,-2199.904053,-691.007996
659.776001,-911.583984,-610.976013
562.176025,187.391998,-651.968018
620.736023,66.367996,-825.695984
706.624023,33.183998,-907.679993
810.080017,-80.031998,-979.903992
782.752014,-620.736023,-1083.359985
841.312012,-597.312012,-1141.920044
733.952026,962.335999,-808.127991
716.383972,1891.488037,-622.687988
726.143982,1864.160034,-659.776001
741.760010,1692.384033,-728.096008
882.304016,1426.911987,-808.127991
847.168030,1095.072021,-833.504028
931.104004,675.392029,-829.599976
872.544006,349.407990,-687.104004
847.168030,93.695999,-579.744019
829.599976,81.984001,-528.992004
827.648010,292.799988,-486.048004
839.359985,651.968018,-407.967987
661.728027,238.143997,-255.712006
515.328003,-1020.895996,-224.479996
878.400024,-443.104004,-480.191986
1024.800049,-794.463989,-616.831970
1085.312012,-1991.040039,-497.760010
1739.232056,-3669.760010,763.231995
3316.447998,-7197.023926,4514.976074
4114.815918,-7480.063965,6812.479980
2822.592041,-4657.472168,4134.335938
821.791992,-1641.631958,294.752014
25.375999,402.112000,-2299.456055
407.967987,1883.680054,-3462.847900
380.640015,1341.024048,-3660.000000
177.632004,761.280029,-3464.800049
468.480011,1514.751953,-3123.199951
821.791992,2067.167969,-2715.231934
-415.776001,1948.095947,-1356.640015
737.856018,2404.864014,-1175.104004
730.047974,2617.632080,-790.559998
960.383972,1985.183960,-593.408020
977.952026,1401.536011,-210.815994
864.736023,716.383972,142.496002
860.831970,222.528000,253.759995
915.487976,17.568001,203.007996
899.872009,109.311996,117.120003
864.736023,445.056000,68.320000
806.176025,673.440002,130.783997
794.463989,763.231995,152.255997
771.039978,687.104004,134.688004
810.080017,488.000000,-9.760000
790.559998,255.712006,-261.567993
806.176025,17.568001,-605.119995
882.304016,-39.040001,-962.335999
1005.280029,1.952000,-1143.871948
1093.119995,-15.616000,-1120.447998
1175.104004,-267.424011,-880.351990
1411.296021,-1038.463989,-320.127991
1873.920044,-2539.552002,493.855988
2701.568115,-4676.992188,1979.328003
3166.144043,-4495.456055,2629.343994
2847.968018,-3253.983887,1341.024048
2318.976074,-2330.687988,-146.399994
1520.608032,-482.144012,-800.320007
843.263977,730.047974,-825.695984
1083.359985,983.807983,-716.383972
1097.024048,1067.744019,-370.880005
1110.687988,1608.447998,-206.912003
1231.712036,1563.552002,-179.584000
1346.880005,1214.144043,-183.488007
1227.807983,739.807983,-117.120003
1085.312012,0.000000,-109.311996
1089.215942,-702.719971,-228.384003
1108.735962,-991.616028,-343.552002
1143.871948,-788.607971,-425.536011
1007.231995,-1145.823975,204.960007
1391.776001,-1971.520020,1161.439941
1575.264038,-1020.895996,1358.592041
1655.296021,121.024002,821.791992
1670.911987,921.343994,169.824005
1618.208008,976.000000,-15.616000
1639.680054,277.183990,480.191986
1934.432007,-398.208008,1087.264038
2110.112061,-466.528015,1327.359985
1965.663940,216.671997,765.184021
1653.343994,843.263977,-37.088001
1389.823975,1005.280029,-456.768005
1288.319946,673.440002,-407.967987
1255.135986,142.496002,-156.160004
1245.375977,-136.639999,-31.232000
1136.063965,-62.464001,-261.567993
1011.135986,109.311996,-612.927979
823.744019,353.312012,-1056.031982
651.968018,341.600006,-1282.463989
612.927979,60.512001,-1173.151978
708.575989,-396.256012,-837.408020
878.400024,-792.512024,-452.864014
1022.848022,-931.104004,-236.192001
1077.504028,-812.031982,-261.567993
1028.703979,-499.712006,-464.575989
970.143982,-224.479996,-689.056030
977.952026,-165.919998,-759.328003
1018.943970,-236.192001,-636.351990
1034.560059,-230.335999,-542.656006
935.007996,-35.136002,-673.440002
810.080017,169.824005,-831.552002
757.375977,279.135986,-950.624023
771.039978,111.264000,-864.736023
884.255981,-109.311996,-663.679993
831.552002,-339.648010,-456.768005
718.335999,-214.720001,-509.471985
864.736023,-173.727997,-714.432007
815.935974,-435.295990,-835.455994
864.736023,-925.247986,-772.992004
894.015991,-1335.167969,-484.096008
755.424011,-1216.095947,-363.071991
673.440002,-964.288025,-169.824005
556.320007,-550.463989,122.975998
439.200012,-283.040009,593.408020
1321.504028,341.600006,702.719971
1157.536011,966.239990,388.447998
-993.567993,-1093.119995,349.407990
-2313.120117,1680.671997,39.040001
5264.543945,2978.751953,-4641.855957
4641.855957,-413.824005,-5733.023926
-1661.151978,-486.048004,-4073.823975
-1348.832031,-1877.823975,-4600.863770
-376.735992,-4803.872070,-3740.031982
-1438.624023,-851.072021,-651.968018
169.824005,-2736.704102,417.727997
772.992004,-1696.287964,286.944000
675.392029,-808.127991,249.856003
886.208008,-1124.352051,1374.208008
977.952026,-468.480011,2084.736084
1177.056030,-347.455994,1674.816040
1438.624023,-644.159973,745.664001
1089.215942,-13.664000,-111.264000
1020.895996,581.695984,-638.304016
1709.952026,1196.576050,-788.607971
1454.239990,1600.640015,-536.799988
1731.423950,93.695999,-445.056000
1583.072021,614.880005,-60.512001
872.544006,1089.215942,105.407997
448.959991,1772.416016,-474.335999
626.591980,2838.208008,-1083.359985
968.192017,2303.360107,-868.640015
1448.384033,1294.176025,-226.432007
1708.000000,771.039978,236.192001
1694.336060,433.343994,87.839996
1438.624023,259.615997,-331.839996
1315.647949,-138.591995,-452.864014
1276.608032,-339.648010,-341.600006
977.952026,312.320007,-493.855988
653.919983,540.703979,-788.607971
612.927979,122.975998,-985.760010
601.216003,-201.056000,-1149.728027
876.447998,-655.872009,-942.815979
759.328003,-759.328003,-648.064026
657.823975,-940.864014,-450.911987
929.151978,-860.831970,-575.840027
866.687988,-730.047974,-786.656006
560.223999,-1257.088013,-825.695984
302.559998,-1333.215942,-817.888000
206.912003,-1075.552002,-856.927979
433.343994,-895.968018,-876.447998
489.951996,-614.880005,-728.096008
513.375977,251.807999,-808.127991
716.383972,989.664001,-562.176025
860.831970,1233.663940,-648.064026
853.023987,618.783997,-771.039978
1013.088013,-7.808000,-554.367981
767.135986,119.071999,-1083.359985
251.807999,230.335999,-1877.823975
93.695999,-121.024002,-1918.816040
224.479996,-439.200012,-1506.943970
-37.088001,368.928009,-1881.728027
101.503998,825.695984,-1501.088013
1635.776001,-976.000000,1241.472046
3242.271973,-1897.343994,3564.352051
2951.424072,210.815994,2508.320068
2057.407959,2115.968018,447.007996
1832.927979,1225.855957,-150.304001
1825.119995,-390.399994,-150.304001
1165.343994,-772.992004,-772.992004
435.295990,-999.424011,-1393.728027
651.968018,-1952.000000,-1032.608032
872.544006,-1583.072021,-275.231995
1136.063965,60.512001,-468.480011
1337.119995,1444.479980,-257.664001
1132.160034,1938.336060,-240.095993
669.536011,1477.663940,-774.943970
536.799988,327.936005,-851.072021
817.888000,-589.504028,-532.895996
1147.776001,-823.744019,-322.079987
1337.119995,-689.056030,-121.024002
1259.040039,-124.928001,-277.183990
1030.656006,558.271973,-575.840027
915.487976,851.072021,-720.288025
919.392029,579.744019,-710.528015
935.007996,-50.751999,-714.432007
936.960022,-560.223999,-732.000000
911.583984,-564.127991,-774.943970
837.408020,-189.343994,-849.119995
743.711975,50.751999,-895.968018
677.343994,74.176003,-927.200012
671.487976,-81.984001,-960.383972
732.000000,-304.511993,-929.151978
794.463989,-396.256012,-853.023987
821.791992,-275.231995,-788.607971
823.744019,-70.272003,-790.559998
819.840027,40.992001,-839.359985
860.831970,-11.712000,-853.023987
915.487976,-154.207993,-780.799988
999.424011,-253.759995,-692.960022
1054.079956,-189.343994,-663.679993
1054.079956,-52.703999,-698.815979
1050.176025,58.560001,-714.432007
1057.984009,52.703999,-706.624023
1079.456055,-42.944000,-687.104004
1110.687988,-162.016006,-681.247986
1110.687988,-193.248001,-706.624023
1077.504028,-138.591995,-733.952026
1061.887939,-35.136002,-767.135986
1069.696045,0.000000,-761.280029
1081.407959,-46.848000,-778.848022
1089.215942,-144.447998,-778.848022
1067.744019,-189.343994,-800.320007
1032.608032,-152.255997,-819.840027
1038.463989,-109.311996,-837.408020
1054.079956,-72.223999,-823.744019
1083.359985,-99.552002,-808.127991
1075.552002,-140.544006,-806.176025
1071.647949,-142.496002,-806.176025
1061.887939,-95.648003,-812.031982
1057.984009,-52.703999,-813.984009
1067.744019,-58.560001,-813.984009
1069.696045,-97.599998,-802.271973
1069.696045,-122.975998,-800.320007
1057.984009,-101.503998,-800.320007
1059.936035,-72.223999,-812.031982
1044.319946,-54.655998,-808.127991
1054.079956,-56.608002,-804.223999
1056.031982,-83.935997,-794.463989
1056.031982,-91.744003,-790.559998
1046.271973,-78.080002,-802.271973
1015.039978,-60.512001,-810.080017
1026.751953,-70.272003,-821.791992
1028.703979,-78.080002,-815.935974
1022.848022,-91.744003,-813.984009
1011.135986,-80.031998,-823.744019
999.424011,-64.416000,-825.695984
983.807983,-56.608002,-817.888000
983.807983,-89.792000,-831.552002
979.903992,-103.456001,-827.648010
970.143982,-105.407997,-831.552002
964.288025,-81.984001,-847.168030
952.575989,-50.751999,-849.119995
956.479980,-58.560001,-837.408020
958.432007,-64.416000,-825.695984
956.479980,-78.080002,-817.888000
942.815979,-70.272003,-823.744019
925.247986,-39.040001,-815.935974
921.343994,-7.808000,-821.791992
905.728027,1.952000,-823.744019
915.487976,0.000000,-815.935974
905.728027,-5.856000,-819.840027
903.776001,0.000000,-829.599976
899.872009,13.664000,-829.599976
899.872009,15.616000,-813.984009
892.064026,13.664000,-813.984009
895.968018,-3.904000,-813.984009
892.064026,7.808000,-825.695984
884.255981,17.568001,-827.648010
882.304016,33.183998,-825.695984
886.208008,37.088001,-821.791992
890.112000,31.232000,-815.935974
886.208008,37.088001,-810.080017
876.447998,40.992001,-829.599976
868.640015,50.751999,-817.888000
866.687988,48.799999,-823.744019
858.880005,52.703999,-819.840027
868.640015,44.896000,-823.744019
866.687988,44.896000,-817.888000
858.880005,50.751999,-817.888000
862.783997,60.512001,-802.271973
864.736023,64.416000,-800.320007
862.783997,60.512001,-808.127991
864.736023,54.655998,-810.080017
847.168030,62.464001,-815.935974
843.263977,70.272003,-815.935974
843.263977,68.320000,-810.080017
845.216003,58.560001,-810.080017
839.359985,64.416000,-815.935974
831.552002,56.608002,-827.648010
819.840027,60.512001,-817.888000
817.888000,62.464001,-827.648010
815.935974,60.512001,-821.791992
819.840027,64.416000,-829.599976
810.080017,70.272003,-829.599976
802.271973,48.799999,-827.648010
817.888000,40.992001,-812.031982
831.552002,56.608002,-810.080017
815.935974,80.031998,-827.648010
819.840027,95.648003,-825.695984
808.127991,101.503998,-837.408020
790.559998,109.311996,-854.976013
786.656006,97.599998,-845.216003
798.367981,99.552002,-851.072021
788.607971,109.311996,-841.312012
800.320007,115.167999,-825.695984
800.320007,148.352005,-847.168030
788.607971,165.919998,-860.831970
790.559998,169.824005,-862.783997
798.367981,146.399994,-841.312012
808.127991,132.735992,-825.695984
812.031982,136.639999,-843.263977
804.223999,152.255997,-845.216003
806.176025,165.919998,-837.408020
810.080017,177.632004,-843.263977
808.127991,183.488007,-845.216003
815.935974,177.632004,-839.359985
808.127991,162.016006,-825.695984
815.935974,171.776001,-831.552002
808.127991,179.584000,-813.984009
808.127991,189.343994,-817.888000
812.031982,214.720001,-833.504028
823.744019,208.863998,-831.552002
817.888000,189.343994,-825.695984
813.984009,193.248001,-813.984009
802.271973,197.151993,-827.648010
806.176025,195.199997,-831.552002
819.840027,212.768005,-821.791992
812.031982,206.912003,-821.791992
813.984009,189.343994,-821.791992
813.984009,189.343994,-833.504028
806.176025,175.679993,-821.791992
796.416016,171.776001,-837.408020
788.607971,179.584000,-849.119995
802.271973,183.488007,-837.408020
810.080017,199.104004,-845.216003
810.080017,201.056000,-835.455994
802.271973,183.488007,-849.119995
804.223999,179.584000,-841.312012
808.127991,199.104004,-847.168030
817.888000,230.335999,-837.408020
813.984009,236.192001,-823.744019
817.888000,208.863998,-831.552002
806.176025,173.727997,-835.455994
810.080017,162.016006,-839.359985
810.080017,183.488007,-851.072021
825.695984,216.671997,-827.648010
827.648010,244.000000,-819.840027
815.935974,210.815994,-806.176025
827.648010,187.391998,-813.984009
821.791992,169.824005,-833.504028
821.791992,169.824005,-827.648010
817.888000,179.584000,-829.599976
819.840027,181.535995,-827.648010
819.840027,167.871994,-821.791992
841.312012,144.447998,-813.984009
837.408020,136.639999,-812.031982
835.455994,146.399994,-815.935974
835.455994,150.304001,-813.984009
829.599976,134.688004,-821.791992
829.599976,115.167999,-817.888000
831.552002,95.648003,-813.984009
825.695984,87.839996,-815.935974
841.312012,89.792000,-810.080017
851.072021,93.695999,-804.223999
851.072021,105.407997,-808.127991
851.072021,78.080002,-802.271973
851.072021,54.655998,-815.935974
845.216003,31.232000,-800.320007
845.216003,52.703999,-790.559998
835.455994,70.272003,-800.320007
843.263977,60.512001,-788.607971
845.216003,25.375999,-788.607971
856.927979,15.616000,-788.607971
847.168030,9.760000,-771.039978
849.119995,11.712000,-771.039978
835.455994,17.568001,-778.848022
823.744019,5.856000,-782.752014
825.695984,5.856000,-788.607971
817.888000,15.616000,-784.703979
819.840027,7.808000,-796.416016
819.840027,3.904000,-782.752014
810.080017,-1.952000,-776.895996
829.599976,-11.712000,-776.895996
819.840027,-25.375999,-771.039978
806.176025,-19.520000,-761.280029
800.320007,-37.088001,-751.520020
798.367981,-60.512001,-755.424011
788.607971,-64.416000,-749.567993
776.895996,-66.367996,-751.520020
769.088013,-60.512001,-755.424011
771.039978,-64.416000,-747.616028
778.848022,-80.031998,-743.711975
767.135986,-89.792000,-735.903992
771.039978,-93.695999,-724.192017
772.992004,-109.311996,-728.096008
771.039978,-97.599998,-720.288025
774.943970,-117.120003,-722.239990
765.184021,-130.783997,-718.335999
757.375977,-136.639999,-700.768005
759.328003,-144.447998,-696.864014
755.424011,-144.447998,-696.864014
741.760010,-165.919998,-694.911987
737.856018,-169.824005,-685.151978
747.616028,-177.632004,-681.247986
747.616028,-167.871994,-675.392029
739.807983,-171.776001,-675.392029
728.096008,-183.488007,-675.392029
726.143982,-189.343994,-671.487976
724.192017,-191.296005,-669.536011
724.192017,-187.391998,-679.296021
722.239990,-185.440002,-669.536011
702.719971,-189.343994,-661.728027
691.007996,-197.151993,-655.872009
687.104004,-208.863998,-655.872009
689.056030,-212.768005,-642.208008
692.960022,-212.768005,-653.919983
689.056030,-206.912003,-657.823975
689.056030,-212.768005,-640.255981
683.200012,-222.528000,-634.400024
673.440002,-236.192001,-640.255981
665.632019,-240.095993,-640.255981
663.679993,-242.048004,-642.208008
659.776001,-244.000000,-638.304016
667.583984,-253.759995,-630.495972
661.728027,-240.095993,-632.447998
655.872009,-247.904007,-636.351990
661.728027,-255.712006,-636.351990
655.872009,-263.519989,-620.736023
661.728027,-259.615997,-618.783997
644.159973,-263.519989,-620.736023
661.728027,-249.856003,-607.072021
661.728027,-251.807999,-607.072021
653.919983,-261.567993,-612.927979
659.776001,-263.519989,-607.072021
663.679993,-265.471985,-603.168030
651.968018,-253.759995,-601.216003
657.823975,-249.856003,-610.976013
657.823975,-255.712006,-593.408020
657.823975,-253.759995,-593.408020
651.968018,-257.664001,-595.359985
638.304016,-253.759995,-599.263977
646.112000,-253.759995,-601.216003
646.112000,-259.615997,-609.023987
650.015991,-249.856003,-595.359985
665.632019,-249.856003,-589.504028
642.208008,-245.951996,-585.599976
651.968018,-245.951996,-591.455994
648.064026,-251.807999,-581.695984
648.064026,-257.664001,-583.648010
644.159973,-251.807999,-591.455994
646.112000,-245.951996,-591.455994
638.304016,-242.048004,-589.504028
636.351990,-236.192001,-591.455994
630.495972,-232.287994,-597.312012
626.591980,-236.192001,-607.072021
624.640015,-226.432007,-612.927979
634.400024,-220.576004,-605.119995
636.351990,-201.056000,-597.312012
622.687988,-203.007996,-585.599976
616.831970,-189.343994,-591.455994
610.976013,-181.535995,-601.216003
607.072021,-187.391998,-599.263977
601.216003,-185.440002,-607.072021
603.168030,-185.440002,-607.072021
587.552002,-167.871994,-607.072021
585.599976,-148.352005,-610.976013
595.359985,-148.352005,-612.927979
597.312012,-152.255997,-614.880005
597.312012,-154.207993,-620.736023
609.023987,-132.735992,-612.927979
601.216003,-119.071999,-612.927979
612.927979,-119.071999,-614.880005
616.831970,-111.264000,-605.119995
616.831970,-107.360001,-605.119995
618.783997,-95.648003,-614.880005
620.736023,-105.407997,-607.072021
620.736023,-93.695999,-610.976013
632.447998,-91.744003,-612.927979
638.304016,-80.031998,-620.736023
632.447998,-80.031998,-622.687988
640.255981,-62.464001,-624.640015
642.208008,-78.080002,-628.544006
648.064026,-60.512001,-622.687988
648.064026,-52.703999,-626.591980
651.968018,-37.088001,-628.544006
651.968018,-42.944000,-634.400024
659.776001,-35.136002,-624.640015
671.487976,-31.232000,-624.640015
669.536011,-7.808000,-618.783997
679.296021,-7.808000,-632.447998
679.296021,-3.904000,-626.591980
689.056030,5.856000,-624.640015
689.056030,13.664000,-642.208008
685.151978,19.520000,-640.255981
692.960022,27.327999,-638.304016
692.960022,21.472000,-644.159973
696.864014,15.616000,-651.968018
689.056030,21.472000,-661.728027
696.864014,31.232000,-663.679993
685.151978,29.280001,-665.632019
694.911987,25.375999,-655.872009
691.007996,25.375999,-655.872009
692.960022,35.136002,-663.679993
700.768005,25.375999,-669.536011
718.335999,21.472000,-657.823975
716.383972,21.472000,-651.968018
726.143982,29.280001,-644.159973
724.192017,35.136002,-640.255981
733.952026,39.040001,-636.351990
735.903992,29.280001,-644.159973
728.096008,21.472000,-644.159973
728.096008,23.424000,-640.255981
722.239990,44.896000,-638.304016
716.383972,33.183998,-640.255981
712.479980,17.568001,-644.159973
718.335999,13.664000,-644.159973
708.575989,21.472000,-646.112000
702.719971,33.183998,-642.208008
724.192017,27.327999,-650.015991
726.143982,25.375999,-638.304016
718.335999,11.712000,-632.447998
718.335999,5.856000,-640.255981
708.575989,13.664000,-634.400024
716.383972,3.904000,-648.064026
714.432007,15.616000,-636.351990
718.335999,27.327999,-626.591980
714.432007,35.136002,-626.591980
704.671997,11.712000,-630.495972
706.624023,3.904000,-630.495972
706.624023,7.808000,-634.400024
720.288025,31.232000,-640.255981
714.432007,31.232000,-638.304016
706.624023,29.280001,-634.400024
692.960022,29.280001,-630.495972
698.815979,19.520000,-626.591980
687.104004,33.183998,-636.351990
677.343994,37.088001,-636.351990
671.487976,33.183998,-632.447998
673.440002,17.568001,-622.687988
675.392029,15.616000,-622.687988
677.343994,9.760000,-610.976013
683.200012,9.760000,-607.072021
677.343994,-17.568001,-603.168030
669.536011,-35.136002,-607.072021
665.632019,-37.088001,-605.119995
659.776001,-23.424000,-610.976013
655.872009,-33.183998,-609.023987
650.015991,-46.848000,-614.880005
634.400024,-46.848000,-614.880005
640.255981,-40.992001,-612.927979
642.208008,-29.280001,-605.119995
657.823975,-35.136002,-597.312012
655.872009,-58.560001,-593.408020
661.728027,-52.703999,-589.504028
659.776001,-58.560001,-577.791992
663.679993,-66.367996,-568.031982
667.583984,-78.080002,-571.935974
667.583984,-97.599998,-573.888000
663.679993,-107.360001,-571.935974
663.679993,-107.360001,-560.223999
653.919983,-111.264000,-573.888000
650.015991,-107.360001,-581.695984
650.015991,-132.735992,-577.791992
648.064026,-146.399994,-575.840027
634.400024,-148.352005,-579.744019
638.304016,-142.496002,-571.935974
646.112000,-142.496002,-571.935974
644.159973,-156.160004,-568.031982
646.112000,-169.824005,-566.080017
644.159973,-169.824005,-558.271973
651.968018,-169.824005,-554.367981
653.919983,-179.584000,-546.559998
650.015991,-195.199997,-546.559998
648.064026,-204.960007,-546.559998
650.015991,-206.912003,-548.512024
650.015991,-218.623993,-540.703979
644.159973,-218.623993,-546.559998
646.112000,-224.479996,-560.223999
642.208008,-238.143997,-558.271973
648.064026,-240.095993,-552.416016
653.919983,-224.479996,-550.463989
651.968018,-238.143997,-548.512024
640.255981,-244.000000,-550.463989
622.687988,-251.807999,-552.416016
632.447998,-244.000000,-556.320007
634.400024,-249.856003,-554.367981
642.208008,-238.143997,-546.559998
644.159973,-249.856003,-546.559998
644.159973,-265.471985,-544.607971
644.159973,-269.376007,-540.703979
