ACC_X,ACC_Y,ACC_Z
495.808014,488.000000,720.288025
503.615997,488.000000,718.335999
507.519989,480.191986,720.288025
505.567993,484.096008,724.192017
501.664001,488.000000,726.143982
503.615997,476.287994,726.143982
507.519989,489.951996,724.192017
505.567993,488.000000,714.432007
511.424011,486.048004,720.288025
513.375977,476.287994,722.239990
513.375977,484.096008,714.432007
507.519989,480.191986,720.288025
513.375977,472.384003,728.096008
513.375977,484.096008,728.096008
521.184021,484.096008,722.239990
528.992004,489.951996,716.383972
521.184021,480.191986,730.047974
530.943970,486.048004,732.000000
523.135986,474.335999,730.047974
519.231995,482.144012,737.856018
528.992004,486.048004,726.143982
525.088013,484.096008,737.856018
528.992004,484.096008,735.903992
534.848022,476.287994,735.903992
530.943970,482.144012,747.616028
532.895996,488.000000,743.711975
527.039978,482.144012,741.760010
536.799988,478.239990,745.664001
536.799988,474.335999,753.471985
536.799988,480.191986,753.471985
527.039978,489.951996,759.328003
534.848022,482.144012,757.375977
530.943970,486.048004,751.520020
540.703979,488.000000,767.135986
534.848022,491.903992,755.424011
544.607971,489.951996,765.184021
538.752014,486.048004,772.992004
538.752014,480.191986,771.039978
534.848022,484.096008,759.328003
534.848022,484.096008,763.231995
538.752014,482.144012,761.280029
530.943970,482.144012,769.088013
538.752014,480.191986,765.184021
540.703979,486.048004,755.424011
523.135986,491.903992,751.520020
538.752014,491.903992,757.375977
532.895996,489.951996,745.664001
528.992004,484.096008,747.616028
527.039978,484.096008,751.520020
519.231995,488.000000,741.760010
523.135986,489.951996,741.760010
513.375977,495.808014,743.711975
517.280029,495.808014,737.856018
519.231995,497.760010,739.807983
517.280029,495.808014,733.952026
515.328003,501.664001,735.903992
521.184021,493.855988,722.239990
507.519989,505.567993,743.711975
505.567993,495.808014,732.000000
505.567993,503.615997,737.856018
495.808014,501.664001,741.760010
499.712006,499.712006,733.952026
503.615997,503.615997,728.096008
499.712006,507.519989,728.096008
503.615997,513.375977,728.096008
495.808014,517.280029,726.143982
493.855988,511.424011,718.335999
493.855988,507.519989,716.383972
488.000000,513.375977,710.528015
488.000000,513.375977,712.479980
497.760010,517.280029,706.624023
488.000000,509.471985,712.479980
486.048004,517.280029,716.383972
489.951996,521.184021,710.528015
484.096008,513.375977,702.719971
488.000000,528.992004,708.575989
480.191986,525.088013,698.815979
476.287994,517.280029,689.056030
480.191986,523.135986,692.960022
480.191986,525.088013,694.911987
482.144012,515.328003,700.768005
478.239990,523.135986,687.104004
482.144012,525.088013,685.151978
472.384003,528.992004,687.104004
488.000000,521.184021,694.911987
482.144012,530.943970,692.960022
476.287994,525.088013,692.960022
482.144012,519.231995,692.960022
488.000000,517.280029,691.007996
486.048004,521.184021,700.768005
478.239990,515.328003,708.575989
484.096008,513.375977,694.911987
482.144012,507.519989,698.815979
480.191986,503.615997,698.815979
484.096008,513.375977,696.864014
486.048004,511.424011,708.575989
486.048004,511.424011,710.528015
484.096008,507.519989,708.575989
493.855988,513.375977,706.624023
497.760010,513.375977,700.768005
491.903992,513.375977,698.815979
495.808014,517.280029,694.911987
491.903992,519.231995,696.864014
484.096008,519.231995,687.104004
486.048004,517.280029,691.007996
486.048004,521.184021,694.911987
480.191986,515.328003,696.864014
484.096008,513.375977,696.864014
486.048004,521.184021,704.671997
484.096008,511.424011,696.864014
484.096008,515.328003,691.007996
482.144012,513.375977,698.815979
486.048004,511.424011,696.864014
484.096008,513.375977,700.768005
482.144012,515.328003,691.007996
478.239990,507.519989,696.864014
489.951996,505.567993,692.960022
484.096008,515.328003,698.815979
478.239990,515.328003,700.768005
472.384003,515.328003,696.864014
478.239990,519.231995,683.200012
476.287994,521.184021,704.671997
480.191986,513.375977,694.911987
482.144012,515.328003,698.815979
480.191986,521.184021,704.671997
482.144012,515.328003,700.768005
484.096008,515.328003,696.864014
480.191986,517.280029,714.432007
482.144012,515.328003,704.671997
482.144012,513.375977,700.768005
480.191986,528.992004,710.528015
480.191986,527.039978,706.624023
466.528015,517.280029,704.671997
482.144012,525.088013,700.768005
480.191986,523.135986,702.719971
472.384003,519.231995,712.479980
472.384003,519.231995,706.624023
474.335999,523.135986,700.768005
468.480011,519.231995,698.815979
466.528015,519.231995,696.864014
464.575989,511.424011,694.911987
456.768005,523.135986,698.815979
462.623993,519.231995,696.864014
464.575989,521.184021,691.007996
456.768005,519.231995,691.007996
458.720001,521.184021,691.007996
458.720001,525.088013,692.960022
452.864014,515.328003,696.864014
456.768005,521.184021,685.151978
458.720001,521.184021,683.200012
458.720001,517.280029,692.960022
454.816010,519.231995,691.007996
448.959991,521.184021,694.911987
454.816010,517.280029,689.056030
447.007996,519.231995,687.104004
445.056000,525.088013,692.960022
450.911987,515.328003,685.151978
454.816010,521.184021,691.007996
452.864014,519.231995,687.104004
452.864014,519.231995,692.960022
452.864014,525.088013,685.151978
454.816010,517.280029,685.151978
450.911987,517.280029,683.200012
456.768005,515.328003,687.104004
454.816010,511.424011,683.200012
450.911987,521.184021,673.440002
452.864014,519.231995,692.960022
458.720001,521.184021,691.007996
466.528015,511.424011,692.960022
456.768005,517.280029,689.056030
464.575989,515.328003,694.911987
460.671997,513.375977,702.719971
464.575989,517.280029,704.671997
470.432007,509.471985,704.671997
478.239990,503.615997,702.719971
482.144012,501.664001,702.719971
476.287994,507.519989,716.383972
486.048004,505.567993,714.432007
488.000000,515.328003,714.432007
489.951996,519.231995,714.432007
493.855988,515.328003,726.143982
497.760010,517.280029,726.143982
491.903992,517.280029,730.047974
491.903992,517.280029,732.000000
499.712006,521.184021,741.760010
505.567993,525.088013,735.903992
501.664001,523.135986,735.903992
509.471985,513.375977,733.952026
499.712006,519.231995,739.807983
497.760010,521.184021,745.664001
509.471985,519.231995,743.711975
507.519989,517.280029,745.664001
503.615997,517.280029,745.664001
513.375977,505.567993,749.567993
505.567993,505.567993,741.760010
505.567993,511.424011,747.616028
501.664001,499.712006,747.616028
505.567993,505.567993,745.664001
501.664001,495.808014,745.664001
505.567993,501.664001,737.856018
495.808014,501.664001,733.952026
501.664001,495.808014,741.760010
501.664001,507.519989,730.047974
499.712006,499.712006,728.096008
495.808014,505.567993,730.047974
493.855988,501.664001,720.288025
497.760010,497.760010,728.096008
493.855988,499.712006,730.047974
495.808014,509.471985,724.192017
493.855988,493.855988,732.000000
497.760010,493.855988,732.000000
491.903992,489.951996,730.047974
491.903992,489.951996,720.288025
489.951996,489.951996,722.239990
493.855988,493.855988,733.952026
497.760010,488.000000,739.807983
493.855988,493.855988,728.096008
495.808014,480.191986,735.903992
489.951996,482.144012,732.000000
489.951996,495.808014,743.711975
495.808014,489.951996,733.952026
486.048004,484.096008,732.000000
489.951996,486.048004,732.000000
488.000000,488.000000,739.807983
489.951996,484.096008,728.096008
489.951996,476.287994,722.239990
482.144012,486.048004,718.335999
488.000000,480.191986,712.479980
482.144012,488.000000,710.528015
482.144012,486.048004,714.432007
482.144012,486.048004,714.432007
478.239990,486.048004,716.383972
480.191986,482.144012,714.432007
480.191986,480.191986,720.288025
478.239990,478.239990,716.383972
482.144012,468.480011,718.335999
466.528015,482.144012,726.143982
474.335999,482.144012,714.432007
468.480011,476.287994,720.288025
468.480011,480.191986,710.528015
474.335999,486.048004,710.528015
472.384003,476.287994,712.479980
474.335999,476.287994,710.528015
472.384003,484.096008,722.239990
470.432007,489.951996,720.288025
474.335999,482.144012,710.528015
472.384003,478.239990,720.288025
478.239990,476.287994,718.335999
474.335999,482.144012,714.432007
468.480011,478.239990,716.383972
472.384003,474.335999,726.143982
474.335999,478.239990,716.383972
470.432007,478.239990,712.479980
460.671997,484.096008,716.383972
474.335999,478.239990,720.288025
478.239990,480.191986,722.239990
468.480011,482.144012,716.383972
474.335999,472.384003,716.383972
468.480011,472.384003,712.479980
468.480011,478.239990,716.383972
474.335999,468.480011,710.528015
468.480011,472.384003,706.624023
468.480011,476.287994,712.479980
474.335999,482.144012,718.335999
468.480011,470.432007,716.383972
470.432007,472.384003,710.528015
466.528015,468.480011,708.575989
468.480011,460.671997,706.624023
472.384003,464.575989,710.528015
478.239990,480.191986,708.575989
476.287994,486.048004,706.624023
476.287994,476.287994,702.719971
478.239990,478.239990,708.575989
476.287994,478.239990,708.575989
486.048004,480.191986,708.575989
478.239990,484.096008,702.719971
476.287994,478.239990,710.528015
478.239990,468.480011,712.479980
482.144012,474.335999,710.528015
486.048004,478.239990,702.719971
486.048004,482.144012,708.575989
486.048004,476.287994,710.528015
486.048004,486.048004,710.528015
489.951996,482.144012,712.479980
484.096008,488.000000,714.432007
484.096008,482.144012,720.288025
486.048004,486.048004,714.432007
488.000000,486.048004,718.335999
486.048004,488.000000,720.288025
486.048004,493.855988,726.143982
486.048004,497.760010,726.143982
480.191986,488.000000,724.192017
491.903992,489.951996,722.239990
488.000000,491.903992,728.096008
486.048004,497.760010,728.096008
480.191986,501.664001,733.952026
488.000000,501.664001,737.856018
489.951996,505.567993,726.143982
488.000000,495.808014,726.143982
488.000000,495.808014,732.000000
480.191986,495.808014,726.143982
484.096008,503.615997,728.096008
497.760010,495.808014,732.000000
488.000000,491.903992,728.096008
484.096008,493.855988,718.335999
480.191986,493.855988,726.143982
482.144012,489.951996,732.000000
482.144012,501.664001,726.143982
486.048004,501.664001,726.143982
486.048004,509.471985,718.335999
484.096008,503.615997,728.096008
480.191986,497.760010,720.288025
480.191986,511.424011,730.047974
476.287994,507.519989,720.288025
476.287994,507.519989,720.288025
482.144012,507.519989,722.239990
480.191986,509.471985,722.239990
480.191986,513.375977,722.239990
482.144012,515.328003,728.096008
476.287994,509.471985,720.288025
472.384003,513.375977,722.239990
476.287994,511.424011,720.288025
474.335999,517.280029,714.432007
476.287994,517.280029,714.432007
476.287994,515.328003,724.192017
482.144012,509.471985,716.383972
480.191986,521.184021,724.192017
478.239990,513.375977,726.143982
474.335999,517.280029,710.528015
468.480011,503.615997,706.624023
474.335999,513.375977,714.432007
472.384003,507.519989,720.288025
472.384003,515.328003,722.239990
474.335999,517.280029,716.383972
474.335999,517.280029,710.528015
476.287994,517.280029,720.288025
478.239990,519.231995,712.479980
474.335999,515.328003,712.479980
482.144012,509.471985,708.575989
478.239990,519.231995,712.479980
476.287994,517.280029,720.288025
476.287994,513.375977,728.096008
486.048004,517.280029,718.335999
484.096008,515.328003,722.239990
488.000000,517.280029,726.143982
480.191986,511.424011,728.096008
486.048004,523.135986,735.903992
489.951996,517.280029,730.047974
484.096008,515.328003,733.952026
489.951996,528.992004,737.856018
488.000000,519.231995,732.000000
488.000000,515.328003,743.711975
484.096008,513.375977,735.903992
482.144012,515.328003,735.903992
484.096008,521.184021,735.903992
489.951996,515.328003,733.952026
484.096008,515.328003,732.000000
491.903992,517.280029,733.952026
474.335999,521.184021,724.192017
478.239990,515.328003,728.096008
474.335999,519.231995,728.096008
472.384003,509.471985,728.096008
472.384003,511.424011,728.096008
476.287994,517.280029,722.239990
466.528015,519.231995,733.952026
472.384003,515.328003,722.239990
468.480011,507.519989,710.528015
462.623993,507.519989,718.335999
474.335999,505.567993,720.288025
466.528015,513.375977,714.432007
470.432007,495.808014,722.239990
462.623993,509.471985,724.192017
456.768005,509.471985,718.335999
466.528015,497.760010,722.239990
462.623993,515.328003,718.335999
462.623993,515.328003,718.335999
462.623993,503.615997,718.335999
462.623993,505.567993,726.143982
462.623993,509.471985,718.335999
464.575989,511.424011,726.143982
470.432007,505.567993,730.047974
470.432007,503.615997,730.047974
462.623993,503.615997,718.335999
464.575989,501.664001,722.239990
468.480011,505.567993,722.239990
460.671997,501.664001,724.192017
460.671997,499.712006,720.288025
470.432007,505.567993,726.143982
472.384003,501.664001,720.288025
466.528015,501.664001,714.432007
462.623993,503.615997,714.432007
462.623993,503.615997,710.528015
460.671997,495.808014,714.432007
464.575989,503.615997,716.383972
470.432007,491.903992,716.383972
466.528015,499.712006,714.432007
462.623993,507.519989,706.624023
466.528015,507.519989,704.671997
456.768005,499.712006,708.575989
458.720001,509.471985,708.575989
462.623993,499.712006,708.575989
462.623993,497.760010,702.719971
452.864014,509.471985,696.864014
454.816010,503.615997,698.815979
452.864014,503.615997,696.864014
460.671997,509.471985,700.768005
458.720001,503.615997,700.768005
460.671997,505.567993,698.815979
460.671997,501.664001,698.815979
456.768005,499.712006,708.575989
458.720001,507.519989,696.864014
445.056000,505.567993,708.575989
460.671997,505.567993,694.911987
458.720001,503.615997,704.671997
466.528015,503.615997,704.671997
464.575989,497.760010,708.575989
470.432007,497.760010,702.719971
466.528015,501.664001,712.479980
456.768005,493.855988,702.719971
466.528015,497.760010,700.768005
458.720001,499.712006,704.671997
458.720001,489.951996,691.007996
462.623993,497.760010,702.719971
462.623993,488.000000,692.960022
454.816010,501.664001,698.815979
448.959991,501.664001,694.911987
454.816010,499.712006,696.864014
458.720001,501.664001,696.864014
460.671997,499.712006,698.815979
452.864014,489.951996,700.768005
456.768005,495.808014,696.864014
454.816010,493.855988,700.768005
454.816010,509.471985,694.911987
456.768005,497.760010,698.815979
456.768005,493.855988,696.864014
456.768005,499.712006,700.768005
448.959991,505.567993,706.624023
454.816010,489.951996,704.671997
447.007996,501.664001,700.768005
447.007996,501.664001,706.624023
450.911987,499.712006,708.575989
447.007996,499.712006,712.479980
448.959991,509.471985,700.768005
448.959991,501.664001,698.815979
445.056000,489.951996,700.768005
452.864014,503.615997,702.719971
452.864014,488.000000,706.624023
447.007996,493.855988,702.719971
435.295990,495.808014,698.815979
441.152008,491.903992,706.624023
437.247986,482.144012,704.671997
429.440002,488.000000,694.911987
437.247986,503.615997,706.624023
435.295990,482.144012,706.624023
441.152008,493.855988,712.479980
435.295990,499.712006,700.768005
439.200012,484.096008,702.719971
437.247986,488.000000,694.911987
435.295990,493.855988,692.960022
431.391998,486.048004,698.815979
429.440002,482.144012,700.768005
431.391998,486.048004,698.815979
425.536011,482.144012,712.479980
429.440002,478.239990,716.383972
433.343994,482.144012,712.479980
433.343994,480.191986,698.815979
427.488007,482.144012,702.719971
431.391998,482.144012,704.671997
425.536011,486.048004,702.719971
427.488007,480.191986,702.719971
435.295990,482.144012,712.479980
425.536011,488.000000,702.719971
425.536011,474.335999,712.479980
433.343994,482.144012,706.624023
429.440002,486.048004,704.671997
435.295990,468.480011,708.575989
431.391998,478.239990,712.479980
431.391998,472.384003,718.335999
431.391998,472.384003,714.432007
431.391998,470.432007,712.479980
429.440002,470.432007,710.528015
427.488007,464.575989,720.288025
431.391998,470.432007,714.432007
425.536011,470.432007,726.143982
431.391998,470.432007,728.096008
433.343994,462.623993,722.239990
437.247986,468.480011,728.096008
433.343994,470.432007,720.288025
437.247986,466.528015,722.239990
433.343994,466.528015,710.528015
441.152008,472.384003,720.288025
439.200012,470.432007,722.239990
437.247986,462.623993,722.239990
439.200012,466.528015,720.288025
439.200012,462.623993,722.239990
441.152008,466.528015,722.239990
441.152008,466.528015,712.479980
445.056000,454.816010,716.383972
450.911987,448.959991,710.528015
441.152008,460.671997,720.288025
458.720001,448.959991,728.096008
458.720001,454.816010,726.143982
454.816010,460.671997,728.096008
456.768005,452.864014,730.047974
454.816010,452.864014,728.096008
456.768005,464.575989,733.952026
464.575989,468.480011,728.096008
462.623993,456.768005,728.096008
462.623993,454.816010,728.096008
466.528015,448.959991,724.192017
458.720001,466.528015,722.239990
468.480011,452.864014,724.192017
464.575989,454.816010,735.903992
476.287994,458.720001,726.143982
466.528015,454.816010,726.143982
468.480011,456.768005,722.239990
470.432007,456.768005,726.143982
468.480011,470.432007,726.143982
470.432007,466.528015,730.047974
466.528015,466.528015,730.047974
470.432007,468.480011,726.143982
472.384003,462.623993,743.711975
468.480011,464.575989,730.047974
468.480011,464.575989,733.952026
476.287994,470.432007,730.047974
478.239990,450.911987,728.096008
468.480011,464.575989,733.952026
464.575989,466.528015,722.239990
464.575989,456.768005,728.096008
468.480011,466.528015,728.096008
480.191986,460.671997,726.143982
472.384003,462.623993,724.192017
476.287994,470.432007,718.335999
486.048004,462.623993,724.192017
474.335999,470.432007,724.192017
472.384003,470.432007,718.335999
474.335999,472.384003,718.335999
476.287994,474.335999,722.239990
472.384003,478.239990,722.239990
474.335999,476.287994,714.432007
466.528015,472.384003,716.383972
464.575989,478.239990,712.479980
462.623993,482.144012,712.479980
466.528015,484.096008,706.624023
466.528015,484.096008,712.479980
468.480011,488.000000,700.768005
464.575989,480.191986,698.815979
462.623993,488.000000,710.528015
464.575989,482.144012,698.815979
466.528015,491.903992,708.575989
468.480011,488.000000,698.815979
456.768005,489.951996,704.671997
460.671997,493.855988,702.719971
460.671997,495.808014,698.815979
462.623993,499.712006,700.768005
462.623993,497.760010,696.864014
458.720001,491.903992,685.151978
458.720001,495.808014,683.200012
470.432007,505.567993,692.960022
462.623993,497.760010,689.056030
452.864014,505.567993,692.960022
458.720001,499.712006,694.911987
450.911987,509.471985,691.007996
456.768005,501.664001,692.960022
456.768005,507.519989,689.056030
454.816010,501.664001,694.911987
458.720001,499.712006,687.104004
460.671997,497.760010,691.007996
456.768005,499.712006,698.815979
456.768005,509.471985,687.104004
464.575989,517.280029,694.911987
456.768005,509.471985,698.815979
452.864014,507.519989,696.864014
462.623993,509.471985,689.056030
466.528015,513.375977,692.960022
460.671997,503.615997,689.056030
458.720001,513.375977,698.815979
458.720001,515.328003,700.768005
448.959991,511.424011,683.200012
454.816010,511.424011,687.104004
448.959991,519.231995,691.007996
454.816010,513.375977,687.104004
454.816010,511.424011,689.056030
462.623993,511.424011,692.960022
462.623993,507.519989,685.151978
454.816010,511.424011,694.911987
452.864014,509.471985,696.864014
458.720001,507.519989,696.864014
456.768005,507.519989,689.056030
460.671997,509.471985,698.815979
452.864014,515.328003,696.864014
456.768005,513.375977,683.200012
458.720001,517.280029,694.911987
460.671997,517.280029,700.768005
456.768005,507.519989,702.719971
458.720001,517.280029,698.815979
464.575989,511.424011,694.911987
456.768005,515.328003,692.960022
456.768005,507.519989,692.960022
458.720001,515.328003,700.768005
460.671997,517.280029,706.624023
456.768005,515.328003,694.911987
464.575989,517.280029,704.671997
474.335999,509.471985,706.624023
466.528015,515.328003,706.624023
464.575989,505.567993,704.671997
470.432007,505.567993,702.719971
470.432007,509.471985,710.528015
464.575989,505.567993,702.719971
466.528015,503.615997,706.624023
464.575989,501.664001,706.624023
470.432007,495.808014,710.528015
468.480011,493.855988,700.768005
468.480011,499.712006,702.719971
474.335999,499.712006,702.719971
468.480011,493.855988,702.719971
472.384003,501.664001,702.719971
466.528015,501.664001,708.575989
472.384003,507.519989,704.671997
472.384003,499.712006,702.719971
478.239990,497.760010,708.575989
478.239990,505.567993,712.479980
472.384003,497.760010,708.575989
478.239990,499.712006,710.528015
482.144012,497.760010,702.719971
486.048004,489.951996,712.479980
478.239990,499.712006,712.479980
482.144012,488.000000,712.479980
482.144012,488.000000,712.479980
482.144012,499.712006,712.479980
484.096008,484.096008,708.575989
484.096008,495.808014,712.479980
484.096008,491.903992,710.528015
488.000000,484.096008,706.624023
486.048004,491.903992,706.624023
478.239990,489.951996,704.671997
480.191986,493.855988,706.624023
478.239990,493.855988,712.479980
484.096008,484.096008,708.575989
486.048004,489.951996,706.624023
488.000000,486.048004,698.815979
497.760010,482.144012,712.479980
491.903992,470.432007,708.575989
491.903992,476.287994,704.671997
499.712006,476.287994,706.624023
501.664001,470.432007,710.528015
499.712006,472.384003,704.671997
491.903992,472.384003,712.479980
493.855988,478.239990,714.432007
493.855988,472.384003,716.383972
495.808014,472.384003,718.335999
499.712006,472.384003,716.383972
499.712006,478.239990,716.383972
505.567993,480.191986,706.624023
507.519989,476.287994,710.528015
511.424011,480.191986,714.432007
501.664001,476.287994,722.239990
505.567993,478.239990,724.192017
509.471985,480.191986,722.239990
505.567993,482.144012,716.383972
513.375977,482.144012,724.192017
503.615997,484.096008,722.239990
495.808014,478.239990,712.479980
503.615997,474.335999,716.383972
501.664001,466.528015,722.239990
509.471985,468.480011,718.335999
509.471985,464.575989,720.288025
511.424011,464.575989,712.479980
513.375977,474.335999,722.239990
513.375977,466.528015,712.479980
509.471985,470.432007,718.335999
503.615997,474.335999,714.432007
507.519989,474.335999,716.383972
505.567993,476.287994,708.575989
505.567993,480.191986,712.479980
503.615997,478.239990,710.528015
495.808014,476.287994,704.671997
503.615997,472.384003,708.575989
501.664001,474.335999,694.911987
497.760010,468.480011,696.864014
493.855988,476.287994,698.815979
493.855988,474.335999,691.007996
491.903992,474.335999,696.864014
493.855988,474.335999,691.007996
493.855988,480.191986,685.151978
489.951996,470.432007,691.007996
501.664001,466.528015,683.200012
488.000000,472.384003,675.392029
493.855988,472.384003,681.247986
491.903992,470.432007,679.296021
488.000000,466.528015,696.864014
491.903992,470.432007,691.007996
486.048004,468.480011,692.960022
495.808014,460.671997,689.056030
495.808014,466.528015,696.864014
497.760010,456.768005,691.007996
495.808014,458.720001,691.007996
493.855988,464.575989,700.768005
499.712006,462.623993,696.864014
503.615997,460.671997,691.007996
499.712006,458.720001,692.960022
499.712006,460.671997,698.815979
499.712006,460.671997,698.815979
505.567993,462.623993,702.719971
505.567993,466.528015,696.864014
507.519989,466.528015,696.864014
515.328003,456.768005,694.911987
515.328003,456.768005,704.671997
511.424011,452.864014,708.575989
515.328003,450.911987,700.768005
511.424011,460.671997,704.671997
517.280029,456.768005,708.575989
517.280029,458.720001,698.815979
513.375977,447.007996,700.768005
517.280029,443.104004,702.719971
507.519989,441.152008,694.911987
513.375977,448.959991,689.056030
519.231995,454.816010,689.056030
525.088013,454.816010,700.768005
528.992004,441.152008,683.200012
515.328003,443.104004,681.247986
525.088013,452.864014,687.104004
523.135986,458.720001,679.296021
532.895996,456.768005,685.151978
519.231995,450.911987,683.200012
525.088013,456.768005,673.440002
523.135986,456.768005,673.440002
525.088013,454.816010,675.392029
523.135986,448.959991,667.583984
525.088013,448.959991,673.440002
523.135986,456.768005,669.536011
525.088013,458.720001,667.583984
530.943970,456.768005,665.632019
519.231995,468.480011,673.440002
528.992004,462.623993,677.343994
525.088013,474.335999,669.536011
532.895996,464.575989,657.823975
527.039978,470.432007,651.968018
527.039978,466.528015,665.632019
523.135986,470.432007,657.823975
521.184021,468.480011,661.728027
528.992004,462.623993,667.583984
527.039978,476.287994,669.536011
530.943970,472.384003,661.728027
523.135986,474.335999,667.583984
523.135986,480.191986,667.583984
536.799988,466.528015,661.728027
532.895996,486.048004,663.679993
523.135986,474.335999,667.583984
523.135986,474.335999,673.440002
523.135986,474.335999,673.440002
523.135986,480.191986,663.679993
521.184021,488.000000,667.583984
521.184021,478.239990,665.632019
515.328003,484.096008,671.487976
521.184021,484.096008,679.296021
521.184021,478.239990,677.343994
521.184021,476.287994,659.776001
509.471985,480.191986,671.487976
521.184021,484.096008,669.536011
517.280029,476.287994,681.247986
511.424011,478.239990,665.632019
507.519989,489.951996,675.392029
513.375977,478.239990,679.296021
503.615997,486.048004,675.392029
511.424011,489.951996,673.440002
501.664001,486.048004,667.583984
509.471985,489.951996,665.632019
505.567993,489.951996,661.728027
497.760010,484.096008,657.823975
505.567993,486.048004,646.112000
497.760010,478.239990,653.919983
489.951996,488.000000,653.919983
497.760010,484.096008,651.968018
493.855988,480.191986,655.872009
497.760010,482.144012,653.919983
495.808014,484.096008,650.015991
493.855988,484.096008,650.015991
488.000000,480.191986,650.015991
489.951996,488.000000,650.015991
489.951996,480.191986,650.015991
488.000000,482.144012,646.112000
488.000000,480.191986,653.919983
499.712006,484.096008,650.015991
501.664001,484.096008,650.015991
499.712006,480.191986,661.728027
501.664001,476.287994,653.919983
497.760010,478.239990,650.015991
495.808014,476.287994,657.823975
497.760010,460.671997,657.823975
501.664001,470.432007,657.823975
493.855988,470.432007,657.823975
501.664001,470.432007,659.776001
507.519989,470.432007,667.583984
503.615997,468.480011,661.728027
505.567993,464.575989,667.583984
503.615997,474.335999,669.536011
507.519989,472.384003,669.536011
499.712006,466.528015,671.487976
513.375977,470.432007,671.487976
509.471985,468.480011,681.247986
517.280029,474.335999,677.343994
517.280029,464.575989,673.440002
521.184021,458.720001,677.343994
515.328003,458.720001,675.392029
511.424011,458.720001,675.392029
521.184021,462.623993,683.200012
519.231995,458.720001,681.247986
513.375977,456.768005,681.247986
511.424011,458.720001,671.487976
511.424011,452.864014,677.343994
513.375977,448.959991,679.296021
513.375977,450.911987,671.487976
513.375977,441.152008,677.343994
511.424011,443.104004,679.296021
509.471985,429.440002,675.392029
513.375977,439.200012,673.440002
509.471985,443.104004,673.440002
501.664001,439.200012,679.296021
505.567993,439.200012,675.392029
503.615997,443.104004,669.536011
503.615997,441.152008,667.583984
509.471985,445.056000,669.536011
507.519989,427.488007,675.392029
505.567993,437.247986,667.583984
509.471985,441.152008,671.487976
507.519989,437.247986,671.487976
505.567993,435.295990,673.440002
507.519989,433.343994,675.392029
517.280029,429.440002,667.583984
507.519989,433.343994,675.392029
513.375977,425.536011,681.247986
527.039978,425.536011,679.296021
530.943970,419.679993,685.151978
528.992004,421.631989,685.151978
528.992004,419.679993,683.200012
525.088013,419.679993,681.247986
530.943970,419.679993,681.247986
540.703979,406.015991,687.104004
532.895996,423.584015,692.960022
532.895996,421.631989,685.151978
542.656006,431.391998,681.247986
534.848022,431.391998,692.960022
544.607971,425.536011,681.247986
538.752014,425.536011,681.247986
552.416016,435.295990,679.296021
540.703979,433.343994,683.200012
556.320007,441.152008,687.104004
544.607971,433.343994,692.960022
546.559998,437.247986,685.151978
554.367981,439.200012,691.007996
556.320007,437.247986,689.056030
558.271973,429.440002,689.056030
556.320007,437.247986,700.768005
556.320007,433.343994,700.768005
556.320007,435.295990,704.671997
556.320007,429.440002,698.815979
564.127991,421.631989,694.911987
564.127991,419.679993,700.768005
571.935974,421.631989,700.768005
577.791992,417.727997,700.768005
577.791992,423.584015,694.911987
583.648010,419.679993,694.911987
581.695984,423.584015,685.151978
579.744019,427.488007,694.911987
585.599976,421.631989,681.247986
585.599976,423.584015,692.960022
589.504028,417.727997,687.104004
591.455994,419.679993,689.056030
587.552002,423.584015,696.864014
595.359985,427.488007,696.864014
593.408020,425.536011,696.864014
603.168030,419.679993,698.815979
595.359985,423.584015,698.815979
595.359985,413.824005,696.864014
605.119995,425.536011,708.575989
605.119995,417.727997,702.719971
603.168030,417.727997,708.575989
607.072021,427.488007,698.815979
607.072021,421.631989,708.575989
610.976013,429.440002,698.815979
609.023987,427.488007,698.815979
612.927979,431.391998,702.719971
618.783997,431.391998,702.719971
618.783997,431.391998,698.815979
612.927979,433.343994,700.768005
618.783997,433.343994,696.864014
616.831970,433.343994,702.719971
626.591980,433.343994,710.528015
622.687988,435.295990,702.719971
622.687988,437.247986,702.719971
630.495972,437.247986,708.575989
626.591980,441.152008,708.575989
622.687988,437.247986,702.719971
624.640015,439.200012,706.624023
628.544006,435.295990,712.479980
622.687988,429.440002,702.719971
624.640015,425.536011,710.528015
630.495972,421.631989,712.479980
628.544006,433.343994,716.383972
626.591980,429.440002,710.528015
632.447998,437.247986,708.575989
626.591980,435.295990,702.719971
630.495972,431.391998,704.671997
634.400024,419.679993,702.719971
634.400024,429.440002,716.383972
632.447998,429.440002,706.624023
628.544006,427.488007,714.432007
638.304016,429.440002,702.719971
634.400024,425.536011,712.479980
634.400024,425.536011,712.479980
628.544006,427.488007,714.432007
622.687988,419.679993,712.479980
626.591980,423.584015,712.479980
632.447998,411.872009,714.432007
622.687988,409.920013,706.624023
634.400024,411.872009,712.479980
632.447998,417.727997,714.432007
632.447998,409.920013,706.624023
638.304016,421.631989,704.671997
634.400024,425.536011,716.383972
634.400024,419.679993,708.575989
636.351990,423.584015,712.479980
634.400024,411.872009,708.575989
624.640015,417.727997,706.624023
624.640015,415.776001,716.383972
622.687988,411.872009,702.719971
630.495972,427.488007,706.624023
638.304016,433.343994,704.671997
628.544006,431.391998,710.528015
632.447998,419.679993,710.528015
638.304016,425.536011,712.479980
642.208008,423.584015,710.528015
638.304016,425.536011,712.479980
632.447998,423.584015,714.432007
634.400024,431.391998,706.624023
634.400024,421.631989,700.768005
634.400024,429.440002,712.479980
634.400024,425.536011,718.335999
646.112000,425.536011,716.383972
632.447998,423.584015,708.575989
632.447998,419.679993,720.288025
638.304016,425.536011,712.479980
638.304016,433.343994,712.479980
628.544006,421.631989,710.528015
632.447998,427.488007,704.671997
632.447998,427.488007,706.624023
638.304016,439.200012,708.575989
630.495972,433.343994,706.624023
628.544006,429.440002,702.719971
616.831970,445.056000,706.624023
622.687988,431.391998,696.864014
630.495972,443.104004,700.768005
632.447998,433.343994,702.719971
624.640015,437.247986,691.007996
622.687988,425.536011,696.864014
626.591980,427.488007,696.864014
622.687988,429.440002,698.815979
624.640015,425.536011,708.575989
618.783997,429.440002,702.719971
620.736023,433.343994,702.719971
616.831970,427.488007,712.479980
618.783997,445.056000,708.575989
618.783997,433.343994,708.575989
616.831970,439.200012,714.432007
620.736023,445.056000,698.815979
614.880005,439.200012,708.575989
610.976013,433.343994,700.768005
612.927979,437.247986,696.864014
620.736023,445.056000,694.911987
612.927979,437.247986,691.007996
614.880005,443.104004,704.671997
610.976013,437.247986,691.007996
610.976013,439.200012,694.911987
618.783997,435.295990,691.007996
609.023987,443.104004,700.768005
610.976013,433.343994,694.911987
610.976013,431.391998,700.768005
605.119995,429.440002,702.719971
601.216003,435.295990,704.671997
612.927979,435.295990,694.911987
614.880005,427.488007,702.719971
612.927979,443.104004,691.007996
609.023987,427.488007,702.719971
609.023987,439.200012,710.528015
614.880005,443.104004,706.624023
607.072021,435.295990,706.624023
610.976013,443.104004,710.528015
599.263977,439.200012,706.624023
601.216003,439.200012,716.383972
607.072021,427.488007,702.719971
607.072021,439.200012,706.624023
605.119995,450.911987,710.528015
599.263977,439.200012,706.624023
593.408020,441.152008,712.479980
597.312012,433.343994,700.768005
601.216003,433.343994,698.815979
593.408020,437.247986,708.575989
591.455994,435.295990,698.815979
591.455994,435.295990,700.768005
601.216003,429.440002,706.624023
589.504028,431.391998,698.815979
589.504028,423.584015,700.768005
589.504028,425.536011,696.864014
589.504028,425.536011,702.719971
585.599976,429.440002,702.719971
581.695984,431.391998,696.864014
573.888000,435.295990,694.911987
579.744019,431.391998,692.960022
583.648010,425.536011,694.911987
577.791992,431.391998,683.200012
573.888000,431.391998,692.960022
577.791992,431.391998,689.056030
571.935974,433.343994,692.960022
577.791992,429.440002,683.200012
571.935974,435.295990,689.056030
575.840027,431.391998,685.151978
577.791992,425.536011,685.151978
577.791992,425.536011,685.151978
573.888000,417.727997,689.056030
579.744019,425.536011,696.864014
579.744019,417.727997,683.200012
573.888000,415.776001,691.007996
575.840027,409.920013,698.815979
569.984009,425.536011,689.056030
571.935974,409.920013,698.815979
575.840027,427.488007,704.671997
579.744019,415.776001,708.575989
571.935974,415.776001,696.864014
571.935974,415.776001,704.671997
566.080017,415.776001,708.575989
569.984009,413.824005,710.528015
575.840027,411.872009,708.575989
581.695984,419.679993,704.671997
569.984009,406.015991,712.479980
573.888000,409.920013,710.528015
573.888000,413.824005,708.575989
577.791992,409.920013,702.719971
573.888000,417.727997,710.528015
577.791992,419.679993,710.528015
577.791992,411.872009,712.479980
573.888000,415.776001,716.383972
581.695984,413.824005,710.528015
571.935974,406.015991,716.383972
577.791992,404.063995,712.479980
571.935974,409.920013,720.288025
569.984009,406.015991,716.383972
571.935974,406.015991,714.432007
564.127991,407.967987,710.528015
569.984009,400.160004,712.479980
566.080017,406.015991,706.624023
575.840027,409.920013,708.575989
566.080017,402.112000,708.575989
575.840027,404.063995,712.479980
575.840027,394.303986,718.335999
571.935974,404.063995,714.432007
575.840027,402.112000,716.383972
573.888000,407.967987,708.575989
583.648010,398.208008,714.432007
575.840027,404.063995,716.383972
583.648010,404.063995,716.383972
581.695984,404.063995,720.288025
591.455994,398.208008,720.288025
585.599976,402.112000,710.528015
595.359985,407.967987,720.288025
591.455994,415.776001,726.143982
591.455994,411.872009,732.000000
589.504028,402.112000,728.096008
593.408020,400.160004,728.096008
597.312012,411.872009,726.143982
601.216003,402.112000,730.047974
597.312012,409.920013,728.096008
605.119995,407.967987,730.047974
605.119995,409.920013,733.952026
597.312012,411.872009,735.903992
609.023987,407.967987,730.047974
609.023987,413.824005,730.047974
616.831970,415.776001,726.143982
614.880005,413.824005,732.000000
607.072021,413.824005,732.000000
601.216003,427.488007,732.000000
607.072021,409.920013,733.952026
607.072021,406.015991,735.903992
610.976013,419.679993,735.903992
614.880005,417.727997,730.047974
614.880005,425.536011,735.903992
612.927979,419.679993,737.856018
614.880005,411.872009,735.903992
610.976013,419.679993,735.903992
612.927979,421.631989,737.856018
609.023987,417.727997,728.096008
601.216003,421.631989,735.903992
610.976013,417.727997,720.288025
601.216003,413.824005,722.239990
614.880005,413.824005,726.143982
605.119995,415.776001,722.239990
609.023987,415.776001,720.288025
609.023987,413.824005,724.192017
605.119995,421.631989,720.288025
609.023987,423.584015,726.143982
605.119995,425.536011,716.383972
607.072021,421.631989,720.288025
603.168030,431.391998,720.288025
593.408020,419.679993,724.192017
597.312012,419.679993,728.096008
599.263977,419.679993,714.432007
595.359985,421.631989,722.239990
599.263977,417.727997,720.288025
591.455994,415.776001,712.479980
591.455994,415.776001,718.335999
589.504028,415.776001,712.479980
595.359985,409.920013,708.575989
599.263977,411.872009,710.528015
591.455994,415.776001,710.528015
591.455994,409.920013,716.383972
591.455994,421.631989,706.624023
585.599976,423.584015,704.671997
591.455994,407.967987,710.528015
587.552002,415.776001,706.624023
585.599976,423.584015,706.624023
589.504028,423.584015,706.624023
591.455994,419.679993,712.479980
587.552002,417.727997,712.479980
587.552002,415.776001,704.671997
589.504028,411.872009,704.671997
589.504028,419.679993,712.479980
589.504028,431.391998,708.575989
589.504028,417.727997,706.624023
581.695984,417.727997,712.479980
589.504028,419.679993,706.624023
589.504028,409.920013,712.479980
593.408020,419.679993,712.479980
593.408020,429.440002,700.768005
599.263977,419.679993,712.479980
591.455994,425.536011,708.575989
589.504028,427.488007,710.528015
591.455994,425.536011,704.671997
595.359985,421.631989,700.768005
599.263977,429.440002,694.911987
593.408020,431.391998,708.575989
593.408020,435.295990,702.719971
601.216003,435.295990,706.624023
599.263977,435.295990,694.911987
601.216003,431.391998,694.911987
593.408020,439.200012,702.719971
597.312012,441.152008,696.864014
597.312012,441.152008,708.575989
595.359985,441.152008,712.479980
589.504028,445.056000,702.719971
593.408020,452.864014,712.479980
591.455994,450.911987,704.671997
607.072021,447.007996,708.575989
607.072021,443.104004,708.575989
599.263977,441.152008,712.479980
599.263977,447.007996,716.383972
605.119995,448.959991,710.528015
609.023987,452.864014,702.719971
601.216003,456.768005,710.528015
603.168030,460.671997,706.624023
607.072021,462.623993,712.479980
609.023987,456.768005,712.479980
610.976013,460.671997,704.671997
607.072021,470.432007,714.432007
603.168030,468.480011,714.432007
607.072021,468.480011,706.624023
603.168030,466.528015,712.479980
605.119995,472.384003,706.624023
605.119995,480.191986,716.383972
601.216003,474.335999,708.575989
599.263977,476.287994,710.528015
597.312012,472.384003,698.815979
603.168030,482.144012,704.671997
597.312012,480.191986,694.911987
597.312012,484.096008,698.815979
597.312012,480.191986,698.815979
591.455994,478.239990,692.960022
597.312012,486.048004,698.815979
595.359985,482.144012,696.864014
595.359985,484.096008,687.104004
599.263977,480.191986,683.200012
597.312012,489.951996,691.007996
601.216003,493.855988,687.104004
599.263977,486.048004,692.960022
603.168030,493.855988,685.151978
603.168030,497.760010,687.104004
593.408020,482.144012,692.960022
593.408020,486.048004,687.104004
593.408020,488.000000,691.007996
599.263977,491.903992,694.911987
599.263977,495.808014,694.911987
589.504028,493.855988,691.007996
599.263977,489.951996,692.960022
595.359985,501.664001,689.056030
591.455994,509.471985,698.815979
597.312012,509.471985,691.007996
591.455994,499.712006,691.007996
597.312012,503.615997,692.960022
603.168030,501.664001,696.864014
603.168030,491.903992,692.960022
601.216003,505.567993,689.056030
585.599976,501.664001,683.200012
597.312012,501.664001,691.007996
597.312012,497.760010,681.247986
597.312012,493.855988,683.200012
603.168030,499.712006,687.104004
603.168030,499.712006,681.247986
603.168030,499.712006,683.200012
597.312012,489.951996,683.200012
601.216003,482.144012,683.200012
595.359985,489.951996,679.296021
597.312012,495.808014,679.296021
591.455994,484.096008,681.247986
601.216003,486.048004,685.151978
597.312012,488.000000,683.200012
601.216003,488.000000,689.056030
601.216003,486.048004,689.056030
605.119995,482.144012,689.056030
595.359985,480.191986,694.911987
607.072021,491.903992,687.104004
610.976013,486.048004,685.151978
614.880005,486.048004,692.960022
607.072021,482.144012,696.864014
616.831970,476.287994,687.104004
614.880005,478.239990,694.911987
609.023987,478.239990,700.768005
618.783997,484.096008,704.671997
609.023987,486.048004,694.911987
609.023987,486.048004,691.007996
620.736023,486.048004,694.911987
612.927979,489.951996,702.719971
614.880005,484.096008,700.768005
610.976013,484.096008,698.815979
609.023987,484.096008,696.864014
605.119995,472.384003,696.864014
612.927979,466.528015,694.911987
610.976013,476.287994,683.200012
605.119995,478.239990,683.200012
601.216003,468.480011,687.104004
610.976013,470.432007,698.815979
609.023987,474.335999,694.911987
603.168030,470.432007,691.007996
605.119995,464.575989,692.960022
603.168030,476.287994,696.864014
595.359985,458.720001,691.007996
601.216003,454.816010,683.200012
607.072021,464.575989,689.056030
593.408020,472.384003,683.200012
589.504028,464.575989,683.200012
593.408020,468.480011,696.864014
597.312012,474.335999,685.151978
591.455994,460.671997,691.007996
589.504028,458.720001,685.151978
589.504028,470.432007,685.151978
595.359985,458.720001,687.104004
589.504028,466.528015,687.104004
587.552002,450.911987,689.056030
583.648010,454.816010,692.960022
577.791992,456.768005,683.200012
579.744019,454.816010,689.056030
575.840027,456.768005,681.247986
579.744019,448.959991,683.200012
566.080017,452.864014,679.296021
571.935974,456.768005,681.247986
564.127991,450.911987,677.343994
562.176025,450.911987,685.151978
566.080017,448.959991,679.296021
562.176025,452.864014,681.247986
556.320007,454.816010,671.487976
556.320007,454.816010,677.343994
560.223999,445.056000,673.440002
556.320007,450.911987,681.247986
552.416016,439.200012,677.343994
548.512024,443.104004,679.296021
542.656006,443.104004,681.247986
544.607971,441.152008,677.343994
544.607971,437.247986,683.200012
542.656006,443.104004,683.200012
540.703979,447.007996,677.343994
540.703979,450.911987,677.343994
538.752014,445.056000,685.151978
538.752014,447.007996,689.056030
540.703979,439.200012,691.007996
532.895996,443.104004,683.200012
528.992004,437.247986,689.056030
532.895996,447.007996,687.104004
515.328003,437.247986,692.960022
519.231995,437.247986,691.007996
515.328003,431.391998,681.247986
521.184021,425.536011,687.104004
513.375977,437.247986,685.151978
505.567993,433.343994,687.104004
507.519989,437.247986,683.200012
507.519989,443.104004,679.296021
499.712006,433.343994,677.343994
501.664001,431.391998,679.296021
509.471985,431.391998,689.056030
493.855988,433.343994,683.200012
495.808014,421.631989,691.007996
484.096008,429.440002,687.104004
497.760010,429.440002,691.007996
495.808014,427.488007,689.056030
495.808014,423.584015,698.815979
493.855988,425.536011,702.719971
493.855988,425.536011,696.864014
488.000000,425.536011,702.719971
491.903992,423.584015,694.911987
493.855988,437.247986,700.768005
493.855988,423.584015,702.719971
488.000000,421.631989,704.671997
488.000000,429.440002,706.624023
497.760010,425.536011,708.575989
489.951996,425.536011,706.624023
488.000000,431.391998,700.768005
497.760010,437.247986,704.671997
501.664001,431.391998,710.528015
499.712006,423.584015,710.528015
495.808014,433.343994,714.432007
488.000000,431.391998,708.575989
488.000000,431.391998,706.624023
497.760010,421.631989,712.479980
484.096008,435.295990,716.383972
493.855988,431.391998,708.575989
495.808014,439.200012,716.383972
503.615997,439.200012,712.479980
501.664001,429.440002,710.528015
488.000000,431.391998,702.719971
501.664001,439.200012,714.432007
497.760010,441.152008,710.528015
497.760010,435.295990,702.719971
493.855988,435.295990,698.815979
499.712006,437.247986,708.575989
493.855988,437.247986,702.719971
495.808014,443.104004,700.768005
503.615997,445.056000,698.815979
505.567993,437.247986,700.768005
503.615997,450.911987,696.864014
509.471985,439.200012,698.815979
505.567993,439.200012,704.671997
507.519989,433.343994,696.864014
513.375977,433.343994,692.960022
509.471985,435.295990,687.104004
509.471985,437.247986,692.960022
507.519989,439.200012,694.911987
519.231995,437.247986,691.007996
521.184021,443.104004,698.815979
528.992004,450.911987,683.200012
530.943970,437.247986,691.007996
530.943970,447.007996,687.104004
534.848022,450.911987,694.911987
530.943970,452.864014,687.104004
530.943970,460.671997,696.864014
534.848022,462.623993,692.960022
536.799988,462.623993,687.104004
546.559998,466.528015,681.247986
546.559998,462.623993,687.104004
552.416016,460.671997,681.247986
560.223999,460.671997,689.056030
556.320007,470.432007,689.056030
558.271973,470.432007,683.200012
550.463989,452.864014,681.247986
560.223999,460.671997,685.151978
568.031982,472.384003,681.247986
569.984009,464.575989,675.392029
564.127991,460.671997,685.151978
571.935974,466.528015,685.151978
579.744019,470.432007,692.960022
585.599976,476.287994,687.104004
579.744019,474.335999,689.056030
587.552002,472.384003,685.151978
591.455994,472.384003,679.296021
593.408020,482.144012,681.247986
595.359985,486.048004,692.960022
597.312012,488.000000,681.247986
601.216003,486.048004,691.007996
607.072021,488.000000,692.960022
603.168030,493.855988,689.056030
618.783997,486.048004,689.056030
603.168030,488.000000,692.960022
612.927979,495.808014,691.007996
605.119995,493.855988,691.007996
626.591980,493.855988,691.007996
622.687988,489.951996,687.104004
622.687988,491.903992,691.007996
622.687988,493.855988,689.056030
630.495972,491.903992,694.911987
624.640015,493.855988,698.815979
626.591980,505.567993,694.911987
626.591980,497.760010,696.864014
624.640015,488.000000,685.151978
620.736023,507.519989,692.960022
634.400024,503.615997,677.343994
632.447998,509.471985,685.151978
632.447998,491.903992,687.104004
638.304016,505.567993,679.296021
634.400024,513.375977,671.487976
634.400024,509.471985,671.487976
636.351990,505.567993,677.343994
636.351990,511.424011,671.487976
634.400024,511.424011,665.632019
638.304016,513.375977,667.583984
632.447998,501.664001,663.679993
638.304016,501.664001,665.632019
634.400024,497.760010,661.728027
640.255981,503.615997,669.536011
642.208008,497.760010,663.679993
638.304016,501.664001,663.679993
653.919983,505.567993,683.200012
655.872009,505.567993,685.151978
655.872009,513.375977,675.392029
655.872009,501.664001,681.247986
655.872009,507.519989,675.392029
657.823975,507.519989,673.440002
659.776001,511.424011,673.440002
661.728027,521.184021,673.440002
655.872009,515.328003,681.247986
653.919983,521.184021,685.151978
663.679993,517.280029,677.343994
659.776001,519.231995,675.392029
661.728027,517.280029,679.296021
665.632019,513.375977,671.487976
659.776001,519.231995,675.392029
651.968018,517.280029,671.487976
657.823975,517.280029,675.392029
659.776001,513.375977,667.583984
655.872009,509.471985,681.247986
659.776001,503.615997,669.536011
659.776001,509.471985,669.536011
659.776001,509.471985,677.343994
663.679993,505.567993,671.487976
655.872009,505.567993,667.583984
657.823975,517.280029,669.536011
657.823975,511.424011,661.728027
651.968018,511.424011,663.679993
657.823975,523.135986,657.823975
657.823975,517.280029,655.872009
657.823975,519.231995,655.872009
648.064026,517.280029,661.728027
657.823975,517.280029,661.728027
648.064026,517.280029,655.872009
650.015991,519.231995,663.679993
651.968018,517.280029,661.728027
653.919983,515.328003,661.728027
648.064026,503.615997,665.632019
651.968018,503.615997,651.968018
644.159973,499.712006,665.632019
644.159973,501.664001,661.728027
650.015991,497.760010,665.632019
642.208008,493.855988,655.872009
640.255981,489.951996,655.872009
640.255981,489.951996,663.679993
648.064026,493.855988,661.728027
653.919983,480.191986,661.728027
644.159973,486.048004,659.776001
646.112000,480.191986,663.679993
642.208008,493.855988,665.632019
640.255981,484.096008,665.632019
644.159973,482.144012,655.872009
640.255981,489.951996,659.776001
638.304016,489.951996,661.728027
642.208008,486.048004,659.776001
646.112000,478.239990,673.440002
640.255981,482.144012,671.487976
644.159973,472.384003,681.247986
646.112000,486.048004,675.392029
640.255981,480.191986,673.440002
634.400024,472.384003,671.487976
640.255981,470.432007,683.200012
634.400024,464.575989,681.247986
642.208008,478.239990,683.200012
644.159973,472.384003,685.151978
636.351990,470.432007,679.296021
636.351990,462.623993,675.392029
642.208008,454.816010,679.296021
634.400024,466.528015,685.151978
632.447998,454.816010,685.151978
632.447998,454.816010,685.151978
634.400024,452.864014,677.343994
626.591980,450.911987,675.392029
636.351990,452.864014,675.392029
630.495972,447.007996,675.392029
628.544006,441.152008,669.536011
620.736023,439.200012,677.343994
630.495972,437.247986,671.487976
620.736023,443.104004,671.487976
630.495972,439.200012,667.583984
622.687988,435.295990,671.487976
618.783997,435.295990,669.536011
620.736023,443.104004,671.487976
620.736023,431.391998,677.343994
616.831970,421.631989,681.247986
620.736023,423.584015,673.440002
616.831970,423.584015,663.679993
622.687988,425.536011,679.296021
618.783997,421.631989,675.392029
616.831970,417.727997,673.440002
618.783997,421.631989,675.392029
620.736023,427.488007,685.151978
612.927979,423.584015,679.296021
616.831970,427.488007,685.151978
612.927979,423.584015,692.960022
610.976013,417.727997,679.296021
612.927979,423.584015,679.296021
622.687988,417.727997,692.960022
614.880005,419.679993,694.911987
607.072021,423.584015,679.296021
607.072021,417.727997,689.056030
612.927979,419.679993,687.104004
601.216003,423.584015,691.007996
610.976013,411.872009,689.056030
607.072021,413.824005,685.151978
599.263977,419.679993,683.200012
599.263977,415.776001,692.960022
603.168030,411.872009,687.104004
595.359985,411.872009,687.104004
595.359985,407.967987,683.200012
599.263977,413.824005,679.296021
599.263977,419.679993,689.056030
597.312012,423.584015,681.247986
591.455994,423.584015,691.007996
583.648010,413.824005,694.911987
591.455994,409.920013,687.104004
591.455994,417.727997,687.104004
593.408020,415.776001,679.296021
591.455994,413.824005,687.104004
577.791992,427.488007,691.007996
583.648010,417.727997,687.104004
573.888000,417.727997,685.151978
579.744019,417.727997,681.247986
573.888000,406.015991,685.151978
577.791992,415.776001,691.007996
569.984009,411.872009,683.200012
581.695984,419.679993,681.247986
577.791992,411.872009,692.960022
568.031982,415.776001,679.296021
569.984009,423.584015,679.296021
568.031982,417.727997,685.151978
569.984009,411.872009,679.296021
571.935974,409.920013,696.864014
568.031982,413.824005,689.056030
566.080017,411.872009,681.247986
562.176025,402.112000,679.296021
571.935974,404.063995,685.151978
566.080017,411.872009,681.247986
575.840027,413.824005,677.343994
569.984009,411.872009,679.296021
575.840027,406.015991,683.200012
569.984009,419.679993,689.056030
568.031982,406.015991,679.296021
571.935974,406.015991,683.200012
573.888000,411.872009,679.296021
566.080017,406.015991,675.392029
575.840027,404.063995,689.056030
571.935974,406.015991,692.960022
579.744019,406.015991,696.864014
569.984009,404.063995,692.960022
577.791992,413.824005,696.864014
577.791992,409.920013,691.007996
577.791992,415.776001,694.911987
571.935974,404.063995,687.104004
571.935974,409.920013,696.864014
575.840027,415.776001,696.864014
575.840027,413.824005,691.007996
569.984009,417.727997,689.056030
569.984009,417.727997,689.056030
569.984009,413.824005,691.007996
579.744019,411.872009,689.056030
569.984009,415.776001,700.768005
566.080017,421.631989,696.864014
573.888000,411.872009,689.056030
569.984009,411.872009,687.104004
569.984009,411.872009,683.200012
569.984009,407.967987,691.007996
566.080017,411.872009,683.200012
566.080017,407.967987,689.056030
566.080017,407.967987,691.007996
571.935974,409.920013,696.864014
568.031982,409.920013,683.200012
571.935974,404.063995,692.960022
569.984009,409.920013,694.911987
568.031982,407.967987,694.911987
566.080017,409.920013,696.864014
579.744019,411.872009,689.056030
571.935974,406.015991,687.104004
579.744019,411.872009,687.104004
577.791992,404.063995,683.200012
571.935974,407.967987,692.960022
569.984009,394.303986,683.200012
571.935974,404.063995,681.247986
571.935974,406.015991,692.960022
575.840027,404.063995,692.960022
571.935974,394.303986,687.104004
575.840027,406.015991,687.104004
566.080017,411.872009,694.911987
575.840027,406.015991,687.104004
575.840027,404.063995,692.960022
571.935974,404.063995,687.104004
581.695984,400.160004,696.864014
581.695984,404.063995,696.864014
575.840027,390.399994,696.864014
581.695984,406.015991,696.864014
583.648010,404.063995,692.960022
579.744019,407.967987,700.768005
581.695984,406.015991,694.911987
579.744019,402.112000,698.815979
581.695984,406.015991,696.864014
587.552002,404.063995,696.864014
581.695984,406.015991,696.864014
591.455994,411.872009,694.911987
581.695984,411.872009,689.056030
581.695984,404.063995,696.864014
579.744019,402.112000,704.671997
587.552002,406.015991,696.864014
581.695984,407.967987,694.911987
573.888000,407.967987,694.911987
579.744019,409.920013,694.911987
585.599976,415.776001,704.671997
583.648010,409.920013,696.864014
579.744019,404.063995,696.864014
573.888000,415.776001,698.815979
581.695984,407.967987,694.911987
575.840027,409.920013,698.815979
581.695984,407.967987,700.768005
575.840027,409.920013,696.864014
569.984009,415.776001,691.007996
566.080017,413.824005,694.911987
569.984009,402.112000,694.911987
566.080017,407.967987,698.815979
581.695984,400.160004,698.815979
573.888000,400.160004,704.671997
573.888000,398.208008,704.671997
575.840027,398.208008,692.960022
571.935974,390.399994,696.864014
571.935974,390.399994,694.911987
569.984009,392.351990,685.151978
568.031982,396.256012,694.911987
556.320007,394.303986,696.864014
550.463989,382.592010,692.960022
554.367981,390.399994,696.864014
564.127991,392.351990,694.911987
564.127991,382.592010,687.104004
558.271973,384.544006,692.960022
560.223999,384.544006,685.151978
556.320007,388.447998,687.104004
554.367981,384.544006,700.768005
552.416016,378.687988,696.864014
550.463989,382.592010,683.200012
538.752014,376.735992,694.911987
546.559998,378.687988,692.960022
534.848022,384.544006,692.960022
540.703979,372.832001,692.960022
538.752014,372.832001,692.960022
540.703979,368.928009,691.007996
534.848022,363.071991,687.104004
538.752014,380.640015,692.960022
538.752014,368.928009,692.960022
536.799988,361.119995,689.056030
534.848022,359.167999,689.056030
530.943970,357.216003,692.960022
525.088013,359.167999,692.960022
523.135986,359.167999,679.296021
515.328003,366.976013,692.960022
519.231995,365.023987,685.151978
525.088013,359.167999,679.296021
525.088013,347.455994,683.200012
511.424011,361.119995,683.200012
507.519989,357.216003,685.151978
511.424011,363.071991,685.151978
507.519989,357.216003,691.007996
505.567993,357.216003,687.104004
507.519989,355.264008,683.200012
515.328003,343.552002,685.151978
509.471985,351.359985,687.104004
517.280029,349.407990,677.343994
507.519989,343.552002,683.200012
499.712006,349.407990,691.007996
499.712006,345.503998,683.200012
503.615997,329.888000,687.104004
499.712006,345.503998,692.960022
501.664001,347.455994,679.296021
491.903992,339.648010,689.056030
491.903992,345.503998,687.104004
489.951996,331.839996,689.056030
493.855988,327.936005,687.104004
497.760010,339.648010,683.200012
507.519989,322.079987,683.200012
507.519989,310.368011,698.815979
509.471985,312.320007,692.960022
509.471985,325.984009,696.864014
503.615997,306.463989,694.911987
491.903992,308.415985,691.007996
503.615997,318.175995,694.911987
501.664001,318.175995,692.960022
501.664001,320.127991,691.007996
488.000000,318.175995,685.151978
488.000000,318.175995,687.104004
488.000000,329.888000,685.151978
480.191986,324.032013,683.200012
493.855988,327.936005,681.247986
491.903992,320.127991,681.247986
497.760010,325.984009,692.960022
491.903992,308.415985,677.343994
495.808014,325.984009,681.247986
488.000000,318.175995,679.296021
489.951996,331.839996,679.296021
488.000000,329.888000,671.487976
489.951996,327.936005,671.487976
489.951996,325.984009,675.392029
488.000000,329.888000,677.343994
484.096008,312.320007,681.247986
480.191986,322.079987,663.679993
482.144012,327.936005,677.343994
480.191986,329.888000,681.247986
486.048004,322.079987,681.247986
491.903992,314.272003,679.296021
484.096008,322.079987,685.151978
495.808014,312.320007,691.007996
488.000000,316.223999,692.960022
493.855988,316.223999,692.960022
489.951996,316.223999,689.056030
493.855988,314.272003,694.911987
482.144012,312.320007,692.960022
493.855988,312.320007,691.007996
488.000000,312.320007,691.007996
489.951996,322.079987,696.864014
489.951996,316.223999,696.864014
486.048004,316.223999,692.960022
482.144012,318.175995,691.007996
486.048004,318.175995,689.056030
486.048004,314.272003,694.911987
489.951996,312.320007,692.960022
488.000000,316.223999,698.815979
484.096008,322.079987,696.864014
484.096008,318.175995,694.911987
484.096008,316.223999,700.768005
484.096008,322.079987,704.671997
482.144012,325.984009,700.768005
489.951996,316.223999,702.719971
489.951996,318.175995,691.007996
491.903992,318.175995,694.911987
486.048004,308.415985,694.911987
480.191986,308.415985,698.815979
480.191986,314.272003,706.624023
493.855988,310.368011,702.719971
491.903992,300.608002,710.528015
482.144012,308.415985,712.479980
493.855988,296.704010,712.479980
495.808014,290.847992,724.192017
491.903992,300.608002,724.192017
497.760010,294.752014,718.335999
491.903992,302.559998,720.288025
497.760010,296.704010,718.335999
499.712006,290.847992,718.335999
501.664001,288.895996,712.479980
493.855988,306.463989,722.239990
505.567993,306.463989,722.239990
505.567993,314.272003,704.671997
495.808014,308.415985,710.528015
501.664001,324.032013,708.575989
499.712006,318.175995,714.432007
505.567993,329.888000,710.528015
505.567993,333.791992,706.624023
501.664001,331.839996,702.719971
503.615997,353.312012,708.575989
513.375977,349.407990,712.479980
513.375977,351.359985,712.479980
503.615997,357.216003,708.575989
509.471985,363.071991,714.432007
507.519989,351.359985,702.719971
515.328003,361.119995,710.528015
511.424011,361.119995,720.288025
511.424011,361.119995,722.239990
513.375977,372.832001,724.192017
511.424011,370.880005,732.000000
517.280029,372.832001,726.143982
511.424011,366.976013,726.143982
523.135986,374.783997,735.903992
525.088013,380.640015,732.000000
527.039978,376.735992,741.760010
523.135986,370.880005,751.520020
528.992004,376.735992,741.760010
532.895996,370.880005,739.807983
532.895996,378.687988,743.711975
532.895996,376.735992,745.664001
534.848022,378.687988,741.760010
536.799988,382.592010,745.664001
534.848022,390.399994,739.807983
538.752014,380.640015,733.952026
544.607971,390.399994,728.096008
552.416016,386.496002,733.952026
552.416016,388.447998,730.047974
558.271973,380.640015,733.952026
542.656006,386.496002,733.952026
554.367981,386.496002,733.952026
554.367981,386.496002,726.143982
562.176025,386.496002,733.952026
581.695984,382.592010,741.760010
595.359985,388.447998,745.664001
597.312012,368.928009,728.096008
603.168030,363.071991,745.664001
591.455994,351.359985,763.231995
579.744019,341.600006,755.424011
575.840027,359.167999,763.231995
571.935974,361.119995,774.943970
571.935974,345.503998,771.039978
569.984009,361.119995,771.039978
569.984009,380.640015,776.895996
564.127991,376.735992,778.848022
573.888000,406.015991,774.943970
566.080017,435.295990,774.943970
569.984009,411.872009,782.752014
579.744019,427.488007,784.703979
589.504028,452.864014,776.895996
591.455994,450.911987,776.895996
587.552002,458.720001,782.752014
589.504028,472.384003,776.895996
568.031982,482.144012,776.895996
579.744019,489.951996,786.656006
575.840027,488.000000,774.943970
568.031982,484.096008,757.375977
554.367981,478.239990,761.280029
558.271973,466.528015,761.280029
560.223999,454.816010,759.328003
560.223999,445.056000,747.616028
558.271973,421.631989,741.760010
548.512024,404.063995,741.760010
556.320007,396.256012,722.239990
548.512024,380.640015,710.528015
552.416016,376.735992,702.719971
540.703979,374.783997,683.200012
548.512024,361.119995,683.200012
530.943970,357.216003,675.392029
536.799988,376.735992,667.583984
523.135986,370.880005,659.776001
523.135986,390.399994,653.919983
505.567993,386.496002,650.015991
521.184021,398.208008,646.112000
513.375977,409.920013,634.400024
517.280029,431.391998,634.400024
519.231995,425.536011,638.304016
525.088013,427.488007,622.687988
523.135986,447.007996,634.400024
515.328003,450.911987,626.591980
530.943970,439.200012,628.544006
534.848022,429.440002,648.064026
536.799988,433.343994,646.112000
536.799988,433.343994,657.823975
540.703979,425.536011,661.728027
540.703979,407.967987,673.440002
542.656006,411.872009,685.151978
534.848022,394.303986,683.200012
546.559998,394.303986,692.960022
552.416016,382.592010,700.768005
564.127991,382.592010,694.911987
556.320007,386.496002,687.104004
554.367981,386.496002,694.911987
552.416016,394.303986,698.815979
556.320007,394.303986,689.056030
544.607971,402.112000,683.200012
540.703979,413.824005,683.200012
546.559998,425.536011,679.296021
540.703979,435.295990,673.440002
532.895996,447.007996,657.823975
536.799988,458.720001,648.064026
538.752014,447.007996,648.064026
536.799988,443.104004,650.015991
534.848022,445.056000,648.064026
530.943970,437.247986,640.255981
534.848022,441.152008,653.919983
544.607971,435.295990,653.919983
538.752014,415.776001,648.064026
550.463989,419.679993,659.776001
560.223999,419.679993,661.728027
550.463989,400.160004,673.440002
554.367981,407.967987,679.296021
548.512024,402.112000,681.247986
552.416016,394.303986,687.104004
560.223999,402.112000,704.671997
550.463989,407.967987,698.815979
560.223999,415.776001,708.575989
564.127991,425.536011,704.671997
560.223999,425.536011,704.671997
564.127991,437.247986,708.575989
562.176025,441.152008,706.624023
568.031982,454.816010,716.383972
569.984009,454.816010,710.528015
577.791992,458.720001,710.528015
568.031982,450.911987,710.528015
562.176025,462.623993,708.575989
568.031982,450.911987,712.479980
566.080017,443.104004,714.432007
573.888000,454.816010,702.719971
564.127991,448.959991,704.671997
566.080017,437.247986,706.624023
562.176025,437.247986,708.575989
556.320007,437.247986,708.575989
564.127991,423.584015,698.815979
564.127991,419.679993,694.911987
568.031982,421.631989,706.624023
566.080017,415.776001,700.768005
558.271973,406.015991,702.719971
562.176025,411.872009,696.864014
560.223999,431.391998,700.768005
558.271973,415.776001,704.671997
554.367981,417.727997,694.911987
558.271973,421.631989,689.056030
558.271973,433.343994,689.056030
564.127991,433.343994,689.056030
554.367981,431.391998,692.960022
564.127991,439.200012,691.007996
556.320007,433.343994,689.056030
556.320007,437.247986,691.007996
548.512024,439.200012,694.911987
550.463989,437.247986,696.864014
560.223999,435.295990,702.719971
554.367981,437.247986,704.671997
556.320007,429.440002,698.815979
560.223999,429.440002,691.007996
550.463989,427.488007,702.719971
546.559998,423.584015,694.911987
552.416016,409.920013,702.719971
548.512024,396.256012,704.671997
542.656006,394.303986,700.768005
538.752014,400.160004,700.768005
540.703979,390.399994,691.007996
540.703979,384.544006,700.768005
544.607971,388.447998,700.768005
552.416016,380.640015,694.911987
542.656006,370.880005,694.911987
534.848022,374.783997,687.104004
540.703979,380.640015,685.151978
534.848022,380.640015,689.056030
538.752014,380.640015,683.200012
534.848022,374.783997,681.247986
527.039978,386.496002,692.960022
530.943970,392.351990,692.960022
528.992004,376.735992,683.200012
528.992004,376.735992,679.296021
532.895996,370.880005,685.151978
532.895996,370.880005,691.007996
540.703979,368.928009,694.911987
538.752014,349.407990,691.007996
523.135986,357.216003,694.911987
530.943970,343.552002,696.864014
523.135986,353.312012,694.911987
528.992004,337.696014,691.007996
521.184021,327.936005,691.007996
519.231995,343.552002,696.864014
523.135986,349.407990,694.911987
528.992004,331.839996,696.864014
527.039978,331.839996,694.911987
523.135986,347.455994,692.960022
507.519989,355.264008,689.056030
509.471985,341.600006,685.151978
497.760010,339.648010,677.343994
491.903992,357.216003,677.343994
503.615997,349.407990,667.583984
503.615997,349.407990,663.679993
505.567993,345.503998,659.776001
493.855988,355.264008,653.919983
505.567993,353.312012,655.872009
499.712006,365.023987,648.064026
499.712006,359.167999,632.447998
501.664001,363.071991,624.640015
493.855988,378.687988,612.927979
488.000000,378.687988,610.976013
480.191986,376.735992,603.168030
488.000000,384.544006,587.552002
480.191986,386.496002,585.599976
486.048004,386.496002,583.648010
474.335999,378.687988,573.888000
472.384003,384.544006,566.080017
478.239990,380.640015,566.080017
476.287994,380.640015,585.599976
480.191986,382.592010,575.840027
486.048004,372.832001,571.935974
484.096008,366.976013,562.176025
482.144012,366.976013,564.127991
480.191986,368.928009,562.176025
489.951996,363.071991,556.320007
493.855988,370.880005,540.703979
489.951996,382.592010,536.799988
489.951996,380.640015,536.799988
497.760010,382.592010,509.471985
491.903992,392.351990,511.424011
489.951996,384.544006,503.615997
505.567993,392.351990,497.760010
499.712006,398.208008,484.096008
503.615997,400.160004,486.048004
507.519989,407.967987,486.048004
515.328003,409.920013,482.144012
521.184021,413.824005,480.191986
525.088013,404.063995,484.096008
538.752014,402.112000,486.048004
550.463989,396.256012,480.191986
562.176025,392.351990,486.048004
571.935974,380.640015,489.951996
573.888000,366.976013,493.855988
581.695984,365.023987,505.567993
587.552002,351.359985,525.088013
609.023987,329.888000,530.943970
610.976013,308.415985,536.799988
624.640015,306.463989,540.703979
634.400024,283.040009,566.080017
636.351990,279.135986,569.984009
650.015991,286.944000,577.791992
655.872009,269.376007,583.648010
663.679993,273.279999,601.216003
685.151978,279.135986,597.312012
681.247986,288.895996,595.359985
689.056030,314.272003,597.312012
683.200012,331.839996,601.216003
679.296021,368.928009,601.216003
696.864014,390.399994,597.312012
704.671997,407.967987,599.263977
710.528015,441.152008,607.072021
712.479980,437.247986,603.168030
718.335999,450.911987,601.216003
730.047974,458.720001,607.072021
745.664001,466.528015,609.023987
751.520020,458.720001,622.687988
751.520020,450.911987,636.351990
761.280029,460.671997,648.064026
763.231995,454.816010,651.968018
774.943970,450.911987,661.728027
774.943970,476.287994,683.200012
771.039978,464.575989,691.007996
769.088013,452.864014,692.960022
769.088013,466.528015,698.815979
778.848022,478.239990,694.911987
784.703979,478.239990,700.768005
788.607971,470.432007,702.719971
786.656006,472.384003,694.911987
780.799988,484.096008,692.960022
786.656006,489.951996,687.104004
788.607971,488.000000,691.007996
784.703979,497.760010,687.104004
786.656006,501.664001,675.392029
776.895996,511.424011,681.247986
782.752014,515.328003,671.487976
772.992004,517.280029,669.536011
774.943970,519.231995,671.487976
774.943970,517.280029,663.679993
772.992004,517.280029,661.728027
769.088013,527.039978,665.632019
771.039978,527.039978,657.823975
771.039978,530.943970,661.728027
767.135986,521.184021,650.015991
755.424011,521.184021,642.208008
759.328003,532.895996,644.159973
753.471985,538.752014,644.159973
749.567993,523.135986,638.304016
749.567993,528.992004,640.255981
741.760010,544.607971,646.112000
730.047974,552.416016,638.304016
735.903992,558.271973,650.015991
732.000000,554.367981,644.159973
722.239990,550.463989,642.208008
714.432007,571.935974,624.640015
720.288025,564.127991,626.591980
718.335999,554.367981,634.400024
708.575989,554.367981,620.736023
694.911987,562.176025,620.736023
700.768005,550.463989,618.783997
692.960022,548.512024,609.023987
706.624023,550.463989,603.168030
694.911987,542.656006,589.504028
696.864014,519.231995,599.263977
700.768005,525.088013,599.263977
687.104004,511.424011,581.695984
704.671997,505.567993,589.504028
687.104004,493.855988,581.695984
691.007996,482.144012,583.648010
683.200012,470.432007,591.455994
683.200012,472.384003,587.552002
675.392029,456.768005,577.791992
677.343994,443.104004,581.695984
675.392029,443.104004,577.791992
661.728027,445.056000,587.552002
677.343994,431.391998,587.552002
671.487976,425.536011,577.791992
659.776001,443.104004,573.888000
677.343994,433.343994,566.080017
683.200012,435.295990,564.127991
687.104004,441.152008,556.320007
663.679993,452.864014,562.176025
671.487976,448.959991,546.559998
653.919983,445.056000,548.512024
659.776001,448.959991,538.752014
659.776001,464.575989,556.320007
659.776001,450.911987,548.512024
669.536011,433.343994,538.752014
675.392029,425.536011,546.559998
671.487976,435.295990,552.416016
673.440002,431.391998,552.416016
675.392029,415.776001,558.271973
671.487976,404.063995,560.223999
667.583984,409.920013,569.984009
667.583984,407.967987,573.888000
675.392029,394.303986,585.599976
677.343994,388.447998,583.648010
673.440002,378.687988,587.552002
679.296021,378.687988,583.648010
698.815979,374.783997,591.455994
692.960022,365.023987,587.552002
685.151978,380.640015,579.744019
689.056030,384.544006,587.552002
685.151978,376.735992,583.648010
683.200012,382.592010,569.984009
677.343994,394.303986,568.031982
685.151978,394.303986,573.888000
675.392029,392.351990,554.367981
671.487976,404.063995,552.416016
669.536011,407.967987,544.607971
671.487976,407.967987,554.367981
673.440002,402.112000,544.607971
683.200012,411.872009,530.943970
673.440002,417.727997,525.088013
685.151978,417.727997,527.039978
685.151978,406.015991,523.135986
696.864014,415.776001,513.375977
667.583984,415.776001,509.471985
663.679993,409.920013,509.471985
661.728027,413.824005,509.471985
675.392029,409.920013,497.760010
669.536011,419.679993,509.471985
679.296021,419.679993,507.519989
667.583984,407.967987,507.519989
665.632019,409.920013,513.375977
675.392029,425.536011,517.280029
659.776001,411.872009,511.424011
665.632019,392.351990,511.424011
667.583984,382.592010,503.615997
659.776001,392.351990,517.280029
659.776001,396.256012,513.375977
665.632019,390.399994,511.424011
659.776001,382.592010,513.375977
651.968018,392.351990,499.712006
655.872009,386.496002,499.712006
644.159973,382.592010,491.903992
636.351990,388.447998,495.808014
638.304016,388.447998,491.903992
646.112000,384.544006,486.048004
646.112000,396.256012,472.384003
661.728027,400.160004,478.239990
644.159973,388.447998,464.575989
663.679993,392.351990,470.432007
671.487976,388.447998,460.671997
669.536011,409.920013,452.864014
665.632019,404.063995,462.623993
667.583984,394.303986,466.528015
665.632019,406.015991,454.816010
663.679993,400.160004,456.768005
669.536011,386.496002,460.671997
669.536011,386.496002,448.959991
677.343994,392.351990,456.768005
691.007996,384.544006,458.720001
696.864014,390.399994,447.007996
698.815979,388.447998,448.959991
716.383972,374.783997,452.864014
702.719971,382.592010,450.911987
716.383972,384.544006,454.816010
733.952026,384.544006,450.911987
737.856018,378.687988,431.391998
743.711975,366.976013,441.152008
745.664001,380.640015,447.007996
737.856018,378.687988,450.911987
763.231995,366.976013,456.768005
755.424011,374.783997,458.720001
767.135986,366.976013,452.864014
769.088013,361.119995,460.671997
780.799988,349.407990,468.480011
792.512024,363.071991,474.335999
810.080017,363.071991,478.239990
804.223999,353.312012,486.048004
825.695984,353.312012,489.951996
841.312012,361.119995,495.808014
841.312012,368.928009,501.664001
851.072021,372.832001,513.375977
864.736023,359.167999,519.231995
860.831970,376.735992,519.231995
864.736023,376.735992,528.992004
870.591980,378.687988,528.992004
882.304016,370.880005,538.752014
894.015991,392.351990,540.703979
897.919983,380.640015,548.512024
905.728027,366.976013,554.367981
913.536011,380.640015,566.080017
917.440002,376.735992,573.888000
917.440002,372.832001,569.984009
927.200012,365.023987,573.888000
913.536011,363.071991,587.552002
936.960022,359.167999,587.552002
929.151978,361.119995,587.552002
935.007996,361.119995,587.552002
927.200012,361.119995,591.455994
935.007996,353.312012,587.552002
925.247986,353.312012,581.695984
942.815979,361.119995,581.695984
929.151978,359.167999,585.599976
935.007996,343.552002,579.744019
919.392029,361.119995,569.984009
931.104004,361.119995,577.791992
925.247986,345.503998,579.744019
944.768005,339.648010,569.984009
944.768005,337.696014,558.271973
954.528015,327.936005,546.559998
956.479980,337.696014,558.271973
962.335999,333.791992,554.367981
960.383972,325.984009,562.176025
940.864014,335.743988,562.176025
944.768005,339.648010,566.080017
933.056030,337.696014,581.695984
938.911987,333.791992,597.312012
935.007996,337.696014,603.168030
944.768005,345.503998,597.312012
950.624023,359.167999,610.976013
938.911987,345.503998,626.591980
942.815979,331.839996,632.447998
946.719971,353.312012,638.304016
944.768005,351.359985,630.495972
962.335999,337.696014,642.208008
948.671997,345.503998,636.351990
946.719971,347.455994,648.064026
940.864014,349.407990,640.255981
940.864014,337.696014,638.304016
927.200012,349.407990,626.591980
931.104004,345.503998,618.783997
921.343994,341.600006,605.119995
919.392029,329.888000,585.599976
903.776001,327.936005,581.695984
901.823975,322.079987,573.888000
899.872009,329.888000,562.176025
886.208008,310.368011,534.848022
888.159973,310.368011,525.088013
876.447998,304.511993,513.375977
864.736023,316.223999,505.567993
851.072021,312.320007,491.903992
841.312012,325.984009,495.808014
841.312012,341.600006,484.096008
835.455994,341.600006,482.144012
843.263977,337.696014,470.432007
829.599976,345.503998,460.671997
833.504028,337.696014,462.623993
810.080017,337.696014,452.864014
808.127991,339.648010,447.007996
800.320007,331.839996,450.911987
802.271973,322.079987,454.816010
772.992004,325.984009,454.816010
771.039978,322.079987,456.768005
747.616028,310.368011,478.239990
741.760010,302.559998,464.575989
739.807983,290.847992,482.144012
739.807983,283.040009,472.384003
730.047974,275.231995,476.287994
732.000000,273.279999,482.144012
722.239990,263.519989,486.048004
704.671997,257.664001,482.144012
696.864014,257.664001,480.191986
698.815979,245.951996,476.287994
685.151978,244.000000,482.144012
679.296021,244.000000,482.144012
679.296021,224.479996,480.191986
667.583984,224.479996,474.335999
691.007996,238.143997,482.144012
708.575989,191.296005,464.575989
665.632019,253.759995,462.623993
655.872009,294.752014,478.239990
642.208008,240.095993,478.239990
624.640015,249.856003,462.623993
634.400024,302.559998,439.200012
636.351990,263.519989,445.056000
616.831970,263.519989,450.911987
622.687988,286.944000,452.864014
603.168030,265.471985,448.959991
612.927979,249.856003,437.247986
628.544006,269.376007,443.104004
630.495972,255.712006,439.200012
607.072021,255.712006,431.391998
605.119995,283.040009,423.584015
593.408020,267.424011,417.727997
589.504028,257.664001,417.727997
585.599976,275.231995,417.727997
583.648010,283.040009,419.679993
587.552002,261.567993,415.776001
587.552002,249.856003,411.872009
585.599976,263.519989,398.208008
589.504028,245.951996,406.015991
587.552002,228.384003,411.872009
569.984009,245.951996,406.015991
569.984009,255.712006,404.063995
573.888000,240.095993,386.496002
577.791992,244.000000,394.303986
581.695984,257.664001,384.544006
581.695984,232.287994,374.783997
573.888000,238.143997,366.976013
579.744019,251.807999,368.928009
577.791992,249.856003,374.783997
595.359985,259.615997,365.023987
603.168030,269.376007,343.552002
626.591980,327.936005,327.936005
634.400024,349.407990,298.656006
704.671997,312.320007,265.471985
741.760010,335.743988,249.856003
714.432007,335.743988,257.664001
716.383972,281.088013,257.664001
689.056030,121.024002,269.376007
663.679993,48.799999,255.712006
610.976013,-9.760000,242.048004
534.848022,-343.552002,222.528000
689.056030,-331.839996,265.471985
669.536011,115.167999,273.279999
702.719971,378.687988,216.671997
759.328003,292.799988,187.391998
774.943970,78.080002,189.343994
745.664001,-44.896000,212.768005
720.288025,-25.375999,220.576004
698.815979,105.407997,214.720001
700.768005,169.824005,212.768005
733.952026,169.824005,199.104004
747.616028,156.160004,208.863998
724.192017,165.919998,203.007996
722.239990,197.151993,210.815994
739.807983,214.720001,212.768005
747.616028,234.240005,216.671997
741.760010,267.424011,222.528000
772.992004,314.272003,216.671997
794.463989,339.648010,199.104004
798.367981,349.407990,193.248001
825.695984,329.888000,189.343994
813.984009,333.791992,191.296005
804.223999,357.216003,195.199997
823.744019,365.023987,191.296005
829.599976,359.167999,193.248001
833.504028,335.743988,191.296005
825.695984,343.552002,187.391998
827.648010,351.359985,204.960007
821.791992,366.976013,203.007996
815.935974,359.167999,210.815994
860.831970,312.320007,203.007996
847.168030,337.696014,199.104004
866.687988,343.552002,181.535995
897.919983,333.791992,177.632004
901.823975,357.216003,160.063995
897.919983,386.496002,152.255997
882.304016,413.824005,142.496002
907.679993,378.687988,140.544006
962.335999,400.160004,105.407997
911.583984,429.440002,56.608002
960.383972,433.343994,33.183998
983.807983,468.480011,27.327999
960.383972,474.335999,9.760000
962.335999,488.000000,-13.664000
1009.184021,474.335999,-39.040001
1007.231995,507.519989,-78.080002
997.471985,480.191986,-95.648003
903.776001,-19.520000,-103.456001
1093.119995,-183.488007,-54.655998
956.479980,443.104004,64.416000
1026.751953,862.783997,140.544006
1098.975952,638.304016,165.919998
1155.583984,152.255997,167.871994
1227.807983,167.871994,189.343994
1233.663940,607.072021,224.479996
1235.615967,878.400024,275.231995
1253.183960,622.687988,290.847992
1268.800049,318.175995,337.696014
1270.751953,505.567993,386.496002
1227.807983,683.200012,394.303986
1249.280029,790.559998,398.208008
1255.135986,821.791992,400.160004
1262.943970,612.927979,419.679993
1290.271973,511.424011,437.247986
1342.975952,691.007996,480.191986
1339.072021,794.463989,517.280029
1323.456055,646.112000,528.992004
1307.839966,525.088013,546.559998
1321.504028,636.351990,558.271973
1370.303955,753.471985,569.984009
1397.631958,706.624023,583.648010
1387.871948,612.927979,626.591980
1372.255981,630.495972,655.872009
1360.543945,591.455994,689.056030
1366.400024,534.848022,710.528015
1383.968018,546.559998,741.760010
1382.015991,603.168030,769.088013
1360.543945,616.831970,792.512024
1352.735962,595.359985,800.320007
1323.456055,605.119995,810.080017
1317.599976,603.168030,812.031982
1337.119995,566.080017,841.312012
1307.839966,511.424011,876.447998
1296.128052,474.335999,884.255981
1301.984009,394.303986,892.064026
1319.552002,306.463989,909.632019
1317.599976,263.519989,923.296021
1262.943970,392.351990,931.104004
1278.560059,534.848022,931.104004
1278.560059,404.063995,940.864014
1288.319946,201.056000,938.911987
1307.839966,175.679993,931.104004
1305.887939,238.143997,931.104004
1282.463989,275.231995,923.296021
1272.703979,288.895996,913.536011
1278.560059,255.712006,905.728027
1280.511963,214.720001,899.872009
1266.848022,210.815994,866.687988
1257.088013,261.567993,862.783997
1245.375977,320.127991,853.023987
1249.280029,310.368011,835.455994
1214.144043,292.799988,819.840027
1220.000000,327.936005,806.176025
1204.384033,370.880005,796.416016
1212.192017,366.976013,788.607971
1196.576050,368.928009,784.703979
1192.671997,384.544006,778.848022
1184.864014,394.303986,739.807983
1171.199951,376.735992,716.383972
1177.056030,359.167999,687.104004
1161.439941,361.119995,669.536011
1139.968018,368.928009,636.351990
1122.400024,363.071991,603.168030
1098.975952,333.791992,562.176025
1091.167969,347.455994,538.752014
1077.504028,370.880005,511.424011
1057.984009,363.071991,488.000000
1034.560059,347.455994,470.432007
1028.703979,349.407990,439.200012
1009.184021,359.167999,407.967987
997.471985,365.023987,374.783997
981.856018,353.312012,345.503998
962.335999,355.264008,324.032013
954.528015,359.167999,310.368011
936.960022,365.023987,290.847992
935.007996,359.167999,269.376007
931.104004,357.216003,255.712006
917.440002,351.359985,232.287994
903.776001,347.455994,206.912003
905.728027,343.552002,183.488007
894.015991,349.407990,158.112000
882.304016,355.264008,140.544006
868.640015,355.264008,128.832001
849.119995,359.167999,101.503998
839.359985,365.023987,85.888000
831.552002,366.976013,66.367996
806.176025,337.696014,50.751999
790.559998,312.320007,62.464001
796.416016,355.264008,72.223999
772.992004,359.167999,91.744003
755.424011,288.895996,105.407997
741.760010,271.328003,109.311996
761.280029,283.040009,126.879997
780.799988,218.623993,119.071999
792.512024,165.919998,121.024002
800.320007,150.304001,115.167999
802.271973,156.160004,117.120003
813.984009,163.968002,113.216003
804.223999,154.207993,97.599998
790.559998,156.160004,91.744003
790.559998,177.632004,62.464001
774.943970,193.248001,33.183998
765.184021,216.671997,-11.712000
751.520020,240.095993,-29.280001
755.424011,253.759995,-62.464001
732.000000,308.415985,-105.407997
732.000000,357.216003,-130.783997
726.143982,376.735992,-158.112000
722.239990,390.399994,-177.632004
724.192017,427.488007,-199.104004
726.143982,441.152008,-212.768005
724.192017,458.720001,-232.287994
720.288025,470.432007,-251.807999
710.528015,499.712006,-277.183990
728.096008,505.567993,-292.799988
702.719971,495.808014,-310.368011
691.007996,482.144012,-329.888000
692.960022,472.384003,-345.503998
681.247986,437.247986,-359.167999
683.200012,415.776001,-361.119995
667.583984,402.112000,-353.312012
685.151978,353.312012,-368.928009
687.104004,318.175995,-374.783997
696.864014,275.231995,-374.783997
716.383972,283.040009,-361.119995
700.768005,275.231995,-355.264008
687.104004,242.048004,-345.503998
667.583984,238.143997,-345.503998
679.296021,275.231995,-324.032013
667.583984,288.895996,-312.320007
689.056030,304.511993,-294.752014
675.392029,322.079987,-286.944000
687.104004,333.791992,-284.992004
704.671997,353.312012,-288.895996
730.047974,384.544006,-261.567993
732.000000,421.631989,-253.759995
755.424011,452.864014,-249.856003
759.328003,441.152008,-226.432007
747.616028,433.343994,-183.488007
741.760010,546.559998,-142.496002
708.575989,646.112000,-103.456001
691.007996,605.119995,-89.792000
689.056030,558.271973,-85.888000
661.728027,583.648010,-83.935997
683.200012,614.880005,-70.272003
679.296021,577.791992,-78.080002
702.719971,478.239990,-99.552002
737.856018,433.343994,-146.399994
757.375977,382.592010,-165.919998
577.791992,497.760010,27.327999
632.447998,456.768005,538.752014
628.544006,-232.287994,394.303986
716.383972,-232.287994,-117.120003
972.096008,199.104004,-466.528015
901.823975,226.432007,-521.184021
866.687988,201.056000,-318.175995
769.088013,244.000000,3.904000
655.872009,-42.944000,91.744003
753.471985,-27.327999,-111.264000
884.255981,450.911987,-306.463989
843.263977,448.959991,-312.320007
825.695984,103.456001,-167.871994
388.447998,232.287994,191.296005
851.072021,745.664001,435.295990
474.335999,433.343994,903.776001
685.151978,-3.904000,1046.271973
1013.088013,447.007996,895.968018
1633.823975,1182.911987,671.487976
1549.887939,1462.047974,677.343994
1079.456055,1024.800049,796.416016
1565.504028,1016.992004,685.151978
1220.000000,1424.959961,735.903992
1456.192017,1614.303955,640.255981
1264.895996,1544.031982,685.151978
1514.751953,1436.671997,620.736023
1132.160034,1626.015991,692.960022
1339.072021,1795.839966,636.351990
1341.024048,1858.303955,616.831970
1342.975952,1922.719971,577.791992
1198.527954,1875.871948,560.223999
1001.375977,-257.664001,519.231995
1270.751953,-4360.768066,583.648010
1399.583984,-5153.279785,609.023987
1220.000000,-2658.624023,558.271973
1147.776001,493.855988,515.328003
1098.975952,1592.832031,573.888000
1262.943970,1901.248047,589.504028
1210.239990,1946.144043,642.208008
1282.463989,1561.599976,691.007996
1346.880005,1145.823975,745.664001
1286.368042,263.519989,778.848022
1378.112061,-1112.640015,755.424011
1432.767944,-1944.192017,687.104004
1385.920044,-1522.560059,607.072021
1319.552002,-261.567993,497.760010
1239.520020,735.903992,417.727997
1196.576050,1026.751953,382.592010
1196.576050,856.927979,341.600006
1169.248047,382.592010,318.175995
1225.855957,-247.904007,325.984009
1206.336060,-384.544006,394.303986
1190.719971,-185.440002,447.007996
1112.640015,60.512001,472.384003
1118.495972,230.335999,470.432007
1159.488037,296.704010,489.951996
1200.479980,230.335999,497.760010
1198.527954,87.839996,503.615997
1243.423950,-181.535995,527.039978
1225.855957,-257.664001,550.463989
1220.000000,72.223999,579.744019
1212.192017,538.752014,569.984009
1196.576050,798.367981,540.703979
1208.287964,899.872009,493.855988
1204.384033,987.711975,433.343994
1202.432007,1050.176025,370.880005
1184.864014,1110.687988,312.320007
1153.631958,1151.680054,255.712006
1087.264038,1013.088013,206.912003
1073.599976,419.679993,124.928001
1114.592041,-275.231995,39.040001
1097.024048,-587.552002,-3.904000
1054.079956,-419.679993,-29.280001
1007.231995,15.616000,-68.320000
970.143982,415.776001,-101.503998
948.671997,540.703979,-115.167999
995.520020,376.735992,-121.024002
1020.895996,89.792000,-115.167999
1013.088013,-56.608002,-109.311996
1016.992004,-9.760000,-99.552002
1048.223999,203.007996,-109.311996
1040.416016,499.712006,-136.639999
1069.696045,897.919983,-148.352005
1071.647949,1233.663940,-115.167999
1038.463989,1165.343994,-54.655998
1044.319946,640.255981,-23.424000
1093.119995,-9.760000,-1.952000
1108.735962,-390.399994,-3.904000
1102.880005,-308.415985,-21.472000
1087.264038,11.712000,-7.808000
1057.984009,279.135986,29.280001
1015.039978,363.071991,87.839996
1020.895996,351.359985,167.871994
1044.319946,402.112000,222.528000
1089.215942,556.320007,255.712006
1118.495972,755.424011,257.664001
1116.543945,895.968018,236.192001
1139.968018,925.247986,175.679993
1147.776001,821.791992,122.975998
1151.680054,597.312012,68.320000
1128.255981,312.320007,3.904000
1097.024048,115.167999,-46.848000
1085.312012,87.839996,-101.503998
1069.696045,171.776001,-142.496002
1044.319946,339.648010,-163.968002
999.424011,491.903992,-173.727997
977.952026,663.679993,-136.639999
972.096008,759.328003,-132.735992
954.528015,692.960022,-144.447998
954.528015,486.048004,-160.063995
952.575989,232.287994,-136.639999
952.575989,-81.984001,-101.503998
974.047974,-306.463989,-111.264000
1007.231995,-242.048004,-119.071999
1059.936035,76.127998,-107.360001
1106.784058,458.720001,-81.984001
1126.303955,696.864014,-42.944000
1138.015991,610.976013,-15.616000
1163.391968,242.048004,9.760000
1155.583984,-132.735992,39.040001
1159.488037,-220.576004,42.944000
1145.823975,-95.648003,56.608002
1141.920044,122.975998,58.560001
1128.255981,304.511993,80.031998
1188.767944,181.535995,253.759995
1352.735962,-503.615997,726.143982
1696.287964,-1747.040039,1698.239990
2106.208008,-2941.664062,2777.696045
2180.384033,-3269.600098,3335.968018
1989.088013,-2521.983887,2945.568115
2018.368042,-899.872009,1873.920044
1852.447998,5.856000,1106.784058
1805.599976,-181.535995,817.888000
1522.560059,-290.847992,573.888000
1307.839966,-72.223999,210.815994
1165.343994,368.928009,-230.335999
1059.936035,903.776001,-675.392029
858.880005,1354.687988,-925.247986
747.616028,1620.160034,-1007.231995
714.432007,1713.855957,-899.872009
710.528015,1807.552002,-651.968018
813.984009,1667.008057,-314.272003
933.056030,1329.312012,44.896000
1050.176025,825.695984,341.600006
1141.920044,341.600006,519.231995
1241.472046,-11.712000,581.695984
1280.511963,-193.248001,554.367981
1257.088013,-206.912003,460.671997
1198.527954,-89.792000,300.608002
1141.920044,68.320000,93.695999
1095.072021,300.608002,-99.552002
1034.560059,542.656006,-257.664001
1001.375977,737.856018,-357.216003
952.575989,864.736023,-384.544006
933.056030,874.495972,-335.743988
944.768005,767.135986,-244.000000
960.383972,603.168030,-119.071999
987.711975,427.488007,-17.568001
1005.280029,214.720001,74.176003
1009.184021,48.799999,132.735992
995.520020,-83.935997,154.207993
979.903992,-154.207993,146.399994
970.143982,-154.207993,109.311996
950.624023,-85.888000,19.520000
931.104004,40.992001,-64.416000
923.296021,162.016006,-162.016006
923.296021,263.519989,-204.960007
915.487976,298.656006,-203.007996
913.536011,310.368011,-160.063995
936.960022,312.320007,-99.552002
958.432007,314.272003,-50.751999
960.383972,261.567993,11.712000
977.952026,232.287994,58.560001
1011.135986,189.343994,66.367996
1016.992004,117.120003,91.744003
1026.751953,64.416000,107.360001
1048.223999,56.608002,105.407997
1042.368042,83.935997,89.792000
1065.791992,148.352005,62.464001
1042.368042,204.960007,42.944000
1032.608032,251.807999,29.280001
1011.135986,269.376007,23.424000
1020.895996,284.992004,7.808000
1016.992004,267.424011,9.760000
1001.375977,230.335999,7.808000
995.520020,218.623993,7.808000
995.520020,195.199997,-11.712000
995.520020,214.720001,-17.568001
993.567993,189.343994,-25.375999
987.711975,134.688004,-7.808000
979.903992,93.695999,-7.808000
985.760010,93.695999,-17.568001
979.903992,81.984001,-25.375999
979.903992,89.792000,-13.664000
964.288025,113.216003,-13.664000
995.520020,111.264000,-15.616000
1009.184021,93.695999,1.952000
1001.375977,91.744003,9.760000
995.520020,95.648003,23.424000
1003.328003,103.456001,33.183998
1022.848022,115.167999,29.280001
1020.895996,136.639999,29.280001
1015.039978,150.304001,9.760000
1007.231995,134.688004,-3.904000
1007.231995,126.879997,15.616000
1022.848022,132.735992,46.848000
1018.943970,144.447998,80.031998
1013.088013,160.063995,99.552002
1042.368042,160.063995,117.120003
1048.223999,136.639999,134.688004
1067.744019,136.639999,163.968002
1061.887939,158.112000,169.824005
1048.223999,195.199997,150.304001
1048.223999,216.671997,124.928001
1040.416016,230.335999,107.360001
1042.368042,201.056000,85.888000
1042.368042,122.975998,66.367996
1048.223999,134.688004,60.512001
1048.223999,218.623993,56.608002
1054.079956,253.759995,33.183998
1030.656006,240.095993,7.808000
1016.992004,208.863998,15.616000
1022.848022,204.960007,17.568001
1032.608032,191.296005,33.183998
1016.992004,185.440002,52.703999
1018.943970,201.056000,31.232000
1007.231995,226.432007,15.616000
997.471985,242.048004,-7.808000
999.424011,242.048004,-17.568001
999.424011,234.240005,-35.136002
993.567993,236.192001,-58.560001
1011.135986,216.671997,-64.416000
1011.135986,218.623993,-70.272003
1005.280029,201.056000,-58.560001
1007.231995,208.863998,-56.608002
999.424011,210.815994,-46.848000
1001.375977,206.912003,-35.136002
997.471985,206.912003,-39.040001
1007.231995,206.912003,-60.512001
995.520020,199.104004,-78.080002
1009.184021,185.440002,-87.839996
1032.608032,165.919998,-70.272003
1030.656006,158.112000,-64.416000
1024.800049,181.535995,-89.792000
1020.895996,201.056000,-117.120003
1020.895996,183.488007,-132.735992
1028.703979,148.352005,-101.503998
1032.608032,142.496002,-66.367996
1032.608032,140.544006,-58.560001
1034.560059,136.639999,-64.416000
1026.751953,121.024002,-64.416000
1034.560059,121.024002,-89.792000
1044.319946,113.216003,-68.320000
1036.511963,121.024002,-83.935997
1034.560059,158.112000,-111.264000
1032.608032,160.063995,-132.735992
1036.511963,165.919998,-121.024002
1030.656006,154.207993,-113.216003
1040.416016,122.975998,-97.599998
1030.656006,134.688004,-93.695999
1038.463989,189.343994,-122.975998
1032.608032,220.576004,-167.871994
1018.943970,208.863998,-204.960007
1020.895996,167.871994,-214.720001
999.424011,140.544006,-218.623993
1005.280029,156.160004,-197.151993
1036.511963,165.919998,-177.632004
1052.128052,187.391998,-154.207993
1054.079956,165.919998,-142.496002
1052.128052,119.071999,-99.552002
1056.031982,70.272003,-68.320000
1052.128052,83.935997,-93.695999
1040.416016,105.407997,-119.071999
1026.751953,115.167999,-148.352005
1036.511963,156.160004,-177.632004
1028.703979,165.919998,-197.151993
1040.416016,162.016006,-224.479996
1032.608032,111.264000,-167.871994
1052.128052,37.088001,-107.360001
1056.031982,-27.327999,-40.992001
1056.031982,21.472000,-27.327999
1034.560059,113.216003,-72.223999
1036.511963,173.727997,-103.456001
1028.703979,179.584000,-146.399994
1016.992004,167.871994,-163.968002
1026.751953,144.447998,-189.343994
1028.703979,68.320000,-163.968002
1028.703979,9.760000,-121.024002
1036.511963,-13.664000,-48.799999
1026.751953,-17.568001,21.472000
1034.560059,5.856000,37.088001
1024.800049,19.520000,31.232000
1016.992004,56.608002,-13.664000
1013.088013,93.695999,-64.416000
1016.992004,113.216003,-70.272003
1020.895996,173.727997,-103.456001
1009.184021,220.576004,-150.304001
999.424011,228.384003,-158.112000
999.424011,222.528000,-150.304001
1015.039978,165.919998,-101.503998
1024.800049,80.031998,-19.520000
1040.416016,27.327999,70.272003
1054.079956,3.904000,124.928001
1044.319946,81.984001,70.272003
1036.511963,177.632004,-19.520000
1032.608032,226.432007,-111.264000
1028.703979,173.727997,-72.223999
1028.703979,257.664001,-40.992001
1040.416016,343.552002,7.808000
1063.839966,363.071991,136.639999
1104.832031,370.880005,234.240005
1116.543945,396.256012,288.895996
1130.208008,398.208008,245.951996
1108.735962,343.552002,218.623993
1098.975952,253.759995,148.352005
1061.887939,136.639999,105.407997
1042.368042,68.320000,29.280001
1026.751953,39.040001,-46.848000
1005.280029,46.848000,-111.264000
972.096008,72.223999,-113.216003
960.383972,121.024002,-99.552002
977.952026,154.207993,-60.512001
1005.280029,179.584000,-23.424000
1001.375977,204.960007,-39.040001
997.471985,169.824005,-46.848000
1003.328003,122.975998,-52.703999
1007.231995,60.512001,-21.472000
1016.992004,62.464001,-11.712000
1011.135986,46.848000,1.952000
1009.184021,58.560001,29.280001
1007.231995,115.167999,-9.760000
991.616028,144.447998,-33.183998
1005.280029,140.544006,-42.944000
997.471985,158.112000,-48.799999
991.616028,111.264000,-31.232000
995.520020,87.839996,-29.280001
991.616028,74.176003,-25.375999
995.520020,66.367996,-40.992001
976.000000,68.320000,-60.512001
983.807983,70.272003,-83.935997
979.903992,72.223999,-101.503998
977.952026,62.464001,-130.783997
964.288025,44.896000,-152.255997
952.575989,15.616000,-121.024002
968.192017,58.560001,-103.456001
981.856018,111.264000,-117.120003
987.711975,121.024002,-128.832001
979.903992,103.456001,-115.167999
995.520020,81.984001,-80.031998
1003.328003,85.888000,-66.367996
1011.135986,105.407997,-91.744003
1011.135986,140.544006,-156.160004
979.903992,142.496002,-210.815994
966.239990,130.783997,-249.856003
960.383972,107.360001,-218.623993
981.856018,107.360001,-191.296005
987.711975,142.496002,-203.007996
991.616028,165.919998,-216.671997
983.807983,152.255997,-201.056000
995.520020,109.311996,-115.167999
1036.511963,136.639999,-56.608002
1052.128052,175.679993,-99.552002
1026.751953,179.584000,-142.496002
1013.088013,142.496002,-156.160004
1018.943970,132.735992,-128.832001
1036.511963,140.544006,-126.879997
1022.848022,173.727997,-138.591995
1011.135986,206.912003,-212.768005
983.807983,203.007996,-267.424011
979.903992,160.063995,-238.143997
1016.992004,138.591995,-197.151993
1034.560059,152.255997,-158.112000
1038.463989,158.112000,-119.071999
1056.031982,179.584000,-119.071999
1052.128052,210.815994,-134.688004
1030.656006,245.951996,-177.632004
1024.800049,212.768005,-187.391998
1016.992004,169.824005,-167.871994
1036.511963,150.304001,-132.735992
1056.031982,156.160004,-115.167999
1054.079956,146.399994,-119.071999
1052.128052,154.207993,-132.735992
1046.271973,154.207993,-136.639999
1044.319946,140.544006,-109.311996
1048.223999,189.343994,-167.871994
1028.703979,181.535995,-224.479996
987.711975,158.112000,-259.615997
995.520020,165.919998,-253.759995
1009.184021,173.727997,-220.576004
1030.656006,165.919998,-158.112000
1038.463989,173.727997,-107.360001
1042.368042,216.671997,-107.360001
1036.511963,222.528000,-144.447998
1013.088013,245.951996,-183.488007
997.471985,199.104004,-195.199997
1005.280029,173.727997,-189.343994
1015.039978,183.488007,-201.056000
1018.943970,197.151993,-226.432007
1016.992004,163.968002,-245.951996
995.520020,158.112000,-214.720001
1013.088013,187.391998,-201.056000
1034.560059,177.632004,-173.727997
1042.368042,197.151993,-160.063995
1050.176025,306.463989,-197.151993
1030.656006,306.463989,-197.151993
1032.608032,253.759995,-173.727997
1059.936035,247.904007,-185.440002
1056.031982,144.447998,-220.576004
1038.463989,156.160004,-249.856003
1036.511963,136.639999,-286.944000
1026.751953,115.167999,-240.095993
1065.791992,175.679993,-195.199997
1085.312012,177.632004,-167.871994
1075.552002,144.447998,-185.440002
1071.647949,160.063995,-245.951996
1069.696045,150.304001,-218.623993
1075.552002,181.535995,-230.335999
1085.312012,150.304001,-236.192001
1097.024048,97.599998,-187.391998
1116.543945,146.399994,-191.296005
1114.592041,154.207993,-242.048004
1102.880005,142.496002,-236.192001
1106.784058,167.871994,-218.623993
1128.255981,177.632004,-189.343994
1138.015991,187.391998,-204.960007
1126.303955,122.975998,-201.056000
1118.495972,156.160004,-218.623993
1100.927979,156.160004,-261.567993
1102.880005,158.112000,-253.759995
1102.880005,113.216003,-265.471985
1112.640015,101.503998,-249.856003
1128.255981,163.968002,-267.424011
1134.112061,201.056000,-251.807999
1139.968018,228.384003,-244.000000
1130.208008,183.488007,-218.623993
1141.920044,162.016006,-226.432007
1132.160034,95.648003,-218.623993
1147.776001,109.311996,-179.584000
1157.536011,136.639999,-185.440002
1149.728027,148.352005,-195.199997
1163.391968,122.975998,-160.063995
1159.488037,156.160004,-163.968002
1153.631958,142.496002,-179.584000
1145.823975,128.832001,-197.151993
1139.968018,154.207993,-203.007996
1132.160034,212.768005,-232.287994
1124.352051,193.248001,-236.192001
1120.447998,158.112000,-222.528000
1143.871948,140.544006,-189.343994
1149.728027,154.207993,-197.151993
1143.871948,138.591995,-197.151993
1141.920044,136.639999,-228.384003
1128.255981,113.216003,-234.240005
1126.303955,128.832001,-199.104004
1138.015991,165.919998,-185.440002
1128.255981,154.207993,-206.912003
1124.352051,144.447998,-244.000000
1114.592041,150.304001,-220.576004
1118.495972,181.535995,-193.248001
1132.160034,162.016006,-158.112000
1126.303955,130.783997,-165.919998
1122.400024,132.735992,-175.679993
1102.880005,175.679993,-230.335999
1077.504028,165.919998,-245.951996
1073.599976,165.919998,-247.904007
1069.696045,126.879997,-257.664001
1075.552002,126.879997,-255.712006
1073.599976,142.496002,-249.856003
1085.312012,160.063995,-208.863998
1089.215942,195.199997,-208.863998
1077.504028,167.871994,-228.384003
1067.744019,140.544006,-265.471985
1048.223999,136.639999,-304.511993
1046.271973,113.216003,-271.328003
1071.647949,163.968002,-232.287994
1069.696045,156.160004,-222.528000
1077.504028,158.112000,-230.335999
1063.839966,158.112000,-247.904007
1057.984009,165.919998,-263.519989
1042.368042,154.207993,-265.471985
1042.368042,146.399994,-281.088013
1030.656006,119.071999,-292.799988
1026.751953,105.407997,-288.895996
1034.560059,154.207993,-284.992004
1036.511963,171.776001,-255.712006
1040.416016,167.871994,-245.951996
1030.656006,158.112000,-232.287994
1042.368042,179.584000,-224.479996
1052.128052,154.207993,-228.384003
1054.079956,158.112000,-206.912003
1061.887939,163.968002,-240.095993
1048.223999,150.304001,-263.519989
1022.848022,156.160004,-259.615997
1020.895996,158.112000,-247.904007
1013.088013,183.488007,-273.279999
1001.375977,162.016006,-337.696014
985.760010,144.447998,-384.544006
981.856018,150.304001,-333.791992
1013.088013,189.343994,-224.479996
1038.463989,214.720001,-173.727997
1050.176025,169.824005,-191.296005
1054.079956,152.255997,-214.720001
1040.416016,201.056000,-255.712006
1015.039978,208.863998,-290.847992
995.520020,162.016006,-312.320007
993.567993,142.496002,-298.656006
1001.375977,136.639999,-284.992004
1015.039978,189.343994,-234.240005
1011.135986,226.432007,-238.143997
1001.375977,177.632004,-277.183990
979.903992,175.679993,-325.984009
960.383972,148.352005,-357.216003
977.952026,185.440002,-370.880005
968.192017,195.199997,-392.351990
962.335999,183.488007,-380.640015
948.671997,208.863998,-345.503998
960.383972,244.000000,-345.503998
968.192017,206.912003,-327.936005
966.239990,187.391998,-357.216003
952.575989,83.935997,-343.552002
974.047974,89.792000,-269.376007
972.096008,162.016006,-232.287994
977.952026,212.768005,-208.863998
954.528015,247.904007,-281.088013
923.296021,269.376007,-368.928009
888.159973,259.615997,-439.200012
868.640015,210.815994,-415.776001
882.304016,163.968002,-374.783997
909.632019,156.160004,-316.223999
919.392029,169.824005,-345.503998
907.679993,132.735992,-386.496002
890.112000,124.928001,-390.399994
886.208008,193.248001,-355.264008
888.159973,259.615997,-294.752014
901.823975,273.279999,-271.328003
905.728027,234.240005,-279.135986
899.872009,189.343994,-314.272003
884.255981,191.296005,-372.832001
868.640015,148.352005,-409.920013
864.736023,185.440002,-433.343994
853.023987,228.384003,-450.911987
847.168030,267.424011,-448.959991
835.455994,283.040009,-456.768005
839.359985,247.904007,-464.575989
849.119995,177.632004,-413.824005
868.640015,119.071999,-329.888000
895.968018,140.544006,-292.799988
892.064026,187.391998,-286.944000
886.208008,222.528000,-292.799988
884.255981,240.095993,-327.936005
862.783997,220.576004,-394.303986
853.023987,214.720001,-472.384003
835.455994,138.591995,-462.623993
856.927979,89.792000,-396.256012
868.640015,72.223999,-333.791992
872.544006,115.167999,-304.511993
870.591980,109.311996,-314.272003
866.687988,87.839996,-341.600006
872.544006,42.944000,-335.743988
872.544006,107.360001,-368.928009
880.351990,140.544006,-366.976013
884.255981,117.120003,-318.175995
911.583984,154.207993,-300.608002
925.247986,187.391998,-269.376007
938.911987,232.287994,-253.759995
956.479980,165.919998,-244.000000
954.528015,83.935997,-288.895996
966.239990,0.000000,-327.936005
940.864014,-21.472000,-366.976013
927.200012,83.935997,-409.920013
892.064026,193.248001,-482.144012
868.640015,238.143997,-497.760010
880.351990,242.048004,-480.191986
872.544006,224.479996,-484.096008
895.968018,101.503998,-474.335999
897.919983,-7.808000,-505.567993
899.872009,-89.792000,-540.703979
876.447998,-40.992001,-616.831970
874.495972,-9.760000,-700.768005
849.119995,29.280001,-796.416016
819.840027,13.664000,-841.312012
772.992004,-83.935997,-831.552002
771.039978,-99.552002,-780.799988
792.512024,11.712000,-716.383972
819.840027,150.304001,-683.200012
843.263977,220.576004,-663.679993
810.080017,238.143997,-671.487976
769.088013,101.503998,-702.719971
728.096008,-144.447998,-735.903992
696.864014,-304.511993,-733.952026
644.159973,-538.752014,-687.104004
651.968018,-765.184021,-577.791992
712.479980,-616.831970,-493.855988
786.656006,-257.664001,-452.864014
923.296021,76.127998,-343.552002
1007.231995,776.895996,-203.007996
1073.599976,851.072021,-74.176003
1048.223999,320.127991,-39.040001
1063.839966,204.960007,-81.984001
1022.848022,-128.832001,-117.120003
997.471985,-224.479996,-263.519989
985.760010,-271.328003,-329.888000
923.296021,-167.871994,-505.567993
856.927979,-37.088001,-669.536011
804.223999,25.375999,-831.552002
788.607971,0.000000,-884.255981
749.567993,-263.519989,-823.744019
733.952026,-513.375977,-696.864014
712.479980,-409.920013,-544.607971
720.288025,72.223999,-456.768005
702.719971,696.864014,-370.880005
788.607971,1223.904053,-322.079987
829.599976,1501.088013,-361.119995
774.943970,1380.063965,-478.239990
681.247986,794.463989,-468.480011
667.583984,-80.031998,-316.223999
712.479980,-722.239990,-214.720001
812.031982,-1151.680054,-122.975998
942.815979,-1341.024048,-52.703999
1098.975952,-1339.072021,3.904000
1225.855957,-1356.640015,208.863998
1284.416016,-962.335999,183.488007
1255.135986,-380.640015,-35.136002
1223.904053,134.688004,-204.960007
1198.527954,650.015991,-259.615997
1173.151978,702.719971,-173.727997
1069.696045,618.783997,-113.216003
991.616028,425.536011,-107.360001
917.440002,48.799999,9.760000
915.487976,-101.503998,126.879997
938.911987,-40.992001,156.160004
972.096008,48.799999,158.112000
1040.416016,40.992001,93.695999
1046.271973,-33.183998,-105.407997
993.567993,91.744003,-466.528015
905.728027,286.944000,-782.752014
835.455994,566.080017,-1007.231995
737.856018,829.599976,-1167.296021
618.783997,929.151978,-1260.991943
513.375977,1026.751953,-1339.072021
419.679993,1151.680054,-1432.767944
353.312012,1132.160034,-1469.855957
302.559998,944.768005,-1399.583984
242.048004,573.888000,-1296.128052
208.863998,365.023987,-1331.264038
152.255997,300.608002,-1464.000000
191.296005,29.280001,-1391.776001
204.960007,-216.671997,-1335.167969
265.471985,-689.056030,-1089.215942
365.023987,-1044.319946,-862.783997
470.432007,-1165.343994,-772.992004
612.927979,-1309.791992,-573.888000
786.656006,-1167.296021,-308.415985
1011.135986,-292.799988,-327.936005
1112.640015,374.783997,-242.048004
1046.271973,817.888000,-277.183990
895.968018,1186.816040,-527.039978
755.424011,1192.671997,-808.127991
595.359985,993.567993,-1030.656006
484.096008,751.520020,-1182.911987
376.735992,622.687988,-1274.656006
400.160004,409.920013,-1165.343994
470.432007,324.032013,-1061.887939
669.536011,78.080002,-774.943970
804.223999,173.727997,-720.288025
835.455994,177.632004,-786.656006
794.463989,257.664001,-966.239990
708.575989,316.223999,-1108.735962
651.968018,409.920013,-1305.887939
573.888000,478.239990,-1442.527954
484.096008,929.151978,-1489.375977
341.600006,1626.015991,-1393.728027
191.296005,2135.488037,-1360.543945
29.280001,1983.232056,-1286.368042
-142.496002,1805.599976,-1280.511963
85.888000,1657.248047,-1255.135986
306.463989,1245.375977,-1292.223999
376.735992,636.351990,-1450.336060
396.256012,603.168030,-1657.248047
452.864014,603.168030,-1856.352051
111.264000,-993.567993,-1723.615967
255.712006,-3378.912109,-1665.056030
507.519989,-3382.815918,-1676.767944
591.455994,-2818.687988,-1719.712036
491.903992,-2287.743896,-1696.287964
236.192001,-1532.319946,-1694.336060
544.607971,-568.031982,-1694.336060
283.040009,1196.576050,-1138.015991
302.559998,1536.223999,-1015.039978
372.832001,1171.199951,-1116.543945
599.263977,782.752014,-1239.520020
515.328003,-183.488007,-1227.807983
486.048004,-769.088013,-1218.047974
427.488007,331.839996,-901.823975
450.911987,847.168030,-689.056030
242.048004,581.695984,-486.048004
189.343994,230.335999,-452.864014
335.743988,-15.616000,-544.607971
288.895996,-733.952026,-747.616028
361.119995,-1489.375977,-938.911987
646.112000,-1438.624023,-1059.936035
780.799988,-1403.488037,-1054.079956
761.280029,-1473.760010,-974.047974
771.039978,-2000.800049,-1005.280029
712.479980,-1827.072021,-1009.184021
632.447998,-1600.640015,-1007.231995
568.031982,-1395.680054,-1038.463989
505.567993,-704.671997,-1073.599976
692.960022,-191.296005,-1106.784058
860.831970,37.088001,-970.143982
1011.135986,-212.768005,-841.312012
1036.511963,-650.015991,-726.143982
1003.328003,-650.015991,-632.447998
909.632019,-511.424011,-583.648010
841.312012,-568.031982,-599.263977
704.671997,-421.631989,-616.831970
907.679993,-48.799999,-687.104004
1126.303955,-316.223999,-626.591980
1276.608032,-632.447998,-614.880005
1278.560059,-677.343994,-601.216003
1227.807983,-493.855988,-560.223999
1118.495972,-443.104004,-521.184021
1095.072021,-208.863998,-427.488007
1188.767944,-300.608002,-261.567993
1301.984009,-571.935974,-85.888000
1368.352051,-187.391998,46.848000
1356.640015,296.704010,39.040001
1462.047974,62.464001,-261.567993
1577.215942,1026.751953,-536.799988
1565.504028,1961.760010,-470.432007
1460.095947,1633.823975,-17.568001
1417.151978,1510.848022,333.791992
1387.871948,1313.696045,538.752014
1475.712036,1179.008057,538.752014
1524.511963,1791.936035,238.143997
1663.104004,2121.823975,-251.807999
2033.984009,1469.855957,-484.096008
2153.055908,1708.000000,-78.080002
2051.552002,1260.991943,661.728027
2125.728027,1598.687988,956.479980
1998.848022,1598.687988,1145.823975
1774.368042,1383.968018,1282.463989
1729.472046,1337.119995,1257.088013
1729.472046,1036.511963,991.616028
1981.280029,1284.416016,402.112000
2250.656006,872.544006,-91.744003
2123.775879,314.272003,208.863998
1758.751953,70.272003,794.463989
1624.063965,-281.088013,749.567993
1588.927979,-234.240005,460.671997
1877.823975,-249.856003,64.416000
2311.167969,-212.768005,-97.599998
2453.664062,-122.975998,286.944000
2317.023926,-279.135986,790.559998
2254.560059,-659.776001,845.216003
2137.439941,-974.047974,827.648010
2080.832031,-1003.328003,806.176025
2110.112061,-991.616028,726.143982
2074.976074,-1030.656006,581.695984
1989.088013,-1044.319946,472.384003
1870.015991,-972.096008,550.463989
1772.416016,-946.719971,689.056030
1799.744019,-979.903992,650.015991
1821.215942,-1065.791992,583.648010
1793.887939,-1085.312012,513.375977
1721.663940,-1120.447998,443.104004
1624.063965,-1056.031982,345.503998
1514.751953,-1022.848022,253.759995
1423.008057,-970.143982,156.160004
1288.319946,-796.416016,44.896000
1157.536011,-505.567993,-107.360001
1022.848022,-199.104004,-267.424011
905.728027,1.952000,-421.631989
813.984009,288.895996,-540.703979
735.903992,509.471985,-651.968018
694.911987,626.591980,-757.375977
679.296021,616.831970,-819.840027
669.536011,546.559998,-821.791992
687.104004,454.816010,-798.367981
712.479980,324.032013,-763.231995
733.952026,167.871994,-724.192017
745.664001,7.808000,-661.728027
730.047974,-134.688004,-585.599976
733.952026,-265.471985,-536.799988
741.760010,-374.783997,-525.088013
737.856018,-396.256012,-544.607971
720.288025,-411.872009,-573.888000
696.864014,-394.303986,-566.080017
685.151978,-370.880005,-587.552002
681.247986,-302.559998,-638.304016
665.632019,-150.304001,-663.679993
646.112000,-58.560001,-681.247986
634.400024,37.088001,-677.343994
632.447998,107.360001,-667.583984
636.351990,189.343994,-653.919983
651.968018,230.335999,-653.919983
683.200012,247.904007,-628.544006
692.960022,208.863998,-605.119995
704.671997,169.824005,-568.031982
708.575989,93.695999,-560.223999
724.192017,17.568001,-544.607971
718.335999,-72.223999,-532.895996
700.768005,-136.639999,-548.512024
692.960022,-201.056000,-548.512024
673.440002,-232.287994,-558.271973
661.728027,-249.856003,-571.935974
644.159973,-257.664001,-597.312012
634.400024,-261.567993,-622.687988
620.736023,-206.912003,-632.447998
614.880005,-128.832001,-628.544006
624.640015,-87.839996,-634.400024
618.783997,-40.992001,-632.447998
607.072021,17.568001,-610.976013
630.495972,44.896000,-607.072021
632.447998,62.464001,-577.791992
630.495972,48.799999,-569.984009
636.351990,39.040001,-558.271973
622.687988,40.992001,-552.416016
612.927979,-11.712000,-568.031982
605.119995,-52.703999,-579.744019
595.359985,-81.984001,-599.263977
581.695984,-99.552002,-614.880005
577.791992,-126.879997,-628.544006
562.176025,-124.928001,-651.968018
546.559998,-138.591995,-655.872009
534.848022,-128.832001,-659.776001
550.463989,-111.264000,-653.919983
554.367981,-95.648003,-650.015991
558.271973,-66.367996,-644.159973
554.367981,-40.992001,-630.495972
552.416016,-21.472000,-607.072021
546.559998,-19.520000,-591.455994
542.656006,11.712000,-591.455994
540.703979,-3.904000,-593.408020
527.039978,13.664000,-605.119995
521.184021,1.952000,-628.544006
511.424011,-5.856000,-646.112000
489.951996,-23.424000,-650.015991
486.048004,-23.424000,-675.392029
474.335999,-37.088001,-698.815979
476.287994,-29.280001,-702.719971
474.335999,-37.088001,-716.383972
474.335999,-19.520000,-720.288025
542.656006,-1.952000,-733.952026
425.536011,21.472000,-749.567993
419.679993,167.871994,-763.231995
376.735992,-48.799999,-782.752014
478.239990,101.503998,-819.840027
517.280029,83.935997,-835.455994
493.855988,341.600006,-851.072021
624.640015,-39.040001,-874.495972
634.400024,89.792000,-761.280029
618.783997,27.327999,-607.072021
577.791992,191.296005,-569.984009
716.383972,-1.952000,-603.168030
728.096008,-66.367996,-550.463989
636.351990,3.904000,-478.239990
591.455994,19.520000,-538.752014
618.783997,35.136002,-671.487976
612.927979,-21.472000,-749.567993
507.519989,68.320000,-743.711975
450.911987,58.560001,-782.752014
441.152008,162.016006,-860.831970
478.239990,80.031998,-888.159973
480.191986,115.167999,-837.408020
470.432007,74.176003,-780.799988
532.895996,134.688004,-759.328003
589.504028,85.888000,-755.424011
642.208008,115.167999,-710.528015
651.968018,91.744003,-651.968018
669.536011,171.776001,-657.823975
700.768005,222.528000,-691.007996
698.815979,310.368011,-708.575989
689.056030,329.888000,-718.335999
698.815979,269.376007,-733.952026
714.432007,351.359985,-761.280029
691.007996,390.399994,-790.559998
683.200012,351.359985,-792.512024
704.671997,195.199997,-784.703979
712.479980,169.824005,-763.231995
704.671997,206.912003,-755.424011
710.528015,171.776001,-780.799988
722.239990,25.375999,-780.799988
720.288025,25.375999,-753.471985
691.007996,95.648003,-749.567993
679.296021,173.727997,-780.799988
712.479980,130.783997,-819.840027
696.864014,140.544006,-813.984009
700.768005,201.056000,-794.463989
718.335999,310.368011,-806.176025
732.000000,257.664001,-829.599976
722.239990,249.856003,-796.416016
675.392029,203.007996,-739.807983
679.296021,314.272003,-753.471985
796.416016,249.856003,-856.927979
845.216003,302.559998,-925.247986
804.223999,325.984009,-851.072021
745.664001,275.231995,-733.952026
819.840027,80.031998,-714.432007
845.216003,156.160004,-710.528015
815.935974,288.895996,-726.143982
753.471985,203.007996,-730.047974
712.479980,105.407997,-728.096008
691.007996,162.016006,-767.135986
728.096008,230.335999,-849.119995
786.656006,132.735992,-905.728027
769.088013,115.167999,-878.400024
726.143982,134.688004,-853.023987
716.383972,240.095993,-853.023987
730.047974,310.368011,-864.736023
741.760010,333.791992,-843.263977
751.520020,281.088013,-813.984009
774.943970,370.880005,-804.223999
769.088013,384.544006,-794.463989
778.848022,353.312012,-782.752014
765.184021,281.088013,-757.375977
788.607971,275.231995,-743.711975
825.695984,226.432007,-776.895996
847.168030,171.776001,-772.992004
812.031982,138.591995,-737.856018
796.416016,140.544006,-741.760010
780.799988,152.255997,-786.656006
792.512024,199.104004,-817.888000
771.039978,183.488007,-821.791992
751.520020,242.048004,-821.791992
755.424011,230.335999,-810.080017
741.760010,298.656006,-790.559998
761.280029,269.376007,-782.752014
794.463989,302.559998,-778.848022
792.512024,275.231995,-751.520020
806.176025,263.519989,-730.047974
804.223999,269.376007,-726.143982
813.984009,242.048004,-720.288025
825.695984,242.048004,-724.192017
808.127991,236.192001,-732.000000
798.367981,236.192001,-737.856018
759.328003,230.335999,-735.903992
761.280029,185.440002,-757.375977
763.231995,208.863998,-755.424011
747.616028,181.535995,-761.280029
757.375977,169.824005,-769.088013
753.471985,156.160004,-763.231995
757.375977,173.727997,-757.375977
763.231995,212.768005,-749.567993
771.039978,187.391998,-730.047974
765.184021,232.287994,-720.288025
767.135986,247.904007,-704.671997
792.512024,259.615997,-700.768005
802.271973,255.712006,-691.007996
804.223999,247.904007,-669.536011
813.984009,242.048004,-681.247986
817.888000,228.384003,-663.679993
815.935974,220.576004,-659.776001
817.888000,183.488007,-665.632019
825.695984,177.632004,-667.583984
790.559998,199.104004,-655.872009
790.559998,160.063995,-663.679993
780.799988,175.679993,-665.632019
772.992004,183.488007,-677.343994
772.992004,212.768005,-683.200012
747.616028,224.479996,-675.392029
767.135986,204.960007,-667.583984
749.567993,220.576004,-655.872009
761.280029,214.720001,-659.776001
765.184021,175.679993,-634.400024
772.992004,181.535995,-599.263977
767.135986,111.264000,-589.504028
765.184021,132.735992,-595.359985
772.992004,74.176003,-599.263977
772.992004,109.311996,-607.072021
772.992004,83.935997,-609.023987
761.280029,115.167999,-620.736023
759.328003,134.688004,-640.255981
759.328003,173.727997,-644.159973
747.616028,187.391998,-634.400024
737.856018,199.104004,-624.640015
741.760010,204.960007,-618.783997
739.807983,220.576004,-622.687988
718.335999,183.488007,-620.736023
714.432007,160.063995,-618.783997
730.047974,126.879997,-628.544006
728.096008,99.552002,-634.400024
710.528015,72.223999,-634.400024
700.768005,42.944000,-642.208008
704.671997,27.327999,-650.015991
692.960022,31.232000,-669.536011
691.007996,60.512001,-663.679993
677.343994,66.367996,-671.487976
681.247986,80.031998,-673.440002
663.679993,105.407997,-677.343994
673.440002,122.975998,-677.343994
667.583984,130.783997,-679.296021
669.536011,134.688004,-671.487976
671.487976,132.735992,-669.536011
663.679993,134.688004,-665.632019
673.440002,115.167999,-673.440002
669.536011,101.503998,-661.728027
698.815979,72.223999,-653.919983
663.679993,111.264000,-669.536011
669.536011,64.416000,-669.536011
653.919983,66.367996,-659.776001
630.495972,19.520000,-640.255981
622.687988,39.040001,-626.591980
661.728027,-11.712000,-646.112000
691.007996,-7.808000,-679.296021
706.624023,7.808000,-681.247986
673.440002,52.703999,-663.679993
657.823975,76.127998,-663.679993
655.872009,140.544006,-659.776001
651.968018,177.632004,-661.728027
650.015991,195.199997,-646.112000
665.632019,183.488007,-644.159973
667.583984,167.871994,-646.112000
685.151978,122.975998,-622.687988
683.200012,70.272003,-601.216003
692.960022,39.040001,-603.168030
706.624023,-11.712000,-620.736023
706.624023,-13.664000,-612.927979
700.768005,-21.472000,-610.976013
694.911987,1.952000,-612.927979
692.960022,9.760000,-610.976013
675.392029,54.655998,-626.591980
667.583984,87.839996,-626.591980
661.728027,107.360001,-634.400024
661.728027,134.688004,-648.064026
661.728027,144.447998,-646.112000
663.679993,142.496002,-659.776001
659.776001,113.216003,-650.015991
659.776001,95.648003,-640.255981
661.728027,76.127998,-663.679993
673.440002,44.896000,-669.536011
667.583984,21.472000,-681.247986
655.872009,7.808000,-681.247986
655.872009,-9.760000,-675.392029
661.728027,-13.664000,-683.200012
651.968018,7.808000,-669.536011
657.823975,15.616000,-677.343994
648.064026,19.520000,-681.247986
655.872009,40.992001,-681.247986
655.872009,56.608002,-677.343994
653.919983,66.367996,-687.104004
655.872009,74.176003,-681.247986
663.679993,80.031998,-689.056030
665.632019,83.935997,-677.343994
671.487976,81.984001,-681.247986
663.679993,58.560001,-675.392029
667.583984,56.608002,-675.392029
669.536011,44.896000,-671.487976
677.343994,44.896000,-669.536011
681.247986,19.520000,-665.632019
677.343994,21.472000,-671.487976
689.056030,17.568001,-667.583984
675.392029,17.568001,-653.919983
677.343994,7.808000,-661.728027
681.247986,15.616000,-655.872009
696.864014,31.232000,-650.015991
691.007996,37.088001,-655.872009
691.007996,54.655998,-644.159973
691.007996,60.512001,-653.919983
692.960022,64.416000,-648.064026
689.056030,76.127998,-653.919983
700.768005,76.127998,-653.919983
700.768005,72.223999,-640.255981
706.624023,62.464001,-642.208008
706.624023,54.655998,-644.159973
706.624023,44.896000,-630.495972
710.528015,40.992001,-638.304016
706.624023,37.088001,-646.112000
706.624023,29.280001,-648.064026
710.528015,23.424000,-663.679993
706.624023,27.327999,-669.536011
704.671997,35.136002,-673.440002
704.671997,48.799999,-685.151978
696.864014,44.896000,-677.343994
708.575989,48.799999,-671.487976
706.624023,48.799999,-663.679993
710.528015,64.416000,-655.872009
724.192017,66.367996,-648.064026
728.096008,66.367996,-638.304016
732.000000,68.320000,-626.591980
741.760010,58.560001,-620.736023
741.760010,56.608002,-614.880005
745.664001,58.560001,-614.880005
743.711975,62.464001,-612.927979
741.760010,58.560001,-620.736023
753.471985,48.799999,-616.831970
747.616028,56.608002,-612.927979
747.616028,48.799999,-618.783997
