ACC_X,ACC_Y,ACC_Z
609.023987,468.480011,632.447998
610.976013,468.480011,628.544006
612.927979,468.480011,634.400024
624.640015,468.480011,628.544006
616.831970,460.671997,628.544006
612.927979,466.528015,636.351990
605.119995,460.671997,630.495972
610.976013,464.575989,632.447998
610.976013,460.671997,630.495972
618.783997,466.528015,628.544006
616.831970,456.768005,630.495972
609.023987,462.623993,626.591980
618.783997,452.864014,630.495972
614.880005,462.623993,630.495972
618.783997,456.768005,628.544006
612.927979,456.768005,634.400024
616.831970,462.623993,632.447998
614.880005,458.720001,634.400024
612.927979,462.623993,632.447998
618.783997,454.816010,640.255981
609.023987,462.623993,650.015991
607.072021,452.864014,638.304016
612.927979,460.671997,640.255981
618.783997,462.623993,638.304016
626.591980,464.575989,648.064026
616.831970,448.959991,642.208008
616.831970,448.959991,636.351990
618.783997,452.864014,642.208008
624.640015,456.768005,638.304016
620.736023,454.816010,636.351990
618.783997,454.816010,636.351990
616.831970,445.056000,646.112000
609.023987,452.864014,646.112000
612.927979,445.056000,636.351990
618.783997,450.911987,640.255981
612.927979,450.911987,650.015991
616.831970,445.056000,636.351990
614.880005,447.007996,644.159973
620.736023,439.200012,646.112000
616.831970,448.959991,636.351990
614.880005,445.056000,640.255981
610.976013,441.152008,646.112000
605.119995,445.056000,650.015991
601.216003,439.200012,638.304016
599.263977,441.152008,636.351990
603.168030,450.911987,638.304016
603.168030,441.152008,634.400024
607.072021,441.152008,640.255981
609.023987,441.152008,636.351990
597.312012,443.104004,650.015991
593.408020,443.104004,640.255981
597.312012,441.152008,638.304016
593.408020,437.247986,646.112000
601.216003,439.200012,644.159973
609.023987,452.864014,640.255981
601.216003,443.104004,648.064026
601.216003,441.152008,642.208008
601.216003,443.104004,648.064026
597.312012,443.104004,650.015991
593.408020,445.056000,653.919983
597.312012,441.152008,638.304016
597.312012,445.056000,638.304016
595.359985,445.056000,642.208008
595.359985,448.959991,642.208008
589.504028,445.056000,638.304016
589.504028,445.056000,642.208008
595.359985,454.816010,632.447998
589.504028,462.623993,638.304016
597.312012,445.056000,646.112000
603.168030,445.056000,636.351990
597.312012,452.864014,636.351990
599.263977,448.959991,628.544006
593.408020,450.911987,642.208008
597.312012,452.864014,640.255981
595.359985,454.816010,644.159973
595.359985,454.816010,644.159973
599.263977,456.768005,638.304016
597.312012,450.911987,636.351990
585.599976,454.816010,636.351990
593.408020,456.768005,646.112000
595.359985,458.720001,640.255981
589.504028,452.864014,638.304016
599.263977,462.623993,638.304016
589.504028,456.768005,638.304016
591.455994,462.623993,638.304016
593.408020,458.720001,636.351990
589.504028,456.768005,634.400024
585.599976,466.528015,646.112000
585.599976,468.480011,638.304016
587.552002,462.623993,640.255981
599.263977,460.671997,638.304016
591.455994,462.623993,646.112000
593.408020,462.623993,638.304016
591.455994,462.623993,634.400024
587.552002,468.480011,636.351990
591.455994,466.528015,634.400024
591.455994,476.287994,630.495972
585.599976,474.335999,636.351990
589.504028,472.384003,644.159973
591.455994,468.480011,638.304016
585.599976,472.384003,624.640015
591.455994,480.191986,630.495972
595.359985,476.287994,630.495972
595.359985,468.480011,630.495972
593.408020,470.432007,642.208008
591.455994,476.287994,636.351990
593.408020,478.239990,630.495972
595.359985,484.096008,634.400024
599.263977,491.903992,642.208008
595.359985,474.335999,638.304016
589.504028,484.096008,642.208008
593.408020,489.951996,636.351990
595.359985,484.096008,632.447998
599.263977,497.760010,634.400024
603.168030,478.239990,638.304016
601.216003,493.855988,630.495972
609.023987,484.096008,634.400024
607.072021,484.096008,634.400024
599.263977,491.903992,636.351990
603.168030,488.000000,628.544006
605.119995,478.239990,632.447998
609.023987,478.239990,636.351990
609.023987,480.191986,626.591980
618.783997,476.287994,624.640015
620.736023,470.432007,626.591980
624.640015,472.384003,624.640015
620.736023,488.000000,638.304016
620.736023,476.287994,644.159973
634.400024,456.768005,644.159973
624.640015,478.239990,655.872009
620.736023,486.048004,665.632019
624.640015,484.096008,648.064026
622.687988,482.144012,644.159973
628.544006,482.144012,638.304016
626.591980,497.760010,620.736023
624.640015,482.144012,618.783997
626.591980,497.760010,616.831970
636.351990,505.567993,614.880005
636.351990,488.000000,616.831970
642.208008,507.519989,616.831970
630.495972,491.903992,632.447998
642.208008,517.280029,626.591980
634.400024,503.615997,628.544006
638.304016,513.375977,626.591980
634.400024,501.664001,614.880005
642.208008,488.000000,603.168030
634.400024,503.615997,607.072021
622.687988,486.048004,595.359985
626.591980,501.664001,595.359985
634.400024,497.760010,587.552002
632.447998,505.567993,589.504028
636.351990,499.712006,589.504028
630.495972,501.664001,599.263977
634.400024,501.664001,607.072021
642.208008,501.664001,601.216003
640.255981,515.328003,603.168030
648.064026,511.424011,601.216003
648.064026,509.471985,601.216003
646.112000,511.424011,605.119995
636.351990,501.664001,593.408020
642.208008,505.567993,589.504028
644.159973,513.375977,587.552002
638.304016,503.615997,585.599976
644.159973,503.615997,585.599976
646.112000,503.615997,577.791992
646.112000,507.519989,581.695984
651.968018,499.712006,583.648010
651.968018,507.519989,579.744019
650.015991,503.615997,587.552002
644.159973,511.424011,587.552002
642.208008,509.471985,591.455994
644.159973,515.328003,583.648010
646.112000,509.471985,577.791992
646.112000,511.424011,581.695984
644.159973,507.519989,571.935974
640.255981,507.519989,575.840027
636.351990,509.471985,581.695984
636.351990,511.424011,583.648010
646.112000,517.280029,581.695984
642.208008,521.184021,579.744019
634.400024,509.471985,581.695984
642.208008,515.328003,581.695984
644.159973,503.615997,587.552002
638.304016,503.615997,581.695984
630.495972,507.519989,585.599976
632.447998,503.615997,569.984009
634.400024,505.567993,575.840027
626.591980,507.519989,569.984009
628.544006,503.615997,571.935974
624.640015,509.471985,568.031982
632.447998,513.375977,564.127991
624.640015,499.712006,571.935974
634.400024,507.519989,566.080017
618.783997,511.424011,581.695984
634.400024,519.231995,569.984009
634.400024,503.615997,577.791992
626.591980,513.375977,581.695984
624.640015,519.231995,583.648010
620.736023,509.471985,583.648010
622.687988,509.471985,585.599976
620.736023,499.712006,575.840027
616.831970,507.519989,579.744019
614.880005,505.567993,568.031982
616.831970,501.664001,583.648010
609.023987,503.615997,575.840027
616.831970,505.567993,579.744019
610.976013,495.808014,571.935974
607.072021,511.424011,579.744019
609.023987,503.615997,583.648010
616.831970,507.519989,579.744019
616.831970,495.808014,583.648010
612.927979,503.615997,587.552002
620.736023,521.184021,585.599976
624.640015,505.567993,595.359985
624.640015,515.328003,599.263977
620.736023,505.567993,605.119995
620.736023,517.280029,601.216003
616.831970,511.424011,605.119995
614.880005,517.280029,605.119995
616.831970,517.280029,599.263977
622.687988,513.375977,601.216003
622.687988,519.231995,597.312012
616.831970,501.664001,595.359985
620.736023,511.424011,599.263977
610.976013,503.615997,599.263977
618.783997,509.471985,601.216003
616.831970,505.567993,610.976013
618.783997,503.615997,612.927979
616.831970,505.567993,612.927979
620.736023,495.808014,616.831970
614.880005,497.760010,620.736023
614.880005,505.567993,609.023987
618.783997,491.903992,622.687988
620.736023,491.903992,605.119995
626.591980,486.048004,630.495972
634.400024,491.903992,624.640015
626.591980,495.808014,622.687988
626.591980,497.760010,620.736023
626.591980,501.664001,626.591980
632.447998,495.808014,634.400024
634.400024,489.951996,642.208008
624.640015,499.712006,634.400024
632.447998,495.808014,632.447998
624.640015,491.903992,640.255981
630.495972,495.808014,640.255981
638.304016,489.951996,632.447998
632.447998,493.855988,638.304016
632.447998,486.048004,636.351990
628.544006,482.144012,636.351990
626.591980,484.096008,650.015991
646.112000,486.048004,650.015991
648.064026,472.384003,648.064026
644.159973,482.144012,651.968018
644.159973,480.191986,651.968018
646.112000,474.335999,663.679993
648.064026,489.951996,648.064026
651.968018,493.855988,648.064026
650.015991,486.048004,665.632019
644.159973,484.096008,655.872009
644.159973,482.144012,655.872009
646.112000,480.191986,665.632019
644.159973,474.335999,650.015991
636.351990,468.480011,644.159973
642.208008,478.239990,642.208008
634.400024,472.384003,640.255981
648.064026,482.144012,644.159973
650.015991,482.144012,650.015991
648.064026,470.432007,648.064026
644.159973,470.432007,651.968018
646.112000,470.432007,657.823975
640.255981,468.480011,653.919983
640.255981,470.432007,657.823975
636.351990,474.335999,655.872009
642.208008,468.480011,651.968018
640.255981,468.480011,653.919983
646.112000,468.480011,644.159973
642.208008,472.384003,644.159973
638.304016,470.432007,642.208008
646.112000,468.480011,650.015991
632.447998,460.671997,644.159973
630.495972,474.335999,657.823975
636.351990,468.480011,653.919983
634.400024,468.480011,651.968018
632.447998,460.671997,640.255981
638.304016,472.384003,646.112000
636.351990,460.671997,650.015991
640.255981,454.816010,648.064026
646.112000,447.007996,651.968018
636.351990,454.816010,657.823975
632.447998,448.959991,651.968018
638.304016,454.816010,661.728027
642.208008,450.911987,648.064026
644.159973,452.864014,653.919983
640.255981,452.864014,636.351990
632.447998,445.056000,648.064026
644.159973,447.007996,650.015991
638.304016,448.959991,644.159973
640.255981,450.911987,646.112000
642.208008,450.911987,653.919983
646.112000,448.959991,663.679993
650.015991,447.007996,655.872009
653.919983,450.911987,650.015991
653.919983,441.152008,651.968018
653.919983,441.152008,651.968018
648.064026,439.200012,653.919983
659.776001,433.343994,650.015991
648.064026,433.343994,640.255981
657.823975,437.247986,650.015991
646.112000,427.488007,636.351990
650.015991,429.440002,644.159973
646.112000,439.200012,651.968018
657.823975,429.440002,648.064026
661.728027,427.488007,644.159973
657.823975,433.343994,655.872009
651.968018,429.440002,651.968018
651.968018,427.488007,646.112000
651.968018,425.536011,646.112000
657.823975,425.536011,655.872009
653.919983,425.536011,659.776001
648.064026,423.584015,663.679993
655.872009,431.391998,665.632019
651.968018,431.391998,648.064026
648.064026,421.631989,648.064026
651.968018,413.824005,653.919983
655.872009,417.727997,651.968018
651.968018,409.920013,657.823975
663.679993,413.824005,653.919983
655.872009,411.872009,648.064026
651.968018,411.872009,663.679993
655.872009,406.015991,665.632019
663.679993,402.112000,663.679993
663.679993,407.967987,669.536011
659.776001,411.872009,667.583984
661.728027,404.063995,667.583984
665.632019,407.967987,669.536011
659.776001,411.872009,663.679993
661.728027,402.112000,669.536011
661.728027,411.872009,679.296021
665.632019,415.776001,671.487976
661.728027,398.208008,659.776001
663.679993,407.967987,661.728027
667.583984,394.303986,651.968018
665.632019,392.351990,642.208008
661.728027,398.208008,651.968018
653.919983,398.208008,646.112000
661.728027,394.303986,648.064026
655.872009,404.063995,646.112000
661.728027,402.112000,632.447998
655.872009,394.303986,638.304016
651.968018,411.872009,642.208008
648.064026,413.824005,642.208008
648.064026,409.920013,644.159973
640.255981,398.208008,636.351990
642.208008,407.967987,642.208008
650.015991,400.160004,642.208008
648.064026,404.063995,648.064026
644.159973,406.015991,646.112000
642.208008,402.112000,632.447998
651.968018,394.303986,634.400024
648.064026,400.160004,634.400024
651.968018,409.920013,630.495972
648.064026,396.256012,636.351990
632.447998,404.063995,650.015991
644.159973,407.967987,651.968018
644.159973,394.303986,665.632019
651.968018,394.303986,663.679993
650.015991,406.015991,673.440002
653.919983,413.824005,675.392029
657.823975,402.112000,691.007996
659.776001,394.303986,692.960022
657.823975,396.256012,689.056030
646.112000,390.399994,679.296021
650.015991,392.351990,665.632019
644.159973,388.447998,653.919983
634.400024,394.303986,648.064026
628.544006,392.351990,642.208008
628.544006,390.399994,634.400024
620.736023,388.447998,632.447998
618.783997,417.727997,630.495972
622.687988,398.208008,632.447998
612.927979,374.783997,632.447998
612.927979,390.399994,624.640015
620.736023,353.312012,640.255981
601.216003,404.063995,650.015991
603.168030,443.104004,659.776001
607.072021,398.208008,661.728027
609.023987,390.399994,657.823975
614.880005,407.967987,648.064026
612.927979,382.592010,651.968018
603.168030,400.160004,642.208008
610.976013,384.544006,648.064026
605.119995,359.167999,638.304016
609.023987,372.832001,634.400024
607.072021,386.496002,634.400024
599.263977,365.023987,632.447998
603.168030,353.312012,634.400024
599.263977,361.119995,628.544006
595.359985,363.071991,632.447998
597.312012,363.071991,630.495972
603.168030,359.167999,634.400024
603.168030,365.023987,634.400024
597.312012,376.735992,646.112000
601.216003,378.687988,642.208008
607.072021,372.832001,650.015991
607.072021,390.399994,657.823975
610.976013,380.640015,653.919983
612.927979,388.447998,661.728027
612.927979,394.303986,663.679993
626.591980,384.544006,663.679993
632.447998,374.783997,679.296021
653.919983,384.544006,679.296021
669.536011,374.783997,689.056030
671.487976,407.967987,702.719971
681.247986,390.399994,730.047974
679.296021,368.928009,747.616028
679.296021,388.447998,763.231995
685.151978,384.544006,780.799988
687.104004,376.735992,790.559998
689.056030,392.351990,800.320007
685.151978,386.496002,800.320007
692.960022,392.351990,813.984009
708.575989,407.967987,808.127991
706.624023,411.872009,813.984009
710.528015,400.160004,825.695984
712.479980,413.824005,833.504028
720.288025,417.727997,831.552002
726.143982,402.112000,823.744019
716.383972,411.872009,831.552002
712.479980,402.112000,827.648010
698.815979,411.872009,835.455994
691.007996,409.920013,821.791992
694.911987,400.160004,823.744019
692.960022,398.208008,806.176025
692.960022,411.872009,813.984009
694.911987,400.160004,800.320007
691.007996,390.399994,802.271973
689.056030,396.256012,796.416016
692.960022,390.399994,798.367981
691.007996,404.063995,810.080017
696.864014,419.679993,815.935974
702.719971,411.872009,815.935974
720.288025,415.776001,825.695984
716.383972,421.631989,812.031982
712.479980,425.536011,821.791992
704.671997,441.152008,810.080017
702.719971,439.200012,790.559998
696.864014,429.440002,786.656006
692.960022,409.920013,778.848022
696.864014,398.208008,767.135986
689.056030,419.679993,767.135986
698.815979,431.391998,761.280029
696.864014,421.631989,765.184021
706.624023,433.343994,763.231995
710.528015,439.200012,753.471985
698.815979,425.536011,769.088013
712.479980,433.343994,765.184021
718.335999,458.720001,780.799988
735.903992,478.239990,780.799988
743.711975,486.048004,796.416016
741.760010,472.384003,815.935974
745.664001,486.048004,829.599976
737.856018,478.239990,831.552002
724.192017,441.152008,833.504028
724.192017,411.872009,833.504028
730.047974,409.920013,825.695984
724.192017,384.544006,806.176025
755.424011,400.160004,800.320007
765.184021,423.584015,810.080017
720.288025,419.679993,829.599976
651.968018,423.584015,849.119995
653.919983,409.920013,853.023987
689.056030,394.303986,825.695984
683.200012,390.399994,813.984009
638.304016,365.023987,800.320007
630.495972,357.216003,767.135986
665.632019,382.592010,741.760010
667.583984,376.735992,704.671997
679.296021,341.600006,675.392029
689.056030,366.976013,646.112000
651.968018,458.720001,646.112000
642.208008,497.760010,638.304016
644.159973,480.191986,655.872009
659.776001,532.895996,671.487976
659.776001,560.223999,683.200012
673.440002,546.559998,696.864014
696.864014,521.184021,718.335999
685.151978,560.223999,755.424011
716.383972,560.223999,761.280029
733.952026,540.703979,780.799988
741.760010,523.135986,792.512024
741.760010,521.184021,810.080017
767.135986,497.760010,815.935974
751.520020,456.768005,825.695984
739.807983,445.056000,821.791992
741.760010,443.104004,819.840027
741.760010,411.872009,812.031982
745.664001,378.687988,796.416016
749.567993,355.264008,794.463989
739.807983,335.743988,786.656006
782.752014,322.079987,780.799988
853.023987,292.799988,786.656006
931.104004,144.447998,788.607971
800.320007,-15.616000,813.984009
-191.296005,417.727997,882.304016
-294.752014,1102.880005,823.744019
1317.599976,1126.303955,566.080017
632.447998,491.903992,610.976013
732.000000,138.591995,568.031982
798.367981,339.648010,575.840027
568.031982,638.304016,603.168030
564.127991,628.544006,612.927979
677.343994,447.007996,595.359985
683.200012,378.687988,612.927979
687.104004,361.119995,626.591980
653.919983,400.160004,642.208008
614.880005,404.063995,651.968018
585.599976,452.864014,667.583984
610.976013,488.000000,677.343994
650.015991,509.471985,689.056030
667.583984,454.816010,692.960022
673.440002,423.584015,708.575989
646.112000,368.928009,716.383972
634.400024,406.015991,733.952026
618.783997,456.768005,743.711975
642.208008,470.432007,741.760010
689.056030,452.864014,745.664001
700.768005,439.200012,753.471985
685.151978,413.824005,769.088013
669.536011,345.503998,778.848022
597.312012,257.664001,782.752014
439.200012,122.975998,792.512024
384.544006,158.112000,792.512024
523.135986,363.071991,772.992004
763.231995,447.007996,735.903992
856.927979,365.023987,712.479980
741.760010,218.623993,722.239990
673.440002,179.584000,706.624023
706.624023,183.488007,687.104004
413.824005,50.751999,671.487976
-224.479996,400.160004,692.960022
-115.167999,946.719971,679.296021
240.095993,1218.047974,632.447998
804.223999,1138.015991,501.664001
1020.895996,388.447998,495.808014
482.144012,257.664001,550.463989
396.256012,433.343994,560.223999
651.968018,548.512024,523.135986
669.536011,491.903992,536.799988
489.951996,390.399994,564.127991
448.959991,407.967987,552.416016
536.799988,450.911987,538.752014
534.848022,447.007996,544.607971
503.615997,392.351990,538.752014
472.384003,339.648010,544.607971
464.575989,324.032013,538.752014
456.768005,316.223999,528.992004
452.864014,314.272003,523.135986
439.200012,310.368011,527.039978
447.007996,298.656006,513.375977
419.679993,308.415985,515.328003
415.776001,376.735992,521.184021
384.544006,433.343994,507.519989
382.592010,476.287994,503.615997
423.584015,495.808014,495.808014
433.343994,478.239990,489.951996
376.735992,458.720001,480.191986
318.175995,456.768005,486.048004
329.888000,488.000000,466.528015
413.824005,513.375977,458.720001
376.735992,525.088013,450.911987
302.559998,530.943970,447.007996
286.944000,581.695984,437.247986
329.888000,644.159973,435.295990
337.696014,737.856018,429.440002
324.032013,821.791992,421.631989
283.040009,868.640015,421.631989
236.192001,874.495972,415.776001
255.712006,884.255981,413.824005
396.256012,812.031982,386.496002
478.239990,753.471985,376.735992
370.880005,735.903992,380.640015
341.600006,745.664001,402.112000
390.399994,753.471985,407.967987
417.727997,726.143982,411.872009
368.928009,718.335999,423.584015
406.015991,681.247986,435.295990
425.536011,655.872009,441.152008
417.727997,651.968018,458.720001
429.440002,610.976013,460.671997
361.119995,609.023987,468.480011
335.743988,585.599976,470.432007
359.167999,566.080017,476.287994
353.312012,546.559998,480.191986
359.167999,519.231995,488.000000
396.256012,466.528015,484.096008
415.776001,398.208008,493.855988
411.872009,400.160004,503.615997
390.399994,411.872009,505.567993
388.447998,402.112000,511.424011
417.727997,380.640015,503.615997
415.776001,376.735992,513.375977
417.727997,368.928009,517.280029
413.824005,361.119995,515.328003
417.727997,353.312012,521.184021
443.104004,318.175995,525.088013
439.200012,304.511993,515.328003
435.295990,324.032013,519.231995
437.247986,335.743988,523.135986
425.536011,341.600006,521.184021
402.112000,355.264008,507.519989
411.872009,343.552002,511.424011
437.247986,322.079987,507.519989
423.584015,329.888000,499.712006
413.824005,349.407990,497.760010
454.816010,361.119995,505.567993
462.623993,365.023987,499.712006
441.152008,376.735992,501.664001
452.864014,384.544006,511.424011
464.575989,384.544006,525.088013
472.384003,398.208008,530.943970
464.575989,400.160004,542.656006
474.335999,407.967987,556.320007
464.575989,402.112000,564.127991
476.287994,409.920013,568.031982
488.000000,402.112000,583.648010
503.615997,398.208008,595.359985
505.567993,396.256012,607.072021
507.519989,413.824005,622.687988
513.375977,409.920013,634.400024
511.424011,400.160004,640.255981
503.615997,402.112000,657.823975
521.184021,402.112000,655.872009
523.135986,407.967987,657.823975
517.280029,400.160004,663.679993
521.184021,392.351990,669.536011
523.135986,390.399994,681.247986
523.135986,384.544006,681.247986
527.039978,382.592010,687.104004
530.943970,380.640015,679.296021
530.943970,384.544006,681.247986
532.895996,396.256012,679.296021
532.895996,396.256012,681.247986
530.943970,407.967987,683.200012
527.039978,409.920013,671.487976
530.943970,411.872009,677.343994
532.895996,417.727997,667.583984
536.799988,429.440002,673.440002
527.039978,425.536011,665.632019
532.895996,443.104004,663.679993
521.184021,445.056000,673.440002
532.895996,445.056000,673.440002
527.039978,454.816010,675.392029
532.895996,454.816010,667.583984
536.799988,452.864014,675.392029
534.848022,448.959991,669.536011
540.703979,452.864014,677.343994
536.799988,460.671997,669.536011
536.799988,460.671997,669.536011
528.992004,458.720001,669.536011
528.992004,462.623993,665.632019
525.088013,468.480011,665.632019
527.039978,474.335999,665.632019
534.848022,448.959991,665.632019
527.039978,456.768005,651.968018
528.992004,450.911987,663.679993
528.992004,454.816010,661.728027
528.992004,456.768005,665.632019
523.135986,447.007996,655.872009
527.039978,454.816010,663.679993
519.231995,447.007996,655.872009
528.992004,452.864014,655.872009
525.088013,450.911987,657.823975
523.135986,443.104004,663.679993
519.231995,447.007996,655.872009
515.328003,450.911987,655.872009
511.424011,445.056000,659.776001
521.184021,437.247986,665.632019
525.088013,431.391998,657.823975
515.328003,437.247986,653.919983
515.328003,437.247986,657.823975
515.328003,429.440002,653.919983
527.039978,427.488007,655.872009
527.039978,429.440002,653.919983
528.992004,421.631989,651.968018
513.375977,435.295990,655.872009
513.375977,423.584015,650.015991
515.328003,419.679993,657.823975
517.280029,415.776001,644.159973
511.424011,423.584015,646.112000
505.567993,413.824005,640.255981
513.375977,407.967987,632.447998
509.471985,402.112000,630.495972
511.424011,407.967987,630.495972
503.615997,406.015991,632.447998
509.471985,398.208008,624.640015
511.424011,392.351990,620.736023
509.471985,374.783997,622.687988
505.567993,386.496002,626.591980
493.855988,378.687988,630.495972
499.712006,366.976013,620.736023
503.615997,353.312012,614.880005
505.567993,359.167999,612.927979
497.760010,365.023987,612.927979
509.471985,363.071991,620.736023
501.664001,359.167999,616.831970
501.664001,345.503998,622.687988
509.471985,341.600006,632.447998
503.615997,347.455994,638.304016
505.567993,345.503998,632.447998
509.471985,339.648010,646.112000
515.328003,333.791992,648.064026
519.231995,329.888000,648.064026
521.184021,327.936005,659.776001
521.184021,320.127991,663.679993
517.280029,308.415985,663.679993
519.231995,312.320007,669.536011
525.088013,312.320007,667.583984
519.231995,316.223999,681.247986
515.328003,304.511993,675.392029
509.471985,300.608002,675.392029
521.184021,292.799988,685.151978
511.424011,294.752014,679.296021
517.280029,290.847992,681.247986
513.375977,281.088013,689.056030
513.375977,283.040009,692.960022
515.328003,279.135986,687.104004
511.424011,267.424011,689.056030
509.471985,269.376007,681.247986
507.519989,255.712006,679.296021
519.231995,267.424011,683.200012
507.519989,269.376007,681.247986
509.471985,269.376007,681.247986
503.615997,275.231995,679.296021
501.664001,267.424011,675.392029
507.519989,263.519989,679.296021
489.951996,263.519989,673.440002
493.855988,269.376007,669.536011
497.760010,269.376007,663.679993
505.567993,271.328003,663.679993
503.615997,273.279999,659.776001
505.567993,271.328003,663.679993
501.664001,263.519989,655.872009
491.903992,265.471985,657.823975
505.567993,267.424011,648.064026
501.664001,255.712006,644.159973
495.808014,257.664001,642.208008
495.808014,257.664001,638.304016
505.567993,247.904007,638.304016
493.855988,242.048004,634.400024
495.808014,255.712006,634.400024
493.855988,257.664001,622.687988
503.615997,269.376007,622.687988
503.615997,261.567993,612.927979
511.424011,257.664001,616.831970
507.519989,261.567993,616.831970
509.471985,249.856003,612.927979
513.375977,267.424011,612.927979
519.231995,259.615997,614.880005
525.088013,263.519989,618.783997
527.039978,261.567993,618.783997
523.135986,275.231995,616.831970
525.088013,277.183990,609.023987
521.184021,279.135986,620.736023
532.895996,284.992004,622.687988
527.039978,288.895996,630.495972
532.895996,294.752014,632.447998
534.848022,300.608002,632.447998
536.799988,310.368011,632.447998
544.607971,320.127991,640.255981
550.463989,324.032013,648.064026
564.127991,325.984009,663.679993
560.223999,325.984009,655.872009
562.176025,325.984009,661.728027
564.127991,318.175995,675.392029
575.840027,312.320007,673.440002
571.935974,320.127991,673.440002
573.888000,318.175995,689.056030
579.744019,312.320007,681.247986
579.744019,320.127991,685.151978
568.031982,318.175995,679.296021
571.935974,324.032013,677.343994
571.935974,327.936005,677.343994
569.984009,335.743988,667.583984
571.935974,333.791992,661.728027
571.935974,331.839996,650.015991
566.080017,341.600006,650.015991
569.984009,343.552002,651.968018
571.935974,343.552002,648.064026
569.984009,355.264008,648.064026
566.080017,353.312012,644.159973
568.031982,359.167999,650.015991
568.031982,355.264008,632.447998
575.840027,361.119995,626.591980
579.744019,361.119995,626.591980
575.840027,359.167999,634.400024
573.888000,353.312012,628.544006
575.840027,357.216003,634.400024
575.840027,355.264008,634.400024
573.888000,357.216003,634.400024
573.888000,361.119995,628.544006
569.984009,365.023987,636.351990
571.935974,366.976013,640.255981
573.888000,374.783997,650.015991
575.840027,374.783997,648.064026
575.840027,374.783997,651.968018
575.840027,382.592010,657.823975
579.744019,380.640015,651.968018
573.888000,380.640015,651.968018
579.744019,374.783997,651.968018
577.791992,374.783997,644.159973
571.935974,372.832001,653.919983
581.695984,380.640015,657.823975
581.695984,384.544006,646.112000
583.648010,382.592010,640.255981
581.695984,380.640015,634.400024
581.695984,382.592010,646.112000
587.552002,386.496002,644.159973
577.791992,378.687988,646.112000
581.695984,382.592010,650.015991
583.648010,382.592010,642.208008
581.695984,382.592010,644.159973
581.695984,378.687988,655.872009
579.744019,380.640015,657.823975
583.648010,374.783997,644.159973
583.648010,372.832001,646.112000
587.552002,363.071991,638.304016
581.695984,355.264008,651.968018
587.552002,368.928009,640.255981
577.791992,363.071991,644.159973
591.455994,363.071991,640.255981
591.455994,365.023987,646.112000
591.455994,353.312012,642.208008
593.408020,357.216003,655.872009
595.359985,353.312012,646.112000
577.791992,353.312012,646.112000
583.648010,351.359985,644.159973
593.408020,349.407990,632.447998
601.216003,351.359985,648.064026
589.504028,351.359985,644.159973
587.552002,351.359985,640.255981
597.312012,347.455994,648.064026
593.408020,347.455994,651.968018
601.216003,353.312012,646.112000
607.072021,349.407990,651.968018
607.072021,345.503998,657.823975
610.976013,341.600006,655.872009
601.216003,345.503998,663.679993
609.023987,337.696014,655.872009
609.023987,333.791992,673.440002
614.880005,349.407990,663.679993
612.927979,341.600006,671.487976
618.783997,331.839996,665.632019
610.976013,335.743988,667.583984
605.119995,337.696014,663.679993
616.831970,329.888000,667.583984
609.023987,324.032013,663.679993
616.831970,320.127991,667.583984
610.976013,329.888000,671.487976
607.072021,320.127991,665.632019
601.216003,320.127991,659.776001
605.119995,314.272003,665.632019
599.263977,314.272003,655.872009
599.263977,318.175995,657.823975
593.408020,322.079987,661.728027
587.552002,310.368011,657.823975
597.312012,306.463989,650.015991
595.359985,304.511993,648.064026
585.599976,304.511993,648.064026
583.648010,296.704010,646.112000
573.888000,300.608002,646.112000
589.504028,296.704010,650.015991
589.504028,296.704010,642.208008
579.744019,296.704010,642.208008
587.552002,298.656006,626.591980
585.599976,296.704010,630.495972
587.552002,300.608002,628.544006
583.648010,298.656006,630.495972
581.695984,298.656006,626.591980
579.744019,300.608002,628.544006
581.695984,302.559998,624.640015
571.935974,306.463989,630.495972
575.840027,298.656006,634.400024
581.695984,314.272003,626.591980
581.695984,300.608002,626.591980
575.840027,310.368011,630.495972
575.840027,322.079987,626.591980
577.791992,314.272003,626.591980
577.791992,304.511993,616.831970
585.599976,316.223999,620.736023
577.791992,325.984009,614.880005
583.648010,322.079987,614.880005
583.648010,324.032013,612.927979
577.791992,324.032013,614.880005
583.648010,329.888000,607.072021
579.744019,335.743988,607.072021
587.552002,335.743988,603.168030
575.840027,329.888000,603.168030
577.791992,325.984009,595.359985
591.455994,335.743988,597.312012
581.695984,341.600006,603.168030
591.455994,341.600006,603.168030
593.408020,345.503998,605.119995
581.695984,347.455994,599.263977
593.408020,347.455994,593.408020
597.312012,335.743988,589.504028
601.216003,351.359985,589.504028
605.119995,361.119995,585.599976
612.927979,347.455994,587.552002
618.783997,357.216003,591.455994
622.687988,357.216003,587.552002
622.687988,363.071991,597.312012
620.736023,368.928009,595.359985
626.591980,366.976013,591.455994
634.400024,368.928009,589.504028
646.112000,378.687988,603.168030
636.351990,382.592010,595.359985
651.968018,384.544006,593.408020
651.968018,380.640015,603.168030
665.632019,378.687988,607.072021
685.151978,380.640015,607.072021
667.583984,390.399994,609.023987
679.296021,386.496002,601.216003
681.247986,394.303986,609.023987
689.056030,394.303986,616.831970
698.815979,394.303986,622.687988
702.719971,400.160004,612.927979
696.864014,404.063995,620.736023
710.528015,400.160004,616.831970
710.528015,402.112000,622.687988
714.432007,396.256012,622.687988
720.288025,394.303986,624.640015
720.288025,407.967987,620.736023
728.096008,407.967987,624.640015
728.096008,406.015991,624.640015
730.047974,411.872009,616.831970
730.047974,423.584015,626.591980
730.047974,417.727997,628.544006
741.760010,425.536011,630.495972
747.616028,431.391998,626.591980
743.711975,427.488007,620.736023
759.328003,431.391998,609.023987
763.231995,425.536011,616.831970
755.424011,439.200012,612.927979
759.328003,437.247986,610.976013
759.328003,447.007996,614.880005
755.424011,445.056000,618.783997
759.328003,452.864014,605.119995
761.280029,456.768005,616.831970
771.039978,466.528015,616.831970
774.943970,458.720001,618.783997
784.703979,458.720001,614.880005
776.895996,470.432007,626.591980
772.992004,472.384003,624.640015
784.703979,470.432007,614.880005
784.703979,474.335999,620.736023
774.943970,472.384003,616.831970
776.895996,476.287994,622.687988
782.752014,472.384003,620.736023
784.703979,468.480011,620.736023
790.559998,462.623993,622.687988
778.848022,458.720001,626.591980
790.559998,454.816010,624.640015
786.656006,456.768005,616.831970
774.943970,450.911987,622.687988
778.848022,452.864014,622.687988
767.135986,452.864014,624.640015
769.088013,454.816010,622.687988
767.135986,456.768005,624.640015
771.039978,460.671997,618.783997
763.231995,466.528015,624.640015
778.848022,464.575989,622.687988
784.703979,456.768005,624.640015
780.799988,452.864014,624.640015
780.799988,462.623993,630.495972
786.656006,445.056000,628.544006
792.512024,445.056000,640.255981
782.752014,452.864014,628.544006
782.752014,448.959991,642.208008
772.992004,447.007996,640.255981
778.848022,447.007996,653.919983
774.943970,448.959991,642.208008
772.992004,448.959991,636.351990
769.088013,447.007996,644.159973
772.992004,450.911987,644.159973
767.135986,450.911987,648.064026
772.992004,447.007996,650.015991
774.943970,441.152008,651.968018
974.047974,447.007996,657.823975
968.192017,439.200012,655.872009
673.440002,384.544006,712.479980
866.687988,484.096008,741.760010
872.544006,544.607971,759.328003
890.112000,519.231995,772.992004
907.679993,409.920013,798.367981
964.288025,345.503998,808.127991
938.911987,333.791992,817.888000
786.656006,413.824005,839.359985
786.656006,550.463989,849.119995
866.687988,579.744019,851.072021
907.679993,489.951996,847.168030
897.919983,372.832001,851.072021
876.447998,368.928009,868.640015
911.583984,437.247986,876.447998
917.440002,454.816010,866.687988
860.831970,417.727997,870.591980
817.888000,417.727997,868.640015
843.263977,407.967987,866.687988
870.591980,400.160004,866.687988
843.263977,368.928009,851.072021
808.127991,361.119995,843.263977
790.559998,388.447998,831.552002
800.320007,407.967987,819.840027
804.223999,407.967987,804.223999
817.888000,374.783997,804.223999
802.271973,361.119995,792.512024
800.320007,349.407990,784.703979
796.416016,331.839996,778.848022
823.744019,339.648010,780.799988
821.791992,341.600006,757.375977
794.463989,337.696014,747.616028
796.416016,337.696014,743.711975
794.463989,349.407990,728.096008
780.799988,343.552002,714.432007
632.447998,255.712006,702.719971
351.359985,407.967987,700.768005
829.599976,564.127991,677.343994
778.848022,343.552002,646.112000
638.304016,212.768005,587.552002
813.984009,284.992004,566.080017
716.383972,392.351990,564.127991
646.112000,470.432007,554.367981
733.952026,474.335999,540.703979
683.200012,388.447998,527.039978
665.632019,333.791992,521.184021
708.575989,357.216003,519.231995
669.536011,407.967987,511.424011
651.968018,458.720001,513.375977
669.536011,458.720001,509.471985
651.968018,437.247986,505.567993
650.015991,429.440002,513.375977
657.823975,447.007996,501.664001
659.776001,476.287994,499.712006
648.064026,482.144012,507.519989
648.064026,501.664001,501.664001
644.159973,478.239990,493.855988
663.679993,462.623993,482.144012
655.872009,460.671997,476.287994
659.776001,447.007996,468.480011
657.823975,468.480011,472.384003
632.447998,527.039978,460.671997
634.400024,568.031982,456.768005
636.351990,548.512024,448.959991
632.447998,493.855988,447.007996
646.112000,468.480011,433.343994
642.208008,484.096008,435.295990
626.591980,505.567993,431.391998
632.447998,507.519989,433.343994
626.591980,489.951996,431.391998
626.591980,458.720001,427.488007
628.544006,447.007996,413.824005
632.447998,445.056000,409.920013
620.736023,450.911987,413.824005
614.880005,448.959991,411.872009
614.880005,431.391998,402.112000
620.736023,419.679993,406.015991
622.687988,394.303986,409.920013
632.447998,392.351990,409.920013
630.495972,390.399994,411.872009
624.640015,386.496002,411.872009
624.640015,380.640015,419.679993
624.640015,378.687988,423.584015
628.544006,378.687988,417.727997
630.495972,382.592010,429.440002
628.544006,378.687988,433.343994
628.544006,380.640015,433.343994
634.400024,378.687988,441.152008
648.064026,384.544006,445.056000
642.208008,376.735992,456.768005
648.064026,376.735992,466.528015
655.872009,378.687988,474.335999
661.728027,380.640015,489.951996
659.776001,386.496002,488.000000
665.632019,394.303986,505.567993
669.536011,404.063995,515.328003
669.536011,400.160004,525.088013
677.343994,413.824005,538.752014
677.343994,402.112000,564.127991
681.247986,409.920013,568.031982
675.392029,406.015991,577.791992
683.200012,394.303986,585.599976
692.960022,392.351990,591.455994
694.911987,388.447998,599.263977
692.960022,394.303986,597.312012
687.104004,386.496002,603.168030
689.056030,380.640015,601.216003
689.056030,374.783997,589.504028
691.007996,376.735992,589.504028
694.911987,374.783997,589.504028
691.007996,368.928009,587.552002
689.056030,370.880005,581.695984
692.960022,366.976013,571.935974
694.911987,365.023987,571.935974
692.960022,366.976013,575.840027
694.911987,366.976013,575.840027
696.864014,365.023987,573.888000
692.960022,374.783997,575.840027
696.864014,384.544006,583.648010
698.815979,374.783997,587.552002
700.768005,382.592010,587.552002
706.624023,382.592010,585.599976
712.479980,378.687988,593.408020
714.432007,386.496002,601.216003
712.479980,398.208008,603.168030
714.432007,384.544006,612.927979
720.288025,380.640015,607.072021
726.143982,382.592010,616.831970
726.143982,382.592010,616.831970
720.288025,384.544006,612.927979
710.528015,380.640015,618.783997
726.143982,386.496002,616.831970
726.143982,386.496002,618.783997
726.143982,370.880005,612.927979
722.239990,372.832001,616.831970
724.192017,378.687988,612.927979
716.383972,366.976013,607.072021
722.239990,368.928009,599.263977
712.479980,366.976013,597.312012
708.575989,366.976013,581.695984
712.479980,365.023987,583.648010
694.911987,365.023987,569.984009
702.719971,361.119995,579.744019
700.768005,365.023987,569.984009
696.864014,353.312012,554.367981
694.911987,349.407990,554.367981
692.960022,351.359985,546.559998
694.911987,345.503998,544.607971
700.768005,333.791992,552.416016
694.911987,339.648010,550.463989
691.007996,339.648010,544.607971
696.864014,341.600006,550.463989
698.815979,337.696014,550.463989
704.671997,329.888000,560.223999
706.624023,320.127991,562.176025
708.575989,316.223999,571.935974
710.528015,320.127991,573.888000
716.383972,316.223999,575.840027
720.288025,316.223999,583.648010
722.239990,308.415985,589.504028
728.096008,298.656006,587.552002
730.047974,292.799988,595.359985
728.096008,306.463989,591.455994
733.952026,300.608002,599.263977
730.047974,298.656006,595.359985
735.903992,298.656006,595.359985
732.000000,298.656006,587.552002
741.760010,302.559998,587.552002
743.711975,284.992004,599.263977
747.616028,286.944000,597.312012
753.471985,286.944000,605.119995
753.471985,281.088013,599.263977
749.567993,279.135986,597.312012
759.328003,279.135986,605.119995
759.328003,277.183990,593.408020
757.375977,279.135986,601.216003
776.895996,281.088013,603.168030
761.280029,273.279999,601.216003
765.184021,263.519989,609.023987
763.231995,279.135986,601.216003
774.943970,273.279999,603.168030
769.088013,271.328003,605.119995
778.848022,267.424011,607.072021
771.039978,267.424011,597.312012
772.992004,279.135986,597.312012
776.895996,275.231995,603.168030
780.799988,279.135986,603.168030
776.895996,273.279999,603.168030
778.848022,281.088013,603.168030
782.752014,273.279999,597.312012
786.656006,275.231995,603.168030
790.559998,265.471985,605.119995
800.320007,273.279999,601.216003
798.367981,275.231995,607.072021
802.271973,267.424011,607.072021
800.320007,269.376007,609.023987
802.271973,263.519989,614.880005
813.984009,257.664001,612.927979
813.984009,249.856003,610.976013
812.031982,271.328003,624.640015
812.031982,265.471985,616.831970
823.744019,261.567993,616.831970
817.888000,257.664001,622.687988
821.791992,265.471985,628.544006
835.455994,255.712006,630.495972
831.552002,257.664001,624.640015
837.408020,251.807999,636.351990
843.263977,251.807999,638.304016
845.216003,257.664001,638.304016
835.455994,255.712006,642.208008
845.216003,263.519989,636.351990
849.119995,265.471985,650.015991
853.023987,267.424011,644.159973
847.168030,263.519989,651.968018
845.216003,257.664001,644.159973
854.976013,257.664001,648.064026
847.168030,255.712006,650.015991
851.072021,257.664001,657.823975
851.072021,261.567993,657.823975
849.119995,255.712006,651.968018
851.072021,263.519989,648.064026
851.072021,255.712006,651.968018
849.119995,253.759995,644.159973
835.455994,253.759995,648.064026
829.599976,255.712006,648.064026
833.504028,251.807999,640.255981
825.695984,259.615997,636.351990
821.791992,263.519989,628.544006
817.888000,257.664001,628.544006
817.888000,263.519989,616.831970
810.080017,269.376007,607.072021
808.127991,263.519989,605.119995
802.271973,267.424011,601.216003
796.416016,265.471985,585.599976
796.416016,277.183990,585.599976
802.271973,271.328003,591.455994
798.367981,271.328003,587.552002
784.703979,267.424011,585.599976
786.656006,261.567993,589.504028
794.463989,261.567993,589.504028
796.416016,273.279999,583.648010
780.799988,261.567993,589.504028
786.656006,261.567993,585.599976
786.656006,257.664001,589.504028
782.752014,267.424011,593.408020
782.752014,259.615997,593.408020
786.656006,253.759995,599.263977
788.607971,261.567993,595.359985
786.656006,267.424011,595.359985
774.943970,253.759995,599.263977
782.752014,255.712006,599.263977
772.992004,269.376007,601.216003
782.752014,269.376007,599.263977
780.799988,261.567993,597.312012
774.943970,255.712006,601.216003
778.848022,253.759995,595.359985
769.088013,271.328003,589.504028
757.375977,257.664001,589.504028
761.280029,261.567993,585.599976
763.231995,255.712006,585.599976
763.231995,253.759995,595.359985
767.135986,238.143997,597.312012
759.328003,247.904007,599.263977
757.375977,249.856003,599.263977
759.328003,240.095993,599.263977
763.231995,234.240005,607.072021
769.088013,228.384003,595.359985
763.231995,228.384003,597.312012
753.471985,236.192001,595.359985
753.471985,222.528000,595.359985
757.375977,222.528000,601.216003
747.616028,222.528000,599.263977
753.471985,206.912003,599.263977
755.424011,206.912003,603.168030
753.471985,206.912003,601.216003
763.231995,212.768005,601.216003
757.375977,197.151993,603.168030
753.471985,197.151993,609.023987
759.328003,193.248001,610.976013
757.375977,189.343994,603.168030
747.616028,179.584000,605.119995
755.424011,185.440002,601.216003
763.231995,167.871994,614.880005
755.424011,171.776001,610.976013
757.375977,179.584000,610.976013
757.375977,167.871994,616.831970
757.375977,162.016006,616.831970
751.520020,152.255997,614.880005
757.375977,152.255997,612.927979
767.135986,146.399994,612.927979
751.520020,146.399994,614.880005
763.231995,138.591995,603.168030
759.328003,132.735992,614.880005
753.471985,132.735992,607.072021
753.471985,124.928001,618.783997
753.471985,126.879997,614.880005
753.471985,122.975998,612.927979
757.375977,113.216003,605.119995
753.471985,111.264000,610.976013
753.471985,97.599998,605.119995
753.471985,111.264000,605.119995
753.471985,101.503998,603.168030
757.375977,97.599998,597.312012
757.375977,95.648003,605.119995
753.471985,91.744003,610.976013
755.424011,85.888000,605.119995
759.328003,93.695999,610.976013
757.375977,89.792000,605.119995
753.471985,78.080002,610.976013
767.135986,66.367996,622.687988
759.328003,72.223999,609.023987
767.135986,66.367996,603.168030
763.231995,64.416000,607.072021
763.231995,72.223999,614.880005
761.280029,58.560001,605.119995
767.135986,60.512001,610.976013
767.135986,50.751999,607.072021
761.280029,56.608002,607.072021
759.328003,48.799999,605.119995
774.943970,50.751999,605.119995
765.184021,39.040001,601.216003
769.088013,37.088001,597.312012
767.135986,33.183998,607.072021
767.135986,33.183998,601.216003
772.992004,37.088001,610.976013
769.088013,31.232000,603.168030
772.992004,27.327999,597.312012
774.943970,31.232000,603.168030
774.943970,27.327999,597.312012
774.943970,33.183998,587.552002
772.992004,29.280001,585.599976
782.752014,39.040001,593.408020
780.799988,35.136002,591.455994
784.703979,33.183998,585.599976
776.895996,40.992001,587.552002
778.848022,42.944000,579.744019
786.656006,64.416000,575.840027
782.752014,74.176003,569.984009
782.752014,93.695999,571.935974
782.752014,109.311996,568.031982
782.752014,122.975998,566.080017
780.799988,146.399994,562.176025
790.559998,162.016006,568.031982
784.703979,173.727997,571.935974
788.607971,189.343994,573.888000
790.559998,208.863998,571.935974
788.607971,210.815994,569.984009
788.607971,220.576004,581.695984
798.367981,222.528000,581.695984
804.223999,230.335999,581.695984
798.367981,236.192001,583.648010
802.271973,242.048004,587.552002
806.176025,240.095993,587.552002
802.271973,234.240005,587.552002
812.031982,234.240005,579.744019
800.320007,240.095993,583.648010
802.271973,236.192001,573.888000
804.223999,236.192001,569.984009
806.176025,234.240005,568.031982
806.176025,230.335999,560.223999
804.223999,226.432007,546.559998
802.271973,226.432007,542.656006
796.416016,226.432007,542.656006
794.463989,234.240005,540.703979
788.607971,245.951996,530.943970
794.463989,249.856003,528.992004
786.656006,257.664001,532.895996
786.656006,267.424011,515.328003
788.607971,283.040009,517.280029
790.559998,290.847992,521.184021
802.271973,304.511993,515.328003
800.320007,308.415985,509.471985
796.416016,310.368011,515.328003
784.703979,310.368011,525.088013
788.607971,316.223999,511.424011
786.656006,331.839996,503.615997
788.607971,324.032013,501.664001
792.512024,331.839996,501.664001
794.463989,331.839996,495.808014
798.367981,345.503998,505.567993
798.367981,351.359985,503.615997
806.176025,355.264008,495.808014
798.367981,359.167999,503.615997
802.271973,365.023987,501.664001
810.080017,355.264008,499.712006
813.984009,365.023987,501.664001
808.127991,370.880005,495.808014
813.984009,372.832001,497.760010
817.888000,363.071991,497.760010
817.888000,374.783997,503.615997
823.744019,370.880005,493.855988
815.935974,374.783997,501.664001
821.791992,374.783997,499.712006
829.599976,384.544006,503.615997
833.504028,378.687988,503.615997
825.695984,374.783997,517.280029
835.455994,384.544006,507.519989
837.408020,374.783997,515.328003
847.168030,380.640015,517.280029
847.168030,382.592010,515.328003
847.168030,382.592010,515.328003
849.119995,380.640015,521.184021
853.023987,384.544006,523.135986
853.023987,384.544006,521.184021
864.736023,388.447998,521.184021
868.640015,378.687988,530.943970
854.976013,380.640015,521.184021
862.783997,388.447998,527.039978
866.687988,380.640015,538.752014
876.447998,376.735992,523.135986
878.400024,374.783997,530.943970
878.400024,372.832001,538.752014
878.400024,363.071991,530.943970
888.159973,357.216003,534.848022
899.872009,357.216003,536.799988
884.255981,347.455994,546.559998
886.208008,339.648010,550.463989
895.968018,341.600006,534.848022
892.064026,327.936005,550.463989
892.064026,333.791992,550.463989
899.872009,327.936005,552.416016
894.015991,324.032013,550.463989
903.776001,325.984009,542.656006
894.015991,312.320007,538.752014
899.872009,306.463989,540.703979
897.919983,298.656006,540.703979
895.968018,294.752014,542.656006
892.064026,283.040009,542.656006
892.064026,286.944000,534.848022
884.255981,275.231995,530.943970
884.255981,271.328003,542.656006
882.304016,255.712006,534.848022
876.447998,249.856003,532.895996
878.400024,247.904007,527.039978
884.255981,247.904007,530.943970
880.351990,232.287994,530.943970
880.351990,226.432007,532.895996
872.544006,232.287994,519.231995
876.447998,218.623993,519.231995
866.687988,214.720001,521.184021
864.736023,214.720001,521.184021
862.783997,216.671997,521.184021
866.687988,208.863998,521.184021
866.687988,193.248001,519.231995
864.736023,183.488007,523.135986
856.927979,179.584000,530.943970
856.927979,175.679993,525.088013
854.976013,173.727997,525.088013
851.072021,177.632004,517.280029
853.023987,169.824005,515.328003
853.023987,158.112000,513.375977
843.263977,148.352005,513.375977
841.312012,144.447998,521.184021
845.216003,136.639999,519.231995
843.263977,124.928001,515.328003
837.408020,126.879997,523.135986
835.455994,119.071999,521.184021
839.359985,111.264000,511.424011
833.504028,119.071999,519.231995
829.599976,122.975998,521.184021
819.840027,103.456001,521.184021
815.935974,97.599998,521.184021
813.984009,91.744003,519.231995
812.031982,85.888000,521.184021
810.080017,95.648003,525.088013
812.031982,91.744003,523.135986
802.271973,81.984001,525.088013
806.176025,83.935997,528.992004
804.223999,85.888000,523.135986
792.512024,91.744003,527.039978
790.559998,85.888000,527.039978
794.463989,85.888000,532.895996
786.656006,76.127998,527.039978
782.752014,85.888000,521.184021
786.656006,83.935997,511.424011
786.656006,78.080002,519.231995
782.752014,76.127998,515.328003
782.752014,62.464001,513.375977
776.895996,68.320000,511.424011
771.039978,62.464001,513.375977
772.992004,78.080002,507.519989
774.943970,81.984001,509.471985
778.848022,66.367996,495.808014
771.039978,70.272003,505.567993
776.895996,74.176003,495.808014
774.943970,85.888000,509.471985
778.848022,83.935997,499.712006
765.184021,83.935997,491.903992
759.328003,85.888000,505.567993
753.471985,97.599998,491.903992
759.328003,109.311996,489.951996
757.375977,105.407997,489.951996
761.280029,113.216003,488.000000
765.184021,99.552002,488.000000
759.328003,109.311996,482.144012
755.424011,119.071999,480.191986
757.375977,119.071999,474.335999
741.760010,126.879997,460.671997
751.520020,117.120003,460.671997
741.760010,111.264000,448.959991
747.616028,124.928001,447.007996
751.520020,121.024002,441.152008
774.943970,117.120003,437.247986
812.031982,101.503998,439.200012
788.607971,126.879997,417.727997
792.512024,148.352005,415.776001
769.088013,175.679993,413.824005
759.328003,163.968002,409.920013
733.952026,144.447998,400.160004
739.807983,154.207993,398.208008
733.952026,173.727997,400.160004
741.760010,175.679993,384.544006
728.096008,154.207993,378.687988
728.096008,140.544006,378.687988
730.047974,160.063995,374.783997
728.096008,148.352005,368.928009
741.760010,113.216003,376.735992
743.711975,109.311996,382.592010
739.807983,130.783997,388.447998
708.575989,121.024002,396.256012
691.007996,101.503998,398.208008
706.624023,101.503998,409.920013
710.528015,126.879997,409.920013
730.047974,105.407997,404.063995
732.000000,80.031998,400.160004
739.807983,78.080002,388.447998
751.520020,103.456001,366.976013
751.520020,115.167999,359.167999
763.231995,87.839996,347.455994
782.752014,78.080002,341.600006
782.752014,97.599998,341.600006
800.320007,124.928001,343.552002
804.223999,117.120003,339.648010
813.984009,119.071999,327.936005
813.984009,140.544006,335.743988
806.176025,175.679993,339.648010
819.840027,201.056000,339.648010
829.599976,201.056000,353.312012
831.552002,195.199997,357.216003
849.119995,222.528000,353.312012
864.736023,259.615997,347.455994
868.640015,259.615997,345.503998
872.544006,242.048004,365.023987
878.400024,255.712006,349.407990
868.640015,271.328003,368.928009
870.591980,279.135986,365.023987
870.591980,253.759995,370.880005
899.872009,245.951996,388.447998
915.487976,269.376007,392.351990
919.392029,290.847992,404.063995
903.776001,263.519989,423.584015
874.495972,214.720001,404.063995
856.927979,206.912003,386.496002
845.216003,224.479996,388.447998
841.312012,197.151993,396.256012
847.168030,175.679993,400.160004
864.736023,173.727997,394.303986
856.927979,199.104004,396.256012
858.880005,206.912003,382.592010
837.408020,203.007996,363.071991
837.408020,226.432007,351.359985
812.031982,238.143997,347.455994
812.031982,244.000000,339.648010
815.935974,259.615997,345.503998
821.791992,281.088013,341.600006
856.927979,283.040009,325.984009
856.927979,304.511993,325.984009
858.880005,316.223999,327.936005
862.783997,327.936005,314.272003
862.783997,325.984009,306.463989
866.687988,335.743988,304.511993
864.736023,345.503998,296.704010
862.783997,331.839996,294.752014
864.736023,320.127991,269.376007
878.400024,327.936005,253.759995
876.447998,325.984009,238.143997
884.255981,318.175995,210.815994
888.159973,314.272003,204.960007
903.776001,302.559998,185.440002
915.487976,318.175995,185.440002
919.392029,325.984009,185.440002
925.247986,335.743988,195.199997
913.536011,329.888000,187.391998
919.392029,339.648010,187.391998
931.104004,345.503998,193.248001
950.624023,331.839996,204.960007
974.047974,325.984009,187.391998
1001.375977,329.888000,189.343994
1022.848022,329.888000,160.063995
1015.039978,322.079987,160.063995
1032.608032,316.223999,175.679993
1024.800049,314.272003,191.296005
1013.088013,302.559998,197.151993
1007.231995,304.511993,204.960007
1016.992004,304.511993,206.912003
1016.992004,300.608002,232.287994
1024.800049,286.944000,251.807999
1020.895996,273.279999,273.279999
1038.463989,296.704010,273.279999
1040.416016,292.799988,290.847992
1046.271973,273.279999,316.223999
1056.031982,263.519989,357.216003
288.895996,-1104.832031,778.848022
702.719971,-2318.976074,1225.855957
884.255981,-644.159973,1083.359985
1434.719971,733.952026,817.888000
1339.072021,845.216003,944.768005
1165.343994,1362.495972,976.000000
962.335999,2032.031982,931.104004
1311.744019,1149.728027,1007.231995
1198.527954,448.959991,1180.959961
1266.848022,997.471985,1095.072021
1335.167969,894.015991,1040.416016
1298.079956,470.432007,1083.359985
1335.167969,716.383972,1013.088013
1382.015991,724.192017,942.815979
1370.303955,431.391998,929.151978
1372.255981,466.528015,895.968018
1395.680054,478.239990,870.591980
1362.495972,404.063995,860.831970
1354.687988,409.920013,849.119995
1327.359985,441.152008,821.791992
1311.744019,443.104004,806.176025
1305.887939,482.144012,780.799988
1266.848022,493.855988,739.807983
1257.088013,392.351990,714.432007
1272.703979,281.088013,683.200012
1257.088013,244.000000,655.872009
1233.663940,224.479996,624.640015
1214.144043,236.192001,610.976013
1218.047974,228.384003,589.504028
1200.479980,203.007996,579.744019
1196.576050,158.112000,571.935974
1188.767944,156.160004,568.031982
1167.296021,165.919998,556.320007
1153.631958,150.304001,566.080017
1153.631958,138.591995,558.271973
1149.728027,138.591995,558.271973
1169.248047,130.783997,560.223999
1151.680054,126.879997,560.223999
1153.631958,103.456001,560.223999
1153.631958,95.648003,556.320007
1143.871948,66.367996,556.320007
1143.871948,72.223999,550.463989
1126.303955,140.544006,568.031982
1116.543945,199.104004,577.791992
1126.303955,203.007996,581.695984
1112.640015,163.968002,591.455994
1122.400024,119.071999,587.552002
1120.447998,109.311996,577.791992
1110.687988,121.024002,573.888000
1110.687988,142.496002,550.463989
1079.456055,167.871994,554.367981
1073.599976,181.535995,530.943970
1046.271973,169.824005,499.712006
1052.128052,206.912003,474.335999
1030.656006,240.095993,447.007996
1009.184021,265.471985,419.679993
991.616028,290.847992,396.256012
985.760010,320.127991,365.023987
977.952026,355.264008,345.503998
956.479980,374.783997,316.223999
952.575989,365.023987,277.183990
936.960022,376.735992,259.615997
919.392029,382.592010,222.528000
905.728027,380.640015,201.056000
897.919983,368.928009,177.632004
894.015991,353.312012,162.016006
890.112000,310.368011,142.496002
868.640015,267.424011,128.832001
866.687988,236.192001,130.783997
847.168030,242.048004,121.024002
837.408020,234.240005,122.975998
833.504028,230.335999,105.407997
825.695984,224.479996,91.744003
817.888000,199.104004,76.127998
823.744019,197.151993,68.320000
810.080017,224.479996,64.416000
808.127991,273.279999,74.176003
808.127991,304.511993,66.367996
796.416016,316.223999,74.176003
806.176025,320.127991,76.127998
786.656006,302.559998,64.416000
792.512024,306.463989,64.416000
792.512024,318.175995,60.512001
765.184021,335.743988,35.136002
763.231995,304.511993,11.712000
767.135986,273.279999,-9.760000
771.039978,283.040009,-40.992001
735.903992,302.559998,-78.080002
732.000000,296.704010,-105.407997
735.903992,267.424011,-132.735992
722.239990,337.696014,-148.352005
722.239990,388.447998,-154.207993
714.432007,331.839996,-177.632004
718.335999,283.040009,-195.199997
704.671997,251.807999,-185.440002
716.383972,292.799988,-165.919998
702.719971,316.223999,-162.016006
708.575989,292.799988,-156.160004
710.528015,224.479996,-154.207993
683.200012,167.871994,-146.399994
761.280029,230.335999,-193.248001
808.127991,458.720001,-212.768005
864.736023,1030.656006,-111.264000
800.320007,1139.968018,21.472000
741.760010,486.048004,107.360001
812.031982,-493.855988,138.591995
860.831970,-942.815979,206.912003
874.495972,-400.160004,277.183990
858.880005,404.063995,310.368011
872.544006,771.039978,310.368011
940.864014,597.312012,288.895996
983.807983,203.007996,279.135986
1007.231995,7.808000,261.567993
1015.039978,156.160004,230.335999
983.807983,427.488007,195.199997
942.815979,525.088013,144.447998
878.400024,357.216003,107.360001
874.495972,163.968002,99.552002
854.976013,48.799999,95.648003
839.359985,48.799999,109.311996
851.072021,107.360001,113.216003
856.927979,179.584000,124.928001
911.583984,132.735992,105.407997
895.968018,-46.848000,74.176003
892.064026,-74.176003,48.799999
878.400024,1.952000,27.327999
882.304016,392.351990,52.703999
860.831970,909.632019,119.071999
835.455994,774.943970,162.016006
888.159973,-29.280001,154.207993
962.335999,-1171.199951,179.584000
946.719971,-1520.608032,273.279999
911.583984,-306.463989,341.600006
938.911987,1218.047974,366.976013
970.143982,1659.199951,384.544006
1007.231995,999.424011,351.359985
1057.984009,85.888000,273.279999
1050.176025,-331.839996,206.912003
1036.511963,-15.616000,171.776001
989.664001,571.935974,150.304001
991.616028,888.159973,121.024002
956.479980,802.271973,87.839996
944.768005,413.824005,64.416000
977.952026,-37.088001,33.183998
948.671997,-253.759995,11.712000
950.624023,-81.984001,3.904000
923.296021,404.063995,48.799999
884.255981,761.280029,115.167999
866.687988,657.823975,150.304001
890.112000,89.792000,119.071999
979.903992,-620.736023,89.792000
1044.319946,-1020.895996,148.352005
1071.647949,-749.567993,206.912003
1083.359985,-7.808000,290.847992
1069.696045,581.695984,333.791992
1085.312012,648.064026,318.175995
1136.063965,253.759995,267.424011
1151.680054,-113.216003,244.000000
1161.439941,-197.151993,232.287994
1138.015991,-15.616000,255.712006
1114.592041,314.272003,244.000000
1095.072021,620.736023,218.623993
1114.592041,700.768005,197.151993
1118.495972,454.816010,171.776001
1091.167969,-91.744003,179.584000
1095.072021,-653.919983,230.335999
972.096008,-651.968018,341.600006
929.151978,277.183990,443.104004
968.192017,1264.895996,528.992004
1048.223999,1614.303955,568.031982
1104.832031,1237.567993,515.328003
1124.352051,398.208008,452.864014
1122.400024,-484.096008,429.440002
1145.823975,-911.583984,454.816010
1114.592041,-595.359985,482.144012
1093.119995,165.919998,470.432007
1093.119995,761.280029,380.640015
1089.215942,960.383972,306.463989
1110.687988,743.711975,234.240005
1100.927979,355.264008,206.912003
1100.927979,-46.848000,189.343994
1116.543945,-277.183990,177.632004
1120.447998,-273.279999,162.016006
1114.592041,-48.799999,136.639999
1093.119995,599.263977,117.120003
1134.112061,1407.391968,162.016006
1149.728027,1454.239990,298.656006
1124.352051,544.607971,431.391998
1100.927979,-571.935974,519.231995
1163.391968,-1179.008057,540.703979
1153.631958,-1016.992004,579.744019
1139.968018,-234.240005,607.072021
1120.447998,605.119995,605.119995
1102.880005,886.208008,589.504028
1112.640015,505.567993,550.463989
1149.728027,-171.776001,501.664001
1173.151978,-624.640015,468.480011
1188.767944,-653.919983,462.623993
1194.624023,-353.312012,452.864014
1200.479980,81.984001,470.432007
1196.576050,353.312012,491.903992
1206.336060,310.368011,491.903992
1210.239990,72.223999,486.048004
1221.952026,-179.584000,480.191986
1208.287964,-292.799988,478.239990
1169.248047,-195.199997,474.335999
1126.303955,44.896000,445.056000
1077.504028,284.992004,396.256012
1026.751953,400.160004,345.503998
974.047974,337.696014,292.799988
950.624023,187.391998,214.720001
929.151978,64.416000,158.112000
907.679993,54.655998,91.744003
890.112000,111.264000,13.664000
847.168030,171.776001,-62.464001
815.935974,167.871994,-101.503998
792.512024,72.223999,-138.591995
786.656006,-44.896000,-173.727997
792.512024,-146.399994,-195.199997
802.271973,-187.391998,-193.248001
796.416016,-158.112000,-185.440002
798.367981,-93.695999,-189.343994
800.320007,21.472000,-199.104004
792.512024,81.984001,-183.488007
786.656006,121.024002,-163.968002
792.512024,204.960007,-158.112000
804.223999,269.376007,-171.776001
808.127991,286.944000,-195.199997
802.271973,249.856003,-218.623993
794.463989,226.432007,-226.432007
778.848022,249.856003,-236.192001
788.607971,279.135986,-257.664001
786.656006,261.567993,-255.712006
815.935974,124.928001,-244.000000
829.599976,-40.992001,-232.287994
815.935974,-136.639999,-230.335999
827.648010,-138.591995,-232.287994
819.840027,-95.648003,-232.287994
827.648010,-42.944000,-240.095993
833.504028,-7.808000,-236.192001
835.455994,19.520000,-232.287994
856.927979,74.176003,-269.376007
831.552002,144.447998,-279.135986
817.888000,185.440002,-279.135986
825.695984,126.879997,-308.415985
812.031982,72.223999,-345.503998
812.031982,60.512001,-357.216003
804.223999,40.992001,-372.832001
802.271973,80.031998,-380.640015
784.703979,119.071999,-386.496002
782.752014,152.255997,-349.407990
798.367981,331.839996,-279.135986
794.463989,562.176025,-183.488007
806.176025,550.463989,-109.311996
876.447998,251.807999,-48.799999
911.583984,-146.399994,-31.232000
931.104004,-448.959991,-56.608002
862.783997,-509.471985,-74.176003
919.392029,-247.904007,-117.120003
933.056030,167.871994,-179.584000
974.047974,456.768005,-214.720001
995.520020,429.440002,-230.335999
1132.160034,197.151993,-236.192001
1672.864014,-829.599976,622.687988
2518.080078,-2141.343994,2713.280029
2914.335938,-1994.943970,3911.808105
2929.951904,-825.695984,3324.256104
2639.104004,839.359985,2035.936035
2147.199951,1633.823975,1319.552002
1719.712036,2164.768066,895.968018
1346.880005,2617.632080,341.600006
1139.968018,2508.320068,11.712000
1032.608032,1782.176025,-87.839996
1093.119995,831.552002,-236.192001
1139.968018,796.416016,-273.279999
1040.416016,944.768005,-425.536011
894.015991,702.719971,-655.872009
868.640015,304.511993,-607.072021
1016.992004,-64.416000,-318.175995
1218.047974,-337.696014,29.280001
1317.599976,-411.872009,163.968002
1270.751953,-331.839996,58.560001
1212.192017,-279.135986,13.664000
1202.432007,-298.656006,60.512001
1220.000000,-269.376007,109.311996
1208.287964,-78.080002,33.183998
1216.095947,167.871994,-101.503998
1223.904053,316.223999,-162.016006
1251.232056,415.776001,-171.776001
1237.567993,538.752014,-156.160004
1235.615967,632.447998,-144.447998
1243.423950,673.440002,-115.167999
1284.416016,634.400024,-48.799999
1327.359985,571.935974,23.424000
1350.784058,488.000000,99.552002
1335.167969,423.584015,126.879997
1321.504028,376.735992,121.024002
1309.791992,292.799988,121.024002
1319.552002,177.632004,136.639999
1319.552002,85.888000,148.352005
1337.119995,60.512001,142.496002
1339.072021,89.792000,154.207993
1358.592041,171.776001,152.255997
1354.687988,251.807999,146.399994
1337.119995,339.648010,91.744003
1305.887939,396.256012,27.327999
1280.511963,448.959991,-29.280001
1247.328003,472.384003,-83.935997
1225.855957,474.335999,-128.832001
1200.479980,441.152008,-130.783997
1194.624023,390.399994,-128.832001
1192.671997,331.839996,-117.120003
1182.911987,265.471985,-105.407997
1184.864014,175.679993,-91.744003
1180.959961,107.360001,-80.031998
1151.680054,68.320000,-85.888000
1149.728027,37.088001,-85.888000
1139.968018,33.183998,-93.695999
1134.112061,15.616000,-103.456001
1114.592041,7.808000,-115.167999
1110.687988,21.472000,-134.688004
1100.927979,68.320000,-148.352005
1095.072021,128.832001,-158.112000
1098.975952,171.776001,-165.919998
1087.264038,214.720001,-179.584000
1081.407959,238.143997,-183.488007
1079.456055,234.240005,-165.919998
1087.264038,247.904007,-146.399994
1097.024048,269.376007,-152.255997
1087.264038,261.567993,-134.688004
1089.215942,203.007996,-107.360001
1106.784058,138.591995,-103.456001
1112.640015,160.063995,-87.839996
1110.687988,171.776001,-78.080002
1100.927979,195.199997,-101.503998
1106.784058,195.199997,-121.024002
1097.024048,169.824005,-111.264000
1098.975952,113.216003,-99.552002
1077.504028,83.935997,-109.311996
1069.696045,107.360001,-134.688004
1075.552002,140.544006,-158.112000
1056.031982,193.248001,-152.255997
1057.984009,187.391998,-148.352005
1052.128052,173.727997,-122.975998
1048.223999,152.255997,-78.080002
1059.936035,128.832001,-64.416000
1038.463989,132.735992,-117.120003
1015.039978,171.776001,-191.296005
987.711975,158.112000,-216.671997
999.424011,136.639999,-165.919998
1020.895996,138.591995,-103.456001
1048.223999,148.352005,-76.127998
1056.031982,177.632004,-56.608002
1057.984009,208.863998,-66.367996
1052.128052,228.384003,-68.320000
1040.416016,206.912003,-56.608002
1026.751953,183.488007,-78.080002
1030.656006,189.343994,-91.744003
1015.039978,175.679993,-66.367996
1005.280029,214.720001,-60.512001
1018.943970,292.799988,-87.839996
1011.135986,308.415985,-68.320000
1024.800049,300.608002,-52.703999
1024.800049,261.567993,-19.520000
999.424011,259.615997,-52.703999
976.000000,265.471985,-117.120003
960.383972,257.664001,-140.544006
958.432007,271.328003,-117.120003
962.335999,245.951996,-83.935997
960.383972,242.048004,-78.080002
970.143982,263.519989,-85.888000
983.807983,222.528000,-68.320000
991.616028,165.919998,-23.424000
1001.375977,107.360001,31.232000
1024.800049,80.031998,35.136002
987.711975,68.320000,-17.568001
948.671997,93.695999,-142.496002
929.151978,154.207993,-224.479996
935.007996,160.063995,-206.912003
958.432007,126.879997,-105.407997
964.288025,99.552002,-39.040001
977.952026,85.888000,-35.136002
1011.135986,76.127998,-66.367996
1011.135986,80.031998,-70.272003
981.856018,91.744003,-74.176003
974.047974,103.456001,-70.272003
962.335999,50.751999,-66.367996
946.719971,52.703999,-37.088001
956.479980,60.512001,-44.896000
952.575989,76.127998,-46.848000
966.239990,70.272003,-52.703999
954.528015,121.024002,-62.464001
958.432007,162.016006,-58.560001
954.528015,197.151993,-54.655998
970.143982,251.807999,-83.935997
968.192017,292.799988,-72.223999
999.424011,300.608002,-50.751999
995.520020,333.791992,-31.232000
1001.375977,355.264008,-27.327999
983.807983,333.791992,-29.280001
976.000000,329.888000,-39.040001
974.047974,304.511993,-50.751999
972.096008,283.040009,-54.655998
983.807983,230.335999,-29.280001
979.903992,203.007996,-29.280001
981.856018,210.815994,-40.992001
983.807983,242.048004,-58.560001
993.567993,208.863998,-42.944000
993.567993,156.160004,-19.520000
1007.231995,87.839996,13.664000
1011.135986,74.176003,-25.375999
968.192017,167.871994,-204.960007
923.296021,273.279999,-318.175995
915.487976,320.127991,-294.752014
950.624023,279.135986,-173.727997
997.471985,234.240005,-121.024002
1026.751953,249.856003,-80.031998
1054.079956,261.567993,-42.944000
1065.791992,212.768005,-7.808000
1061.887939,165.919998,-21.472000
1030.656006,132.735992,-105.407997
1024.800049,70.272003,-169.824005
1009.184021,58.560001,-152.255997
1022.848022,66.367996,-130.783997
1030.656006,33.183998,-117.120003
1024.800049,27.327999,-136.639999
1013.088013,15.616000,-107.360001
1018.943970,0.000000,-109.311996
1001.375977,-1.952000,-128.832001
999.424011,19.520000,-160.063995
1018.943970,52.703999,-158.112000
1034.560059,93.695999,-113.216003
1044.319946,128.832001,-58.560001
1061.887939,185.440002,-5.856000
1079.456055,232.287994,0.000000
1120.447998,255.712006,13.664000
1134.112061,265.471985,25.375999
1132.160034,283.040009,56.608002
1136.063965,300.608002,50.751999
1132.160034,290.847992,7.808000
1120.447998,261.567993,25.375999
1122.400024,242.048004,52.703999
1126.303955,206.912003,60.512001
1118.495972,163.968002,46.848000
1100.927979,128.832001,35.136002
1098.975952,105.407997,-11.712000
1077.504028,128.832001,-85.888000
1069.696045,158.112000,-117.120003
1071.647949,175.679993,-35.136002
1095.072021,185.440002,11.712000
1106.784058,181.535995,21.472000
1120.447998,203.007996,37.088001
1122.400024,203.007996,66.367996
1116.543945,191.296005,93.695999
1104.832031,136.639999,81.984001
1098.975952,37.088001,72.223999
1098.975952,-62.464001,44.896000
1061.887939,-74.176003,-91.744003
1040.416016,3.904000,-222.528000
1020.895996,193.248001,-238.143997
1026.751953,365.023987,-191.296005
1048.223999,441.152008,-113.216003
1077.504028,435.295990,-15.616000
1116.543945,333.791992,35.136002
1104.832031,144.447998,11.712000
1067.744019,-11.712000,-25.375999
1026.751953,-39.040001,-97.599998
997.471985,-31.232000,-113.216003
979.903992,21.472000,-126.879997
997.471985,54.655998,-126.879997
1018.943970,85.888000,-91.744003
1026.751953,111.264000,-48.799999
1032.608032,136.639999,-46.848000
1032.608032,128.832001,-60.512001
1024.800049,144.447998,-80.031998
1007.231995,132.735992,-97.599998
995.520020,113.216003,-126.879997
977.952026,95.648003,-142.496002
958.432007,54.655998,-132.735992
968.192017,25.375999,-121.024002
979.903992,-3.904000,-99.552002
995.520020,0.000000,-78.080002
993.567993,17.568001,-70.272003
997.471985,29.280001,-70.272003
1003.328003,44.896000,-80.031998
999.424011,68.320000,-83.935997
991.616028,85.888000,-91.744003
983.807983,89.792000,-97.599998
983.807983,91.744003,-99.552002
976.000000,83.935997,-105.407997
989.664001,76.127998,-109.311996
993.567993,74.176003,-95.648003
993.567993,60.512001,-80.031998
995.520020,52.703999,-83.935997
985.760010,48.799999,-72.223999
981.856018,46.848000,-78.080002
968.192017,46.848000,-91.744003
979.903992,42.944000,-103.456001
991.616028,37.088001,-107.360001
991.616028,23.424000,-101.503998
993.567993,23.424000,-109.311996
985.760010,15.616000,-107.360001
991.616028,27.327999,-126.879997
993.567993,19.520000,-115.167999
995.520020,19.520000,-111.264000
989.664001,17.568001,-117.120003
981.856018,25.375999,-124.928001
968.192017,21.472000,-134.688004
974.047974,11.712000,-130.783997
976.000000,11.712000,-124.928001
976.000000,7.808000,-128.832001
972.096008,0.000000,-130.783997
966.239990,9.760000,-136.639999
964.288025,11.712000,-144.447998
962.335999,19.520000,-140.544006
968.192017,17.568001,-152.255997
972.096008,19.520000,-140.544006
974.047974,25.375999,-146.399994
974.047974,25.375999,-140.544006
966.239990,27.327999,-140.544006
977.952026,27.327999,-160.063995
966.239990,33.183998,-160.063995
968.192017,29.280001,-158.112000
977.952026,23.424000,-148.352005
985.760010,21.472000,-142.496002
985.760010,27.327999,-148.352005
985.760010,33.183998,-148.352005
979.903992,39.040001,-152.255997
976.000000,42.944000,-163.968002
987.711975,39.040001,-163.968002
987.711975,44.896000,-163.968002
1005.280029,35.136002,-160.063995
1001.375977,27.327999,-146.399994
995.520020,44.896000,-146.399994
997.471985,44.896000,-150.304001
987.711975,48.799999,-160.063995
997.471985,52.703999,-162.016006
997.471985,50.751999,-165.919998
997.471985,52.703999,-160.063995
1001.375977,48.799999,-148.352005
1001.375977,40.992001,-144.447998
999.424011,40.992001,-154.207993
999.424011,35.136002,-150.304001
1005.280029,50.751999,-152.255997
997.471985,46.848000,-156.160004
983.807983,60.512001,-165.919998
989.664001,66.367996,-183.488007
995.520020,52.703999,-183.488007
993.567993,48.799999,-173.727997
1005.280029,46.848000,-169.824005
1011.135986,48.799999,-158.112000
1009.184021,48.799999,-158.112000
1018.943970,52.703999,-175.679993
1007.231995,54.655998,-179.584000
1003.328003,66.367996,-173.727997
995.520020,87.839996,-171.776001
991.616028,78.080002,-183.488007
999.424011,76.127998,-179.584000
1009.184021,70.272003,-183.488007
1015.039978,66.367996,-183.488007
1009.184021,72.223999,-177.632004
1009.184021,74.176003,-173.727997
1013.088013,78.080002,-175.679993
1001.375977,87.839996,-195.199997
1007.231995,93.695999,-191.296005
1005.280029,93.695999,-183.488007
1013.088013,99.552002,-185.440002
1013.088013,97.599998,-175.679993
1018.943970,93.695999,-177.632004
1024.800049,74.176003,-187.391998
1018.943970,91.744003,-177.632004
1016.992004,99.552002,-183.488007
1007.231995,101.503998,-189.343994
1016.992004,101.503998,-191.296005
1016.992004,111.264000,-195.199997
1007.231995,119.071999,-193.248001
1016.992004,115.167999,-191.296005
1009.184021,113.216003,-187.391998
1007.231995,105.407997,-183.488007
1007.231995,111.264000,-185.440002
1001.375977,113.216003,-191.296005
995.520020,109.311996,-191.296005
997.471985,103.456001,-191.296005
1005.280029,107.360001,-183.488007
1009.184021,111.264000,-177.632004
995.520020,105.407997,-181.535995
993.567993,107.360001,-189.343994
983.807983,115.167999,-189.343994
997.471985,113.216003,-197.151993
997.471985,109.311996,-191.296005
983.807983,93.695999,-199.104004
983.807983,101.503998,-195.199997
979.903992,95.648003,-199.104004
979.903992,101.503998,-189.343994
972.096008,97.599998,-204.960007
981.856018,97.599998,-204.960007
974.047974,95.648003,-212.768005
968.192017,97.599998,-212.768005
960.383972,99.552002,-204.960007
964.288025,101.503998,-210.815994
962.335999,97.599998,-218.623993
956.479980,97.599998,-224.479996
958.432007,99.552002,-218.623993
954.528015,101.503998,-222.528000
948.671997,111.264000,-228.384003
944.768005,107.360001,-216.671997
954.528015,103.456001,-216.671997
952.575989,115.167999,-226.432007
956.479980,111.264000,-216.671997
962.335999,107.360001,-222.528000
948.671997,111.264000,-220.576004
944.768005,105.407997,-220.576004
950.624023,113.216003,-232.287994
954.528015,122.975998,-230.335999
960.383972,105.407997,-230.335999
962.335999,124.928001,-228.384003
958.432007,121.024002,-224.479996
960.383972,117.120003,-226.432007
962.335999,121.024002,-234.240005
964.288025,122.975998,-234.240005
972.096008,126.879997,-216.671997
972.096008,128.832001,-216.671997
972.096008,122.975998,-222.528000
977.952026,124.928001,-218.623993
981.856018,121.024002,-218.623993
976.000000,122.975998,-230.335999
977.952026,121.024002,-216.671997
989.664001,126.879997,-208.863998
997.471985,134.688004,-212.768005
991.616028,121.024002,-214.720001
995.520020,122.975998,-216.671997
991.616028,121.024002,-220.576004
991.616028,121.024002,-214.720001
1005.280029,121.024002,-201.056000
1003.328003,122.975998,-212.768005
1007.231995,134.688004,-206.912003
997.471985,122.975998,-206.912003
999.424011,121.024002,-203.007996
1003.328003,128.832001,-203.007996
1005.280029,124.928001,-206.912003
1007.231995,117.120003,-201.056000
1007.231995,122.975998,-206.912003
1011.135986,115.167999,-206.912003
1011.135986,117.120003,-203.007996
1016.992004,113.216003,-189.343994
1024.800049,122.975998,-197.151993
1022.848022,119.071999,-195.199997
1022.848022,115.167999,-197.151993
1020.895996,121.024002,-193.248001
1013.088013,128.832001,-203.007996
1022.848022,121.024002,-195.199997
1026.751953,130.783997,-199.104004
1016.992004,122.975998,-195.199997
1022.848022,115.167999,-191.296005
1024.800049,115.167999,-191.296005
1024.800049,109.311996,-189.343994
1016.992004,119.071999,-197.151993
1018.943970,115.167999,-201.056000
1018.943970,115.167999,-191.296005
1022.848022,121.024002,-185.440002
1020.895996,117.120003,-191.296005
1020.895996,115.167999,-197.151993
1022.848022,111.264000,-206.912003
1020.895996,113.216003,-204.960007
1024.800049,113.216003,-204.960007
1022.848022,101.503998,-199.104004
1028.703979,111.264000,-201.056000
1028.703979,113.216003,-203.007996
1020.895996,109.311996,-203.007996
1026.751953,113.216003,-204.960007
1016.992004,109.311996,-199.104004
1024.800049,107.360001,-201.056000
1022.848022,101.503998,-204.960007
1022.848022,101.503998,-201.056000
1032.608032,105.407997,-210.815994
1030.656006,97.599998,-201.056000
1034.560059,101.503998,-197.151993
1032.608032,95.648003,-195.199997
1026.751953,97.599998,-187.391998
1032.608032,97.599998,-189.343994
1036.511963,99.552002,-189.343994
1040.416016,99.552002,-181.535995
1026.751953,95.648003,-189.343994
1040.416016,93.695999,-193.248001
1034.560059,91.744003,-187.391998
1034.560059,93.695999,-193.248001
1044.319946,95.648003,-197.151993
1030.656006,89.792000,-193.248001
1026.751953,97.599998,-195.199997
1032.608032,99.552002,-199.104004
1026.751953,91.744003,-203.007996
1040.416016,103.456001,-204.960007
1028.703979,93.695999,-204.960007
1030.656006,103.456001,-212.768005
1018.943970,95.648003,-230.335999
1018.943970,91.744003,-234.240005
1016.992004,85.888000,-238.143997
1013.088013,93.695999,-244.000000
1009.184021,91.744003,-255.712006
1003.328003,85.888000,-247.904007
1003.328003,93.695999,-255.712006
1001.375977,97.599998,-247.904007
1005.280029,103.456001,-257.664001
1009.184021,107.360001,-265.471985
1011.135986,103.456001,-257.664001
1011.135986,99.552002,-255.712006
1011.135986,99.552002,-251.807999
1009.184021,99.552002,-253.759995
1005.280029,97.599998,-249.856003
1007.231995,99.552002,-257.664001
1007.231995,111.264000,-249.856003
1003.328003,115.167999,-238.143997
1024.800049,111.264000,-232.287994
1011.135986,115.167999,-232.287994
1022.848022,117.120003,-220.576004
1022.848022,122.975998,-216.671997
1022.848022,121.024002,-218.623993
1036.511963,119.071999,-206.912003
1038.463989,126.879997,-201.056000
1036.511963,124.928001,-203.007996
1038.463989,128.832001,-201.056000
1040.416016,128.832001,-195.199997
1038.463989,132.735992,-197.151993
1034.560059,130.783997,-199.104004
1038.463989,142.496002,-189.343994
1044.319946,132.735992,-185.440002
1040.416016,130.783997,-191.296005
1046.271973,124.928001,-193.248001
1038.463989,130.783997,-189.343994
1034.560059,122.975998,-185.440002
1042.368042,134.688004,-203.007996
1044.319946,132.735992,-203.007996
1036.511963,117.120003,-193.248001
1018.943970,126.879997,-195.199997
1020.895996,132.735992,-201.056000
1022.848022,122.975998,-206.912003
1022.848022,113.216003,-212.768005
1020.895996,113.216003,-222.528000
1018.943970,107.360001,-230.335999
1013.088013,119.071999,-230.335999
1007.231995,113.216003,-230.335999
1005.280029,119.071999,-232.287994
1009.184021,109.311996,-228.384003
1003.328003,115.167999,-234.240005
999.424011,111.264000,-228.384003
993.567993,111.264000,-234.240005
991.616028,99.552002,-236.192001
991.616028,101.503998,-236.192001
983.807983,103.456001,-245.951996
985.760010,93.695999,-238.143997
985.760010,93.695999,-240.095993
981.856018,99.552002,-230.335999
983.807983,89.792000,-238.143997
985.760010,89.792000,-242.048004
983.807983,89.792000,-232.287994
977.952026,87.839996,-224.479996
974.047974,87.839996,-238.143997
985.760010,78.080002,-240.095993
981.856018,72.223999,-228.384003
974.047974,62.464001,-226.432007
985.760010,62.464001,-222.528000
985.760010,66.367996,-222.528000
974.047974,68.320000,-216.671997
977.952026,50.751999,-216.671997
977.952026,62.464001,-224.479996
976.000000,50.751999,-218.623993
979.903992,42.944000,-216.671997
979.903992,46.848000,-210.815994
979.903992,42.944000,-214.720001
983.807983,39.040001,-201.056000
977.952026,31.232000,-201.056000
981.856018,31.232000,-201.056000
974.047974,27.327999,-199.104004
976.000000,23.424000,-206.912003
989.664001,29.280001,-189.343994
979.903992,25.375999,-191.296005
989.664001,25.375999,-185.440002
981.856018,29.280001,-187.391998
979.903992,27.327999,-181.535995
983.807983,19.520000,-187.391998
979.903992,25.375999,-181.535995
985.760010,17.568001,-185.440002
985.760010,11.712000,-191.296005
985.760010,7.808000,-185.440002
976.000000,7.808000,-183.488007
979.903992,7.808000,-185.440002
977.952026,3.904000,-177.632004
979.903992,-1.952000,-185.440002
972.096008,3.904000,-183.488007
983.807983,3.904000,-177.632004
985.760010,-1.952000,-177.632004
976.000000,-9.760000,-179.584000
979.903992,-9.760000,-179.584000
981.856018,-9.760000,-177.632004
974.047974,-19.520000,-185.440002
974.047974,-25.375999,-187.391998
976.000000,-25.375999,-185.440002
979.903992,-33.183998,-179.584000
977.952026,-27.327999,-177.632004
985.760010,-33.183998,-175.679993
977.952026,-33.183998,-181.535995
985.760010,-35.136002,-175.679993
987.711975,-37.088001,-179.584000
977.952026,-46.848000,-173.727997
981.856018,-58.560001,-173.727997
977.952026,-58.560001,-171.776001
981.856018,-52.703999,-165.919998
979.903992,-56.608002,-165.919998
976.000000,-66.367996,-169.824005
979.903992,-66.367996,-169.824005
976.000000,-64.416000,-167.871994
987.711975,-60.512001,-169.824005
985.760010,-62.464001,-177.632004
977.952026,-62.464001,-167.871994
970.143982,-62.464001,-169.824005
962.335999,-62.464001,-177.632004
956.479980,-58.560001,-187.391998
950.624023,-48.799999,-183.488007
944.768005,-50.751999,-199.104004
942.815979,-64.416000,-199.104004
935.007996,-54.655998,-210.815994
936.960022,-58.560001,-222.528000
935.007996,-50.751999,-212.768005
946.719971,-58.560001,-214.720001
940.864014,-64.416000,-218.623993
948.671997,-76.127998,-222.528000
942.815979,-68.320000,-228.384003
938.911987,-66.367996,-228.384003
929.151978,-76.127998,-242.048004
919.392029,-60.512001,-232.287994
925.247986,-64.416000,-245.951996
919.392029,-60.512001,-242.048004
925.247986,-52.703999,-242.048004
921.343994,-46.848000,-238.143997
927.200012,-46.848000,-238.143997
921.343994,-46.848000,-240.095993
931.104004,-48.799999,-251.807999
931.104004,-58.560001,-251.807999
938.911987,-52.703999,-244.000000
936.960022,-62.464001,-245.951996
940.864014,-58.560001,-238.143997
935.007996,-44.896000,-236.192001
936.960022,-42.944000,-228.384003
933.056030,-37.088001,-238.143997
936.960022,-27.327999,-230.335999
950.624023,-27.327999,-238.143997
948.671997,-15.616000,-228.384003
948.671997,-23.424000,-224.479996
954.528015,-17.568001,-216.671997
962.335999,-15.616000,-218.623993
964.288025,-17.568001,-224.479996
960.383972,-17.568001,-218.623993
970.143982,-7.808000,-218.623993
972.096008,-7.808000,-222.528000
972.096008,0.000000,-222.528000
966.239990,3.904000,-226.432007
976.000000,-1.952000,-222.528000
974.047974,9.760000,-222.528000
977.952026,5.856000,-216.671997
985.760010,9.760000,-216.671997
974.047974,11.712000,-220.576004
976.000000,9.760000,-226.432007
977.952026,15.616000,-234.240005
977.952026,15.616000,-234.240005
976.000000,21.472000,-242.048004
981.856018,15.616000,-245.951996
974.047974,29.280001,-240.095993
981.856018,27.327999,-244.000000
981.856018,29.280001,-261.567993
981.856018,31.232000,-255.712006
974.047974,39.040001,-257.664001
983.807983,42.944000,-277.183990
979.903992,39.040001,-257.664001
981.856018,42.944000,-267.424011
981.856018,42.944000,-271.328003
981.856018,62.464001,-275.231995
979.903992,58.560001,-267.424011
985.760010,56.608002,-275.231995
983.807983,58.560001,-279.135986
979.903992,66.367996,-281.088013
979.903992,70.272003,-281.088013
981.856018,83.935997,-279.135986
979.903992,74.176003,-277.183990
983.807983,85.888000,-259.615997
979.903992,78.080002,-271.328003
981.856018,91.744003,-281.088013
981.856018,83.935997,-277.183990
983.807983,95.648003,-277.183990
981.856018,97.599998,-271.328003
985.760010,101.503998,-271.328003
993.567993,119.071999,-265.471985
985.760010,119.071999,-271.328003
979.903992,117.120003,-273.279999
987.711975,130.783997,-271.328003
993.567993,124.928001,-271.328003
993.567993,117.120003,-271.328003
983.807983,126.879997,-279.135986
991.616028,121.024002,-281.088013
989.664001,124.928001,-283.040009
989.664001,128.832001,-279.135986
987.711975,136.639999,-277.183990
989.664001,130.783997,-275.231995
993.567993,128.832001,-281.088013
993.567993,134.688004,-281.088013
981.856018,142.496002,-284.992004
993.567993,138.591995,-281.088013
989.664001,146.399994,-290.847992
991.616028,146.399994,-288.895996
981.856018,154.207993,-284.992004
995.520020,154.207993,-286.944000
989.664001,152.255997,-284.992004
991.616028,158.112000,-288.895996
995.520020,152.255997,-283.040009
997.471985,146.399994,-277.183990
991.616028,158.112000,-281.088013
993.567993,160.063995,-275.231995
1005.280029,167.871994,-284.992004
991.616028,165.919998,-283.040009
995.520020,171.776001,-281.088013
1001.375977,169.824005,-269.376007
1009.184021,167.871994,-267.424011
1009.184021,160.063995,-267.424011
1003.328003,171.776001,-263.519989
1003.328003,160.063995,-267.424011
1003.328003,169.824005,-273.279999
1007.231995,173.727997,-277.183990
1003.328003,173.727997,-265.471985
1013.088013,173.727997,-257.664001
1007.231995,177.632004,-263.519989
1009.184021,173.727997,-257.664001
1007.231995,177.632004,-259.615997
1015.039978,167.871994,-265.471985
1005.280029,179.584000,-261.567993
1011.135986,175.679993,-261.567993
1009.184021,179.584000,-255.712006
1009.184021,181.535995,-261.567993
1016.992004,173.727997,-253.759995
1005.280029,173.727997,-247.904007
1007.231995,179.584000,-261.567993
1003.328003,177.632004,-259.615997
995.520020,177.632004,-257.664001
995.520020,175.679993,-271.328003
991.616028,173.727997,-265.471985
999.424011,179.584000,-263.519989
989.664001,173.727997,-263.519989
993.567993,171.776001,-275.231995
993.567993,175.679993,-271.328003
979.903992,179.584000,-269.376007
979.903992,185.440002,-275.231995
977.952026,173.727997,-277.183990
985.760010,173.727997,-281.088013
981.856018,169.824005,-271.328003
979.903992,171.776001,-288.895996
976.000000,163.968002,-279.135986
972.096008,175.679993,-283.040009
970.143982,175.679993,-286.944000
976.000000,173.727997,-284.992004
985.760010,179.584000,-290.847992
972.096008,181.535995,-288.895996
970.143982,183.488007,-296.704010
974.047974,167.871994,-290.847992
968.192017,162.016006,-290.847992
970.143982,167.871994,-298.656006
964.288025,162.016006,-294.752014
974.047974,163.968002,-290.847992
968.192017,167.871994,-288.895996
970.143982,181.535995,-283.040009
970.143982,169.824005,-292.799988
972.096008,167.871994,-290.847992
972.096008,162.016006,-292.799988
964.288025,165.919998,-300.608002
972.096008,160.063995,-298.656006
972.096008,165.919998,-296.704010
974.047974,163.968002,-286.944000
976.000000,162.016006,-279.135986
983.807983,156.160004,-283.040009
976.000000,156.160004,-283.040009
981.856018,144.447998,-284.992004
983.807983,144.447998,-281.088013
979.903992,150.304001,-273.279999
989.664001,148.352005,-275.231995
983.807983,150.304001,-279.135986
997.471985,142.496002,-273.279999
991.616028,142.496002,-273.279999
987.711975,138.591995,-275.231995
983.807983,146.399994,-259.615997
997.471985,128.832001,-259.615997
993.567993,132.735992,-255.712006
1005.280029,128.832001,-253.759995
1005.280029,121.024002,-255.712006
997.471985,126.879997,-247.904007
991.616028,128.832001,-251.807999
991.616028,124.928001,-244.000000
991.616028,126.879997,-247.904007
991.616028,122.975998,-251.807999
999.424011,126.879997,-244.000000
991.616028,126.879997,-245.951996
1001.375977,119.071999,-236.192001
1007.231995,126.879997,-236.192001
1003.328003,109.311996,-242.048004
995.520020,117.120003,-240.095993
1001.375977,105.407997,-238.143997
1007.231995,115.167999,-236.192001
1003.328003,107.360001,-242.048004
991.616028,101.503998,-244.000000
991.616028,111.264000,-242.048004
991.616028,105.407997,-242.048004
1001.375977,105.407997,-242.048004
991.616028,105.407997,-242.048004
993.567993,111.264000,-240.095993
989.664001,107.360001,-242.048004
989.664001,103.456001,-238.143997
983.807983,109.311996,-242.048004
976.000000,103.456001,-247.904007
981.856018,93.695999,-249.856003
983.807983,93.695999,-251.807999
977.952026,99.552002,-261.567993
977.952026,97.599998,-265.471985
968.192017,89.792000,-267.424011
966.239990,87.839996,-269.376007
962.335999,85.888000,-273.279999
958.432007,85.888000,-277.183990
958.432007,81.984001,-284.992004
956.479980,72.223999,-281.088013
958.432007,70.272003,-300.608002
950.624023,76.127998,-302.559998
946.719971,74.176003,-300.608002
946.719971,66.367996,-304.511993
946.719971,74.176003,-310.368011
929.151978,76.127998,-306.463989
935.007996,76.127998,-314.272003
935.007996,62.464001,-322.079987
935.007996,78.080002,-318.175995
931.104004,70.272003,-324.032013
923.296021,76.127998,-327.936005
925.247986,76.127998,-314.272003
931.104004,66.367996,-314.272003
925.247986,74.176003,-316.223999
935.007996,78.080002,-320.127991
931.104004,70.272003,-316.223999
929.151978,66.367996,-314.272003
929.151978,72.223999,-306.463989
921.343994,78.080002,-310.368011
921.343994,80.031998,-306.463989
933.056030,78.080002,-304.511993
931.104004,89.792000,-302.559998
933.056030,89.792000,-308.415985
935.007996,80.031998,-300.608002
936.960022,87.839996,-296.704010
938.911987,80.031998,-298.656006
946.719971,78.080002,-296.704010
944.768005,80.031998,-279.135986
944.768005,87.839996,-286.944000
944.768005,80.031998,-283.040009
944.768005,74.176003,-279.135986
940.864014,78.080002,-277.183990
952.575989,80.031998,-275.231995
950.624023,81.984001,-275.231995
950.624023,76.127998,-269.376007
958.432007,70.272003,-259.615997
958.432007,70.272003,-255.712006
956.479980,68.320000,-259.615997
950.624023,64.416000,-265.471985
958.432007,66.367996,-263.519989
966.239990,66.367996,-255.712006
952.575989,70.272003,-255.712006
958.432007,62.464001,-249.856003
958.432007,80.031998,-255.712006
958.432007,87.839996,-249.856003
962.335999,78.080002,-244.000000
962.335999,72.223999,-253.759995
962.335999,76.127998,-244.000000
958.432007,78.080002,-247.904007
954.528015,80.031998,-247.904007
958.432007,62.464001,-242.048004
964.288025,74.176003,-240.095993
966.239990,78.080002,-249.856003
964.288025,81.984001,-242.048004
964.288025,87.839996,-240.095993
962.335999,81.984001,-245.951996
966.239990,85.888000,-242.048004
966.239990,78.080002,-242.048004
962.335999,70.272003,-242.048004
958.432007,74.176003,-242.048004
972.096008,70.272003,-232.287994
972.096008,74.176003,-242.048004
970.143982,76.127998,-242.048004
972.096008,78.080002,-228.384003
977.952026,74.176003,-245.951996
966.239990,78.080002,-253.759995
974.047974,70.272003,-242.048004
972.096008,66.367996,-236.192001
968.192017,66.367996,-251.807999
970.143982,66.367996,-249.856003
970.143982,76.127998,-249.856003
972.096008,60.512001,-244.000000
970.143982,56.608002,-245.951996
970.143982,58.560001,-245.951996
970.143982,64.416000,-249.856003
970.143982,60.512001,-253.759995
970.143982,54.655998,-251.807999
964.288025,54.655998,-247.904007
968.192017,54.655998,-240.095993
976.000000,54.655998,-249.856003
981.856018,60.512001,-244.000000
966.239990,60.512001,-240.095993
968.192017,58.560001,-238.143997
968.192017,50.751999,-245.951996
976.000000,52.703999,-242.048004
979.903992,44.896000,-240.095993
977.952026,48.799999,-228.384003
977.952026,56.608002,-220.576004
976.000000,54.655998,-232.287994
977.952026,68.320000,-228.384003
964.288025,64.416000,-220.576004
968.192017,58.560001,-234.240005
968.192017,56.608002,-238.143997
976.000000,52.703999,-236.192001
972.096008,56.608002,-224.479996
977.952026,56.608002,-222.528000
972.096008,60.512001,-224.479996
976.000000,62.464001,-220.576004
979.903992,60.512001,-224.479996
977.952026,62.464001,-224.479996
981.856018,62.464001,-230.335999
972.096008,60.512001,-222.528000
960.383972,54.655998,-216.671997
968.192017,64.416000,-224.479996
981.856018,46.848000,-236.192001
977.952026,56.608002,-222.528000
977.952026,52.703999,-234.240005
976.000000,56.608002,-224.479996
976.000000,56.608002,-224.479996
970.143982,58.560001,-226.432007
964.288025,52.703999,-220.576004
968.192017,62.464001,-228.384003
962.335999,48.799999,-232.287994
958.432007,44.896000,-242.048004
964.288025,60.512001,-236.192001
970.143982,46.848000,-232.287994
960.383972,58.560001,-228.384003
952.575989,66.367996,-238.143997
960.383972,68.320000,-238.143997
954.528015,64.416000,-230.335999
954.528015,58.560001,-232.287994
960.383972,50.751999,-232.287994
960.383972,48.799999,-236.192001
960.383972,39.040001,-230.335999
956.479980,40.992001,-230.335999
952.575989,42.944000,-232.287994
964.288025,42.944000,-218.623993
962.335999,50.751999,-228.384003
950.624023,48.799999,-222.528000
962.335999,44.896000,-224.479996
948.671997,31.232000,-228.384003
946.719971,39.040001,-226.432007
954.528015,31.232000,-234.240005
946.719971,29.280001,-222.528000
956.479980,27.327999,-214.720001
952.575989,33.183998,-222.528000
954.528015,31.232000,-228.384003
948.671997,48.799999,-220.576004
960.383972,33.183998,-216.671997
950.624023,31.232000,-212.768005
960.383972,33.183998,-222.528000
952.575989,33.183998,-214.720001
960.383972,27.327999,-208.863998
952.575989,31.232000,-204.960007
962.335999,19.520000,-208.863998
954.528015,15.616000,-218.623993
956.479980,25.375999,-214.720001
954.528015,27.327999,-208.863998
954.528015,15.616000,-212.768005
958.432007,19.520000,-212.768005
950.624023,11.712000,-204.960007
940.864014,11.712000,-208.863998
948.671997,13.664000,-216.671997
960.383972,3.904000,-218.623993
950.624023,11.712000,-214.720001
950.624023,15.616000,-208.863998
948.671997,13.664000,-222.528000
954.528015,7.808000,-218.623993
933.056030,11.712000,-210.815994
938.911987,1.952000,-216.671997
942.815979,0.000000,-212.768005
942.815979,0.000000,-214.720001
942.815979,-3.904000,-212.768005
933.056030,-13.664000,-210.815994
933.056030,-1.952000,-214.720001
935.007996,0.000000,-208.863998
929.151978,1.952000,-214.720001
925.247986,5.856000,-208.863998
925.247986,3.904000,-218.623993
931.104004,1.952000,-212.768005
919.392029,-15.616000,-204.960007
911.583984,-3.904000,-210.815994
915.487976,-21.472000,-204.960007
913.536011,-19.520000,-216.671997
911.583984,-25.375999,-214.720001
911.583984,-17.568001,-216.671997
903.776001,-21.472000,-218.623993
905.728027,-23.424000,-222.528000
903.776001,-21.472000,-230.335999
911.583984,-17.568001,-230.335999
907.679993,-27.327999,-228.384003
903.776001,-31.232000,-228.384003
905.728027,-25.375999,-226.432007
901.823975,-39.040001,-234.240005
901.823975,-42.944000,-232.287994
905.728027,-31.232000,-234.240005
903.776001,-33.183998,-234.240005
895.968018,-27.327999,-245.951996
899.872009,-25.375999,-238.143997
899.872009,-25.375999,-236.192001
894.015991,-29.280001,-242.048004
894.015991,-35.136002,-242.048004
888.159973,-29.280001,-234.240005
897.919983,-25.375999,-242.048004
895.968018,-39.040001,-236.192001
897.919983,-23.424000,-238.143997
907.679993,-23.424000,-242.048004
894.015991,-39.040001,-238.143997
901.823975,-25.375999,-236.192001
899.872009,-31.232000,-234.240005
907.679993,-21.472000,-234.240005
895.968018,-17.568001,-232.287994
895.968018,-21.472000,-232.287994
895.968018,-23.424000,-238.143997
909.632019,-17.568001,-228.384003
901.823975,-15.616000,-224.479996
907.679993,-27.327999,-214.720001
899.872009,-27.327999,-230.335999
899.872009,-21.472000,-216.671997
897.919983,-13.664000,-224.479996
901.823975,-23.424000,-222.528000
905.728027,-13.664000,-226.432007
903.776001,-17.568001,-222.528000
905.728027,-19.520000,-218.623993
907.679993,-9.760000,-220.576004
901.823975,-17.568001,-222.528000
901.823975,-9.760000,-222.528000
911.583984,-13.664000,-218.623993
907.679993,-5.856000,-216.671997
905.728027,-11.712000,-214.720001
903.776001,-15.616000,-218.623993
897.919983,-9.760000,-216.671997
909.632019,-3.904000,-216.671997
909.632019,-5.856000,-212.768005
899.872009,-11.712000,-214.720001
905.728027,-15.616000,-212.768005
903.776001,-9.760000,-222.528000
907.679993,-11.712000,-210.815994
901.823975,-15.616000,-208.863998
903.776001,-9.760000,-212.768005
907.679993,-9.760000,-220.576004
903.776001,-19.520000,-224.479996
897.919983,-7.808000,-216.671997
894.015991,-9.760000,-222.528000
895.968018,-13.664000,-238.143997
897.919983,-11.712000,-230.335999
892.064026,-3.904000,-230.335999
899.872009,-5.856000,-226.432007
892.064026,-7.808000,-232.287994
894.015991,-9.760000,-234.240005
894.015991,-9.760000,-238.143997
897.919983,-11.712000,-238.143997
895.968018,-17.568001,-240.095993
892.064026,-11.712000,-238.143997
894.015991,-7.808000,-242.048004
894.015991,-13.664000,-242.048004
888.159973,-5.856000,-230.335999
888.159973,-15.616000,-238.143997
892.064026,-7.808000,-232.287994
897.919983,-19.520000,-232.287994
886.208008,-9.760000,-232.287994
882.304016,-21.472000,-234.240005
888.159973,-9.760000,-230.335999
895.968018,-11.712000,-222.528000
895.968018,-11.712000,-238.143997
899.872009,-13.664000,-228.384003
901.823975,-21.472000,-224.479996
899.872009,-9.760000,-220.576004
894.015991,-17.568001,-224.479996
899.872009,-13.664000,-216.671997
907.679993,-9.760000,-216.671997
901.823975,0.000000,-208.863998
905.728027,-19.520000,-216.671997
913.536011,-13.664000,-208.863998
911.583984,-9.760000,-203.007996
907.679993,-9.760000,-214.720001
917.440002,-19.520000,-214.720001
901.823975,-17.568001,-208.863998
909.632019,-17.568001,-206.912003
915.487976,-21.472000,-206.912003
913.536011,-15.616000,-208.863998
905.728027,-9.760000,-204.960007
907.679993,-13.664000,-206.912003
907.679993,-17.568001,-204.960007
901.823975,-11.712000,-206.912003
913.536011,-3.904000,-201.056000
913.536011,-3.904000,-210.815994
909.632019,-9.760000,-203.007996
913.536011,-5.856000,-204.960007
909.632019,-15.616000,-208.863998
911.583984,-7.808000,-204.960007
901.823975,-7.808000,-214.720001
909.632019,-5.856000,-204.960007
905.728027,-13.664000,-206.912003
905.728027,-7.808000,-214.720001
903.776001,-9.760000,-218.623993
911.583984,-9.760000,-212.768005
905.728027,-13.664000,-214.720001
903.776001,-11.712000,-206.912003
895.968018,-5.856000,-216.671997
899.872009,-15.616000,-222.528000
897.919983,-19.520000,-212.768005
907.679993,-9.760000,-220.576004
899.872009,-15.616000,-218.623993
903.776001,-17.568001,-222.528000
899.872009,-17.568001,-222.528000
894.015991,-15.616000,-212.768005
903.776001,-17.568001,-220.576004
897.919983,-17.568001,-224.479996
903.776001,-15.616000,-218.623993
894.015991,-19.520000,-222.528000
903.776001,-15.616000,-224.479996
903.776001,-25.375999,-230.335999
897.919983,-29.280001,-226.432007
903.776001,-29.280001,-222.528000
897.919983,-27.327999,-222.528000
903.776001,-21.472000,-224.479996
901.823975,-17.568001,-230.335999
907.679993,-19.520000,-230.335999
907.679993,-25.375999,-230.335999
915.487976,-9.760000,-234.240005
901.823975,-19.520000,-230.335999
905.728027,-21.472000,-242.048004
903.776001,-21.472000,-234.240005
901.823975,-13.664000,-232.287994
903.776001,-21.472000,-224.479996
907.679993,-19.520000,-232.287994
913.536011,-27.327999,-232.287994
919.392029,-27.327999,-234.240005
905.728027,-23.424000,-228.384003
917.440002,-15.616000,-240.095993
901.823975,-21.472000,-238.143997
897.919983,-25.375999,-230.335999
913.536011,-27.327999,-230.335999
909.632019,-17.568001,-238.143997
911.583984,-9.760000,-230.335999
915.487976,-21.472000,-234.240005
915.487976,-15.616000,-234.240005
907.679993,-13.664000,-238.143997
901.823975,-19.520000,-236.192001
915.487976,-17.568001,-234.240005
909.632019,-17.568001,-234.240005
907.679993,-25.375999,-234.240005
909.632019,-19.520000,-236.192001
913.536011,-23.424000,-228.384003
919.392029,-13.664000,-220.576004
905.728027,-17.568001,-224.479996
909.632019,-27.327999,-234.240005
923.296021,-25.375999,-228.384003
915.487976,-23.424000,-228.384003
913.536011,-21.472000,-230.335999
911.583984,-17.568001,-228.384003
915.487976,-11.712000,-224.479996
925.247986,-15.616000,-224.479996
925.247986,-21.472000,-228.384003
925.247986,-15.616000,-222.528000
923.296021,-13.664000,-220.576004
923.296021,-17.568001,-226.432007
917.440002,-19.520000,-220.576004
925.247986,-23.424000,-228.384003
919.392029,-11.712000,-224.479996
927.200012,-13.664000,-230.335999
931.104004,-1.952000,-234.240005
917.440002,-5.856000,-232.287994
917.440002,-17.568001,-234.240005
915.487976,-21.472000,-232.287994
925.247986,-31.232000,-234.240005
923.296021,-23.424000,-224.479996
925.247986,-17.568001,-230.335999
925.247986,-19.520000,-224.479996
919.392029,-7.808000,-236.192001
925.247986,-11.712000,-228.384003
921.343994,-21.472000,-242.048004
915.487976,-17.568001,-236.192001
921.343994,-13.664000,-232.287994
919.392029,-15.616000,-234.240005
927.200012,-23.424000,-234.240005
921.343994,-15.616000,-234.240005
929.151978,-13.664000,-232.287994
929.151978,-17.568001,-232.287994
931.104004,-13.664000,-230.335999
929.151978,-13.664000,-232.287994
927.200012,-11.712000,-234.240005
931.104004,-5.856000,-228.384003
935.007996,-19.520000,-232.287994
923.296021,-15.616000,-232.287994
925.247986,-11.712000,-234.240005
929.151978,-19.520000,-232.287994
935.007996,-5.856000,-228.384003
933.056030,-7.808000,-226.432007
938.911987,-19.520000,-236.192001
925.247986,-17.568001,-226.432007
933.056030,-19.520000,-236.192001
942.815979,-5.856000,-234.240005
942.815979,-7.808000,-232.287994
931.104004,-7.808000,-226.432007
936.960022,-15.616000,-224.479996
936.960022,-5.856000,-234.240005
942.815979,-3.904000,-234.240005
944.768005,-3.904000,-238.143997
944.768005,-7.808000,-236.192001
956.479980,-5.856000,-228.384003
952.575989,-9.760000,-234.240005
948.671997,-17.568001,-240.095993
950.624023,-15.616000,-234.240005
948.671997,-7.808000,-242.048004
950.624023,-9.760000,-234.240005
958.432007,-1.952000,-232.287994
948.671997,-11.712000,-234.240005
954.528015,-7.808000,-234.240005
956.479980,-7.808000,-236.192001
962.335999,0.000000,-240.095993
956.479980,-1.952000,-236.192001
960.383972,-15.616000,-245.951996
962.335999,-5.856000,-234.240005
954.528015,-3.904000,-236.192001
958.432007,-11.712000,-236.192001
966.239990,-1.952000,-228.384003
966.239990,-1.952000,-234.240005
960.383972,-3.904000,-226.432007
966.239990,-3.904000,-234.240005
968.192017,-5.856000,-236.192001
976.000000,1.952000,-236.192001
977.952026,-1.952000,-224.479996
976.000000,-3.904000,-232.287994
979.903992,-3.904000,-230.335999
985.760010,9.760000,-218.623993
972.096008,0.000000,-218.623993
985.760010,9.760000,-220.576004
983.807983,0.000000,-230.335999
979.903992,0.000000,-220.576004
991.616028,0.000000,-230.335999
991.616028,-7.808000,-226.432007
977.952026,0.000000,-224.479996
985.760010,5.856000,-218.623993
979.903992,5.856000,-226.432007
993.567993,3.904000,-230.335999
997.471985,3.904000,-226.432007
991.616028,1.952000,-220.576004
993.567993,3.904000,-224.479996
989.664001,7.808000,-230.335999
977.952026,-5.856000,-230.335999
987.711975,1.952000,-226.432007
981.856018,1.952000,-236.192001
991.616028,7.808000,-236.192001
989.664001,3.904000,-242.048004
979.903992,1.952000,-240.095993
987.711975,1.952000,-232.287994
985.760010,7.808000,-249.856003
977.952026,5.856000,-244.000000
979.903992,3.904000,-244.000000
974.047974,3.904000,-251.807999
972.096008,0.000000,-249.856003
972.096008,-1.952000,-249.856003
977.952026,-3.904000,-242.048004
972.096008,7.808000,-249.856003
974.047974,11.712000,-253.759995
976.000000,5.856000,-259.615997
972.096008,1.952000,-265.471985
964.288025,1.952000,-257.664001
966.239990,1.952000,-253.759995
972.096008,0.000000,-255.712006
972.096008,-7.808000,-247.904007
981.856018,0.000000,-255.712006
983.807983,3.904000,-247.904007
981.856018,0.000000,-251.807999
968.192017,0.000000,-251.807999
977.952026,9.760000,-247.904007
989.664001,9.760000,-245.951996
981.856018,15.616000,-245.951996
977.952026,11.712000,-240.095993
985.760010,9.760000,-249.856003
983.807983,9.760000,-249.856003
974.047974,9.760000,-244.000000
976.000000,13.664000,-247.904007
974.047974,5.856000,-245.951996
989.664001,15.616000,-245.951996
981.856018,13.664000,-240.095993
976.000000,21.472000,-238.143997
976.000000,7.808000,-240.095993
976.000000,9.760000,-242.048004
977.952026,15.616000,-238.143997
981.856018,15.616000,-234.240005
974.047974,19.520000,-236.192001
979.903992,23.424000,-238.143997
987.711975,19.520000,-236.192001
985.760010,25.375999,-234.240005
979.903992,17.568001,-232.287994
979.903992,17.568001,-236.192001
972.096008,15.616000,-238.143997
970.143982,7.808000,-242.048004
976.000000,15.616000,-240.095993
974.047974,23.424000,-234.240005
972.096008,25.375999,-249.856003
976.000000,15.616000,-245.951996
974.047974,21.472000,-238.143997
964.288025,17.568001,-240.095993
968.192017,25.375999,-244.000000
964.288025,13.664000,-244.000000
960.383972,17.568001,-244.000000
970.143982,23.424000,-245.951996
972.096008,27.327999,-249.856003
976.000000,17.568001,-247.904007
964.288025,19.520000,-240.095993
964.288025,15.616000,-249.856003
970.143982,21.472000,-251.807999
977.952026,15.616000,-245.951996
970.143982,17.568001,-244.000000
964.288025,13.664000,-249.856003
966.239990,11.712000,-249.856003
968.192017,15.616000,-244.000000
974.047974,17.568001,-251.807999
974.047974,15.616000,-244.000000
979.903992,17.568001,-249.856003
976.000000,21.472000,-244.000000
974.047974,17.568001,-247.904007
979.903992,11.712000,-247.904007
979.903992,13.664000,-253.759995
977.952026,17.568001,-245.951996
972.096008,11.712000,-242.048004
976.000000,17.568001,-253.759995
979.903992,11.712000,-249.856003
981.856018,9.760000,-240.095993
976.000000,25.375999,-244.000000
985.760010,15.616000,-234.240005
991.616028,17.568001,-242.048004
987.711975,17.568001,-247.904007
991.616028,17.568001,-236.192001
987.711975,17.568001,-240.095993
995.520020,17.568001,-242.048004
991.616028,11.712000,-242.048004
983.807983,21.472000,-245.951996
983.807983,15.616000,-238.143997
997.471985,17.568001,-238.143997
991.616028,11.712000,-242.048004
993.567993,19.520000,-240.095993
993.567993,25.375999,-240.095993
1003.328003,15.616000,-234.240005
1003.328003,11.712000,-234.240005
995.520020,17.568001,-232.287994
991.616028,17.568001,-238.143997
999.424011,21.472000,-236.192001
995.520020,13.664000,-232.287994
995.520020,7.808000,-236.192001
1001.375977,7.808000,-232.287994
991.616028,13.664000,-236.192001
1003.328003,13.664000,-238.143997
1009.184021,9.760000,-232.287994
997.471985,11.712000,-238.143997
1001.375977,9.760000,-232.287994
997.471985,7.808000,-242.048004
995.520020,17.568001,-232.287994
1001.375977,11.712000,-236.192001
995.520020,5.856000,-242.048004
1005.280029,7.808000,-244.000000
999.424011,3.904000,-244.000000
1001.375977,9.760000,-236.192001
1003.328003,13.664000,-234.240005
1003.328003,9.760000,-234.240005
999.424011,-3.904000,-245.951996
999.424011,7.808000,-242.048004
995.520020,5.856000,-238.143997
1009.184021,3.904000,-240.095993
1005.280029,0.000000,-247.904007
1009.184021,3.904000,-240.095993
993.567993,-1.952000,-240.095993
993.567993,-5.856000,-234.240005
993.567993,7.808000,-232.287994
987.711975,1.952000,-236.192001
993.567993,5.856000,-234.240005
995.520020,-13.664000,-242.048004
995.520020,-3.904000,-245.951996
991.616028,-11.712000,-236.192001
997.471985,-5.856000,-240.095993
987.711975,-1.952000,-234.240005
983.807983,-9.760000,-234.240005
993.567993,0.000000,-245.951996
985.760010,1.952000,-242.048004
991.616028,-7.808000,-238.143997
989.664001,-11.712000,-244.000000
995.520020,-5.856000,-249.856003
989.664001,-17.568001,-245.951996
995.520020,-15.616000,-232.287994
983.807983,-9.760000,-242.048004
993.567993,-13.664000,-240.095993
985.760010,-11.712000,-240.095993
989.664001,-9.760000,-240.095993
989.664001,-17.568001,-245.951996
993.567993,-21.472000,-251.807999
989.664001,-27.327999,-247.904007
993.567993,-29.280001,-244.000000
991.616028,-31.232000,-245.951996
995.520020,-31.232000,-240.095993
979.903992,-35.136002,-242.048004
995.520020,-25.375999,-236.192001
991.616028,-35.136002,-245.951996
997.471985,-23.424000,-240.095993
993.567993,-31.232000,-240.095993
993.567993,-31.232000,-236.192001
997.471985,-39.040001,-236.192001
991.616028,-27.327999,-245.951996
993.567993,-39.040001,-234.240005
993.567993,-42.944000,-245.951996
997.471985,-40.992001,-249.856003
995.520020,-42.944000,-232.287994
1001.375977,-21.472000,-240.095993
1001.375977,-31.232000,-224.479996
997.471985,-25.375999,-236.192001
1005.280029,-39.040001,-236.192001
997.471985,-35.136002,-240.095993
1005.280029,-33.183998,-244.000000
991.616028,-33.183998,-245.951996
995.520020,-42.944000,-242.048004
995.520020,-44.896000,-236.192001
993.567993,-35.136002,-238.143997
993.567993,-35.136002,-238.143997
999.424011,-31.232000,-234.240005
999.424011,-33.183998,-234.240005
1005.280029,-37.088001,-236.192001
997.471985,-37.088001,-234.240005
999.424011,-35.136002,-234.240005
997.471985,-39.040001,-244.000000
999.424011,-25.375999,-238.143997
991.616028,-31.232000,-242.048004
1001.375977,-37.088001,-249.856003
997.471985,-44.896000,-242.048004
993.567993,-37.088001,-236.192001
993.567993,-37.088001,-238.143997
991.616028,-50.751999,-234.240005
997.471985,-42.944000,-240.095993
995.520020,-37.088001,-236.192001
993.567993,-33.183998,-245.951996
1001.375977,-35.136002,-247.904007
989.664001,-33.183998,-245.951996
1001.375977,-25.375999,-249.856003
995.520020,-29.280001,-247.904007
999.424011,-23.424000,-244.000000
999.424011,-31.232000,-245.951996
995.520020,-23.424000,-242.048004
999.424011,-33.183998,-240.095993
995.520020,-25.375999,-242.048004
995.520020,-17.568001,-234.240005
995.520020,-25.375999,-232.287994
999.424011,-21.472000,-244.000000
997.471985,-25.375999,-242.048004
1001.375977,-13.664000,-242.048004
991.616028,-23.424000,-236.192001
1003.328003,-23.424000,-236.192001
1003.328003,-25.375999,-230.335999
997.471985,-23.424000,-232.287994
995.520020,-21.472000,-232.287994
1005.280029,-29.280001,-230.335999
991.616028,-19.520000,-238.143997
991.616028,-13.664000,-236.192001
995.520020,-19.520000,-232.287994
993.567993,-21.472000,-230.335999
985.760010,-15.616000,-226.432007
997.471985,-19.520000,-232.287994
1009.184021,-17.568001,-234.240005
1001.375977,-13.664000,-238.143997
1003.328003,-17.568001,-234.240005
997.471985,-13.664000,-236.192001
991.616028,-13.664000,-236.192001
993.567993,-13.664000,-236.192001
993.567993,-11.712000,-238.143997
985.760010,-7.808000,-238.143997
983.807983,-19.520000,-236.192001
989.664001,-15.616000,-245.951996
987.711975,-19.520000,-247.904007
993.567993,-15.616000,-251.807999
987.711975,-13.664000,-247.904007
989.664001,-1.952000,-245.951996
987.711975,-9.760000,-244.000000
987.711975,-13.664000,-247.904007
983.807983,-17.568001,-240.095993
976.000000,-27.327999,-245.951996
985.760010,-21.472000,-249.856003
979.903992,-11.712000,-245.951996
976.000000,-13.664000,-247.904007
981.856018,0.000000,-255.712006
981.856018,-11.712000,-244.000000
989.664001,-11.712000,-244.000000
979.903992,-15.616000,-242.048004
985.760010,-5.856000,-240.095993
977.952026,0.000000,-244.000000
987.711975,-3.904000,-240.095993
983.807983,-7.808000,-242.048004
974.047974,-7.808000,-238.143997
970.143982,-7.808000,-253.759995
989.664001,-3.904000,-245.951996
979.903992,-3.904000,-249.856003
985.760010,-7.808000,-245.951996
987.711975,1.952000,-247.904007
985.760010,7.808000,-245.951996
983.807983,1.952000,-236.192001
987.711975,1.952000,-236.192001
993.567993,-1.952000,-236.192001
987.711975,-5.856000,-234.240005
987.711975,-7.808000,-232.287994
993.567993,-11.712000,-242.048004
985.760010,-1.952000,-242.048004
993.567993,-1.952000,-240.095993
997.471985,0.000000,-238.143997
991.616028,0.000000,-242.048004
993.567993,-5.856000,-238.143997
987.711975,-1.952000,-238.143997
991.616028,-7.808000,-247.904007
989.664001,-1.952000,-244.000000
985.760010,3.904000,-251.807999
985.760010,9.760000,-247.904007
977.952026,9.760000,-245.951996
989.664001,9.760000,-255.712006
981.856018,-1.952000,-253.759995
991.616028,7.808000,-242.048004
995.520020,7.808000,-244.000000
985.760010,-3.904000,-242.048004
981.856018,-5.856000,-244.000000
987.711975,5.856000,-245.951996
979.903992,9.760000,-247.904007
977.952026,3.904000,-245.951996
985.760010,13.664000,-253.759995
997.471985,9.760000,-244.000000
989.664001,5.856000,-242.048004
993.567993,0.000000,-240.095993
981.856018,1.952000,-238.143997
979.903992,-3.904000,-242.048004
981.856018,1.952000,-236.192001
993.567993,5.856000,-242.048004
979.903992,-3.904000,-238.143997
989.664001,3.904000,-234.240005
989.664001,-5.856000,-249.856003
993.567993,5.856000,-240.095993
985.760010,-3.904000,-242.048004
979.903992,3.904000,-244.000000
989.664001,-1.952000,-249.856003
989.664001,5.856000,-251.807999
993.567993,3.904000,-249.856003
985.760010,7.808000,-247.904007
987.711975,1.952000,-244.000000
987.711975,-3.904000,-245.951996
987.711975,0.000000,-245.951996
983.807983,1.952000,-245.951996
983.807983,-3.904000,-249.856003
979.903992,-1.952000,-244.000000
981.856018,-3.904000,-249.856003
981.856018,-5.856000,-244.000000
974.047974,-9.760000,-244.000000
970.143982,-13.664000,-244.000000
974.047974,-15.616000,-251.807999
976.000000,-5.856000,-244.000000
979.903992,-11.712000,-249.856003
972.096008,-15.616000,-240.095993
972.096008,-9.760000,-247.904007
970.143982,-3.904000,-245.951996
979.903992,1.952000,-238.143997
972.096008,-15.616000,-247.904007
979.903992,-13.664000,-245.951996
979.903992,-21.472000,-245.951996
985.760010,-21.472000,-244.000000
976.000000,-21.472000,-236.192001
977.952026,-19.520000,-240.095993
977.952026,-17.568001,-245.951996
985.760010,-19.520000,-244.000000
976.000000,-21.472000,-245.951996
972.096008,-23.424000,-245.951996
972.096008,-17.568001,-236.192001
974.047974,-27.327999,-249.856003
979.903992,-19.520000,-247.904007
979.903992,-11.712000,-242.048004
991.616028,-25.375999,-236.192001
989.664001,-11.712000,-247.904007
983.807983,-13.664000,-244.000000
983.807983,-19.520000,-242.048004
977.952026,-17.568001,-240.095993
979.903992,-27.327999,-238.143997
979.903992,-19.520000,-245.951996
979.903992,-13.664000,-247.904007
977.952026,-21.472000,-236.192001
976.000000,-9.760000,-242.048004
976.000000,-15.616000,-245.951996
979.903992,-13.664000,-245.951996
981.856018,-15.616000,-240.095993
979.903992,-13.664000,-240.095993
977.952026,-13.664000,-249.856003
981.856018,-17.568001,-240.095993
977.952026,-15.616000,-240.095993
976.000000,-25.375999,-247.904007
976.000000,-25.375999,-253.759995
976.000000,-25.375999,-245.951996
981.856018,-17.568001,-238.143997
977.952026,-15.616000,-245.951996
972.096008,-17.568001,-245.951996
962.335999,-17.568001,-249.856003
962.335999,-15.616000,-249.856003
962.335999,-13.664000,-240.095993
970.143982,-15.616000,-244.000000
981.856018,-27.327999,-236.192001
977.952026,-23.424000,-240.095993
968.192017,-15.616000,-242.048004
983.807983,-23.424000,-240.095993
979.903992,-13.664000,-249.856003
976.000000,-23.424000,-245.951996
977.952026,-15.616000,-245.951996
976.000000,-19.520000,-247.904007
981.856018,-21.472000,-238.143997
989.664001,-21.472000,-236.192001
989.664001,-23.424000,-232.287994
995.520020,-13.664000,-230.335999
1001.375977,-19.520000,-230.335999
995.520020,-19.520000,-232.287994
987.711975,-9.760000,-244.000000
985.760010,-11.712000,-244.000000
991.616028,-9.760000,-245.951996
987.711975,-23.424000,-245.951996
991.616028,-17.568001,-236.192001
995.520020,-13.664000,-236.192001
995.520020,-13.664000,-232.287994
989.664001,-19.520000,-236.192001
1001.375977,-13.664000,-236.192001
1001.375977,-19.520000,-238.143997
991.616028,-17.568001,-238.143997
989.664001,-19.520000,-236.192001
993.567993,-17.568001,-224.479996
1001.375977,-23.424000,-238.143997
1001.375977,-19.520000,-232.287994
999.424011,-13.664000,-226.432007
991.616028,-9.760000,-226.432007
1009.184021,-15.616000,-236.192001
991.616028,-23.424000,-242.048004
995.520020,-25.375999,-236.192001
1001.375977,-15.616000,-238.143997
1001.375977,-23.424000,-224.479996
1005.280029,-15.616000,-230.335999
995.520020,-25.375999,-230.335999
995.520020,-25.375999,-232.287994
995.520020,-15.616000,-226.432007
995.520020,-23.424000,-236.192001
1003.328003,-23.424000,-232.287994
1001.375977,-21.472000,-236.192001
1001.375977,-21.472000,-230.335999
987.711975,-13.664000,-234.240005
995.520020,-19.520000,-242.048004
995.520020,-23.424000,-234.240005
993.567993,-11.712000,-238.143997
987.711975,-21.472000,-228.384003
995.520020,-15.616000,-244.000000
989.664001,-17.568001,-240.095993
991.616028,-17.568001,-236.192001
989.664001,-27.327999,-228.384003
997.471985,-13.664000,-234.240005
993.567993,-15.616000,-230.335999
991.616028,-21.472000,-242.048004
979.903992,-13.664000,-228.384003
985.760010,-21.472000,-230.335999
983.807983,-19.520000,-234.240005
993.567993,-17.568001,-249.856003
981.856018,-19.520000,-238.143997
991.616028,-17.568001,-232.287994
989.664001,-11.712000,-232.287994
983.807983,-17.568001,-234.240005
983.807983,-17.568001,-228.384003
974.047974,-19.520000,-226.432007
979.903992,-19.520000,-228.384003
976.000000,-5.856000,-224.479996
979.903992,-15.616000,-234.240005
979.903992,-9.760000,-232.287994
972.096008,-17.568001,-234.240005
979.903992,-15.616000,-242.048004
977.952026,-17.568001,-236.192001
972.096008,-17.568001,-238.143997
966.239990,-15.616000,-242.048004
968.192017,-13.664000,-238.143997
964.288025,-11.712000,-244.000000
966.239990,-15.616000,-244.000000
962.335999,-5.856000,-245.951996
964.288025,-1.952000,-238.143997
970.143982,-11.712000,-232.287994
962.335999,-15.616000,-242.048004
962.335999,-11.712000,-236.192001
956.479980,-11.712000,-236.192001
960.383972,-13.664000,-232.287994
962.335999,-13.664000,-238.143997
960.383972,-13.664000,-242.048004
964.288025,-11.712000,-242.048004
966.239990,-5.856000,-240.095993
964.288025,-5.856000,-247.904007
962.335999,-1.952000,-238.143997
960.383972,-11.712000,-240.095993
960.383972,-9.760000,-228.384003
956.479980,-5.856000,-234.240005
958.432007,-11.712000,-244.000000
962.335999,-15.616000,-244.000000
966.239990,-13.664000,-242.048004
958.432007,-11.712000,-234.240005
962.335999,-13.664000,-232.287994
956.479980,-5.856000,-236.192001
966.239990,5.856000,-232.287994
956.479980,5.856000,-228.384003
962.335999,0.000000,-240.095993
958.432007,5.856000,-234.240005
954.528015,0.000000,-240.095993
962.335999,3.904000,-242.048004
960.383972,0.000000,-236.192001
954.528015,0.000000,-238.143997
966.239990,-7.808000,-234.240005
962.335999,-7.808000,-234.240005
968.192017,-1.952000,-232.287994
960.383972,0.000000,-238.143997
958.432007,7.808000,-232.287994
960.383972,5.856000,-242.048004
956.479980,5.856000,-242.048004
966.239990,5.856000,-242.048004
962.335999,5.856000,-238.143997
952.575989,13.664000,-236.192001
958.432007,5.856000,-245.951996
962.335999,0.000000,-234.240005
952.575989,1.952000,-236.192001
954.528015,1.952000,-238.143997
970.143982,0.000000,-238.143997
964.288025,-1.952000,-238.143997
956.479980,1.952000,-244.000000
960.383972,0.000000,-242.048004
960.383972,9.760000,-242.048004
960.383972,11.712000,-232.287994
962.335999,9.760000,-238.143997
962.335999,0.000000,-245.951996
958.432007,9.760000,-240.095993
954.528015,7.808000,-247.904007
952.575989,13.664000,-247.904007
966.239990,13.664000,-244.000000
960.383972,11.712000,-242.048004
962.335999,15.616000,-244.000000
958.432007,7.808000,-242.048004
962.335999,0.000000,-242.048004
966.239990,9.760000,-249.856003
958.432007,13.664000,-245.951996
948.671997,5.856000,-245.951996
960.383972,11.712000,-242.048004
962.335999,15.616000,-249.856003
956.479980,11.712000,-245.951996
960.383972,13.664000,-236.192001
960.383972,0.000000,-238.143997
956.479980,13.664000,-242.048004
960.383972,17.568001,-244.000000
962.335999,5.856000,-242.048004
966.239990,15.616000,-242.048004
964.288025,15.616000,-244.000000
964.288025,17.568001,-242.048004
966.239990,13.664000,-242.048004
966.239990,7.808000,-242.048004
962.335999,13.664000,-244.000000
960.383972,19.520000,-236.192001
962.335999,25.375999,-238.143997
960.383972,21.472000,-247.904007
958.432007,15.616000,-242.048004
958.432007,17.568001,-236.192001
958.432007,15.616000,-238.143997
966.239990,25.375999,-234.240005
956.479980,15.616000,-232.287994
958.432007,21.472000,-238.143997
966.239990,11.712000,-238.143997
954.528015,21.472000,-234.240005
966.239990,15.616000,-242.048004
960.383972,13.664000,-232.287994
964.288025,7.808000,-234.240005
964.288025,17.568001,-232.287994
960.383972,11.712000,-242.048004
958.432007,17.568001,-232.287994
958.432007,13.664000,-242.048004
952.575989,15.616000,-228.384003
958.432007,17.568001,-230.335999
966.239990,19.520000,-240.095993
958.432007,25.375999,-240.095993
952.575989,17.568001,-244.000000
958.432007,15.616000,-234.240005
952.575989,17.568001,-238.143997
958.432007,9.760000,-234.240005
958.432007,3.904000,-236.192001
952.575989,3.904000,-236.192001
960.383972,13.664000,-244.000000
958.432007,9.760000,-238.143997
952.575989,5.856000,-244.000000
948.671997,9.760000,-242.048004
954.528015,11.712000,-240.095993
946.719971,3.904000,-232.287994
952.575989,3.904000,-234.240005
958.432007,9.760000,-236.192001
950.624023,9.760000,-238.143997
956.479980,5.856000,-234.240005
956.479980,3.904000,-236.192001
952.575989,9.760000,-238.143997
962.335999,0.000000,-238.143997
952.575989,3.904000,-234.240005
956.479980,-1.952000,-234.240005
962.335999,-1.952000,-234.240005
954.528015,-3.904000,-236.192001
966.239990,-3.904000,-228.384003
960.383972,0.000000,-232.287994
958.432007,3.904000,-228.384003
