ACC_X,ACC_Y,ACC_Z
589.504028,458.720001,677.343994
585.599976,458.720001,683.200012
591.455994,456.768005,665.632019
583.648010,458.720001,681.247986
581.695984,460.671997,677.343994
583.648010,450.911987,671.487976
577.791992,458.720001,667.583984
595.359985,454.816010,661.728027
587.552002,452.864014,655.872009
581.695984,454.816010,665.632019
583.648010,462.623993,661.728027
581.695984,460.671997,665.632019
583.648010,458.720001,657.823975
577.791992,452.864014,659.776001
581.695984,456.768005,659.776001
583.648010,456.768005,661.728027
581.695984,462.623993,659.776001
583.648010,458.720001,651.968018
579.744019,462.623993,661.728027
585.599976,460.671997,659.776001
587.552002,462.623993,667.583984
587.552002,462.623993,665.632019
587.552002,456.768005,665.632019
579.744019,464.575989,663.679993
581.695984,460.671997,665.632019
595.359985,466.528015,665.632019
587.552002,462.623993,665.632019
587.552002,456.768005,665.632019
587.552002,466.528015,665.632019
591.455994,464.575989,671.487976
581.695984,464.575989,673.440002
587.552002,464.575989,671.487976
589.504028,474.335999,671.487976
591.455994,466.528015,671.487976
585.599976,472.384003,673.440002
581.695984,466.528015,665.632019
581.695984,466.528015,665.632019
581.695984,464.575989,663.679993
585.599976,460.671997,657.823975
577.791992,468.480011,661.728027
587.552002,464.575989,665.632019
581.695984,470.432007,661.728027
581.695984,474.335999,677.343994
575.840027,472.384003,665.632019
579.744019,466.528015,661.728027
571.935974,472.384003,669.536011
573.888000,472.384003,663.679993
575.840027,472.384003,663.679993
577.791992,478.239990,665.632019
583.648010,468.480011,667.583984
573.888000,464.575989,663.679993
577.791992,472.384003,667.583984
575.840027,478.239990,669.536011
566.080017,474.335999,667.583984
571.935974,472.384003,665.632019
571.935974,478.239990,665.632019
571.935974,472.384003,665.632019
569.984009,480.191986,665.632019
571.935974,472.384003,665.632019
571.935974,478.239990,665.632019
571.935974,476.287994,659.776001
573.888000,476.287994,651.968018
571.935974,478.239990,659.776001
569.984009,482.144012,648.064026
562.176025,476.287994,657.823975
562.176025,476.287994,648.064026
562.176025,472.384003,655.872009
564.127991,470.432007,653.919983
562.176025,472.384003,655.872009
554.367981,470.432007,657.823975
568.031982,478.239990,651.968018
562.176025,482.144012,650.015991
560.223999,480.191986,657.823975
554.367981,472.384003,653.919983
556.320007,482.144012,653.919983
558.271973,472.384003,655.872009
568.031982,472.384003,661.728027
562.176025,478.239990,661.728027
560.223999,478.239990,655.872009
568.031982,476.287994,651.968018
558.271973,484.096008,644.159973
554.367981,470.432007,657.823975
568.031982,472.384003,661.728027
560.223999,474.335999,653.919983
556.320007,478.239990,651.968018
560.223999,482.144012,655.872009
562.176025,484.096008,655.872009
568.031982,472.384003,657.823975
566.080017,482.144012,659.776001
566.080017,476.287994,663.679993
558.271973,482.144012,655.872009
568.031982,482.144012,659.776001
566.080017,460.671997,651.968018
560.223999,468.480011,665.632019
566.080017,478.239990,659.776001
577.791992,480.191986,663.679993
577.791992,478.239990,665.632019
579.744019,478.239990,665.632019
581.695984,472.384003,655.872009
569.984009,470.432007,661.728027
569.984009,470.432007,661.728027
581.695984,468.480011,665.632019
573.888000,474.335999,659.776001
583.648010,474.335999,655.872009
581.695984,472.384003,663.679993
577.791992,466.528015,661.728027
579.744019,472.384003,663.679993
583.648010,468.480011,655.872009
587.552002,464.575989,663.679993
585.599976,470.432007,659.776001
579.744019,466.528015,661.728027
585.599976,470.432007,657.823975
573.888000,468.480011,651.968018
585.599976,464.575989,659.776001
583.648010,460.671997,657.823975
581.695984,456.768005,657.823975
581.695984,468.480011,657.823975
583.648010,456.768005,655.872009
583.648010,460.671997,655.872009
585.599976,460.671997,655.872009
585.599976,470.432007,659.776001
589.504028,466.528015,665.632019
587.552002,452.864014,661.728027
585.599976,452.864014,669.536011
591.455994,454.816010,669.536011
587.552002,456.768005,669.536011
595.359985,458.720001,679.296021
593.408020,454.816010,679.296021
597.312012,452.864014,683.200012
603.168030,454.816010,679.296021
603.168030,452.864014,671.487976
595.359985,454.816010,673.440002
603.168030,456.768005,681.247986
612.927979,448.959991,685.151978
597.312012,456.768005,681.247986
605.119995,454.816010,679.296021
605.119995,454.816010,679.296021
601.216003,460.671997,675.392029
601.216003,460.671997,681.247986
599.263977,462.623993,671.487976
601.216003,452.864014,675.392029
593.408020,456.768005,679.296021
597.312012,460.671997,681.247986
607.072021,456.768005,675.392029
607.072021,460.671997,681.247986
597.312012,450.911987,669.536011
599.263977,452.864014,661.728027
601.216003,464.575989,663.679993
597.312012,454.816010,665.632019
589.504028,448.959991,663.679993
603.168030,450.911987,667.583984
599.263977,456.768005,667.583984
597.312012,447.007996,667.583984
593.408020,447.007996,667.583984
595.359985,445.056000,663.679993
601.216003,458.720001,675.392029
603.168030,450.911987,669.536011
607.072021,447.007996,667.583984
603.168030,452.864014,667.583984
603.168030,460.671997,669.536011
603.168030,458.720001,673.440002
597.312012,452.864014,671.487976
593.408020,448.959991,675.392029
593.408020,454.816010,679.296021
591.455994,452.864014,673.440002
585.599976,454.816010,675.392029
597.312012,458.720001,671.487976
599.263977,458.720001,675.392029
589.504028,458.720001,679.296021
593.408020,454.816010,677.343994
593.408020,466.528015,673.440002
589.504028,466.528015,671.487976
595.359985,454.816010,671.487976
587.552002,456.768005,669.536011
591.455994,456.768005,669.536011
589.504028,454.816010,663.679993
587.552002,456.768005,665.632019
585.599976,454.816010,667.583984
585.599976,458.720001,657.823975
587.552002,466.528015,659.776001
577.791992,452.864014,659.776001
575.840027,466.528015,661.728027
573.888000,466.528015,667.583984
571.935974,460.671997,655.872009
573.888000,460.671997,663.679993
577.791992,462.623993,661.728027
571.935974,456.768005,661.728027
579.744019,466.528015,667.583984
571.935974,456.768005,655.872009
581.695984,462.623993,665.632019
569.984009,460.671997,651.968018
575.840027,452.864014,665.632019
566.080017,452.864014,659.776001
571.935974,458.720001,665.632019
569.984009,454.816010,659.776001
568.031982,460.671997,661.728027
571.935974,462.623993,661.728027
569.984009,456.768005,659.776001
562.176025,460.671997,661.728027
558.271973,452.864014,655.872009
564.127991,456.768005,661.728027
571.935974,456.768005,653.919983
558.271973,458.720001,648.064026
566.080017,462.623993,655.872009
566.080017,458.720001,651.968018
558.271973,454.816010,657.823975
560.223999,464.575989,659.776001
564.127991,460.671997,648.064026
564.127991,452.864014,651.968018
558.271973,458.720001,648.064026
558.271973,458.720001,648.064026
560.223999,460.671997,648.064026
568.031982,458.720001,650.015991
554.367981,458.720001,646.112000
556.320007,462.623993,638.304016
558.271973,466.528015,636.351990
562.176025,456.768005,646.112000
560.223999,452.864014,653.919983
566.080017,466.528015,650.015991
558.271973,464.575989,646.112000
562.176025,452.864014,650.015991
564.127991,464.575989,657.823975
562.176025,462.623993,661.728027
564.127991,458.720001,653.919983
569.984009,462.623993,650.015991
568.031982,456.768005,659.776001
573.888000,460.671997,650.015991
575.840027,462.623993,661.728027
571.935974,466.528015,653.919983
569.984009,454.816010,655.872009
575.840027,448.959991,659.776001
579.744019,454.816010,659.776001
585.599976,458.720001,665.632019
581.695984,456.768005,665.632019
581.695984,462.623993,667.583984
583.648010,462.623993,677.343994
579.744019,460.671997,675.392029
587.552002,456.768005,669.536011
591.455994,456.768005,659.776001
585.599976,462.623993,667.583984
589.504028,456.768005,673.440002
587.552002,462.623993,679.296021
579.744019,450.911987,677.343994
585.599976,462.623993,671.487976
597.312012,460.671997,681.247986
597.312012,462.623993,679.296021
595.359985,456.768005,673.440002
589.504028,454.816010,673.440002
589.504028,454.816010,667.583984
589.504028,458.720001,681.247986
599.263977,458.720001,681.247986
587.552002,456.768005,671.487976
595.359985,458.720001,679.296021
589.504028,458.720001,679.296021
583.648010,458.720001,677.343994
581.695984,450.911987,677.343994
577.791992,441.152008,677.343994
599.263977,456.768005,677.343994
591.455994,445.056000,667.583984
587.552002,462.623993,671.487976
587.552002,454.816010,667.583984
591.455994,458.720001,663.679993
585.599976,448.959991,669.536011
581.695984,458.720001,667.583984
579.744019,462.623993,663.679993
579.744019,466.528015,665.632019
583.648010,458.720001,659.776001
577.791992,454.816010,661.728027
581.695984,468.480011,669.536011
581.695984,456.768005,665.632019
583.648010,452.864014,659.776001
579.744019,458.720001,663.679993
579.744019,448.959991,659.776001
589.504028,452.864014,657.823975
583.648010,458.720001,665.632019
579.744019,456.768005,655.872009
585.599976,464.575989,659.776001
577.791992,452.864014,659.776001
585.599976,456.768005,669.536011
581.695984,456.768005,651.968018
587.552002,466.528015,659.776001
585.599976,464.575989,657.823975
591.455994,464.575989,651.968018
587.552002,456.768005,665.632019
589.504028,460.671997,671.487976
587.552002,462.623993,665.632019
587.552002,456.768005,669.536011
591.455994,464.575989,665.632019
597.312012,464.575989,669.536011
589.504028,462.623993,663.679993
587.552002,466.528015,665.632019
597.312012,462.623993,663.679993
593.408020,466.528015,659.776001
591.455994,468.480011,665.632019
585.599976,476.287994,663.679993
589.504028,482.144012,669.536011
603.168030,480.191986,669.536011
591.455994,466.528015,673.440002
593.408020,484.096008,673.440002
599.263977,489.951996,673.440002
597.312012,476.287994,677.343994
603.168030,484.096008,669.536011
603.168030,484.096008,677.343994
599.263977,474.335999,675.392029
601.216003,480.191986,679.296021
599.263977,484.096008,685.151978
597.312012,486.048004,685.151978
599.263977,482.144012,679.296021
601.216003,486.048004,679.296021
597.312012,468.480011,673.440002
597.312012,488.000000,675.392029
607.072021,474.335999,681.247986
607.072021,472.384003,671.487976
599.263977,476.287994,671.487976
597.312012,480.191986,675.392029
591.455994,478.239990,673.440002
593.408020,474.335999,665.632019
591.455994,474.335999,659.776001
595.359985,470.432007,665.632019
583.648010,474.335999,661.728027
589.504028,478.239990,657.823975
591.455994,478.239990,661.728027
589.504028,466.528015,653.919983
587.552002,472.384003,650.015991
575.840027,474.335999,653.919983
587.552002,468.480011,640.255981
581.695984,472.384003,650.015991
577.791992,470.432007,640.255981
577.791992,460.671997,644.159973
579.744019,460.671997,650.015991
577.791992,458.720001,648.064026
575.840027,462.623993,653.919983
583.648010,466.528015,651.968018
585.599976,466.528015,657.823975
573.888000,464.575989,642.208008
577.791992,460.671997,657.823975
575.840027,468.480011,661.728027
573.888000,462.623993,655.872009
579.744019,470.432007,661.728027
591.455994,460.671997,665.632019
579.744019,460.671997,655.872009
581.695984,466.528015,665.632019
575.840027,466.528015,655.872009
569.984009,470.432007,661.728027
587.552002,468.480011,659.776001
581.695984,478.239990,657.823975
583.648010,474.335999,644.159973
583.648010,460.671997,657.823975
569.984009,474.335999,657.823975
579.744019,468.480011,653.919983
583.648010,466.528015,653.919983
575.840027,462.623993,655.872009
581.695984,472.384003,650.015991
579.744019,470.432007,655.872009
581.695984,454.816010,650.015991
577.791992,466.528015,651.968018
575.840027,466.528015,650.015991
581.695984,470.432007,653.919983
583.648010,456.768005,651.968018
591.455994,456.768005,665.632019
587.552002,466.528015,665.632019
585.599976,460.671997,657.823975
583.648010,460.671997,655.872009
585.599976,474.335999,659.776001
587.552002,468.480011,659.776001
583.648010,474.335999,661.728027
595.359985,478.239990,671.487976
585.599976,474.335999,663.679993
589.504028,476.287994,663.679993
585.599976,480.191986,667.583984
595.359985,474.335999,675.392029
591.455994,476.287994,671.487976
597.312012,472.384003,673.440002
589.504028,468.480011,677.343994
589.504028,474.335999,667.583984
589.504028,470.432007,677.343994
595.359985,474.335999,665.632019
591.455994,474.335999,663.679993
589.504028,466.528015,671.487976
589.504028,456.768005,665.632019
593.408020,468.480011,667.583984
599.263977,474.335999,671.487976
589.504028,462.623993,661.728027
581.695984,470.432007,663.679993
589.504028,468.480011,665.632019
585.599976,464.575989,659.776001
587.552002,468.480011,665.632019
591.455994,466.528015,659.776001
587.552002,460.671997,665.632019
581.695984,462.623993,671.487976
585.599976,458.720001,661.728027
587.552002,460.671997,671.487976
597.312012,472.384003,673.440002
589.504028,470.432007,671.487976
589.504028,462.623993,683.200012
589.504028,466.528015,677.343994
587.552002,462.623993,671.487976
585.599976,470.432007,679.296021
587.552002,456.768005,669.536011
579.744019,452.864014,673.440002
585.599976,454.816010,669.536011
591.455994,458.720001,681.247986
587.552002,468.480011,667.583984
591.455994,466.528015,667.583984
587.552002,462.623993,667.583984
581.695984,458.720001,671.487976
583.648010,456.768005,675.392029
585.599976,468.480011,673.440002
593.408020,464.575989,671.487976
587.552002,452.864014,679.296021
587.552002,456.768005,671.487976
587.552002,466.528015,669.536011
587.552002,462.623993,677.343994
585.599976,456.768005,671.487976
587.552002,456.768005,677.343994
589.504028,474.335999,675.392029
581.695984,460.671997,671.487976
587.552002,462.623993,671.487976
585.599976,462.623993,679.296021
587.552002,460.671997,677.343994
581.695984,456.768005,667.583984
587.552002,460.671997,673.440002
585.599976,456.768005,669.536011
587.552002,454.816010,659.776001
585.599976,454.816010,663.679993
581.695984,460.671997,677.343994
577.791992,456.768005,681.247986
585.599976,458.720001,679.296021
595.359985,454.816010,671.487976
581.695984,452.864014,669.536011
585.599976,456.768005,663.679993
585.599976,466.528015,677.343994
587.552002,456.768005,671.487976
585.599976,460.671997,679.296021
587.552002,460.671997,671.487976
581.695984,460.671997,671.487976
589.504028,456.768005,671.487976
585.599976,460.671997,669.536011
583.648010,460.671997,675.392029
581.695984,462.623993,671.487976
589.504028,448.959991,667.583984
581.695984,462.623993,667.583984
589.504028,445.056000,667.583984
591.455994,456.768005,659.776001
577.791992,452.864014,665.632019
583.648010,454.816010,663.679993
587.552002,452.864014,661.728027
587.552002,454.816010,661.728027
577.791992,458.720001,663.679993
591.455994,464.575989,651.968018
585.599976,454.816010,661.728027
585.599976,452.864014,651.968018
591.455994,456.768005,663.679993
599.263977,458.720001,655.872009
599.263977,450.911987,661.728027
589.504028,448.959991,663.679993
585.599976,448.959991,663.679993
593.408020,445.056000,653.919983
589.504028,458.720001,659.776001
593.408020,454.816010,669.536011
583.648010,454.816010,669.536011
585.599976,454.816010,663.679993
585.599976,450.911987,663.679993
589.504028,437.247986,655.872009
589.504028,447.007996,663.679993
591.455994,445.056000,667.583984
595.359985,441.152008,665.632019
597.312012,458.720001,677.343994
589.504028,454.816010,667.583984
595.359985,450.911987,659.776001
605.119995,458.720001,671.487976
601.216003,452.864014,663.679993
597.312012,445.056000,661.728027
603.168030,441.152008,671.487976
607.072021,452.864014,669.536011
597.312012,452.864014,671.487976
607.072021,458.720001,665.632019
607.072021,454.816010,679.296021
603.168030,450.911987,677.343994
595.359985,447.007996,673.440002
597.312012,445.056000,665.632019
597.312012,448.959991,663.679993
603.168030,448.959991,665.632019
609.023987,447.007996,677.343994
603.168030,447.007996,671.487976
603.168030,445.056000,665.632019
593.408020,447.007996,667.583984
603.168030,456.768005,655.872009
599.263977,454.816010,669.536011
589.504028,447.007996,665.632019
591.455994,448.959991,663.679993
595.359985,448.959991,663.679993
595.359985,454.816010,663.679993
605.119995,448.959991,669.536011
612.927979,458.720001,659.776001
605.119995,452.864014,673.440002
614.880005,460.671997,659.776001
616.831970,454.816010,663.679993
616.831970,466.528015,669.536011
610.976013,470.432007,663.679993
609.023987,478.239990,669.536011
614.880005,480.191986,675.392029
610.976013,468.480011,681.247986
609.023987,482.144012,669.536011
607.072021,468.480011,675.392029
616.831970,466.528015,679.296021
614.880005,466.528015,681.247986
624.640015,454.816010,677.343994
618.783997,448.959991,681.247986
614.880005,460.671997,679.296021
618.783997,452.864014,675.392029
609.023987,445.056000,677.343994
605.119995,454.816010,679.296021
607.072021,452.864014,665.632019
603.168030,447.007996,659.776001
610.976013,452.864014,669.536011
607.072021,458.720001,657.823975
603.168030,464.575989,655.872009
597.312012,464.575989,650.015991
603.168030,464.575989,655.872009
597.312012,468.480011,650.015991
589.504028,470.432007,653.919983
597.312012,476.287994,644.159973
589.504028,484.096008,644.159973
589.504028,486.048004,636.351990
589.504028,482.144012,636.351990
587.552002,476.287994,650.015991
591.455994,468.480011,642.208008
593.408020,462.623993,646.112000
583.648010,452.864014,646.112000
585.599976,458.720001,653.919983
593.408020,452.864014,661.728027
593.408020,458.720001,651.968018
595.359985,470.432007,655.872009
597.312012,458.720001,667.583984
587.552002,458.720001,655.872009
599.263977,468.480011,665.632019
599.263977,466.528015,665.632019
587.552002,468.480011,665.632019
595.359985,482.144012,669.536011
595.359985,482.144012,667.583984
605.119995,472.384003,669.536011
603.168030,488.000000,655.872009
599.263977,488.000000,671.487976
585.599976,474.335999,669.536011
589.504028,474.335999,663.679993
585.599976,474.335999,663.679993
585.599976,470.432007,659.776001
597.312012,474.335999,655.872009
599.263977,468.480011,659.776001
603.168030,460.671997,661.728027
589.504028,458.720001,651.968018
585.599976,462.623993,651.968018
587.552002,458.720001,648.064026
585.599976,464.575989,646.112000
585.599976,460.671997,651.968018
583.648010,464.575989,646.112000
595.359985,474.335999,653.919983
593.408020,482.144012,650.015991
585.599976,474.335999,642.208008
589.504028,472.384003,651.968018
597.312012,482.144012,648.064026
587.552002,466.528015,659.776001
587.552002,478.239990,655.872009
599.263977,474.335999,657.823975
599.263977,468.480011,667.583984
589.504028,474.335999,665.632019
597.312012,462.623993,653.919983
589.504028,464.575989,655.872009
595.359985,458.720001,657.823975
593.408020,452.864014,661.728027
589.504028,462.623993,657.823975
595.359985,458.720001,651.968018
589.504028,456.768005,657.823975
599.263977,452.864014,655.872009
597.312012,456.768005,655.872009
589.504028,458.720001,653.919983
593.408020,466.528015,665.632019
599.263977,466.528015,665.632019
593.408020,462.623993,667.583984
595.359985,470.432007,659.776001
599.263977,466.528015,665.632019
589.504028,464.575989,657.823975
601.216003,454.816010,653.919983
601.216003,462.623993,661.728027
603.168030,466.528015,663.679993
597.312012,452.864014,663.679993
597.312012,452.864014,659.776001
601.216003,452.864014,659.776001
603.168030,452.864014,665.632019
609.023987,445.056000,667.583984
616.831970,448.959991,663.679993
610.976013,443.104004,665.632019
610.976013,443.104004,677.343994
607.072021,450.911987,677.343994
612.927979,450.911987,681.247986
610.976013,447.007996,679.296021
610.976013,448.959991,681.247986
607.072021,447.007996,671.487976
612.927979,441.152008,683.200012
614.880005,437.247986,683.200012
609.023987,448.959991,677.343994
616.831970,458.720001,677.343994
620.736023,450.911987,677.343994
618.783997,450.911987,675.392029
622.687988,448.959991,667.583984
622.687988,448.959991,663.679993
618.783997,456.768005,669.536011
614.880005,454.816010,669.536011
618.783997,454.816010,673.440002
610.976013,445.056000,681.247986
618.783997,448.959991,673.440002
612.927979,448.959991,679.296021
609.023987,447.007996,677.343994
609.023987,445.056000,667.583984
605.119995,460.671997,667.583984
607.072021,450.911987,667.583984
603.168030,441.152008,671.487976
607.072021,452.864014,669.536011
601.216003,458.720001,669.536011
607.072021,452.864014,657.823975
607.072021,448.959991,657.823975
607.072021,450.911987,651.968018
607.072021,456.768005,655.872009
601.216003,454.816010,648.064026
599.263977,450.911987,651.968018
601.216003,447.007996,663.679993
589.504028,452.864014,653.919983
593.408020,447.007996,651.968018
603.168030,448.959991,669.536011
603.168030,452.864014,667.583984
603.168030,448.959991,669.536011
607.072021,450.911987,669.536011
603.168030,445.056000,677.343994
609.023987,443.104004,669.536011
610.976013,450.911987,679.296021
601.216003,443.104004,677.343994
612.927979,443.104004,679.296021
609.023987,445.056000,675.392029
609.023987,450.911987,681.247986
610.976013,443.104004,677.343994
607.072021,448.959991,677.343994
618.783997,452.864014,681.247986
605.119995,454.816010,679.296021
601.216003,448.959991,679.296021
610.976013,447.007996,681.247986
605.119995,454.816010,683.200012
605.119995,447.007996,679.296021
609.023987,448.959991,667.583984
610.976013,454.816010,677.343994
614.880005,454.816010,673.440002
609.023987,445.056000,669.536011
605.119995,447.007996,659.776001
601.216003,441.152008,673.440002
601.216003,450.911987,659.776001
607.072021,460.671997,661.728027
603.168030,452.864014,665.632019
599.263977,447.007996,659.776001
595.359985,441.152008,665.632019
601.216003,454.816010,659.776001
603.168030,450.911987,663.679993
597.312012,443.104004,661.728027
607.072021,439.200012,665.632019
605.119995,437.247986,657.823975
605.119995,441.152008,667.583984
609.023987,450.911987,667.583984
603.168030,447.007996,659.776001
599.263977,454.816010,677.343994
603.168030,447.007996,667.583984
605.119995,450.911987,679.296021
597.312012,462.623993,685.151978
603.168030,456.768005,681.247986
601.216003,462.623993,673.440002
603.168030,456.768005,675.392029
595.359985,462.623993,669.536011
601.216003,460.671997,673.440002
593.408020,462.623993,677.343994
601.216003,458.720001,663.679993
603.168030,454.816010,679.296021
601.216003,452.864014,667.583984
593.408020,454.816010,671.487976
597.312012,448.959991,659.776001
603.168030,441.152008,665.632019
603.168030,450.911987,659.776001
597.312012,447.007996,659.776001
591.455994,445.056000,655.872009
595.359985,441.152008,657.823975
595.359985,454.816010,644.159973
587.552002,452.864014,650.015991
585.599976,454.816010,655.872009
587.552002,452.864014,651.968018
589.504028,460.671997,648.064026
597.312012,454.816010,651.968018
579.744019,447.007996,648.064026
585.599976,445.056000,644.159973
591.455994,450.911987,657.823975
581.695984,448.959991,651.968018
587.552002,452.864014,650.015991
591.455994,452.864014,644.159973
587.552002,445.056000,650.015991
591.455994,452.864014,661.728027
587.552002,450.911987,661.728027
581.695984,443.104004,653.919983
583.648010,456.768005,655.872009
583.648010,452.864014,659.776001
581.695984,454.816010,659.776001
591.455994,452.864014,651.968018
585.599976,452.864014,651.968018
583.648010,462.623993,661.728027
583.648010,450.911987,661.728027
577.791992,458.720001,659.776001
583.648010,460.671997,665.632019
591.455994,456.768005,657.823975
593.408020,456.768005,659.776001
589.504028,466.528015,651.968018
591.455994,460.671997,655.872009
593.408020,460.671997,663.679993
583.648010,452.864014,665.632019
589.504028,464.575989,659.776001
599.263977,464.575989,667.583984
595.359985,462.623993,669.536011
591.455994,452.864014,673.440002
587.552002,456.768005,667.583984
589.504028,464.575989,671.487976
587.552002,456.768005,665.632019
585.599976,458.720001,679.296021
591.455994,456.768005,669.536011
581.695984,456.768005,669.536011
587.552002,462.623993,671.487976
591.455994,466.528015,671.487976
589.504028,466.528015,677.343994
585.599976,460.671997,679.296021
589.504028,468.480011,677.343994
599.263977,474.335999,683.200012
593.408020,470.432007,679.296021
597.312012,462.623993,685.151978
595.359985,456.768005,671.487976
599.263977,458.720001,673.440002
601.216003,458.720001,673.440002
597.312012,454.816010,681.247986
597.312012,456.768005,681.247986
593.408020,462.623993,667.583984
599.263977,466.528015,677.343994
597.312012,447.007996,673.440002
601.216003,456.768005,671.487976
597.312012,462.623993,679.296021
601.216003,462.623993,673.440002
603.168030,466.528015,681.247986
603.168030,460.671997,675.392029
597.312012,456.768005,669.536011
597.312012,464.575989,679.296021
603.168030,474.335999,677.343994
595.359985,460.671997,685.151978
601.216003,468.480011,675.392029
595.359985,470.432007,679.296021
597.312012,468.480011,679.296021
605.119995,468.480011,681.247986
614.880005,464.575989,677.343994
603.168030,472.384003,677.343994
610.976013,474.335999,685.151978
601.216003,476.287994,691.007996
614.880005,476.287994,675.392029
601.216003,474.335999,679.296021
614.880005,474.335999,675.392029
612.927979,474.335999,679.296021
618.783997,468.480011,689.056030
618.783997,476.287994,692.960022
622.687988,472.384003,689.056030
620.736023,470.432007,689.056030
618.783997,482.144012,692.960022
618.783997,482.144012,687.104004
620.736023,470.432007,687.104004
618.783997,472.384003,689.056030
616.831970,484.096008,679.296021
618.783997,470.432007,689.056030
614.880005,468.480011,685.151978
618.783997,476.287994,675.392029
624.640015,476.287994,685.151978
620.736023,470.432007,689.056030
609.023987,466.528015,685.151978
616.831970,460.671997,685.151978
622.687988,470.432007,679.296021
622.687988,464.575989,691.007996
616.831970,462.623993,683.200012
620.736023,458.720001,683.200012
622.687988,460.671997,685.151978
620.736023,470.432007,689.056030
614.880005,458.720001,685.151978
618.783997,470.432007,685.151978
614.880005,468.480011,681.247986
616.831970,466.528015,679.296021
620.736023,470.432007,681.247986
624.640015,474.335999,683.200012
626.591980,470.432007,679.296021
616.831970,468.480011,669.536011
630.495972,464.575989,677.343994
612.927979,456.768005,671.487976
610.976013,464.575989,685.151978
609.023987,468.480011,681.247986
616.831970,470.432007,677.343994
614.880005,466.528015,683.200012
618.783997,476.287994,683.200012
614.880005,464.575989,679.296021
618.783997,478.239990,681.247986
622.687988,474.335999,681.247986
610.976013,474.335999,679.296021
610.976013,476.287994,677.343994
616.831970,464.575989,671.487976
616.831970,460.671997,679.296021
614.880005,474.335999,677.343994
610.976013,462.623993,671.487976
609.023987,466.528015,675.392029
599.263977,470.432007,667.583984
595.359985,476.287994,675.392029
599.263977,470.432007,681.247986
599.263977,458.720001,667.583984
603.168030,458.720001,673.440002
597.312012,462.623993,661.728027
599.263977,456.768005,667.583984
589.504028,466.528015,671.487976
601.216003,450.911987,659.776001
599.263977,458.720001,667.583984
591.455994,456.768005,665.632019
585.599976,458.720001,651.968018
589.504028,460.671997,651.968018
589.504028,464.575989,646.112000
577.791992,460.671997,640.255981
585.599976,474.335999,644.159973
583.648010,462.623993,644.159973
587.552002,466.528015,636.351990
593.408020,464.575989,650.015991
591.455994,466.528015,646.112000
585.599976,464.575989,648.064026
589.504028,466.528015,638.304016
589.504028,464.575989,648.064026
599.263977,462.623993,644.159973
599.263977,452.864014,650.015991
597.312012,454.816010,655.872009
601.216003,456.768005,653.919983
603.168030,462.623993,655.872009
603.168030,452.864014,667.583984
609.023987,458.720001,659.776001
605.119995,458.720001,663.679993
601.216003,464.575989,663.679993
605.119995,454.816010,659.776001
605.119995,454.816010,659.776001
609.023987,460.671997,671.487976
610.976013,466.528015,675.392029
612.927979,460.671997,671.487976
609.023987,452.864014,677.343994
616.831970,462.623993,677.343994
626.591980,464.575989,677.343994
616.831970,460.671997,679.296021
620.736023,466.528015,683.200012
628.544006,470.432007,679.296021
622.687988,472.384003,675.392029
622.687988,454.816010,675.392029
618.783997,452.864014,681.247986
618.783997,458.720001,683.200012
626.591980,466.528015,679.296021
620.736023,470.432007,677.343994
630.495972,476.287994,679.296021
626.591980,474.335999,683.200012
620.736023,472.384003,681.247986
630.495972,472.384003,669.536011
628.544006,478.239990,673.440002
628.544006,472.384003,667.583984
620.736023,470.432007,683.200012
620.736023,466.528015,673.440002
620.736023,472.384003,683.200012
618.783997,482.144012,685.151978
620.736023,472.384003,679.296021
622.687988,468.480011,671.487976
630.495972,468.480011,671.487976
626.591980,468.480011,667.583984
626.591980,468.480011,675.392029
630.495972,468.480011,677.343994
628.544006,472.384003,679.296021
624.640015,466.528015,669.536011
620.736023,460.671997,679.296021
628.544006,464.575989,675.392029
634.400024,470.432007,677.343994
636.351990,466.528015,681.247986
638.304016,464.575989,692.960022
642.208008,478.239990,689.056030
644.159973,468.480011,696.864014
636.351990,472.384003,696.864014
640.255981,466.528015,687.104004
650.015991,460.671997,700.768005
646.112000,458.720001,702.719971
650.015991,460.671997,704.671997
640.255981,456.768005,692.960022
642.208008,458.720001,698.815979
640.255981,458.720001,696.864014
646.112000,454.816010,694.911987
642.208008,460.671997,704.671997
650.015991,456.768005,696.864014
651.968018,454.816010,698.815979
650.015991,456.768005,696.864014
640.255981,448.959991,696.864014
648.064026,458.720001,691.007996
653.919983,456.768005,696.864014
644.159973,460.671997,692.960022
644.159973,452.864014,692.960022
640.255981,454.816010,687.104004
640.255981,452.864014,696.864014
634.400024,462.623993,692.960022
638.304016,458.720001,696.864014
642.208008,452.864014,683.200012
638.304016,448.959991,689.056030
634.400024,462.623993,687.104004
640.255981,462.623993,692.960022
630.495972,466.528015,692.960022
638.304016,456.768005,692.960022
632.447998,458.720001,698.815979
630.495972,458.720001,698.815979
632.447998,458.720001,700.768005
632.447998,460.671997,704.671997
638.304016,450.911987,700.768005
626.591980,454.816010,700.768005
626.591980,462.623993,706.624023
630.495972,450.911987,704.671997
634.400024,458.720001,710.528015
632.447998,466.528015,700.768005
622.687988,452.864014,706.624023
630.495972,448.959991,712.479980
624.640015,454.816010,710.528015
620.736023,460.671997,710.528015
626.591980,454.816010,702.719971
620.736023,456.768005,704.671997
616.831970,456.768005,706.624023
620.736023,464.575989,702.719971
616.831970,460.671997,708.575989
618.783997,452.864014,706.624023
610.976013,464.575989,698.815979
614.880005,458.720001,691.007996
609.023987,458.720001,683.200012
614.880005,458.720001,687.104004
605.119995,452.864014,683.200012
605.119995,454.816010,687.104004
601.216003,454.816010,691.007996
605.119995,458.720001,675.392029
610.976013,454.816010,679.296021
607.072021,462.623993,679.296021
599.263977,452.864014,681.247986
597.312012,454.816010,669.536011
603.168030,450.911987,667.583984
603.168030,456.768005,681.247986
599.263977,460.671997,669.536011
593.408020,450.911987,675.392029
593.408020,456.768005,671.487976
589.504028,445.056000,673.440002
589.504028,450.911987,663.679993
585.599976,458.720001,677.343994
591.455994,450.911987,681.247986
591.455994,450.911987,679.296021
595.359985,445.056000,675.392029
585.599976,454.816010,675.392029
603.168030,464.575989,675.392029
589.504028,454.816010,667.583984
585.599976,448.959991,675.392029
583.648010,460.671997,671.487976
587.552002,452.864014,675.392029
581.695984,458.720001,681.247986
581.695984,456.768005,677.343994
589.504028,458.720001,677.343994
581.695984,458.720001,675.392029
587.552002,460.671997,671.487976
585.599976,448.959991,663.679993
583.648010,450.911987,661.728027
585.599976,464.575989,659.776001
585.599976,458.720001,665.632019
589.504028,448.959991,663.679993
585.599976,448.959991,665.632019
589.504028,450.911987,661.728027
585.599976,448.959991,657.823975
593.408020,445.056000,653.919983
587.552002,452.864014,655.872009
595.359985,450.911987,659.776001
591.455994,445.056000,648.064026
591.455994,452.864014,655.872009
599.263977,441.152008,661.728027
587.552002,447.007996,661.728027
591.455994,458.720001,661.728027
595.359985,458.720001,667.583984
599.263977,450.911987,659.776001
595.359985,454.816010,663.679993
591.455994,456.768005,665.632019
593.408020,443.104004,665.632019
607.072021,448.959991,677.343994
605.119995,452.864014,677.343994
607.072021,448.959991,671.487976
603.168030,447.007996,677.343994
605.119995,443.104004,683.200012
603.168030,443.104004,687.104004
601.216003,443.104004,685.151978
609.023987,435.295990,685.151978
607.072021,437.247986,689.056030
609.023987,435.295990,685.151978
614.880005,439.200012,689.056030
610.976013,441.152008,692.960022
610.976013,437.247986,679.296021
607.072021,433.343994,685.151978
601.216003,445.056000,687.104004
607.072021,445.056000,689.056030
612.927979,441.152008,685.151978
607.072021,437.247986,681.247986
605.119995,433.343994,675.392029
607.072021,445.056000,669.536011
603.168030,439.200012,671.487976
610.976013,439.200012,673.440002
609.023987,437.247986,667.583984
610.976013,425.536011,669.536011
610.976013,425.536011,677.343994
605.119995,433.343994,663.679993
610.976013,425.536011,677.343994
605.119995,429.440002,669.536011
605.119995,431.391998,673.440002
607.072021,429.440002,663.679993
610.976013,425.536011,665.632019
609.023987,439.200012,669.536011
607.072021,435.295990,675.392029
610.976013,439.200012,667.583984
605.119995,439.200012,667.583984
614.880005,441.152008,677.343994
607.072021,431.391998,675.392029
610.976013,423.584015,679.296021
607.072021,431.391998,681.247986
609.023987,433.343994,679.296021
607.072021,437.247986,681.247986
603.168030,437.247986,681.247986
609.023987,427.488007,691.007996
605.119995,433.343994,681.247986
610.976013,429.440002,692.960022
605.119995,423.584015,683.200012
605.119995,429.440002,694.911987
595.359985,431.391998,689.056030
597.312012,431.391998,683.200012
607.072021,425.536011,685.151978
589.504028,427.488007,679.296021
599.263977,427.488007,689.056030
595.359985,423.584015,687.104004
601.216003,423.584015,683.200012
603.168030,423.584015,689.056030
595.359985,427.488007,677.343994
597.312012,431.391998,685.151978
595.359985,423.584015,677.343994
591.455994,435.295990,677.343994
585.599976,427.488007,679.296021
587.552002,419.679993,675.392029
587.552002,425.536011,677.343994
587.552002,419.679993,685.151978
589.504028,413.824005,675.392029
591.455994,421.631989,675.392029
579.744019,421.631989,677.343994
585.599976,427.488007,671.487976
577.791992,431.391998,675.392029
571.935974,431.391998,673.440002
566.080017,423.584015,671.487976
573.888000,421.631989,669.536011
575.840027,421.631989,667.583984
581.695984,419.679993,669.536011
566.080017,421.631989,671.487976
571.935974,415.776001,667.583984
575.840027,423.584015,677.343994
568.031982,425.536011,671.487976
569.984009,427.488007,673.440002
566.080017,415.776001,667.583984
566.080017,417.727997,671.487976
569.984009,427.488007,667.583984
564.127991,425.536011,673.440002
564.127991,425.536011,669.536011
560.223999,419.679993,661.728027
558.271973,429.440002,659.776001
562.176025,419.679993,657.823975
568.031982,429.440002,661.728027
556.320007,427.488007,648.064026
556.320007,419.679993,655.872009
558.271973,425.536011,659.776001
571.935974,419.679993,659.776001
568.031982,423.584015,659.776001
564.127991,431.391998,657.823975
556.320007,415.776001,655.872009
566.080017,423.584015,661.728027
573.888000,421.631989,655.872009
579.744019,417.727997,657.823975
579.744019,421.631989,663.679993
575.840027,421.631989,665.632019
573.888000,427.488007,673.440002
581.695984,427.488007,675.392029
581.695984,427.488007,673.440002
581.695984,417.727997,687.104004
587.552002,415.776001,683.200012
587.552002,415.776001,687.104004
591.455994,409.920013,685.151978
589.504028,419.679993,687.104004
585.599976,429.440002,694.911987
591.455994,421.631989,692.960022
585.599976,419.679993,700.768005
593.408020,415.776001,706.624023
593.408020,409.920013,706.624023
593.408020,423.584015,702.719971
597.312012,417.727997,708.575989
589.504028,435.295990,708.575989
591.455994,423.584015,702.719971
591.455994,425.536011,702.719971
591.455994,423.584015,700.768005
595.359985,421.631989,708.575989
583.648010,419.679993,696.864014
587.552002,423.584015,696.864014
585.599976,427.488007,692.960022
593.408020,431.391998,691.007996
587.552002,419.679993,683.200012
585.599976,427.488007,685.151978
581.695984,427.488007,692.960022
577.791992,435.295990,681.247986
577.791992,427.488007,683.200012
573.888000,413.824005,685.151978
569.984009,417.727997,679.296021
577.791992,411.872009,677.343994
577.791992,415.776001,677.343994
579.744019,407.967987,667.583984
573.888000,407.967987,673.440002
583.648010,407.967987,683.200012
577.791992,409.920013,671.487976
573.888000,409.920013,671.487976
573.888000,423.584015,679.296021
573.888000,404.063995,679.296021
573.888000,415.776001,671.487976
562.176025,411.872009,671.487976
564.127991,415.776001,669.536011
558.271973,423.584015,675.392029
560.223999,417.727997,673.440002
560.223999,415.776001,681.247986
550.463989,409.920013,679.296021
550.463989,409.920013,681.247986
556.320007,409.920013,681.247986
554.367981,407.967987,683.200012
544.607971,398.208008,681.247986
544.607971,411.872009,681.247986
552.416016,406.015991,663.679993
554.367981,406.015991,667.583984
544.607971,404.063995,661.728027
548.512024,402.112000,661.728027
546.559998,411.872009,655.872009
536.799988,419.679993,651.968018
530.943970,409.920013,651.968018
534.848022,415.776001,659.776001
523.135986,411.872009,642.208008
530.943970,406.015991,648.064026
525.088013,398.208008,644.159973
523.135986,411.872009,636.351990
523.135986,411.872009,644.159973
519.231995,402.112000,642.208008
523.135986,404.063995,628.544006
525.088013,411.872009,632.447998
519.231995,402.112000,632.447998
511.424011,406.015991,630.495972
507.519989,413.824005,622.687988
503.615997,419.679993,626.591980
505.567993,415.776001,622.687988
503.615997,406.015991,622.687988
497.760010,415.776001,620.736023
507.519989,417.727997,618.783997
501.664001,406.015991,618.783997
493.855988,398.208008,618.783997
501.664001,409.920013,622.687988
503.615997,400.160004,624.640015
505.567993,392.351990,616.831970
499.712006,404.063995,628.544006
501.664001,398.208008,622.687988
499.712006,402.112000,628.544006
507.519989,388.447998,624.640015
507.519989,392.351990,616.831970
505.567993,400.160004,618.783997
501.664001,406.015991,630.495972
495.808014,394.303986,632.447998
505.567993,404.063995,634.400024
499.712006,402.112000,626.591980
501.664001,409.920013,622.687988
503.615997,406.015991,620.736023
499.712006,411.872009,622.687988
503.615997,406.015991,630.495972
505.567993,396.256012,620.736023
501.664001,394.303986,630.495972
509.471985,402.112000,620.736023
507.519989,392.351990,628.544006
509.471985,384.544006,609.023987
505.567993,392.351990,616.831970
511.424011,394.303986,622.687988
515.328003,390.399994,628.544006
517.280029,388.447998,620.736023
517.280029,390.399994,622.687988
511.424011,374.783997,618.783997
519.231995,384.544006,620.736023
515.328003,394.303986,622.687988
519.231995,396.256012,630.495972
517.280029,392.351990,624.640015
519.231995,386.496002,626.591980
527.039978,386.496002,630.495972
519.231995,396.256012,630.495972
527.039978,402.112000,628.544006
532.895996,402.112000,646.112000
523.135986,402.112000,640.255981
527.039978,404.063995,646.112000
530.943970,392.351990,646.112000
534.848022,400.160004,651.968018
536.799988,392.351990,653.919983
538.752014,394.303986,653.919983
536.799988,392.351990,659.776001
538.752014,386.496002,657.823975
542.656006,390.399994,659.776001
540.703979,390.399994,659.776001
546.559998,394.303986,651.968018
540.703979,390.399994,663.679993
546.559998,390.399994,665.632019
550.463989,404.063995,663.679993
552.416016,386.496002,663.679993
550.463989,394.303986,669.536011
560.223999,400.160004,663.679993
554.367981,392.351990,663.679993
550.463989,396.256012,661.728027
552.416016,392.351990,663.679993
556.320007,392.351990,667.583984
554.367981,390.399994,655.872009
556.320007,394.303986,667.583984
558.271973,396.256012,665.632019
566.080017,392.351990,663.679993
568.031982,374.783997,665.632019
577.791992,380.640015,667.583984
566.080017,386.496002,667.583984
575.840027,382.592010,667.583984
564.127991,384.544006,673.440002
568.031982,382.592010,683.200012
573.888000,386.496002,683.200012
571.935974,386.496002,683.200012
581.695984,392.351990,679.296021
569.984009,380.640015,685.151978
575.840027,386.496002,691.007996
575.840027,390.399994,691.007996
577.791992,390.399994,691.007996
571.935974,388.447998,696.864014
573.888000,396.256012,696.864014
575.840027,394.303986,691.007996
571.935974,390.399994,698.815979
583.648010,384.544006,694.911987
583.648010,388.447998,704.671997
585.599976,392.351990,698.815979
575.840027,390.399994,696.864014
589.504028,382.592010,696.864014
581.695984,382.592010,692.960022
587.552002,390.399994,692.960022
585.599976,398.208008,691.007996
585.599976,384.544006,694.911987
587.552002,392.351990,691.007996
579.744019,390.399994,685.151978
585.599976,382.592010,687.104004
579.744019,380.640015,691.007996
577.791992,388.447998,679.296021
589.504028,398.208008,696.864014
587.552002,398.208008,696.864014
585.599976,398.208008,689.056030
583.648010,400.160004,689.056030
585.599976,396.256012,685.151978
587.552002,386.496002,681.247986
581.695984,400.160004,692.960022
577.791992,390.399994,691.007996
579.744019,390.399994,692.960022
577.791992,390.399994,698.815979
587.552002,390.399994,692.960022
585.599976,398.208008,691.007996
585.599976,396.256012,691.007996
581.695984,386.496002,689.056030
573.888000,388.447998,683.200012
583.648010,390.399994,691.007996
573.888000,388.447998,694.911987
587.552002,388.447998,687.104004
573.888000,392.351990,691.007996
583.648010,390.399994,700.768005
587.552002,398.208008,696.864014
583.648010,386.496002,692.960022
581.695984,390.399994,685.151978
583.648010,382.592010,687.104004
587.552002,388.447998,692.960022
581.695984,380.640015,696.864014
579.744019,388.447998,692.960022
587.552002,390.399994,685.151978
593.408020,382.592010,689.056030
589.504028,376.735992,689.056030
591.455994,378.687988,685.151978
589.504028,380.640015,694.911987
589.504028,388.447998,692.960022
585.599976,392.351990,694.911987
589.504028,380.640015,700.768005
589.504028,388.447998,704.671997
593.408020,384.544006,692.960022
591.455994,388.447998,704.671997
591.455994,392.351990,700.768005
597.312012,384.544006,702.719971
597.312012,394.303986,700.768005
595.359985,390.399994,702.719971
595.359985,396.256012,708.575989
603.168030,396.256012,704.671997
601.216003,400.160004,706.624023
595.359985,396.256012,714.432007
603.168030,394.303986,716.383972
607.072021,400.160004,706.624023
603.168030,404.063995,706.624023
603.168030,404.063995,704.671997
599.263977,396.256012,698.815979
603.168030,392.351990,708.575989
593.408020,407.967987,716.383972
607.072021,400.160004,706.624023
601.216003,400.160004,706.624023
605.119995,400.160004,704.671997
607.072021,398.208008,716.383972
612.927979,404.063995,700.768005
610.976013,404.063995,704.671997
599.263977,411.872009,702.719971
603.168030,400.160004,706.624023
607.072021,404.063995,712.479980
609.023987,396.256012,710.528015
609.023987,404.063995,712.479980
616.831970,406.015991,698.815979
618.783997,402.112000,708.575989
610.976013,411.872009,712.479980
616.831970,411.872009,706.624023
618.783997,409.920013,712.479980
618.783997,407.967987,706.624023
609.023987,400.160004,716.383972
616.831970,404.063995,716.383972
618.783997,409.920013,724.192017
616.831970,413.824005,726.143982
624.640015,409.920013,724.192017
612.927979,406.015991,722.239990
618.783997,406.015991,735.903992
620.736023,417.727997,732.000000
620.736023,411.872009,724.192017
624.640015,411.872009,733.952026
618.783997,406.015991,730.047974
616.831970,411.872009,735.903992
616.831970,417.727997,730.047974
616.831970,411.872009,730.047974
620.736023,419.679993,733.952026
622.687988,419.679993,730.047974
616.831970,419.679993,733.952026
618.783997,423.584015,722.239990
620.736023,421.631989,716.383972
624.640015,415.776001,718.335999
620.736023,415.776001,724.192017
610.976013,413.824005,714.432007
616.831970,415.776001,706.624023
612.927979,419.679993,712.479980
618.783997,419.679993,712.479980
612.927979,419.679993,712.479980
609.023987,419.679993,702.719971
612.927979,417.727997,702.719971
605.119995,406.015991,716.383972
599.263977,404.063995,698.815979
605.119995,406.015991,696.864014
610.976013,402.112000,692.960022
605.119995,402.112000,687.104004
610.976013,419.679993,694.911987
609.023987,419.679993,687.104004
601.216003,406.015991,691.007996
609.023987,402.112000,691.007996
593.408020,409.920013,687.104004
599.263977,421.631989,692.960022
591.455994,413.824005,685.151978
597.312012,417.727997,687.104004
599.263977,411.872009,689.056030
603.168030,402.112000,681.247986
597.312012,404.063995,681.247986
605.119995,398.208008,679.296021
605.119995,398.208008,681.247986
612.927979,407.967987,692.960022
601.216003,411.872009,683.200012
607.072021,402.112000,683.200012
609.023987,417.727997,685.151978
610.976013,413.824005,692.960022
603.168030,407.967987,696.864014
607.072021,404.063995,687.104004
609.023987,409.920013,696.864014
609.023987,411.872009,692.960022
614.880005,406.015991,700.768005
614.880005,417.727997,694.911987
626.591980,411.872009,694.911987
616.831970,411.872009,698.815979
620.736023,402.112000,708.575989
612.927979,404.063995,710.528015
624.640015,394.303986,710.528015
618.783997,390.399994,718.335999
614.880005,398.208008,714.432007
630.495972,388.447998,710.528015
622.687988,390.399994,718.335999
612.927979,402.112000,714.432007
614.880005,394.303986,716.383972
618.783997,388.447998,712.479980
622.687988,398.208008,708.575989
618.783997,404.063995,700.768005
628.544006,390.399994,704.671997
628.544006,398.208008,710.528015
622.687988,409.920013,712.479980
609.023987,419.679993,696.864014
614.880005,415.776001,696.864014
614.880005,419.679993,692.960022
614.880005,419.679993,694.911987
616.831970,419.679993,694.911987
614.880005,419.679993,696.864014
624.640015,402.112000,694.911987
616.831970,400.160004,704.671997
628.544006,402.112000,702.719971
630.495972,390.399994,698.815979
630.495972,392.351990,710.528015
630.495972,394.303986,710.528015
632.447998,398.208008,712.479980
622.687988,396.256012,706.624023
626.591980,394.303986,694.911987
622.687988,402.112000,704.671997
630.495972,406.015991,708.575989
624.640015,386.496002,708.575989
632.447998,394.303986,716.383972
624.640015,396.256012,714.432007
628.544006,392.351990,722.239990
640.255981,388.447998,722.239990
644.159973,390.399994,714.432007
634.400024,394.303986,718.335999
644.159973,390.399994,724.192017
636.351990,382.592010,722.239990
638.304016,388.447998,728.096008
642.208008,392.351990,728.096008
632.447998,394.303986,728.096008
642.208008,390.399994,726.143982
638.304016,386.496002,720.288025
642.208008,374.783997,718.335999
638.304016,384.544006,728.096008
650.015991,372.832001,722.239990
634.400024,374.783997,720.288025
640.255981,386.496002,728.096008
642.208008,370.880005,718.335999
644.159973,368.928009,720.288025
636.351990,386.496002,722.239990
638.304016,382.592010,728.096008
640.255981,378.687988,722.239990
632.447998,386.496002,728.096008
638.304016,388.447998,728.096008
632.447998,386.496002,733.952026
628.544006,388.447998,726.143982
638.304016,396.256012,735.903992
628.544006,378.687988,732.000000
640.255981,380.640015,724.192017
638.304016,382.592010,741.760010
636.351990,378.687988,737.856018
644.159973,372.832001,739.807983
640.255981,378.687988,739.807983
648.064026,382.592010,735.903992
632.447998,392.351990,741.760010
642.208008,380.640015,747.616028
630.495972,394.303986,741.760010
632.447998,404.063995,741.760010
636.351990,384.544006,747.616028
644.159973,382.592010,747.616028
644.159973,390.399994,743.711975
642.208008,384.544006,741.760010
638.304016,390.399994,733.952026
644.159973,396.256012,732.000000
644.159973,390.399994,743.711975
646.112000,396.256012,739.807983
636.351990,394.303986,743.711975
650.015991,388.447998,743.711975
642.208008,392.351990,733.952026
624.640015,390.399994,743.711975
636.351990,392.351990,743.711975
634.400024,390.399994,730.047974
638.304016,384.544006,735.903992
646.112000,392.351990,726.143982
638.304016,388.447998,733.952026
640.255981,376.735992,732.000000
638.304016,386.496002,732.000000
630.495972,396.256012,724.192017
632.447998,400.160004,724.192017
632.447998,396.256012,726.143982
642.208008,404.063995,724.192017
634.400024,404.063995,724.192017
632.447998,390.399994,735.903992
638.304016,398.208008,724.192017
642.208008,394.303986,726.143982
638.304016,398.208008,724.192017
640.255981,390.399994,722.239990
638.304016,400.160004,732.000000
642.208008,396.256012,726.143982
642.208008,388.447998,735.903992
636.351990,396.256012,735.903992
638.304016,392.351990,739.807983
628.544006,386.496002,730.047974
638.304016,390.399994,732.000000
634.400024,400.160004,730.047974
634.400024,392.351990,743.711975
626.591980,396.256012,741.760010
628.544006,398.208008,747.616028
630.495972,382.592010,739.807983
626.591980,392.351990,726.143982
636.351990,390.399994,733.952026
632.447998,398.208008,732.000000
638.304016,392.351990,733.952026
624.640015,400.160004,735.903992
628.544006,392.351990,726.143982
622.687988,404.063995,735.903992
636.351990,396.256012,735.903992
634.400024,396.256012,728.096008
628.544006,404.063995,724.192017
638.304016,404.063995,724.192017
624.640015,406.015991,728.096008
630.495972,398.208008,732.000000
630.495972,398.208008,735.903992
618.783997,398.208008,732.000000
628.544006,396.256012,728.096008
634.400024,382.592010,741.760010
626.591980,382.592010,726.143982
634.400024,388.447998,733.952026
626.591980,374.783997,735.903992
630.495972,378.687988,730.047974
634.400024,384.544006,720.288025
630.495972,392.351990,728.096008
620.736023,392.351990,733.952026
620.736023,390.399994,718.335999
614.880005,417.727997,724.192017
618.783997,417.727997,714.432007
624.640015,421.631989,712.479980
616.831970,407.967987,710.528015
622.687988,421.631989,718.335999
630.495972,415.776001,714.432007
620.736023,407.967987,710.528015
616.831970,407.967987,710.528015
622.687988,407.967987,716.383972
634.400024,404.063995,712.479980
624.640015,406.015991,722.239990
616.831970,406.015991,724.192017
630.495972,398.208008,722.239990
612.927979,394.303986,728.096008
630.495972,394.303986,728.096008
624.640015,396.256012,724.192017
618.783997,386.496002,732.000000
616.831970,392.351990,726.143982
612.927979,390.399994,724.192017
620.736023,404.063995,728.096008
612.927979,390.399994,724.192017
616.831970,392.351990,730.047974
612.927979,402.112000,726.143982
618.783997,406.015991,735.903992
614.880005,409.920013,735.903992
618.783997,421.631989,743.711975
618.783997,413.824005,732.000000
614.880005,427.488007,741.760010
624.640015,415.776001,745.664001
610.976013,417.727997,741.760010
620.736023,427.488007,741.760010
610.976013,423.584015,741.760010
618.783997,409.920013,743.711975
620.736023,402.112000,745.664001
618.783997,406.015991,751.520020
614.880005,407.967987,751.520020
612.927979,415.776001,745.664001
614.880005,400.160004,745.664001
609.023987,404.063995,739.807983
607.072021,415.776001,732.000000
607.072021,406.015991,743.711975
612.927979,404.063995,732.000000
610.976013,400.160004,726.143982
609.023987,394.303986,718.335999
614.880005,386.496002,718.335999
609.023987,406.015991,706.624023
607.072021,404.063995,712.479980
603.168030,406.015991,704.671997
614.880005,411.872009,704.671997
593.408020,425.536011,700.768005
603.168030,425.536011,692.960022
597.312012,417.727997,700.768005
591.455994,423.584015,700.768005
585.599976,435.295990,696.864014
597.312012,431.391998,692.960022
603.168030,423.584015,687.104004
597.312012,417.727997,696.864014
595.359985,417.727997,692.960022
595.359985,417.727997,698.815979
593.408020,406.015991,702.719971
593.408020,407.967987,698.815979
599.263977,402.112000,700.768005
607.072021,407.967987,698.815979
601.216003,404.063995,702.719971
597.312012,407.967987,712.479980
597.312012,404.063995,720.288025
601.216003,411.872009,720.288025
607.072021,413.824005,710.528015
597.312012,411.872009,712.479980
599.263977,411.872009,716.383972
595.359985,409.920013,716.383972
601.216003,419.679993,710.528015
607.072021,409.920013,702.719971
601.216003,407.967987,704.671997
599.263977,413.824005,712.479980
599.263977,406.015991,700.768005
601.216003,402.112000,700.768005
603.168030,402.112000,694.911987
599.263977,402.112000,698.815979
593.408020,394.303986,696.864014
591.455994,394.303986,694.911987
581.695984,407.967987,698.815979
599.263977,404.063995,691.007996
587.552002,396.256012,683.200012
585.599976,396.256012,683.200012
585.599976,378.687988,692.960022
595.359985,384.544006,691.007996
593.408020,388.447998,683.200012
593.408020,384.544006,685.151978
587.552002,378.687988,692.960022
587.552002,374.783997,702.719971
595.359985,380.640015,700.768005
610.976013,378.687988,702.719971
601.216003,386.496002,708.575989
605.119995,382.592010,708.575989
607.072021,378.687988,708.575989
610.976013,374.783997,712.479980
609.023987,374.783997,714.432007
614.880005,372.832001,714.432007
620.736023,376.735992,722.239990
612.927979,378.687988,724.192017
620.736023,380.640015,726.143982
618.783997,372.832001,739.807983
622.687988,370.880005,732.000000
620.736023,374.783997,733.952026
630.495972,384.544006,745.664001
624.640015,359.167999,743.711975
622.687988,365.023987,747.616028
620.736023,376.735992,747.616028
628.544006,370.880005,747.616028
628.544006,368.928009,749.567993
626.591980,368.928009,751.520020
626.591980,372.832001,751.520020
630.495972,366.976013,753.471985
634.400024,363.071991,749.567993
634.400024,368.928009,745.664001
634.400024,370.880005,755.424011
636.351990,365.023987,761.280029
628.544006,363.071991,749.567993
632.447998,366.976013,755.424011
636.351990,365.023987,761.280029
642.208008,376.735992,757.375977
636.351990,366.976013,763.231995
642.208008,368.928009,759.328003
632.447998,372.832001,763.231995
644.159973,370.880005,767.135986
650.015991,363.071991,759.328003
636.351990,376.735992,763.231995
651.968018,374.783997,761.280029
646.112000,359.167999,771.039978
651.968018,361.119995,767.135986
644.159973,376.735992,767.135986
644.159973,365.023987,761.280029
648.064026,359.167999,772.992004
644.159973,355.264008,774.943970
648.064026,359.167999,778.848022
648.064026,357.216003,776.895996
650.015991,347.455994,778.848022
642.208008,353.312012,778.848022
638.304016,343.552002,774.943970
646.112000,349.407990,769.088013
634.400024,357.216003,771.039978
638.304016,349.407990,772.992004
636.351990,343.552002,774.943970
638.304016,361.119995,776.895996
636.351990,361.119995,771.039978
640.255981,361.119995,772.992004
640.255981,357.216003,761.280029
632.447998,374.783997,774.943970
640.255981,366.976013,778.848022
628.544006,366.976013,765.184021
634.400024,376.735992,767.135986
634.400024,366.976013,767.135986
628.544006,359.167999,767.135986
630.495972,370.880005,759.328003
624.640015,370.880005,761.280029
632.447998,365.023987,769.088013
634.400024,353.312012,765.184021
626.591980,351.359985,761.280029
634.400024,372.832001,774.943970
622.687988,347.455994,769.088013
628.544006,353.312012,767.135986
624.640015,365.023987,774.943970
624.640015,363.071991,765.184021
620.736023,347.455994,776.895996
628.544006,355.264008,765.184021
626.591980,361.119995,757.375977
618.783997,368.928009,763.231995
609.023987,359.167999,759.328003
614.880005,370.880005,759.328003
610.976013,372.832001,759.328003
605.119995,372.832001,759.328003
614.880005,368.928009,745.664001
612.927979,357.216003,743.711975
607.072021,365.023987,739.807983
599.263977,363.071991,743.711975
605.119995,351.359985,739.807983
599.263977,359.167999,743.711975
599.263977,349.407990,733.952026
599.263977,333.791992,726.143982
591.455994,341.600006,732.000000
593.408020,341.600006,730.047974
587.552002,329.888000,726.143982
591.455994,331.839996,732.000000
579.744019,331.839996,728.096008
566.080017,337.696014,733.952026
568.031982,335.743988,726.143982
564.127991,333.791992,741.760010
573.888000,333.791992,732.000000
558.271973,325.984009,726.143982
569.984009,333.791992,726.143982
564.127991,329.888000,720.288025
554.367981,316.223999,712.479980
554.367981,341.600006,710.528015
556.320007,357.216003,712.479980
554.367981,347.455994,706.624023
544.607971,357.216003,708.575989
546.559998,363.071991,702.719971
542.656006,361.119995,710.528015
540.703979,359.167999,698.815979
548.512024,357.216003,689.056030
523.135986,355.264008,692.960022
527.039978,361.119995,694.911987
534.848022,355.264008,694.911987
523.135986,333.791992,689.056030
532.895996,325.984009,683.200012
528.992004,345.503998,691.007996
544.607971,335.743988,687.104004
530.943970,316.223999,681.247986
540.703979,320.127991,683.200012
534.848022,337.696014,692.960022
536.799988,329.888000,677.343994
548.512024,324.032013,681.247986
540.703979,333.791992,677.343994
534.848022,327.936005,685.151978
544.607971,349.407990,691.007996
548.512024,339.648010,694.911987
544.607971,335.743988,694.911987
554.367981,345.503998,708.575989
540.703979,337.696014,706.624023
550.463989,335.743988,702.719971
550.463989,335.743988,710.528015
558.271973,341.600006,716.383972
560.223999,318.175995,724.192017
558.271973,327.936005,714.432007
560.223999,331.839996,728.096008
568.031982,333.791992,720.288025
568.031982,304.511993,728.096008
571.935974,316.223999,737.856018
583.648010,320.127991,724.192017
573.888000,308.415985,732.000000
579.744019,310.368011,735.903992
571.935974,322.079987,735.903992
571.935974,312.320007,737.856018
566.080017,322.079987,735.903992
571.935974,322.079987,728.096008
558.271973,329.888000,733.952026
568.031982,325.984009,743.711975
573.888000,329.888000,741.760010
573.888000,337.696014,743.711975
571.935974,331.839996,743.711975
583.648010,329.888000,743.711975
579.744019,325.984009,743.711975
575.840027,329.888000,741.760010
575.840027,329.888000,749.567993
577.791992,331.839996,751.520020
581.695984,337.696014,755.424011
579.744019,327.936005,747.616028
571.935974,331.839996,747.616028
581.695984,325.984009,751.520020
560.223999,325.984009,755.424011
569.984009,333.791992,757.375977
569.984009,322.079987,745.664001
568.031982,325.984009,745.664001
566.080017,316.223999,763.231995
566.080017,324.032013,757.375977
581.695984,316.223999,745.664001
569.984009,324.032013,753.471985
568.031982,320.127991,759.328003
569.984009,314.272003,767.135986
562.176025,308.415985,757.375977
564.127991,318.175995,757.375977
556.320007,320.127991,749.567993
568.031982,312.320007,759.328003
560.223999,320.127991,749.567993
558.271973,316.223999,749.567993
562.176025,318.175995,751.520020
564.127991,320.127991,743.711975
556.320007,324.032013,737.856018
554.367981,320.127991,741.760010
540.703979,308.415985,735.903992
544.607971,318.175995,739.807983
534.848022,325.984009,726.143982
525.088013,306.463989,730.047974
528.992004,318.175995,735.903992
528.992004,312.320007,739.807983
525.088013,304.511993,728.096008
519.231995,300.608002,722.239990
523.135986,314.272003,722.239990
527.039978,304.511993,714.432007
527.039978,300.608002,702.719971
527.039978,325.984009,692.960022
534.848022,325.984009,710.528015
527.039978,304.511993,706.624023
528.992004,294.752014,698.815979
523.135986,316.223999,689.056030
523.135986,314.272003,691.007996
509.471985,290.847992,691.007996
511.424011,296.704010,702.719971
499.712006,300.608002,694.911987
513.375977,292.799988,696.864014
515.328003,277.183990,702.719971
507.519989,275.231995,698.815979
509.471985,269.376007,687.104004
499.712006,284.992004,685.151978
503.615997,267.424011,681.247986
484.096008,275.231995,683.200012
488.000000,283.040009,677.343994
486.048004,281.088013,677.343994
489.951996,296.704010,665.632019
480.191986,314.272003,663.679993
478.239990,302.559998,665.632019
476.287994,296.704010,675.392029
482.144012,314.272003,663.679993
482.144012,314.272003,657.823975
491.903992,298.656006,659.776001
489.951996,292.799988,675.392029
491.903992,296.704010,667.583984
495.808014,294.752014,663.679993
493.855988,294.752014,661.728027
493.855988,286.944000,675.392029
497.760010,284.992004,681.247986
491.903992,290.847992,681.247986
489.951996,284.992004,683.200012
488.000000,292.799988,679.296021
497.760010,275.231995,685.151978
497.760010,277.183990,689.056030
501.664001,290.847992,679.296021
505.567993,281.088013,689.056030
511.424011,286.944000,683.200012
515.328003,286.944000,681.247986
515.328003,284.992004,673.440002
503.615997,279.135986,681.247986
517.280029,269.376007,679.296021
503.615997,275.231995,683.200012
515.328003,279.135986,683.200012
517.280029,286.944000,675.392029
523.135986,283.040009,679.296021
511.424011,273.279999,681.247986
517.280029,267.424011,679.296021
513.375977,273.279999,681.247986
523.135986,273.279999,679.296021
525.088013,269.376007,692.960022
523.135986,265.471985,679.296021
519.231995,265.471985,685.151978
519.231995,265.471985,687.104004
532.895996,265.471985,696.864014
527.039978,261.567993,694.911987
523.135986,265.471985,706.624023
513.375977,275.231995,698.815979
536.799988,263.519989,704.671997
525.088013,255.712006,710.528015
536.799988,263.519989,716.383972
527.039978,265.471985,712.479980
550.463989,255.712006,722.239990
540.703979,245.951996,716.383972
546.559998,261.567993,728.096008
550.463989,265.471985,724.192017
546.559998,259.615997,728.096008
542.656006,261.567993,747.616028
536.799988,261.567993,755.424011
550.463989,259.615997,743.711975
544.607971,261.567993,749.567993
548.512024,261.567993,753.471985
540.703979,273.279999,755.424011
546.559998,267.424011,753.471985
542.656006,263.519989,759.328003
554.367981,273.279999,753.471985
556.320007,257.664001,755.424011
560.223999,261.567993,757.375977
552.416016,259.615997,759.328003
542.656006,251.807999,755.424011
542.656006,263.519989,753.471985
544.607971,265.471985,751.520020
540.703979,261.567993,741.760010
538.752014,253.759995,739.807983
542.656006,257.664001,751.520020
544.607971,255.712006,735.903992
538.752014,249.856003,747.616028
536.799988,251.807999,737.856018
530.943970,263.519989,741.760010
534.848022,267.424011,732.000000
528.992004,261.567993,737.856018
528.992004,261.567993,726.143982
530.943970,267.424011,720.288025
528.992004,263.519989,716.383972
527.039978,279.135986,722.239990
517.280029,261.567993,722.239990
519.231995,271.328003,718.335999
521.184021,269.376007,718.335999
527.039978,261.567993,712.479980
517.280029,253.759995,712.479980
519.231995,261.567993,712.479980
519.231995,267.424011,716.383972
527.039978,251.807999,720.288025
521.184021,251.807999,710.528015
523.135986,271.328003,714.432007
511.424011,255.712006,710.528015
521.184021,253.759995,714.432007
525.088013,259.615997,718.335999
523.135986,245.951996,720.288025
530.943970,251.807999,716.383972
528.992004,259.615997,712.479980
532.895996,255.712006,706.624023
534.848022,249.856003,716.383972
530.943970,257.664001,710.528015
534.848022,263.519989,724.192017
538.752014,257.664001,722.239990
544.607971,253.759995,722.239990
536.799988,257.664001,735.903992
536.799988,257.664001,730.047974
532.895996,263.519989,733.952026
534.848022,263.519989,737.856018
532.895996,277.183990,741.760010
540.703979,267.424011,747.616028
548.512024,257.664001,743.711975
556.320007,257.664001,743.711975
548.512024,259.615997,751.520020
542.656006,251.807999,757.375977
544.607971,265.471985,759.328003
552.416016,267.424011,755.424011
532.895996,261.567993,749.567993
546.559998,257.664001,753.471985
540.703979,269.376007,749.567993
550.463989,261.567993,753.471985
538.752014,261.567993,745.664001
532.895996,269.376007,749.567993
532.895996,279.135986,747.616028
523.135986,283.040009,741.760010
536.799988,279.135986,732.000000
530.943970,283.040009,726.143982
527.039978,286.944000,724.192017
532.895996,288.895996,714.432007
530.943970,302.559998,712.479980
530.943970,302.559998,710.528015
544.607971,290.847992,702.719971
528.992004,288.895996,702.719971
540.703979,302.559998,700.768005
534.848022,290.847992,696.864014
527.039978,296.704010,691.007996
536.799988,298.656006,691.007996
530.943970,300.608002,691.007996
536.799988,304.511993,696.864014
534.848022,306.463989,687.104004
536.799988,312.320007,696.864014
540.703979,316.223999,700.768005
536.799988,308.415985,694.911987
530.943970,312.320007,696.864014
536.799988,331.839996,691.007996
536.799988,325.984009,692.960022
540.703979,327.936005,698.815979
544.607971,324.032013,700.768005
544.607971,335.743988,691.007996
540.703979,345.503998,704.671997
536.799988,337.696014,700.768005
536.799988,345.503998,698.815979
544.607971,349.407990,689.056030
538.752014,339.648010,694.911987
542.656006,335.743988,700.768005
534.848022,349.407990,702.719971
538.752014,341.600006,694.911987
540.703979,337.696014,692.960022
542.656006,339.648010,696.864014
542.656006,347.455994,691.007996
548.512024,343.552002,700.768005
544.607971,333.791992,694.911987
528.992004,341.600006,691.007996
542.656006,351.359985,692.960022
534.848022,341.600006,687.104004
538.752014,355.264008,687.104004
552.416016,353.312012,696.864014
546.559998,365.023987,689.056030
550.463989,361.119995,689.056030
542.656006,365.023987,679.296021
552.416016,372.832001,681.247986
538.752014,363.071991,692.960022
546.559998,370.880005,677.343994
527.039978,372.832001,671.487976
534.848022,368.928009,677.343994
534.848022,355.264008,673.440002
546.559998,353.312012,675.392029
536.799988,363.071991,667.583984
540.703979,351.359985,665.632019
532.895996,343.552002,669.536011
538.752014,345.503998,673.440002
538.752014,361.119995,655.872009
544.607971,337.696014,663.679993
542.656006,335.743988,661.728027
542.656006,337.696014,653.919983
542.656006,345.503998,663.679993
546.559998,351.359985,659.776001
542.656006,327.936005,663.679993
550.463989,329.888000,657.823975
536.799988,357.216003,655.872009
554.367981,347.455994,665.632019
554.367981,329.888000,663.679993
562.176025,333.791992,663.679993
564.127991,351.359985,675.392029
558.271973,347.455994,675.392029
581.695984,320.127991,673.440002
573.888000,322.079987,677.343994
587.552002,337.696014,689.056030
579.744019,312.320007,677.343994
583.648010,314.272003,687.104004
581.695984,312.320007,691.007996
587.552002,320.127991,692.960022
585.599976,304.511993,704.671997
591.455994,310.368011,702.719971
589.504028,300.608002,712.479980
593.408020,310.368011,708.575989
595.359985,314.272003,710.528015
603.168030,302.559998,718.335999
607.072021,288.895996,722.239990
593.408020,302.559998,724.192017
597.312012,310.368011,714.432007
603.168030,294.752014,728.096008
605.119995,290.847992,726.143982
607.072021,298.656006,720.288025
605.119995,306.463989,726.143982
599.263977,294.752014,733.952026
605.119995,306.463989,730.047974
601.216003,320.127991,728.096008
593.408020,302.559998,732.000000
591.455994,283.040009,728.096008
599.263977,290.847992,726.143982
599.263977,294.752014,714.432007
593.408020,279.135986,728.096008
593.408020,271.328003,724.192017
587.552002,275.231995,728.096008
581.695984,283.040009,726.143982
581.695984,275.231995,728.096008
587.552002,267.424011,732.000000
581.695984,259.615997,724.192017
581.695984,269.376007,726.143982
569.984009,271.328003,730.047974
575.840027,261.567993,712.479980
566.080017,267.424011,720.288025
573.888000,279.135986,714.432007
579.744019,257.664001,712.479980
568.031982,257.664001,710.528015
560.223999,277.183990,712.479980
564.127991,255.712006,704.671997
550.463989,261.567993,706.624023
560.223999,255.712006,702.719971
560.223999,259.615997,698.815979
554.367981,253.759995,702.719971
548.512024,251.807999,698.815979
552.416016,259.615997,696.864014
542.656006,245.951996,698.815979
540.703979,259.615997,698.815979
538.752014,257.664001,691.007996
527.039978,263.519989,683.200012
532.895996,251.807999,679.296021
519.231995,263.519989,687.104004
525.088013,253.759995,681.247986
511.424011,255.712006,677.343994
528.992004,253.759995,681.247986
507.519989,259.615997,675.392029
503.615997,255.712006,677.343994
517.280029,275.231995,671.487976
517.280029,273.279999,673.440002
505.567993,253.759995,665.632019
505.567993,273.279999,669.536011
497.760010,283.040009,655.872009
493.855988,275.231995,659.776001
486.048004,273.279999,661.728027
493.855988,283.040009,655.872009
495.808014,281.088013,657.823975
488.000000,294.752014,653.919983
499.712006,292.799988,653.919983
491.903992,292.799988,650.015991
505.567993,292.799988,646.112000
505.567993,304.511993,646.112000
497.760010,284.992004,650.015991
507.519989,281.088013,634.400024
507.519989,283.040009,638.304016
523.135986,288.895996,636.351990
523.135986,281.088013,632.447998
521.184021,271.328003,634.400024
528.992004,277.183990,636.351990
538.752014,271.328003,644.159973
540.703979,244.000000,638.304016
550.463989,240.095993,644.159973
548.512024,236.192001,648.064026
575.840027,214.720001,659.776001
566.080017,204.960007,665.632019
585.599976,208.863998,667.583984
573.888000,191.296005,667.583984
587.552002,169.824005,681.247986
595.359985,167.871994,683.200012
595.359985,156.160004,681.247986
597.312012,146.399994,681.247986
605.119995,146.399994,694.911987
610.976013,150.304001,694.911987
612.927979,140.544006,681.247986
616.831970,150.304001,677.343994
622.687988,148.352005,683.200012
630.495972,148.352005,681.247986
620.736023,162.016006,671.487976
626.591980,169.824005,665.632019
636.351990,171.776001,667.583984
644.159973,187.391998,671.487976
640.255981,193.248001,663.679993
655.872009,193.248001,667.583984
651.968018,226.432007,669.536011
657.823975,244.000000,677.343994
665.632019,247.904007,689.056030
659.776001,247.904007,689.056030
677.343994,267.424011,702.719971
675.392029,265.471985,724.192017
689.056030,255.712006,724.192017
689.056030,263.519989,739.807983
689.056030,253.759995,745.664001
696.864014,232.287994,763.231995
702.719971,228.384003,765.184021
700.768005,228.384003,782.752014
710.528015,210.815994,782.752014
712.479980,216.671997,794.463989
724.192017,220.576004,788.607971
716.383972,206.912003,798.367981
720.288025,203.007996,784.703979
716.383972,206.912003,784.703979
716.383972,206.912003,782.752014
718.335999,212.768005,782.752014
712.479980,216.671997,765.184021
720.288025,218.623993,761.280029
704.671997,232.287994,745.664001
706.624023,230.335999,743.711975
698.815979,234.240005,745.664001
702.719971,238.143997,726.143982
704.671997,236.192001,722.239990
700.768005,238.143997,716.383972
696.864014,238.143997,712.479980
691.007996,224.479996,698.815979
691.007996,232.287994,696.864014
696.864014,212.768005,683.200012
692.960022,208.863998,692.960022
689.056030,197.151993,691.007996
683.200012,201.056000,694.911987
691.007996,195.199997,694.911987
683.200012,189.343994,691.007996
687.104004,193.248001,691.007996
692.960022,189.343994,698.815979
685.151978,181.535995,702.719971
689.056030,183.488007,710.528015
683.200012,181.535995,712.479980
696.864014,177.632004,728.096008
692.960022,191.296005,732.000000
696.864014,191.296005,730.047974
687.104004,191.296005,747.616028
691.007996,197.151993,745.664001
685.151978,203.007996,751.520020
696.864014,199.104004,755.424011
687.104004,201.056000,751.520020
685.151978,195.199997,757.375977
691.007996,193.248001,763.231995
691.007996,171.776001,763.231995
692.960022,173.727997,759.328003
689.056030,173.727997,753.471985
691.007996,152.255997,755.424011
679.296021,156.160004,747.616028
679.296021,154.207993,749.567993
681.247986,134.688004,741.760010
663.679993,132.735992,749.567993
675.392029,134.688004,745.664001
651.968018,113.216003,741.760010
667.583984,113.216003,739.807983
665.632019,136.639999,732.000000
651.968018,128.832001,724.192017
669.536011,97.599998,728.096008
653.919983,111.264000,724.192017
657.823975,134.688004,718.335999
651.968018,122.975998,726.143982
655.872009,101.503998,710.528015
653.919983,117.120003,724.192017
644.159973,113.216003,722.239990
644.159973,99.552002,733.952026
636.351990,111.264000,718.335999
640.255981,97.599998,735.903992
644.159973,78.080002,735.903992
636.351990,95.648003,743.711975
642.208008,101.503998,747.616028
646.112000,81.984001,745.664001
636.351990,70.272003,747.616028
640.255981,95.648003,749.567993
644.159973,80.031998,759.328003
650.015991,72.223999,749.567993
642.208008,91.744003,755.424011
640.255981,85.888000,749.567993
640.255981,64.416000,745.664001
632.447998,81.984001,747.616028
640.255981,85.888000,743.711975
638.304016,74.176003,743.711975
634.400024,70.272003,741.760010
620.736023,85.888000,751.520020
624.640015,81.984001,741.760010
630.495972,58.560001,726.143982
624.640015,76.127998,747.616028
634.400024,74.176003,749.567993
622.687988,72.223999,747.616028
620.736023,66.367996,741.760010
624.640015,78.080002,735.903992
609.023987,72.223999,735.903992
622.687988,60.512001,733.952026
610.976013,72.223999,743.711975
612.927979,76.127998,741.760010
610.976013,68.320000,751.520020
609.023987,60.512001,741.760010
607.072021,68.320000,743.711975
603.168030,76.127998,759.328003
603.168030,62.464001,743.711975
610.976013,66.367996,747.616028
603.168030,56.608002,755.424011
603.168030,56.608002,735.903992
601.216003,66.367996,739.807983
607.072021,68.320000,743.711975
597.312012,62.464001,749.567993
585.599976,64.416000,743.711975
601.216003,62.464001,745.664001
581.695984,60.512001,739.807983
603.168030,64.416000,741.760010
599.263977,50.751999,730.047974
599.263977,60.512001,730.047974
593.408020,50.751999,722.239990
593.408020,62.464001,728.096008
601.216003,52.703999,732.000000
589.504028,56.608002,732.000000
581.695984,60.512001,722.239990
587.552002,52.703999,714.432007
591.455994,46.848000,712.479980
591.455994,52.703999,718.335999
593.408020,54.655998,718.335999
593.408020,58.560001,702.719971
585.599976,58.560001,702.719971
589.504028,44.896000,698.815979
581.695984,44.896000,692.960022
577.791992,48.799999,692.960022
587.552002,48.799999,675.392029
581.695984,44.896000,675.392029
585.599976,46.848000,667.583984
585.599976,52.703999,677.343994
577.791992,52.703999,663.679993
583.648010,44.896000,663.679993
585.599976,46.848000,663.679993
575.840027,35.136002,655.872009
591.455994,44.896000,653.919983
585.599976,42.944000,636.351990
577.791992,46.848000,636.351990
581.695984,56.608002,638.304016
587.552002,42.944000,634.400024
585.599976,42.944000,630.495972
579.744019,46.848000,622.687988
581.695984,44.896000,616.831970
575.840027,56.608002,622.687988
571.935974,39.040001,616.831970
571.935974,35.136002,607.072021
577.791992,40.992001,607.072021
568.031982,48.799999,597.312012
568.031982,46.848000,599.263977
571.935974,44.896000,597.312012
571.935974,39.040001,597.312012
564.127991,48.799999,601.216003
571.935974,35.136002,595.359985
564.127991,33.183998,585.599976
568.031982,44.896000,595.359985
560.223999,44.896000,593.408020
562.176025,35.136002,587.552002
566.080017,37.088001,575.840027
569.984009,48.799999,585.599976
562.176025,50.751999,587.552002
575.840027,44.896000,575.840027
569.984009,33.183998,573.888000
566.080017,39.040001,562.176025
569.984009,44.896000,569.984009
589.504028,40.992001,568.031982
587.552002,44.896000,560.223999
585.599976,60.512001,556.320007
587.552002,62.464001,552.416016
589.504028,46.848000,556.320007
585.599976,40.992001,556.320007
595.359985,48.799999,556.320007
609.023987,46.848000,546.559998
622.687988,48.799999,538.752014
620.736023,39.040001,538.752014
636.351990,46.848000,534.848022
638.304016,48.799999,527.039978
642.208008,48.799999,523.135986
642.208008,42.944000,534.848022
648.064026,48.799999,538.752014
651.968018,42.944000,538.752014
648.064026,52.703999,534.848022
661.728027,54.655998,540.703979
651.968018,46.848000,542.656006
665.632019,46.848000,546.559998
665.632019,46.848000,540.703979
687.104004,50.751999,546.559998
687.104004,52.703999,556.320007
692.960022,56.608002,552.416016
706.624023,52.703999,558.271973
712.479980,54.655998,577.791992
722.239990,62.464001,595.359985
730.047974,72.223999,618.783997
755.424011,87.839996,634.400024
759.328003,83.935997,646.112000
765.184021,83.935997,659.776001
786.656006,97.599998,675.392029
798.367981,95.648003,685.151978
792.512024,101.503998,691.007996
796.416016,124.928001,689.056030
806.176025,128.832001,687.104004
810.080017,136.639999,694.911987
815.935974,136.639999,696.864014
817.888000,144.447998,698.815979
827.648010,140.544006,694.911987
829.599976,136.639999,685.151978
827.648010,150.304001,685.151978
823.744019,144.447998,679.296021
819.840027,146.399994,675.392029
819.840027,148.352005,667.583984
843.263977,144.447998,669.536011
827.648010,138.591995,665.632019
849.119995,142.496002,648.064026
837.408020,134.688004,644.159973
845.216003,117.120003,650.015991
839.359985,117.120003,640.255981
843.263977,128.832001,650.015991
841.312012,121.024002,648.064026
851.072021,126.879997,644.159973
856.927979,130.783997,650.015991
856.927979,134.688004,646.112000
860.831970,134.688004,653.919983
864.736023,144.447998,653.919983
860.831970,146.399994,644.159973
866.687988,158.112000,648.064026
868.640015,171.776001,661.728027
878.400024,181.535995,661.728027
878.400024,167.871994,661.728027
872.544006,173.727997,665.632019
882.304016,181.535995,663.679993
874.495972,181.535995,663.679993
890.112000,165.919998,669.536011
872.544006,165.919998,661.728027
886.208008,158.112000,671.487976
862.783997,165.919998,659.776001
874.495972,158.112000,663.679993
874.495972,142.496002,663.679993
880.351990,146.399994,661.728027
874.495972,138.591995,650.015991
880.351990,128.832001,653.919983
874.495972,130.783997,640.255981
866.687988,136.639999,642.208008
870.591980,144.447998,636.351990
864.736023,136.639999,626.591980
864.736023,154.207993,616.831970
868.640015,144.447998,614.880005
870.591980,140.544006,616.831970
866.687988,140.544006,607.072021
856.927979,154.207993,609.023987
866.687988,158.112000,603.168030
868.640015,142.496002,601.216003
862.783997,140.544006,601.216003
864.736023,140.544006,599.263977
866.687988,148.352005,595.359985
843.263977,152.255997,605.119995
864.736023,142.496002,620.736023
849.119995,148.352005,609.023987
860.831970,142.496002,616.831970
849.119995,136.639999,612.927979
862.783997,140.544006,610.976013
866.687988,146.399994,622.687988
847.168030,138.591995,620.736023
854.976013,134.688004,610.976013
856.927979,138.591995,620.736023
847.168030,138.591995,616.831970
853.023987,136.639999,614.880005
841.312012,148.352005,616.831970
843.263977,140.544006,601.216003
827.648010,142.496002,601.216003
827.648010,146.399994,591.455994
810.080017,130.783997,579.744019
821.791992,134.688004,573.888000
796.416016,140.544006,566.080017
800.320007,130.783997,542.656006
796.416016,126.879997,542.656006
796.416016,119.071999,530.943970
774.943970,115.167999,519.231995
786.656006,117.120003,505.567993
767.135986,95.648003,493.855988
782.752014,103.456001,482.144012
761.280029,101.503998,464.575989
747.616028,115.167999,460.671997
747.616028,130.783997,470.432007
753.471985,124.928001,460.671997
737.856018,142.496002,456.768005
739.807983,148.352005,464.575989
730.047974,138.591995,454.816010
730.047974,128.832001,454.816010
710.528015,154.207993,447.007996
716.383972,144.447998,456.768005
694.911987,128.832001,448.959991
691.007996,132.735992,454.816010
691.007996,148.352005,445.056000
679.296021,134.688004,456.768005
677.343994,136.639999,458.720001
677.343994,140.544006,452.864014
665.632019,134.688004,452.864014
655.872009,142.496002,443.104004
657.823975,162.016006,445.056000
646.112000,150.304001,439.200012
648.064026,138.591995,443.104004
636.351990,152.255997,427.488007
640.255981,165.919998,421.631989
624.640015,144.447998,425.536011
632.447998,142.496002,429.440002
624.640015,146.399994,413.824005
614.880005,142.496002,419.679993
628.544006,142.496002,431.391998
609.023987,128.832001,423.584015
601.216003,121.024002,417.727997
601.216003,105.407997,421.631989
593.408020,99.552002,415.776001
593.408020,109.311996,411.872009
595.359985,107.360001,423.584015
607.072021,97.599998,406.015991
593.408020,91.744003,396.256012
597.312012,56.608002,376.735992
579.744019,19.520000,351.359985
589.504028,-15.616000,327.936005
569.984009,-25.375999,320.127991
562.176025,-44.896000,294.752014
562.176025,-52.703999,277.183990
554.367981,-81.984001,255.712006
558.271973,-97.599998,232.287994
550.463989,-89.792000,203.007996
552.416016,-42.944000,197.151993
566.080017,-23.424000,191.296005
591.455994,-44.896000,187.391998
612.927979,-60.512001,167.871994
640.255981,-50.751999,160.063995
638.304016,-37.088001,158.112000
632.447998,-5.856000,160.063995
622.687988,-17.568001,169.824005
638.304016,-50.751999,167.871994
675.392029,-25.375999,167.871994
642.208008,33.183998,175.679993
603.168030,35.136002,191.296005
609.023987,-35.136002,199.104004
653.919983,-62.464001,197.151993
669.536011,19.520000,179.584000
661.728027,74.176003,179.584000
681.247986,56.608002,189.343994
691.007996,1.952000,203.007996
681.247986,-3.904000,195.199997
677.343994,37.088001,187.391998
677.343994,66.367996,204.960007
706.624023,44.896000,195.199997
722.239990,-7.808000,173.727997
714.432007,33.183998,158.112000
718.335999,95.648003,160.063995
743.711975,97.599998,165.919998
747.616028,66.367996,130.783997
757.375977,115.167999,121.024002
767.135986,162.016006,109.311996
772.992004,163.968002,99.552002
780.799988,177.632004,81.984001
782.752014,206.912003,74.176003
794.463989,201.056000,70.272003
804.223999,201.056000,70.272003
817.888000,251.807999,89.792000
815.935974,316.223999,93.695999
819.840027,335.743988,99.552002
835.455994,341.600006,85.888000
837.408020,333.791992,85.888000
843.263977,296.704010,91.744003
849.119995,290.847992,93.695999
880.351990,312.320007,115.167999
927.200012,312.320007,124.928001
946.719971,292.799988,142.496002
981.856018,288.895996,167.871994
995.520020,292.799988,201.056000
995.520020,95.648003,210.815994
1063.839966,-87.839996,247.904007
1104.832031,72.223999,308.415985
1124.352051,251.807999,343.552002
1130.208008,177.632004,365.023987
1159.488037,42.944000,361.119995
1184.864014,62.464001,390.399994
1218.047974,146.399994,419.679993
1227.807983,173.727997,423.584015
1245.375977,156.160004,435.295990
1259.040039,105.407997,454.816010
1264.895996,115.167999,484.096008
1278.560059,150.304001,509.471985
1262.943970,132.735992,501.664001
1276.608032,103.456001,495.808014
1303.936035,121.024002,517.280029
1301.984009,148.352005,521.184021
1300.031982,136.639999,515.328003
1307.839966,142.496002,507.519989
1298.079956,154.207993,536.799988
1309.791992,148.352005,554.367981
1307.839966,134.688004,556.320007
1319.552002,142.496002,558.271973
1325.407959,134.688004,591.455994
1327.359985,119.071999,624.640015
1337.119995,87.839996,642.208008
1344.927979,113.216003,657.823975
1354.687988,128.832001,679.296021
1362.495972,95.648003,704.671997
1382.015991,83.935997,726.143982
1397.631958,97.599998,757.375977
1409.343994,122.975998,813.984009
1469.855957,160.063995,890.112000
1464.000000,175.679993,983.807983
1479.615967,144.447998,1063.839966
1442.527954,134.688004,1124.352051
1413.248047,132.735992,1175.104004
1423.008057,132.735992,1202.432007
1450.336060,122.975998,1188.767944
1512.800049,132.735992,1149.728027
1551.839966,167.871994,1126.303955
1602.592041,187.391998,1118.495972
1624.063965,154.207993,1124.352051
1631.871948,136.639999,1147.776001
1620.160034,156.160004,1147.776001
1604.543945,175.679993,1159.488037
1610.400024,163.968002,1161.439941
1600.640015,156.160004,1171.199951
1594.784058,148.352005,1179.008057
1616.255981,158.112000,1182.911987
1614.303955,175.679993,1167.296021
1606.495972,181.535995,1149.728027
1600.640015,179.584000,1141.920044
1583.072021,163.968002,1143.871948
1577.215942,158.112000,1139.968018
1567.456055,169.824005,1128.255981
1540.128052,195.199997,1106.784058
1528.416016,193.248001,1098.975952
1518.656006,179.584000,1083.359985
1487.423950,173.727997,1054.079956
1475.712036,187.391998,1015.039978
1444.479980,203.007996,989.664001
1426.911987,214.720001,942.815979
1401.536011,199.104004,903.776001
1380.063965,212.768005,854.976013
1346.880005,238.143997,792.512024
1313.696045,245.951996,732.000000
1280.511963,226.432007,665.632019
1274.656006,212.768005,607.072021
1249.280029,208.863998,546.559998
1235.615967,234.240005,493.855988
1233.663940,281.088013,448.959991
1212.192017,283.040009,409.920013
1216.095947,255.712006,390.399994
1208.287964,218.623993,380.640015
1210.239990,175.679993,376.735992
1204.384033,134.688004,394.303986
1198.527954,62.464001,417.727997
1184.864014,33.183998,431.391998
1182.911987,17.568001,456.768005
1182.911987,-15.616000,472.384003
1167.296021,-42.944000,482.144012
1161.439941,-46.848000,484.096008
1149.728027,-46.848000,499.712006
1130.208008,-31.232000,511.424011
1124.352051,-29.280001,517.280029
1112.640015,-9.760000,538.752014
1126.303955,5.856000,558.271973
1110.687988,29.280001,560.223999
1093.119995,83.935997,560.223999
1069.696045,126.879997,571.935974
1046.271973,132.735992,569.984009
1030.656006,162.016006,562.176025
1005.280029,195.199997,558.271973
991.616028,171.776001,552.416016
979.903992,150.304001,542.656006
958.432007,148.352005,542.656006
944.768005,117.120003,534.848022
933.056030,87.839996,521.184021
911.583984,66.367996,528.992004
897.919983,25.375999,532.895996
882.304016,-19.520000,519.231995
870.591980,-19.520000,511.424011
854.976013,-40.992001,519.231995
841.312012,-58.560001,519.231995
833.504028,-66.367996,521.184021
812.031982,-52.703999,507.519989
798.367981,-54.655998,495.808014
782.752014,-37.088001,493.855988
782.752014,-29.280001,489.951996
772.992004,-33.183998,482.144012
757.375977,-19.520000,474.335999
753.471985,5.856000,460.671997
749.567993,11.712000,450.911987
722.239990,31.232000,417.727997
726.143982,31.232000,398.208008
712.479980,40.992001,394.303986
694.911987,25.375999,361.119995
687.104004,39.040001,347.455994
696.864014,37.088001,327.936005
679.296021,25.375999,302.559998
646.112000,27.327999,290.847992
636.351990,9.760000,271.328003
618.783997,-31.232000,253.759995
609.023987,-21.472000,220.576004
597.312012,-9.760000,191.296005
579.744019,-37.088001,181.535995
566.080017,-81.984001,173.727997
568.031982,-72.223999,158.112000
560.223999,-74.176003,128.832001
558.271973,-60.512001,109.311996
546.559998,-66.367996,91.744003
525.088013,-70.272003,95.648003
521.184021,-56.608002,80.031998
503.615997,-48.799999,54.655998
488.000000,-42.944000,39.040001
489.951996,-39.040001,35.136002
478.239990,-42.944000,19.520000
476.287994,-31.232000,-1.952000
482.144012,-3.904000,-3.904000
456.768005,15.616000,13.664000
460.671997,-1.952000,27.327999
482.144012,-37.088001,44.896000
482.144012,-64.416000,39.040001
474.335999,-25.375999,44.896000
474.335999,-3.904000,58.560001
478.239990,-31.232000,62.464001
482.144012,-54.655998,50.751999
505.567993,-39.040001,13.664000
525.088013,-9.760000,-21.472000
511.424011,27.327999,-50.751999
530.943970,9.760000,-58.560001
568.031982,-31.232000,-117.120003
550.463989,3.904000,-140.544006
552.416016,39.040001,-148.352005
575.840027,39.040001,-154.207993
575.840027,29.280001,-162.016006
564.127991,15.616000,-183.488007
581.695984,13.664000,-197.151993
579.744019,68.320000,-222.528000
605.119995,54.655998,-249.856003
650.015991,-5.856000,-290.847992
691.007996,1.952000,-327.936005
745.664001,74.176003,-368.928009
743.711975,93.695999,-396.256012
726.143982,60.512001,-413.824005
739.807983,31.232000,-429.440002
737.856018,37.088001,-443.104004
724.192017,31.232000,-468.480011
683.200012,29.280001,-476.287994
646.112000,70.272003,-448.959991
646.112000,162.016006,-431.391998
665.632019,0.000000,-462.623993
743.711975,42.944000,-458.720001
776.895996,81.984001,-472.384003
829.599976,50.751999,-456.768005
823.744019,21.472000,-425.536011
851.072021,-29.280001,-402.112000
858.880005,-13.664000,-388.447998
888.159973,-7.808000,-398.208008
872.544006,-27.327999,-406.015991
853.023987,-115.167999,-417.727997
895.968018,-378.687988,-448.959991
925.247986,-458.720001,-462.623993
831.552002,-68.320000,-407.967987
730.047974,445.056000,-376.735992
819.840027,337.696014,-407.967987
888.159973,-31.232000,-445.056000
876.447998,-126.879997,-464.575989
886.208008,-66.367996,-474.335999
876.447998,31.232000,-474.335999
895.968018,37.088001,-486.048004
894.015991,-31.232000,-495.808014
936.960022,-31.232000,-499.712006
940.864014,9.760000,-493.855988
935.007996,107.360001,-503.615997
944.768005,212.768005,-499.712006
1003.328003,35.136002,-482.144012
1032.608032,-68.320000,-472.384003
1059.936035,-72.223999,-462.623993
1061.887939,3.904000,-448.959991
1048.223999,105.407997,-427.488007
1098.975952,122.975998,-409.920013
1112.640015,89.792000,-380.640015
1138.015991,80.031998,-333.791992
1130.208008,83.935997,-327.936005
1126.303955,109.311996,-290.847992
1161.439941,193.248001,-253.759995
1175.104004,300.608002,-214.720001
1182.911987,355.264008,-179.584000
1204.384033,351.359985,-128.832001
1253.183960,365.023987,-70.272003
1288.319946,378.687988,-9.760000
1407.391968,443.104004,40.992001
1323.456055,462.623993,70.272003
1268.800049,488.000000,103.456001
1309.791992,486.048004,156.160004
1266.848022,458.720001,193.248001
1300.031982,462.623993,226.432007
1294.176025,493.855988,255.712006
1276.608032,499.712006,271.328003
1298.079956,486.048004,310.368011
1290.271973,456.768005,349.407990
1331.264038,476.287994,376.735992
1108.735962,339.648010,407.967987
550.463989,-577.791992,493.855988
1544.031982,-206.912003,589.504028
1520.608032,107.360001,636.351990
966.239990,-23.424000,648.064026
1198.527954,-306.463989,638.304016
1407.391968,-171.776001,605.119995
1329.312012,78.080002,612.927979
1136.063965,95.648003,618.783997
1161.439941,-165.919998,595.359985
1368.352051,-126.879997,575.840027
1430.816040,-21.472000,569.984009
1235.615967,0.000000,573.888000
1325.407959,-107.360001,577.791992
1448.384033,-179.584000,544.607971
1545.984009,-72.223999,544.607971
1454.239990,-25.375999,554.367981
1372.255981,-99.552002,556.320007
1143.871948,-439.200012,605.119995
1795.839966,-431.391998,634.400024
1842.687988,-245.951996,692.960022
1788.031982,-25.375999,751.520020
1924.671997,64.416000,759.328003
1780.223999,-89.792000,794.463989
1708.000000,-81.984001,847.168030
1780.223999,9.760000,936.960022
1791.936035,-201.056000,1011.135986
1655.296021,-208.863998,1044.319946
1540.128052,103.456001,1087.264038
1421.056030,193.248001,1114.592041
860.831970,281.088013,1313.696045
203.007996,757.375977,2053.503906
1717.760010,825.695984,1936.384033
1614.303955,238.143997,1809.504028
1706.047974,-1549.887939,1424.959961
1653.343994,-1604.543945,1241.472046
1454.239990,265.471985,1280.511963
1577.215942,1044.319946,1448.384033
1637.728027,562.176025,1540.128052
1702.144043,-597.312012,1417.151978
1907.104004,-933.056030,1253.183960
1852.447998,-435.295990,1243.423950
1717.760010,199.104004,1321.504028
1690.432007,173.727997,1294.176025
1737.280029,-259.615997,1163.391968
1789.984009,-265.471985,1108.735962
1747.040039,-103.456001,1087.264038
1663.104004,-64.416000,1028.703979
1590.880005,-87.839996,954.528015
1520.608032,-70.272003,878.400024
1469.855957,113.216003,751.520020
1424.959961,335.743988,595.359985
1368.352051,378.687988,478.239990
1313.696045,298.656006,423.584015
1266.848022,343.552002,370.880005
1233.663940,521.184021,300.608002
1239.520020,503.615997,244.000000
1251.232056,374.783997,228.384003
1233.663940,400.160004,251.807999
1237.567993,452.864014,286.944000
1255.135986,308.415985,337.696014
1268.800049,162.016006,380.640015
1262.943970,165.919998,411.872009
1251.232056,185.440002,437.247986
1245.375977,150.304001,415.776001
1220.000000,60.512001,384.544006
1179.008057,0.000000,335.743988
1145.823975,-37.088001,292.799988
1104.832031,-81.984001,245.951996
1071.647949,-81.984001,210.815994
1059.936035,-64.416000,175.679993
1044.319946,-74.176003,144.447998
1036.511963,-87.839996,119.071999
1011.135986,-97.599998,99.552002
999.424011,-132.735992,83.935997
985.760010,-128.832001,66.367996
948.671997,-78.080002,56.608002
946.719971,-80.031998,46.848000
931.104004,-103.456001,42.944000
921.343994,-9.760000,60.512001
899.872009,31.232000,66.367996
903.776001,50.751999,87.839996
886.208008,80.031998,99.552002
858.880005,119.071999,126.879997
854.976013,85.888000,128.832001
837.408020,40.992001,136.639999
831.552002,-1.952000,122.975998
815.935974,-56.608002,105.407997
798.367981,-101.503998,66.367996
827.648010,-144.447998,25.375999
810.080017,-222.528000,-13.664000
813.984009,-228.384003,-50.751999
784.703979,-232.287994,-78.080002
790.559998,-216.671997,-101.503998
790.559998,-115.167999,-111.264000
778.848022,-87.839996,-101.503998
741.760010,-42.944000,-93.695999
751.520020,-19.520000,-87.839996
755.424011,-31.232000,-83.935997
751.520020,-33.183998,-78.080002
757.375977,-9.760000,-76.127998
739.807983,-15.616000,-93.695999
730.047974,3.904000,-117.120003
724.192017,0.000000,-134.688004
730.047974,-33.183998,-160.063995
745.664001,-76.127998,-191.296005
737.856018,-144.447998,-204.960007
737.856018,-195.199997,-224.479996
732.000000,-189.343994,-226.432007
718.335999,-126.879997,-226.432007
726.143982,-64.416000,-220.576004
706.624023,-5.856000,-208.863998
712.479980,13.664000,-220.576004
720.288025,-5.856000,-216.671997
710.528015,-46.848000,-226.432007
657.823975,-39.040001,-257.664001
675.392029,19.520000,-294.752014
698.815979,-204.960007,-300.608002
708.575989,-579.744019,-261.567993
730.047974,-651.968018,-206.912003
735.903992,-363.071991,-158.112000
757.375977,85.888000,-103.456001
776.895996,388.447998,-80.031998
792.512024,392.351990,-93.695999
806.176025,156.160004,-132.735992
825.695984,-152.255997,-171.776001
821.791992,-341.600006,-181.535995
817.888000,-255.712006,-163.968002
825.695984,72.223999,-138.591995
851.072021,398.208008,-101.503998
880.351990,544.607971,-83.935997
874.495972,464.575989,-99.552002
847.168030,167.871994,-154.207993
858.880005,-156.160004,-218.623993
880.351990,-333.791992,-255.712006
888.159973,-261.567993,-300.608002
886.208008,-21.472000,-333.791992
882.304016,218.623993,-343.552002
866.687988,292.799988,-341.600006
868.640015,189.343994,-370.880005
860.831970,60.512001,-382.592010
897.919983,392.351990,-347.455994
913.536011,763.231995,-244.000000
923.296021,745.664001,-156.160004
962.335999,204.960007,-81.984001
1030.656006,-579.744019,-44.896000
1083.359985,-1153.631958,-25.375999
1126.303955,-1333.215942,-21.472000
1114.592041,-1389.823975,13.664000
1052.128052,-890.112000,87.839996
1007.231995,-9.760000,122.975998
1038.463989,700.768005,152.255997
1081.407959,1059.936035,105.407997
1108.735962,950.624023,31.232000
1073.599976,263.519989,-48.799999
1091.167969,-587.552002,-136.639999
1098.975952,-1013.088013,-156.160004
1116.543945,-743.711975,-162.016006
1097.024048,-33.183998,-162.016006
1085.312012,653.919983,-169.824005
1081.407959,905.728027,-177.632004
1081.407959,685.151978,-187.391998
1069.696045,146.399994,-218.623993
1118.495972,-400.160004,-224.479996
1138.015991,-634.400024,-206.912003
1153.631958,-468.480011,-162.016006
1180.959961,97.599998,-126.879997
1163.391968,864.736023,-48.799999
1159.488037,1186.816040,27.327999
1132.160034,802.271973,62.464001
1186.816040,-97.599998,46.848000
1270.751953,-968.192017,25.375999
1290.271973,-1393.728027,29.280001
1278.560059,-1296.128052,58.560001
1161.439941,-495.808014,93.695999
1126.303955,579.744019,87.839996
1147.776001,1223.904053,54.655998
1179.008057,1179.008057,19.520000
1188.767944,536.799988,-11.712000
1212.192017,-433.343994,-35.136002
1229.760010,-1091.167969,-56.608002
1266.848022,-1020.895996,-89.792000
1245.375977,-384.544006,-119.071999
1227.807983,331.839996,-146.399994
1233.663940,671.487976,-167.871994
1241.472046,726.143982,-175.679993
1239.520020,677.343994,-189.343994
1239.520020,603.168030,-222.528000
1216.095947,507.519989,-191.296005
1220.000000,335.743988,-91.744003
1220.000000,103.456001,-13.664000
1253.183960,-85.888000,44.896000
1286.368042,-140.544006,52.703999
1303.936035,13.664000,60.512001
1315.647949,212.768005,87.839996
1309.791992,247.904007,128.832001
1327.359985,-1.952000,185.440002
1311.744019,-224.479996,201.056000
1311.744019,-181.535995,195.199997
1313.696045,64.416000,175.679993
1321.504028,351.359985,134.688004
1319.552002,603.168030,111.264000
1335.167969,706.624023,105.407997
1327.359985,644.159973,76.127998
1337.119995,439.200012,33.183998
1354.687988,121.024002,-40.992001
1341.024048,-158.112000,-76.127998
1364.447998,-261.567993,-109.311996
1323.456055,-136.639999,-142.496002
1298.079956,105.407997,-163.968002
1290.271973,294.752014,-187.391998
1270.751953,365.023987,-91.744003
1225.855957,136.639999,39.040001
1247.328003,-150.304001,175.679993
1313.696045,-230.335999,247.904007
1348.832031,-117.120003,265.471985
1389.823975,93.695999,214.720001
1385.920044,363.071991,175.679993
1385.920044,540.703979,152.255997
1403.488037,489.951996,126.879997
1417.151978,13.664000,70.272003
1413.248047,-97.599998,56.608002
1395.680054,-83.935997,40.992001
1344.927979,-1.952000,37.088001
1341.024048,165.919998,19.520000
1325.407959,253.759995,11.712000
1323.456055,263.519989,0.000000
1331.264038,281.088013,-23.424000
1309.791992,296.704010,-35.136002
1305.887939,431.391998,-58.560001
1294.176025,607.072021,-54.655998
1262.943970,735.903992,-37.088001
1249.280029,624.640015,-35.136002
1231.712036,292.799988,-5.856000
1419.104004,-761.280029,597.312012
2447.808105,-3388.672119,4169.472168
2937.760010,-2418.528076,5861.855957
3031.456055,-2740.607910,4148.000000
2594.208008,-2121.823975,1987.135986
1698.239990,-997.471985,419.679993
1122.400024,-1059.936035,150.304001
895.968018,435.295990,-163.968002
845.216003,491.903992,-437.247986
1085.312012,763.231995,19.520000
1157.536011,521.184021,-5.856000
1048.223999,210.815994,-527.039978
874.495972,458.720001,-1210.239990
655.872009,527.039978,-1499.135986
667.583984,269.376007,-880.351990
761.280029,-275.231995,-267.424011
747.616028,-284.992004,-238.143997
870.591980,128.832001,-361.119995
888.159973,185.440002,-462.623993
862.783997,-257.664001,-349.407990
878.400024,-294.752014,-275.231995
833.504028,-339.648010,-380.640015
876.447998,-148.352005,-263.519989
960.383972,-122.975998,-66.367996
1036.511963,-134.688004,-56.608002
1050.176025,109.311996,-191.296005
1007.231995,70.272003,-384.544006
942.815979,-5.856000,-407.967987
915.487976,17.568001,-339.648010
895.968018,-3.904000,-365.023987
892.064026,60.512001,-382.592010
899.872009,74.176003,-400.160004
895.968018,25.375999,-388.447998
888.159973,21.472000,-349.407990
874.495972,60.512001,-411.872009
854.976013,76.127998,-425.536011
856.927979,111.264000,-386.496002
847.168030,105.407997,-388.447998
860.831970,126.879997,-374.783997
862.783997,156.160004,-359.167999
851.072021,134.688004,-324.032013
872.544006,103.456001,-259.615997
888.159973,72.223999,-240.095993
897.919983,44.896000,-230.335999
921.343994,19.520000,-187.391998
929.151978,17.568001,-162.016006
954.528015,25.375999,-177.632004
1044.319946,-128.832001,-19.520000
1081.407959,-327.936005,404.063995
1155.583984,-394.303986,663.679993
1100.927979,-314.272003,212.768005
882.304016,48.799999,-519.231995
677.343994,429.440002,-843.263977
601.216003,505.567993,-892.064026
692.960022,458.720001,-728.096008
835.455994,193.248001,-503.615997
929.151978,-81.984001,-351.359985
1022.848022,-281.088013,-195.199997
1044.319946,-378.687988,-95.648003
1046.271973,-374.783997,-39.040001
1063.839966,-327.936005,27.327999
1057.984009,-261.567993,19.520000
1048.223999,-171.776001,-7.808000
1005.280029,-126.879997,-62.464001
917.440002,-124.928001,-148.352005
874.495972,-78.080002,-210.815994
874.495972,-56.608002,-210.815994
923.296021,-89.792000,-91.744003
987.711975,-70.272003,52.703999
1065.791992,-50.751999,201.056000
1138.015991,-15.616000,308.415985
1153.631958,11.712000,294.752014
1118.495972,0.000000,208.863998
1050.176025,-31.232000,81.984001
997.471985,-44.896000,-40.992001
964.288025,-80.031998,-109.311996
960.383972,-109.311996,-124.928001
981.856018,-140.544006,-101.503998
1015.039978,-163.968002,-68.320000
1073.599976,-160.063995,-48.799999
1100.927979,-140.544006,-44.896000
1116.543945,-136.639999,-56.608002
1134.112061,-121.024002,-80.031998
1120.447998,-121.024002,-101.503998
1116.543945,-111.264000,-115.167999
1112.640015,-97.599998,-148.352005
1114.592041,-93.695999,-150.304001
1114.592041,-87.839996,-158.112000
1118.495972,-70.272003,-156.160004
1116.543945,-52.703999,-160.063995
1120.447998,-35.136002,-152.255997
1130.208008,5.856000,-142.496002
1145.823975,60.512001,-140.544006
1151.680054,111.264000,-121.024002
1155.583984,175.679993,-113.216003
1159.488037,261.567993,-105.407997
1155.583984,322.079987,-117.120003
1134.112061,339.648010,-132.735992
1118.495972,341.600006,-144.447998
1102.880005,294.752014,-163.968002
1093.119995,249.856003,-189.343994
1091.167969,199.104004,-203.007996
1079.456055,154.207993,-216.671997
1083.359985,105.407997,-212.768005
1073.599976,80.031998,-222.528000
1059.936035,44.896000,-232.287994
1046.271973,9.760000,-230.335999
1052.128052,-13.664000,-230.335999
1040.416016,-21.472000,-234.240005
1048.223999,-27.327999,-222.528000
1052.128052,-11.712000,-210.815994
1050.176025,-1.952000,-204.960007
1046.271973,13.664000,-210.815994
1050.176025,17.568001,-218.623993
1040.416016,27.327999,-226.432007
1036.511963,35.136002,-242.048004
1030.656006,40.992001,-251.807999
1028.703979,46.848000,-251.807999
1024.800049,60.512001,-267.424011
1028.703979,68.320000,-275.231995
1036.511963,91.744003,-275.231995
1030.656006,105.407997,-284.992004
1040.416016,109.311996,-296.704010
1040.416016,113.216003,-286.944000
1044.319946,122.975998,-284.992004
1044.319946,115.167999,-294.752014
1034.560059,105.407997,-290.847992
1036.511963,103.456001,-286.944000
1038.463989,95.648003,-294.752014
1050.176025,83.935997,-300.608002
1056.031982,87.839996,-298.656006
1065.791992,83.935997,-290.847992
1069.696045,80.031998,-296.704010
1073.599976,99.552002,-312.320007
1077.504028,115.167999,-308.415985
1071.647949,130.783997,-316.223999
1073.599976,142.496002,-314.272003
1065.791992,150.304001,-324.032013
1069.696045,158.112000,-325.984009
1069.696045,148.352005,-335.743988
1071.647949,160.063995,-333.791992
1079.456055,162.016006,-333.791992
1091.167969,171.776001,-325.984009
1093.119995,189.343994,-325.984009
1097.024048,197.151993,-327.936005
1095.072021,201.056000,-325.984009
1098.975952,197.151993,-322.079987
1097.024048,193.248001,-325.984009
1087.264038,175.679993,-327.936005
1095.072021,175.679993,-327.936005
1102.880005,162.016006,-318.175995
1112.640015,173.727997,-314.272003
1108.735962,179.584000,-316.223999
1114.592041,173.727997,-304.511993
1118.495972,156.160004,-304.511993
1122.400024,171.776001,-312.320007
1124.352051,171.776001,-306.463989
1118.495972,187.391998,-308.415985
1118.495972,185.440002,-302.559998
1118.495972,183.488007,-316.223999
1106.784058,183.488007,-324.032013
1114.592041,189.343994,-331.839996
1118.495972,163.968002,-316.223999
1118.495972,152.255997,-316.223999
1124.352051,130.783997,-308.415985
1126.303955,107.360001,-310.368011
1124.352051,83.935997,-298.656006
1118.495972,70.272003,-298.656006
1116.543945,58.560001,-308.415985
1126.303955,50.751999,-310.368011
1126.303955,35.136002,-302.559998
1128.255981,40.992001,-308.415985
1132.160034,40.992001,-300.608002
1124.352051,46.848000,-286.944000
1167.296021,13.664000,-271.328003
1186.816040,-19.520000,-230.335999
1206.336060,-7.808000,-210.815994
1204.384033,9.760000,-206.912003
1198.527954,44.896000,-228.384003
1182.911987,70.272003,-238.143997
1171.199951,91.744003,-259.615997
1159.488037,109.311996,-271.328003
1165.343994,109.311996,-261.567993
1169.248047,117.120003,-234.240005
1177.056030,124.928001,-222.528000
1192.671997,113.216003,-199.104004
1204.384033,109.311996,-171.776001
1218.047974,105.407997,-167.871994
1221.952026,115.167999,-144.447998
1218.047974,134.688004,-148.352005
1212.192017,175.679993,-144.447998
1202.432007,204.960007,-140.544006
1198.527954,206.912003,-132.735992
1192.671997,201.056000,-142.496002
1190.719971,163.968002,-150.304001
1169.248047,80.031998,-146.399994
1163.391968,3.904000,-158.112000
1157.536011,-58.560001,-173.727997
1149.728027,-109.311996,-160.063995
1141.920044,-124.928001,-138.591995
1147.776001,-111.264000,-136.639999
1153.631958,-70.272003,-136.639999
1157.536011,-31.232000,-121.024002
1157.536011,21.472000,-115.167999
1153.631958,60.512001,-105.407997
1151.680054,83.935997,-109.311996
1155.583984,111.264000,-105.407997
1153.631958,122.975998,-101.503998
1153.631958,122.975998,-111.264000
1151.680054,126.879997,-122.975998
1134.112061,107.360001,-115.167999
1136.063965,87.839996,-113.216003
1149.728027,76.127998,-117.120003
1149.728027,80.031998,-119.071999
1143.871948,78.080002,-128.832001
1139.968018,85.888000,-121.024002
1136.063965,87.839996,-117.120003
1124.352051,80.031998,-126.879997
1132.160034,89.792000,-130.783997
1126.303955,95.648003,-134.688004
1122.400024,81.984001,-140.544006
1118.495972,80.031998,-142.496002
1108.735962,64.416000,-158.112000
1095.072021,48.799999,-162.016006
1085.312012,39.040001,-167.871994
1081.407959,23.424000,-177.632004
1083.359985,11.712000,-179.584000
1075.552002,0.000000,-195.199997
1071.647949,-3.904000,-206.912003
1056.031982,-1.952000,-204.960007
1054.079956,-11.712000,-218.623993
1048.223999,-17.568001,-222.528000
1046.271973,-21.472000,-232.287994
1038.463989,-17.568001,-247.904007
1028.703979,-19.520000,-249.856003
1028.703979,-33.183998,-247.904007
1011.135986,-37.088001,-263.519989
1005.280029,-66.367996,-273.279999
999.424011,-80.031998,-283.040009
993.567993,-89.792000,-288.895996
995.520020,-89.792000,-284.992004
1001.375977,-89.792000,-283.040009
1001.375977,-70.272003,-283.040009
991.616028,-62.464001,-281.088013
993.567993,-39.040001,-283.040009
997.471985,-35.136002,-288.895996
995.520020,-31.232000,-283.040009
987.711975,-29.280001,-273.279999
981.856018,-27.327999,-290.847992
976.000000,-39.040001,-284.992004
985.760010,-52.703999,-286.944000
989.664001,-54.655998,-275.231995
985.760010,-52.703999,-281.088013
985.760010,-50.751999,-279.135986
987.711975,-54.655998,-283.040009
985.760010,-54.655998,-281.088013
981.856018,-52.703999,-271.328003
977.952026,-56.608002,-275.231995
976.000000,-48.799999,-288.895996
977.952026,-42.944000,-281.088013
977.952026,-37.088001,-284.992004
972.096008,-46.848000,-269.376007
979.903992,-40.992001,-275.231995
981.856018,-50.751999,-263.519989
987.711975,-50.751999,-253.759995
985.760010,-40.992001,-249.856003
989.664001,-35.136002,-255.712006
991.616028,-39.040001,-257.664001
995.520020,-39.040001,-255.712006
999.424011,-33.183998,-259.615997
991.616028,-35.136002,-251.807999
991.616028,-27.327999,-257.664001
995.520020,-21.472000,-253.759995
1001.375977,-17.568001,-247.904007
997.471985,-21.472000,-249.856003
997.471985,-27.327999,-249.856003
1005.280029,-27.327999,-253.759995
1003.328003,-23.424000,-240.095993
1005.280029,-31.232000,-240.095993
1007.231995,-27.327999,-244.000000
1011.135986,-15.616000,-244.000000
1007.231995,-19.520000,-257.664001
1016.992004,-19.520000,-247.904007
1007.231995,-23.424000,-253.759995
1011.135986,-19.520000,-251.807999
999.424011,-23.424000,-247.904007
1013.088013,-19.520000,-247.904007
1005.280029,-17.568001,-244.000000
1013.088013,-21.472000,-240.095993
1015.039978,-23.424000,-242.048004
1011.135986,-27.327999,-245.951996
1007.231995,-19.520000,-251.807999
1011.135986,-19.520000,-247.904007
1013.088013,-11.712000,-245.951996
1024.800049,-17.568001,-247.904007
1015.039978,-23.424000,-240.095993
1024.800049,-5.856000,-240.095993
1022.848022,-11.712000,-232.287994
1016.992004,-13.664000,-238.143997
1022.848022,-11.712000,-242.048004
1028.703979,-19.520000,-236.192001
1028.703979,-11.712000,-234.240005
1034.560059,-15.616000,-238.143997
1032.608032,-9.760000,-238.143997
1032.608032,-13.664000,-238.143997
1026.751953,-1.952000,-228.384003
1028.703979,-7.808000,-226.432007
1036.511963,-11.712000,-232.287994
1028.703979,0.000000,-240.095993
1034.560059,-9.760000,-226.432007
1036.511963,-1.952000,-230.335999
1028.703979,-11.712000,-228.384003
1032.608032,-3.904000,-228.384003
1036.511963,0.000000,-228.384003
1036.511963,1.952000,-232.287994
1034.560059,3.904000,-220.576004
1034.560059,0.000000,-232.287994
1034.560059,-9.760000,-226.432007
1034.560059,-5.856000,-224.479996
1040.416016,-3.904000,-218.623993
1030.656006,-1.952000,-226.432007
1030.656006,3.904000,-224.479996
1034.560059,-1.952000,-222.528000
1024.800049,0.000000,-228.384003
1032.608032,-1.952000,-228.384003
1036.511963,-1.952000,-228.384003
1030.656006,-1.952000,-228.384003
1030.656006,-5.856000,-228.384003
1022.848022,-3.904000,-226.432007
1042.368042,-11.712000,-226.432007
1030.656006,-9.760000,-224.479996
1028.703979,-11.712000,-226.432007
1022.848022,-3.904000,-222.528000
1026.751953,-5.856000,-222.528000
1030.656006,-19.520000,-224.479996
1030.656006,-9.760000,-220.576004
1018.943970,-15.616000,-224.479996
1015.039978,-7.808000,-212.768005
1011.135986,-11.712000,-220.576004
1016.992004,-17.568001,-212.768005
1022.848022,-9.760000,-216.671997
1011.135986,-19.520000,-222.528000
1018.943970,-11.712000,-216.671997
1020.895996,-15.616000,-214.720001
1026.751953,-5.856000,-216.671997
1013.088013,-7.808000,-224.479996
1009.184021,-13.664000,-220.576004
1009.184021,-17.568001,-228.384003
1005.280029,-21.472000,-226.432007
999.424011,-19.520000,-226.432007
1009.184021,-31.232000,-222.528000
1005.280029,-29.280001,-230.335999
1007.231995,-25.375999,-220.576004
999.424011,-23.424000,-214.720001
999.424011,-21.472000,-218.623993
999.424011,-13.664000,-220.576004
985.760010,-13.664000,-222.528000
991.616028,-23.424000,-230.335999
987.711975,-19.520000,-222.528000
993.567993,-27.327999,-226.432007
989.664001,-29.280001,-226.432007
991.616028,-31.232000,-216.671997
993.567993,-29.280001,-210.815994
993.567993,-23.424000,-212.768005
991.616028,-27.327999,-226.432007
985.760010,-13.664000,-220.576004
983.807983,-9.760000,-216.671997
999.424011,-21.472000,-212.768005
987.711975,-19.520000,-222.528000
987.711975,-23.424000,-220.576004
985.760010,-25.375999,-218.623993
987.711975,-19.520000,-212.768005
981.856018,-29.280001,-222.528000
985.760010,-25.375999,-216.671997
979.903992,-29.280001,-218.623993
987.711975,-17.568001,-220.576004
972.096008,-21.472000,-208.863998
976.000000,-19.520000,-216.671997
968.192017,-21.472000,-222.528000
970.143982,-15.616000,-226.432007
966.239990,-17.568001,-212.768005
977.952026,-23.424000,-220.576004
968.192017,-21.472000,-222.528000
964.288025,-17.568001,-222.528000
974.047974,-23.424000,-214.720001
968.192017,-27.327999,-220.576004
970.143982,-29.280001,-216.671997
970.143982,-29.280001,-220.576004
960.383972,-27.327999,-222.528000
964.288025,-21.472000,-212.768005
958.432007,-31.232000,-216.671997
956.479980,-27.327999,-224.479996
962.335999,-23.424000,-218.623993
960.383972,-27.327999,-216.671997
956.479980,-19.520000,-214.720001
962.335999,-25.375999,-214.720001
960.383972,-33.183998,-218.623993
966.239990,-31.232000,-208.863998
960.383972,-29.280001,-208.863998
964.288025,-31.232000,-212.768005
958.432007,-19.520000,-204.960007
962.335999,-25.375999,-210.815994
964.288025,-25.375999,-212.768005
960.383972,-11.712000,-201.056000
964.288025,-13.664000,-204.960007
962.335999,-13.664000,-201.056000
962.335999,-15.616000,-218.623993
966.239990,-7.808000,-204.960007
960.383972,-11.712000,-204.960007
956.479980,-5.856000,-197.151993
960.383972,-1.952000,-197.151993
956.479980,-5.856000,-201.056000
956.479980,-5.856000,-203.007996
948.671997,-7.808000,-201.056000
962.335999,-15.616000,-195.199997
952.575989,-19.520000,-201.056000
960.383972,-7.808000,-214.720001
956.479980,0.000000,-204.960007
940.864014,-3.904000,-212.768005
944.768005,-3.904000,-208.863998
944.768005,-7.808000,-204.960007
954.528015,-7.808000,-204.960007
954.528015,-15.616000,-203.007996
954.528015,-9.760000,-208.863998
950.624023,-15.616000,-197.151993
944.768005,-7.808000,-208.863998
944.768005,-5.856000,-210.815994
944.768005,-3.904000,-212.768005
950.624023,-11.712000,-220.576004
948.671997,-9.760000,-210.815994
944.768005,-5.856000,-218.623993
940.864014,-9.760000,-218.623993
948.671997,-3.904000,-220.576004
952.575989,0.000000,-214.720001
950.624023,9.760000,-214.720001
948.671997,1.952000,-212.768005
954.528015,11.712000,-220.576004
950.624023,7.808000,-206.912003
956.479980,-3.904000,-203.007996
948.671997,1.952000,-212.768005
958.432007,5.856000,-212.768005
960.383972,-3.904000,-220.576004
954.528015,7.808000,-212.768005
960.383972,17.568001,-204.960007
952.575989,3.904000,-214.720001
958.432007,15.616000,-204.960007
958.432007,11.712000,-204.960007
948.671997,3.904000,-212.768005
958.432007,11.712000,-210.815994
962.335999,5.856000,-214.720001
950.624023,9.760000,-206.912003
960.383972,17.568001,-201.056000
960.383972,7.808000,-201.056000
966.239990,15.616000,-191.296005
964.288025,13.664000,-201.056000
964.288025,23.424000,-195.199997
970.143982,19.520000,-201.056000
968.192017,25.375999,-203.007996
968.192017,33.183998,-201.056000
962.335999,25.375999,-206.912003
962.335999,19.520000,-203.007996
966.239990,37.088001,-201.056000
960.383972,27.327999,-197.151993
962.335999,27.327999,-201.056000
968.192017,31.232000,-204.960007
970.143982,25.375999,-197.151993
968.192017,37.088001,-208.863998
968.192017,25.375999,-206.912003
960.383972,19.520000,-201.056000
966.239990,29.280001,-204.960007
962.335999,25.375999,-208.863998
964.288025,19.520000,-212.768005
964.288025,31.232000,-208.863998
966.239990,29.280001,-214.720001
954.528015,27.327999,-214.720001
964.288025,23.424000,-214.720001
962.335999,23.424000,-204.960007
966.239990,23.424000,-197.151993
962.335999,27.327999,-204.960007
974.047974,33.183998,-201.056000
962.335999,27.327999,-203.007996
968.192017,23.424000,-206.912003
966.239990,23.424000,-203.007996
960.383972,19.520000,-193.248001
960.383972,17.568001,-206.912003
968.192017,15.616000,-193.248001
976.000000,25.375999,-193.248001
968.192017,17.568001,-185.440002
970.143982,21.472000,-195.199997
966.239990,21.472000,-189.343994
966.239990,21.472000,-191.296005
970.143982,19.520000,-191.296005
962.335999,15.616000,-189.343994
960.383972,17.568001,-193.248001
977.952026,19.520000,-187.391998
962.335999,13.664000,-189.343994
964.288025,15.616000,-187.391998
962.335999,15.616000,-181.535995
970.143982,17.568001,-187.391998
966.239990,13.664000,-187.391998
962.335999,13.664000,-191.296005
948.671997,17.568001,-185.440002
954.528015,11.712000,-191.296005
956.479980,3.904000,-187.391998
954.528015,7.808000,-197.151993
958.432007,7.808000,-199.104004
956.479980,5.856000,-187.391998
948.671997,3.904000,-187.391998
962.335999,9.760000,-187.391998
954.528015,11.712000,-191.296005
952.575989,0.000000,-189.343994
950.624023,0.000000,-195.199997
948.671997,0.000000,-189.343994
938.911987,-1.952000,-189.343994
944.768005,5.856000,-191.296005
942.815979,-5.856000,-199.104004
942.815979,-3.904000,-197.151993
938.911987,-3.904000,-193.248001
936.960022,3.904000,-187.391998
938.911987,1.952000,-185.440002
938.911987,-3.904000,-189.343994
933.056030,-7.808000,-189.343994
940.864014,-11.712000,-193.248001
933.056030,1.952000,-195.199997
938.911987,-11.712000,-191.296005
931.104004,-9.760000,-187.391998
933.056030,-9.760000,-189.343994
933.056030,-7.808000,-189.343994
938.911987,-5.856000,-187.391998
948.671997,-11.712000,-187.391998
946.719971,-11.712000,-181.535995
936.960022,-11.712000,-183.488007
938.911987,-11.712000,-173.727997
935.007996,-7.808000,-183.488007
936.960022,-13.664000,-179.584000
940.864014,-19.520000,-177.632004
938.911987,-19.520000,-181.535995
940.864014,-17.568001,-171.776001
950.624023,-13.664000,-175.679993
938.911987,-23.424000,-179.584000
940.864014,-21.472000,-179.584000
944.768005,-29.280001,-181.535995
938.911987,-31.232000,-179.584000
944.768005,-29.280001,-173.727997
936.960022,-27.327999,-175.679993
933.056030,-19.520000,-169.824005
935.007996,-31.232000,-171.776001
936.960022,-33.183998,-183.488007
942.815979,-33.183998,-177.632004
946.719971,-40.992001,-173.727997
946.719971,-40.992001,-179.584000
944.768005,-33.183998,-179.584000
942.815979,-35.136002,-177.632004
942.815979,-33.183998,-179.584000
931.104004,-39.040001,-187.391998
942.815979,-35.136002,-181.535995
936.960022,-37.088001,-177.632004
936.960022,-39.040001,-177.632004
935.007996,-46.848000,-185.440002
931.104004,-46.848000,-181.535995
938.911987,-44.896000,-181.535995
933.056030,-50.751999,-181.535995
929.151978,-46.848000,-187.391998
933.056030,-50.751999,-175.679993
946.719971,-46.848000,-183.488007
933.056030,-44.896000,-173.727997
933.056030,-42.944000,-175.679993
925.247986,-40.992001,-181.535995
938.911987,-40.992001,-177.632004
933.056030,-44.896000,-173.727997
929.151978,-54.655998,-175.679993
931.104004,-54.655998,-179.584000
929.151978,-50.751999,-167.871994
931.104004,-50.751999,-173.727997
919.392029,-58.560001,-169.824005
929.151978,-48.799999,-173.727997
921.343994,-50.751999,-173.727997
925.247986,-42.944000,-177.632004
921.343994,-50.751999,-171.776001
929.151978,-56.608002,-169.824005
929.151978,-54.655998,-169.824005
935.007996,-52.703999,-177.632004
931.104004,-50.751999,-173.727997
917.440002,-60.512001,-179.584000
927.200012,-56.608002,-179.584000
919.392029,-52.703999,-175.679993
915.487976,-58.560001,-173.727997
919.392029,-48.799999,-177.632004
921.343994,-52.703999,-171.776001
921.343994,-54.655998,-169.824005
919.392029,-58.560001,-171.776001
911.583984,-60.512001,-167.871994
913.536011,-54.655998,-165.919998
909.632019,-58.560001,-171.776001
919.392029,-60.512001,-169.824005
913.536011,-60.512001,-173.727997
905.728027,-56.608002,-171.776001
915.487976,-48.799999,-177.632004
915.487976,-54.655998,-183.488007
901.823975,-54.655998,-173.727997
903.776001,-62.464001,-171.776001
907.679993,-56.608002,-179.584000
909.632019,-68.320000,-181.535995
909.632019,-58.560001,-175.679993
913.536011,-54.655998,-183.488007
915.487976,-50.751999,-177.632004
911.583984,-54.655998,-189.343994
905.728027,-48.799999,-185.440002
905.728027,-52.703999,-187.391998
911.583984,-44.896000,-185.440002
909.632019,-48.799999,-185.440002
907.679993,-52.703999,-187.391998
909.632019,-40.992001,-185.440002
913.536011,-50.751999,-191.296005
913.536011,-48.799999,-177.632004
913.536011,-42.944000,-181.535995
915.487976,-44.896000,-181.535995
909.632019,-50.751999,-177.632004
907.679993,-52.703999,-183.488007
915.487976,-66.367996,-185.440002
927.200012,-44.896000,-177.632004
919.392029,-42.944000,-181.535995
915.487976,-48.799999,-165.919998
917.440002,-33.183998,-169.824005
929.151978,-35.136002,-163.968002
931.104004,-42.944000,-165.919998
931.104004,-42.944000,-171.776001
923.296021,-37.088001,-171.776001
925.247986,-39.040001,-171.776001
923.296021,-27.327999,-171.776001
923.296021,-27.327999,-165.919998
921.343994,-21.472000,-171.776001
935.007996,-31.232000,-165.919998
927.200012,-21.472000,-165.919998
935.007996,-31.232000,-171.776001
929.151978,-23.424000,-169.824005
935.007996,-25.375999,-175.679993
929.151978,-31.232000,-169.824005
935.007996,-37.088001,-175.679993
933.056030,-23.424000,-179.584000
927.200012,-23.424000,-181.535995
923.296021,-21.472000,-181.535995
921.343994,-31.232000,-187.391998
929.151978,-25.375999,-179.584000
933.056030,-19.520000,-181.535995
938.911987,-29.280001,-181.535995
931.104004,-31.232000,-177.632004
927.200012,-21.472000,-177.632004
925.247986,-23.424000,-177.632004
931.104004,-19.520000,-181.535995
925.247986,-21.472000,-187.391998
925.247986,-13.664000,-185.440002
933.056030,-13.664000,-179.584000
935.007996,-5.856000,-179.584000
935.007996,-11.712000,-177.632004
