ACC_X,ACC_Y,ACC_Z
630.495972,439.200012,653.919983
624.640015,439.200012,648.064026
634.400024,435.295990,661.728027
628.544006,437.247986,655.872009
634.400024,433.343994,661.728027
630.495972,429.440002,659.776001
630.495972,433.343994,669.536011
620.736023,433.343994,659.776001
628.544006,433.343994,665.632019
634.400024,447.007996,665.632019
630.495972,441.152008,661.728027
628.544006,447.007996,663.679993
630.495972,439.200012,663.679993
628.544006,437.247986,657.823975
634.400024,437.247986,661.728027
628.544006,433.343994,655.872009
628.544006,435.295990,661.728027
630.495972,437.247986,659.776001
628.544006,439.200012,659.776001
636.351990,437.247986,659.776001
634.400024,433.343994,657.823975
628.544006,429.440002,653.919983
624.640015,431.391998,659.776001
624.640015,439.200012,648.064026
628.544006,435.295990,651.968018
626.591980,431.391998,659.776001
626.591980,439.200012,648.064026
620.736023,435.295990,655.872009
620.736023,433.343994,657.823975
630.495972,431.391998,657.823975
620.736023,441.152008,648.064026
620.736023,433.343994,646.112000
626.591980,439.200012,648.064026
628.544006,443.104004,644.159973
626.591980,435.295990,648.064026
622.687988,437.247986,640.255981
624.640015,439.200012,648.064026
630.495972,441.152008,651.968018
630.495972,445.056000,648.064026
622.687988,437.247986,646.112000
620.736023,447.007996,661.728027
616.831970,435.295990,651.968018
616.831970,443.104004,644.159973
616.831970,447.007996,651.968018
614.880005,447.007996,644.159973
618.783997,450.911987,650.015991
624.640015,441.152008,651.968018
620.736023,445.056000,650.015991
618.783997,441.152008,653.919983
630.495972,441.152008,653.919983
626.591980,439.200012,651.968018
622.687988,441.152008,661.728027
634.400024,443.104004,661.728027
630.495972,448.959991,657.823975
636.351990,445.056000,659.776001
630.495972,443.104004,657.823975
630.495972,447.007996,655.872009
630.495972,441.152008,661.728027
632.447998,443.104004,657.823975
632.447998,445.056000,657.823975
626.591980,441.152008,665.632019
638.304016,447.007996,659.776001
634.400024,447.007996,665.632019
640.255981,450.911987,665.632019
642.208008,439.200012,663.679993
638.304016,441.152008,665.632019
634.400024,445.056000,665.632019
636.351990,439.200012,661.728027
640.255981,441.152008,665.632019
642.208008,441.152008,663.679993
638.304016,447.007996,665.632019
634.400024,447.007996,669.536011
636.351990,439.200012,663.679993
638.304016,439.200012,669.536011
640.255981,437.247986,661.728027
640.255981,445.056000,667.583984
634.400024,441.152008,663.679993
630.495972,447.007996,661.728027
636.351990,452.864014,655.872009
630.495972,447.007996,657.823975
636.351990,437.247986,661.728027
638.304016,441.152008,665.632019
636.351990,437.247986,655.872009
636.351990,447.007996,665.632019
636.351990,443.104004,655.872009
632.447998,439.200012,663.679993
630.495972,439.200012,663.679993
628.544006,443.104004,663.679993
634.400024,447.007996,659.776001
634.400024,437.247986,661.728027
632.447998,443.104004,648.064026
630.495972,443.104004,653.919983
638.304016,443.104004,663.679993
630.495972,439.200012,655.872009
630.495972,433.343994,665.632019
632.447998,435.295990,663.679993
630.495972,431.391998,667.583984
630.495972,425.536011,665.632019
628.544006,429.440002,669.536011
630.495972,433.343994,669.536011
624.640015,427.488007,663.679993
630.495972,433.343994,671.487976
620.736023,433.343994,665.632019
624.640015,427.488007,669.536011
620.736023,435.295990,659.776001
616.831970,425.536011,669.536011
609.023987,427.488007,657.823975
612.927979,415.776001,653.919983
614.880005,419.679993,657.823975
618.783997,421.631989,651.968018
618.783997,421.631989,650.015991
610.976013,417.727997,648.064026
603.168030,423.584015,655.872009
603.168030,427.488007,640.255981
601.216003,419.679993,634.400024
591.455994,406.015991,634.400024
605.119995,423.584015,632.447998
628.544006,427.488007,624.640015
630.495972,396.256012,612.927979
620.736023,437.247986,624.640015
609.023987,474.335999,642.208008
601.216003,472.384003,632.447998
595.359985,478.239990,638.304016
607.072021,468.480011,640.255981
612.927979,511.424011,648.064026
609.023987,468.480011,640.255981
618.783997,427.488007,642.208008
638.304016,474.335999,632.447998
644.159973,478.239990,626.591980
642.208008,439.200012,630.495972
636.351990,454.816010,632.447998
636.351990,484.096008,632.447998
628.544006,468.480011,642.208008
616.831970,447.007996,653.919983
638.304016,464.575989,663.679993
634.400024,474.335999,667.583984
634.400024,448.959991,681.247986
642.208008,425.536011,683.200012
650.015991,439.200012,671.487976
653.919983,458.720001,681.247986
644.159973,448.959991,669.536011
655.872009,427.488007,663.679993
655.872009,452.864014,673.440002
644.159973,466.528015,669.536011
636.351990,452.864014,665.632019
626.591980,460.671997,659.776001
616.831970,470.432007,653.919983
628.544006,462.623993,648.064026
626.591980,456.768005,648.064026
628.544006,452.864014,638.304016
624.640015,460.671997,632.447998
624.640015,448.959991,634.400024
636.351990,435.295990,632.447998
634.400024,443.104004,630.495972
630.495972,456.768005,634.400024
636.351990,445.056000,638.304016
630.495972,435.295990,646.112000
628.544006,445.056000,646.112000
628.544006,437.247986,655.872009
636.351990,437.247986,659.776001
638.304016,443.104004,655.872009
642.208008,443.104004,659.776001
640.255981,456.768005,653.919983
646.112000,462.623993,651.968018
638.304016,448.959991,657.823975
640.255981,464.575989,650.015991
644.159973,466.528015,646.112000
642.208008,462.623993,642.208008
648.064026,460.671997,648.064026
638.304016,466.528015,644.159973
640.255981,454.816010,648.064026
650.015991,448.959991,650.015991
646.112000,458.720001,659.776001
646.112000,450.911987,659.776001
648.064026,452.864014,665.632019
655.872009,441.152008,661.728027
659.776001,454.816010,663.679993
648.064026,454.816010,667.583984
650.015991,456.768005,671.487976
648.064026,454.816010,667.583984
651.968018,456.768005,663.679993
650.015991,454.816010,655.872009
651.968018,464.575989,648.064026
648.064026,466.528015,657.823975
648.064026,460.671997,646.112000
651.968018,470.432007,648.064026
648.064026,464.575989,653.919983
648.064026,464.575989,659.776001
651.968018,458.720001,657.823975
661.728027,456.768005,665.632019
659.776001,454.816010,667.583984
667.583984,458.720001,669.536011
657.823975,452.864014,677.343994
657.823975,441.152008,677.343994
661.728027,452.864014,675.392029
665.632019,448.959991,679.296021
655.872009,448.959991,677.343994
655.872009,452.864014,677.343994
653.919983,454.816010,671.487976
657.823975,445.056000,661.728027
653.919983,447.007996,661.728027
650.015991,450.911987,655.872009
653.919983,456.768005,665.632019
648.064026,452.864014,659.776001
648.064026,443.104004,663.679993
657.823975,437.247986,665.632019
657.823975,437.247986,663.679993
653.919983,431.391998,667.583984
651.968018,435.295990,667.583984
653.919983,423.584015,663.679993
650.015991,421.631989,683.200012
644.159973,417.727997,681.247986
646.112000,427.488007,679.296021
634.400024,429.440002,667.583984
632.447998,433.343994,667.583984
620.736023,429.440002,651.968018
612.927979,443.104004,651.968018
614.880005,433.343994,640.255981
630.495972,431.391998,636.351990
634.400024,435.295990,632.447998
644.159973,445.056000,616.831970
634.400024,450.911987,628.544006
632.447998,468.480011,630.495972
628.544006,486.048004,638.304016
628.544006,454.816010,650.015991
612.927979,460.671997,653.919983
612.927979,491.903992,651.968018
614.880005,482.144012,659.776001
626.591980,458.720001,659.776001
628.544006,472.384003,659.776001
648.064026,478.239990,642.208008
644.159973,458.720001,638.304016
653.919983,468.480011,634.400024
640.255981,476.287994,632.447998
634.400024,482.144012,628.544006
634.400024,484.096008,634.400024
636.351990,482.144012,636.351990
638.304016,482.144012,642.208008
638.304016,482.144012,646.112000
642.208008,470.432007,644.159973
636.351990,447.007996,648.064026
650.015991,462.623993,665.632019
651.968018,466.528015,667.583984
657.823975,441.152008,671.487976
657.823975,441.152008,679.296021
651.968018,460.671997,679.296021
651.968018,470.432007,689.056030
642.208008,450.911987,687.104004
642.208008,450.911987,689.056030
638.304016,462.623993,681.247986
642.208008,450.911987,675.392029
636.351990,460.671997,661.728027
642.208008,476.287994,659.776001
624.640015,478.239990,653.919983
634.400024,474.335999,650.015991
634.400024,472.384003,638.304016
634.400024,470.432007,642.208008
636.351990,470.432007,642.208008
624.640015,466.528015,638.304016
626.591980,454.816010,650.015991
632.447998,460.671997,669.536011
642.208008,458.720001,667.583984
632.447998,450.911987,663.679993
632.447998,433.343994,669.536011
620.736023,445.056000,673.440002
630.495972,447.007996,677.343994
626.591980,443.104004,667.583984
624.640015,445.056000,665.632019
616.831970,447.007996,663.679993
634.400024,452.864014,657.823975
626.591980,458.720001,657.823975
628.544006,468.480011,657.823975
622.687988,478.239990,661.728027
616.831970,470.432007,648.064026
624.640015,458.720001,648.064026
622.687988,460.671997,646.112000
622.687988,458.720001,653.919983
630.495972,450.911987,657.823975
630.495972,448.959991,659.776001
630.495972,439.200012,663.679993
624.640015,439.200012,673.440002
622.687988,443.104004,667.583984
616.831970,435.295990,659.776001
612.927979,437.247986,665.632019
626.591980,443.104004,669.536011
626.591980,445.056000,663.679993
612.927979,443.104004,651.968018
616.831970,439.200012,648.064026
618.783997,445.056000,648.064026
614.880005,460.671997,648.064026
612.927979,456.768005,646.112000
612.927979,456.768005,646.112000
609.023987,454.816010,650.015991
618.783997,445.056000,650.015991
609.023987,443.104004,661.728027
609.023987,447.007996,665.632019
612.927979,439.200012,661.728027
616.831970,433.343994,665.632019
616.831970,439.200012,683.200012
612.927979,431.391998,679.296021
616.831970,433.343994,677.343994
612.927979,437.247986,677.343994
605.119995,441.152008,669.536011
607.072021,441.152008,665.632019
612.927979,447.007996,655.872009
610.976013,443.104004,648.064026
607.072021,437.247986,653.919983
610.976013,447.007996,650.015991
607.072021,450.911987,646.112000
605.119995,452.864014,640.255981
609.023987,445.056000,648.064026
605.119995,445.056000,646.112000
618.783997,441.152008,644.159973
612.927979,437.247986,659.776001
607.072021,435.295990,655.872009
618.783997,433.343994,669.536011
605.119995,433.343994,661.728027
601.216003,421.631989,669.536011
610.976013,421.631989,663.679993
612.927979,421.631989,659.776001
610.976013,409.920013,663.679993
601.216003,429.440002,663.679993
612.927979,421.631989,663.679993
610.976013,421.631989,655.872009
607.072021,419.679993,648.064026
605.119995,425.536011,655.872009
591.455994,431.391998,657.823975
597.312012,425.536011,651.968018
605.119995,417.727997,657.823975
599.263977,415.776001,657.823975
599.263977,415.776001,651.968018
601.216003,413.824005,659.776001
605.119995,423.584015,661.728027
605.119995,407.967987,661.728027
601.216003,415.776001,657.823975
610.976013,421.631989,655.872009
595.359985,415.776001,665.632019
591.455994,417.727997,655.872009
591.455994,415.776001,653.919983
599.263977,409.920013,644.159973
595.359985,423.584015,636.351990
591.455994,429.440002,634.400024
595.359985,413.824005,630.495972
585.599976,431.391998,644.159973
595.359985,423.584015,642.208008
599.263977,413.824005,648.064026
601.216003,411.872009,646.112000
597.312012,419.679993,646.112000
610.976013,407.967987,644.159973
601.216003,404.063995,661.728027
607.072021,394.303986,655.872009
603.168030,394.303986,661.728027
605.119995,398.208008,663.679993
607.072021,392.351990,659.776001
616.831970,384.544006,661.728027
609.023987,390.399994,665.632019
618.783997,390.399994,661.728027
618.783997,400.160004,665.632019
609.023987,396.256012,659.776001
614.880005,407.967987,657.823975
610.976013,419.679993,650.015991
609.023987,415.776001,638.304016
610.976013,417.727997,646.112000
612.927979,419.679993,642.208008
609.023987,404.063995,653.919983
609.023987,406.015991,655.872009
616.831970,427.488007,659.776001
622.687988,398.208008,659.776001
622.687988,386.496002,659.776001
620.736023,386.496002,663.679993
616.831970,388.447998,675.392029
618.783997,386.496002,667.583984
624.640015,382.592010,671.487976
614.880005,392.351990,667.583984
609.023987,394.303986,675.392029
610.976013,402.112000,665.632019
603.168030,404.063995,650.015991
609.023987,423.584015,642.208008
618.783997,429.440002,638.304016
612.927979,431.391998,634.400024
614.880005,429.440002,616.831970
614.880005,431.391998,628.544006
618.783997,439.200012,630.495972
622.687988,409.920013,632.447998
622.687988,419.679993,653.919983
630.495972,402.112000,663.679993
642.208008,400.160004,663.679993
632.447998,388.447998,679.296021
632.447998,396.256012,675.392029
630.495972,388.447998,685.151978
632.447998,382.592010,679.296021
622.687988,386.496002,685.151978
628.544006,394.303986,681.247986
630.495972,394.303986,673.440002
620.736023,380.640015,675.392029
634.400024,384.544006,663.679993
628.544006,382.592010,657.823975
630.495972,384.544006,648.064026
628.544006,388.447998,646.112000
620.736023,392.351990,632.447998
626.591980,404.063995,628.544006
622.687988,406.015991,636.351990
618.783997,406.015991,638.304016
620.736023,404.063995,640.255981
622.687988,409.920013,644.159973
622.687988,413.824005,650.015991
626.591980,396.256012,648.064026
634.400024,398.208008,655.872009
638.304016,394.303986,655.872009
634.400024,392.351990,663.679993
638.304016,390.399994,665.632019
632.447998,390.399994,657.823975
638.304016,392.351990,653.919983
632.447998,398.208008,653.919983
634.400024,394.303986,651.968018
634.400024,406.015991,653.919983
626.591980,407.967987,646.112000
632.447998,411.872009,653.919983
628.544006,404.063995,655.872009
632.447998,411.872009,650.015991
626.591980,406.015991,650.015991
626.591980,407.967987,648.064026
634.400024,402.112000,653.919983
634.400024,409.920013,665.632019
632.447998,407.967987,673.440002
638.304016,400.160004,669.536011
626.591980,411.872009,669.536011
630.495972,407.967987,663.679993
634.400024,409.920013,665.632019
636.351990,407.967987,663.679993
634.400024,409.920013,671.487976
630.495972,398.208008,669.536011
634.400024,409.920013,665.632019
628.544006,407.967987,657.823975
620.736023,413.824005,651.968018
620.736023,407.967987,651.968018
622.687988,409.920013,657.823975
624.640015,409.920013,650.015991
618.783997,415.776001,651.968018
616.831970,407.967987,653.919983
616.831970,411.872009,663.679993
620.736023,398.208008,655.872009
628.544006,407.967987,659.776001
624.640015,409.920013,663.679993
626.591980,407.967987,659.776001
632.447998,413.824005,657.823975
628.544006,409.920013,669.536011
634.400024,415.776001,665.632019
630.495972,417.727997,657.823975
618.783997,415.776001,661.728027
630.495972,425.536011,671.487976
624.640015,413.824005,655.872009
624.640015,415.776001,655.872009
620.736023,417.727997,653.919983
624.640015,421.631989,644.159973
622.687988,419.679993,657.823975
622.687988,415.776001,650.015991
626.591980,407.967987,657.823975
620.736023,407.967987,648.064026
626.591980,409.920013,648.064026
630.495972,409.920013,651.968018
630.495972,411.872009,657.823975
634.400024,415.776001,657.823975
628.544006,415.776001,665.632019
632.447998,413.824005,651.968018
638.304016,411.872009,653.919983
636.351990,417.727997,659.776001
636.351990,413.824005,651.968018
632.447998,413.824005,648.064026
630.495972,427.488007,663.679993
630.495972,413.824005,648.064026
630.495972,421.631989,650.015991
638.304016,431.391998,651.968018
640.255981,443.104004,655.872009
646.112000,437.247986,661.728027
636.351990,435.295990,653.919983
636.351990,427.488007,650.015991
638.304016,425.536011,650.015991
646.112000,425.536011,655.872009
644.159973,421.631989,657.823975
636.351990,431.391998,653.919983
648.064026,417.727997,663.679993
648.064026,423.584015,663.679993
646.112000,423.584015,663.679993
644.159973,425.536011,657.823975
640.255981,421.631989,657.823975
640.255981,423.584015,655.872009
638.304016,433.343994,651.968018
632.447998,421.631989,663.679993
646.112000,425.536011,648.064026
646.112000,433.343994,648.064026
646.112000,435.295990,650.015991
648.064026,439.200012,657.823975
640.255981,429.440002,653.919983
644.159973,419.679993,653.919983
648.064026,429.440002,657.823975
646.112000,431.391998,653.919983
653.919983,427.488007,657.823975
651.968018,427.488007,653.919983
650.015991,419.679993,648.064026
646.112000,427.488007,657.823975
644.159973,421.631989,655.872009
642.208008,419.679993,648.064026
650.015991,423.584015,653.919983
632.447998,423.584015,648.064026
634.400024,419.679993,642.208008
628.544006,431.391998,650.015991
636.351990,423.584015,646.112000
628.544006,423.584015,650.015991
636.351990,427.488007,644.159973
624.640015,423.584015,648.064026
628.544006,427.488007,648.064026
628.544006,427.488007,638.304016
634.400024,429.440002,642.208008
630.495972,427.488007,642.208008
628.544006,427.488007,636.351990
632.447998,425.536011,648.064026
624.640015,421.631989,644.159973
630.495972,431.391998,646.112000
626.591980,429.440002,648.064026
636.351990,437.247986,653.919983
624.640015,435.295990,634.400024
616.831970,431.391998,648.064026
626.591980,429.440002,648.064026
620.736023,417.727997,653.919983
618.783997,429.440002,648.064026
612.927979,427.488007,653.919983
620.736023,427.488007,650.015991
620.736023,429.440002,648.064026
618.783997,421.631989,650.015991
618.783997,425.536011,640.255981
612.927979,435.295990,661.728027
616.831970,429.440002,657.823975
612.927979,431.391998,659.776001
620.736023,433.343994,657.823975
616.831970,431.391998,657.823975
620.736023,419.679993,653.919983
620.736023,415.776001,655.872009
620.736023,423.584015,663.679993
622.687988,431.391998,665.632019
622.687988,417.727997,661.728027
630.495972,425.536011,659.776001
628.544006,431.391998,655.872009
624.640015,425.536011,665.632019
626.591980,427.488007,659.776001
630.495972,425.536011,665.632019
630.495972,427.488007,663.679993
634.400024,427.488007,665.632019
634.400024,423.584015,661.728027
632.447998,429.440002,663.679993
638.304016,433.343994,671.487976
630.495972,417.727997,677.343994
638.304016,427.488007,667.583984
630.495972,423.584015,677.343994
632.447998,431.391998,663.679993
630.495972,423.584015,671.487976
646.112000,427.488007,665.632019
642.208008,427.488007,673.440002
636.351990,427.488007,663.679993
636.351990,429.440002,663.679993
653.919983,431.391998,665.632019
642.208008,435.295990,663.679993
650.015991,425.536011,659.776001
640.255981,431.391998,661.728027
644.159973,427.488007,663.679993
646.112000,421.631989,671.487976
650.015991,431.391998,665.632019
650.015991,425.536011,665.632019
642.208008,431.391998,663.679993
640.255981,431.391998,653.919983
642.208008,433.343994,659.776001
646.112000,437.247986,661.728027
644.159973,435.295990,665.632019
638.304016,435.295990,655.872009
640.255981,427.488007,653.919983
640.255981,435.295990,657.823975
640.255981,429.440002,657.823975
642.208008,423.584015,648.064026
644.159973,413.824005,657.823975
640.255981,419.679993,646.112000
646.112000,425.536011,651.968018
644.159973,419.679993,657.823975
644.159973,421.631989,655.872009
634.400024,429.440002,651.968018
634.400024,431.391998,653.919983
638.304016,429.440002,651.968018
644.159973,421.631989,653.919983
632.447998,423.584015,653.919983
630.495972,423.584015,653.919983
628.544006,435.295990,653.919983
626.591980,427.488007,657.823975
630.495972,427.488007,648.064026
634.400024,425.536011,650.015991
624.640015,413.824005,657.823975
634.400024,427.488007,661.728027
630.495972,431.391998,653.919983
630.495972,425.536011,665.632019
630.495972,423.584015,661.728027
632.447998,433.343994,655.872009
638.304016,435.295990,661.728027
640.255981,429.440002,651.968018
630.495972,423.584015,648.064026
638.304016,421.631989,665.632019
626.591980,425.536011,650.015991
626.591980,433.343994,659.776001
620.736023,427.488007,648.064026
630.495972,429.440002,642.208008
624.640015,437.247986,640.255981
628.544006,433.343994,648.064026
628.544006,429.440002,648.064026
628.544006,431.391998,644.159973
630.495972,439.200012,644.159973
616.831970,433.343994,648.064026
624.640015,439.200012,648.064026
626.591980,439.200012,646.112000
624.640015,441.152008,650.015991
634.400024,431.391998,650.015991
634.400024,435.295990,650.015991
622.687988,437.247986,640.255981
616.831970,427.488007,648.064026
626.591980,437.247986,650.015991
628.544006,441.152008,632.447998
624.640015,437.247986,634.400024
620.736023,445.056000,632.447998
628.544006,445.056000,634.400024
620.736023,443.104004,638.304016
626.591980,445.056000,636.351990
620.736023,450.911987,632.447998
626.591980,445.056000,636.351990
630.495972,439.200012,632.447998
634.400024,452.864014,638.304016
626.591980,443.104004,632.447998
634.400024,437.247986,644.159973
636.351990,439.200012,636.351990
628.544006,445.056000,640.255981
632.447998,447.007996,648.064026
632.447998,443.104004,648.064026
628.544006,443.104004,644.159973
636.351990,450.911987,638.304016
632.447998,443.104004,646.112000
628.544006,450.911987,640.255981
634.400024,447.007996,638.304016
640.255981,448.959991,640.255981
636.351990,450.911987,640.255981
632.447998,452.864014,640.255981
620.736023,454.816010,636.351990
630.495972,443.104004,636.351990
636.351990,441.152008,640.255981
628.544006,445.056000,646.112000
638.304016,450.911987,640.255981
636.351990,448.959991,646.112000
642.208008,443.104004,644.159973
632.447998,452.864014,640.255981
636.351990,439.200012,644.159973
638.304016,447.007996,646.112000
640.255981,445.056000,653.919983
634.400024,450.911987,646.112000
644.159973,443.104004,640.255981
638.304016,445.056000,640.255981
636.351990,454.816010,640.255981
634.400024,450.911987,642.208008
642.208008,450.911987,646.112000
632.447998,445.056000,640.255981
634.400024,452.864014,646.112000
630.495972,450.911987,650.015991
630.495972,447.007996,644.159973
630.495972,441.152008,650.015991
636.351990,450.911987,640.255981
628.544006,441.152008,653.919983
634.400024,448.959991,648.064026
624.640015,447.007996,650.015991
636.351990,447.007996,648.064026
632.447998,445.056000,653.919983
630.495972,450.911987,655.872009
636.351990,443.104004,651.968018
640.255981,441.152008,657.823975
630.495972,437.247986,659.776001
632.447998,448.959991,653.919983
632.447998,443.104004,657.823975
622.687988,441.152008,661.728027
632.447998,452.864014,659.776001
634.400024,448.959991,665.632019
630.495972,445.056000,653.919983
628.544006,448.959991,665.632019
626.591980,462.623993,661.728027
628.544006,441.152008,665.632019
620.736023,445.056000,667.583984
634.400024,447.007996,663.679993
634.400024,445.056000,659.776001
634.400024,447.007996,665.632019
634.400024,448.959991,661.728027
624.640015,454.816010,665.632019
628.544006,447.007996,665.632019
626.591980,450.911987,663.679993
626.591980,448.959991,669.536011
630.495972,448.959991,657.823975
626.591980,441.152008,665.632019
624.640015,452.864014,651.968018
620.736023,447.007996,644.159973
624.640015,458.720001,642.208008
620.736023,456.768005,646.112000
614.880005,437.247986,642.208008
607.072021,450.911987,636.351990
607.072021,450.911987,646.112000
607.072021,448.959991,640.255981
607.072021,450.911987,638.304016
609.023987,450.911987,628.544006
603.168030,454.816010,626.591980
599.263977,439.200012,634.400024
593.408020,452.864014,630.495972
595.359985,456.768005,630.495972
585.599976,456.768005,638.304016
589.504028,460.671997,626.591980
595.359985,460.671997,624.640015
585.599976,454.816010,632.447998
587.552002,458.720001,630.495972
579.744019,460.671997,630.495972
587.552002,464.575989,628.544006
583.648010,462.623993,628.544006
587.552002,468.480011,634.400024
575.840027,462.623993,630.495972
573.888000,460.671997,630.495972
573.888000,460.671997,630.495972
568.031982,456.768005,638.304016
579.744019,456.768005,634.400024
568.031982,468.480011,642.208008
569.984009,458.720001,638.304016
568.031982,456.768005,640.255981
554.367981,454.816010,642.208008
554.367981,462.623993,648.064026
558.271973,458.720001,638.304016
554.367981,456.768005,632.447998
556.320007,456.768005,638.304016
564.127991,448.959991,632.447998
554.367981,454.816010,640.255981
564.127991,464.575989,648.064026
556.320007,456.768005,640.255981
554.367981,464.575989,646.112000
554.367981,456.768005,642.208008
546.559998,466.528015,650.015991
550.463989,452.864014,650.015991
556.320007,460.671997,646.112000
556.320007,458.720001,642.208008
556.320007,460.671997,638.304016
546.559998,456.768005,632.447998
556.320007,456.768005,628.544006
546.559998,445.056000,638.304016
540.703979,443.104004,644.159973
548.512024,454.816010,648.064026
544.607971,445.056000,648.064026
542.656006,441.152008,636.351990
540.703979,441.152008,646.112000
534.848022,447.007996,646.112000
534.848022,456.768005,644.159973
540.703979,450.911987,640.255981
540.703979,447.007996,634.400024
542.656006,445.056000,653.919983
538.752014,441.152008,646.112000
542.656006,447.007996,640.255981
540.703979,445.056000,624.640015
530.943970,452.864014,630.495972
530.943970,448.959991,630.495972
527.039978,443.104004,630.495972
536.799988,447.007996,624.640015
536.799988,447.007996,622.687988
523.135986,439.200012,616.831970
523.135986,443.104004,618.783997
532.895996,441.152008,616.831970
521.184021,433.343994,626.591980
528.992004,439.200012,620.736023
532.895996,427.488007,626.591980
530.943970,419.679993,620.736023
530.943970,411.872009,614.880005
530.943970,415.776001,610.976013
536.799988,409.920013,612.927979
527.039978,413.824005,618.783997
523.135986,406.015991,610.976013
528.992004,400.160004,614.880005
523.135986,402.112000,622.687988
519.231995,386.496002,618.783997
523.135986,396.256012,616.831970
528.992004,390.399994,612.927979
527.039978,394.303986,610.976013
525.088013,392.351990,610.976013
523.135986,390.399994,618.783997
528.992004,388.447998,612.927979
536.799988,374.783997,605.119995
530.943970,374.783997,603.168030
528.992004,382.592010,612.927979
525.088013,374.783997,609.023987
527.039978,380.640015,607.072021
532.895996,374.783997,607.072021
536.799988,370.880005,612.927979
536.799988,366.976013,612.927979
525.088013,374.783997,614.880005
532.895996,368.928009,612.927979
532.895996,363.071991,612.927979
530.943970,359.167999,620.736023
542.656006,368.928009,618.783997
552.416016,366.976013,614.880005
552.416016,374.783997,620.736023
558.271973,378.687988,624.640015
554.367981,384.544006,628.544006
554.367981,378.687988,626.591980
560.223999,392.351990,640.255981
554.367981,386.496002,636.351990
564.127991,388.447998,644.159973
558.271973,396.256012,646.112000
566.080017,390.399994,642.208008
579.744019,390.399994,644.159973
571.935974,400.160004,644.159973
573.888000,390.399994,640.255981
571.935974,404.063995,644.159973
575.840027,396.256012,640.255981
577.791992,394.303986,650.015991
577.791992,404.063995,644.159973
581.695984,400.160004,634.400024
575.840027,396.256012,634.400024
577.791992,396.256012,636.351990
587.552002,404.063995,638.304016
569.984009,396.256012,632.447998
577.791992,392.351990,630.495972
575.840027,386.496002,634.400024
579.744019,392.351990,622.687988
587.552002,398.208008,624.640015
589.504028,402.112000,626.591980
587.552002,386.496002,620.736023
587.552002,400.160004,620.736023
589.504028,400.160004,618.783997
585.599976,398.208008,616.831970
585.599976,404.063995,616.831970
595.359985,402.112000,620.736023
589.504028,407.967987,620.736023
593.408020,419.679993,616.831970
593.408020,407.967987,622.687988
597.312012,421.631989,634.400024
601.216003,415.776001,630.495972
612.927979,419.679993,624.640015
614.880005,423.584015,630.495972
612.927979,415.776001,630.495972
612.927979,411.872009,638.304016
610.976013,421.631989,634.400024
612.927979,417.727997,628.544006
618.783997,417.727997,636.351990
618.783997,419.679993,624.640015
624.640015,431.391998,634.400024
624.640015,421.631989,624.640015
634.400024,419.679993,632.447998
626.591980,421.631989,634.400024
628.544006,417.727997,636.351990
622.687988,417.727997,624.640015
630.495972,421.631989,618.783997
630.495972,423.584015,620.736023
638.304016,423.584015,626.591980
640.255981,431.391998,626.591980
638.304016,437.247986,630.495972
632.447998,431.391998,622.687988
638.304016,425.536011,622.687988
636.351990,433.343994,624.640015
646.112000,431.391998,620.736023
640.255981,431.391998,630.495972
646.112000,429.440002,614.880005
646.112000,445.056000,609.023987
646.112000,441.152008,616.831970
646.112000,433.343994,616.831970
646.112000,445.056000,607.072021
644.159973,441.152008,618.783997
644.159973,437.247986,614.880005
646.112000,450.911987,612.927979
646.112000,447.007996,605.119995
638.304016,437.247986,610.976013
638.304016,448.959991,605.119995
636.351990,435.295990,607.072021
634.400024,450.911987,607.072021
636.351990,441.152008,607.072021
650.015991,435.295990,603.168030
634.400024,445.056000,603.168030
636.351990,439.200012,603.168030
634.400024,437.247986,599.263977
632.447998,445.056000,595.359985
626.591980,447.007996,589.504028
646.112000,450.911987,597.312012
638.304016,437.247986,591.455994
634.400024,439.200012,597.312012
638.304016,437.247986,599.263977
628.544006,448.959991,601.216003
634.400024,448.959991,597.312012
632.447998,443.104004,585.599976
630.495972,443.104004,597.312012
630.495972,439.200012,591.455994
632.447998,445.056000,595.359985
632.447998,447.007996,589.504028
632.447998,448.959991,591.455994
636.351990,445.056000,585.599976
636.351990,443.104004,583.648010
636.351990,445.056000,583.648010
642.208008,441.152008,587.552002
630.495972,445.056000,597.312012
628.544006,437.247986,587.552002
628.544006,439.200012,591.455994
636.351990,443.104004,595.359985
632.447998,443.104004,583.648010
640.255981,441.152008,583.648010
634.400024,445.056000,581.695984
638.304016,447.007996,583.648010
646.112000,445.056000,581.695984
636.351990,437.247986,583.648010
636.351990,445.056000,583.648010
636.351990,441.152008,573.888000
638.304016,452.864014,571.935974
636.351990,445.056000,575.840027
651.968018,433.343994,575.840027
640.255981,441.152008,583.648010
636.351990,445.056000,577.791992
638.304016,437.247986,569.984009
640.255981,441.152008,569.984009
644.159973,447.007996,568.031982
640.255981,441.152008,566.080017
640.255981,447.007996,573.888000
646.112000,445.056000,573.888000
640.255981,445.056000,575.840027
636.351990,441.152008,571.935974
644.159973,437.247986,571.935974
655.872009,433.343994,569.984009
650.015991,437.247986,573.888000
655.872009,439.200012,573.888000
653.919983,435.295990,571.935974
653.919983,435.295990,571.935974
653.919983,443.104004,569.984009
651.968018,439.200012,564.127991
651.968018,423.584015,568.031982
651.968018,429.440002,562.176025
663.679993,443.104004,562.176025
665.632019,429.440002,571.935974
667.583984,433.343994,573.888000
663.679993,439.200012,581.695984
667.583984,433.343994,575.840027
669.536011,437.247986,566.080017
675.392029,437.247986,573.888000
673.440002,437.247986,573.888000
681.247986,435.295990,579.744019
677.343994,437.247986,581.695984
685.151978,435.295990,571.935974
675.392029,437.247986,573.888000
677.343994,439.200012,581.695984
683.200012,443.104004,575.840027
692.960022,437.247986,583.648010
685.151978,433.343994,577.791992
685.151978,437.247986,575.840027
692.960022,435.295990,579.744019
694.911987,427.488007,581.695984
694.911987,439.200012,581.695984
692.960022,429.440002,575.840027
687.104004,429.440002,577.791992
685.151978,429.440002,579.744019
696.864014,435.295990,581.695984
694.911987,421.631989,575.840027
700.768005,419.679993,583.648010
696.864014,421.631989,575.840027
694.911987,427.488007,575.840027
691.007996,421.631989,575.840027
694.911987,423.584015,577.791992
698.815979,431.391998,579.744019
694.911987,421.631989,571.935974
687.104004,435.295990,571.935974
689.056030,423.584015,569.984009
696.864014,419.679993,571.935974
700.768005,421.631989,566.080017
692.960022,421.631989,562.176025
689.056030,417.727997,569.984009
692.960022,415.776001,569.984009
694.911987,421.631989,577.791992
694.911987,423.584015,571.935974
696.864014,419.679993,575.840027
700.768005,409.920013,579.744019
696.864014,409.920013,575.840027
689.056030,417.727997,573.888000
696.864014,406.015991,568.031982
694.911987,407.967987,569.984009
692.960022,417.727997,575.840027
687.104004,402.112000,571.935974
689.056030,409.920013,566.080017
683.200012,411.872009,568.031982
679.296021,407.967987,566.080017
677.343994,406.015991,562.176025
683.200012,407.967987,562.176025
677.343994,407.967987,564.127991
677.343994,402.112000,568.031982
685.151978,400.160004,573.888000
689.056030,400.160004,562.176025
681.247986,390.399994,568.031982
683.200012,390.399994,562.176025
681.247986,390.399994,562.176025
685.151978,406.015991,566.080017
673.440002,386.496002,558.271973
681.247986,388.447998,556.320007
673.440002,382.592010,560.223999
677.343994,396.256012,558.271973
675.392029,390.399994,560.223999
673.440002,380.640015,558.271973
673.440002,380.640015,564.127991
677.343994,384.544006,568.031982
667.583984,386.496002,560.223999
667.583984,386.496002,554.367981
663.679993,386.496002,558.271973
665.632019,374.783997,558.271973
663.679993,374.783997,564.127991
659.776001,374.783997,568.031982
661.728027,374.783997,575.840027
663.679993,376.735992,569.984009
661.728027,368.928009,573.888000
657.823975,357.216003,581.695984
659.776001,361.119995,573.888000
661.728027,361.119995,583.648010
663.679993,355.264008,585.599976
665.632019,361.119995,583.648010
653.919983,359.167999,581.695984
644.159973,359.167999,591.455994
650.015991,353.312012,573.888000
648.064026,351.359985,581.695984
650.015991,347.455994,589.504028
648.064026,347.455994,583.648010
650.015991,347.455994,593.408020
650.015991,343.552002,603.168030
650.015991,337.696014,601.216003
640.255981,329.888000,607.072021
640.255981,331.839996,618.783997
640.255981,318.175995,630.495972
628.544006,320.127991,636.351990
632.447998,325.984009,642.208008
630.495972,322.079987,648.064026
624.640015,324.032013,655.872009
628.544006,325.984009,663.679993
628.544006,322.079987,667.583984
630.495972,324.032013,685.151978
618.783997,324.032013,692.960022
609.023987,322.079987,694.911987
603.168030,316.223999,696.864014
603.168030,320.127991,708.575989
591.455994,322.079987,718.335999
589.504028,333.791992,722.239990
581.695984,324.032013,720.288025
583.648010,325.984009,726.143982
577.791992,320.127991,733.952026
573.888000,329.888000,733.952026
579.744019,320.127991,739.807983
573.888000,318.175995,749.567993
566.080017,310.368011,749.567993
560.223999,308.415985,759.328003
562.176025,308.415985,763.231995
552.416016,314.272003,771.039978
550.463989,304.511993,771.039978
554.367981,314.272003,771.039978
546.559998,312.320007,774.943970
556.320007,312.320007,772.992004
542.656006,325.984009,772.992004
546.559998,329.888000,778.848022
556.320007,327.936005,780.799988
548.512024,324.032013,782.752014
538.752014,327.936005,782.752014
544.607971,333.791992,786.656006
542.656006,324.032013,782.752014
542.656006,337.696014,790.559998
538.752014,335.743988,788.607971
538.752014,333.791992,790.559998
536.799988,333.791992,786.656006
544.607971,333.791992,790.559998
538.752014,333.791992,788.607971
552.416016,331.839996,786.656006
548.512024,325.984009,776.895996
546.559998,335.743988,776.895996
546.559998,337.696014,778.848022
544.607971,324.032013,782.752014
558.271973,329.888000,780.799988
562.176025,335.743988,774.943970
566.080017,333.791992,772.992004
562.176025,331.839996,771.039978
569.984009,335.743988,767.135986
573.888000,325.984009,765.184021
575.840027,339.648010,767.135986
577.791992,345.503998,761.280029
595.359985,349.407990,757.375977
599.263977,345.503998,763.231995
605.119995,347.455994,759.328003
607.072021,361.119995,755.424011
612.927979,363.071991,753.471985
612.927979,366.976013,757.375977
634.400024,366.976013,757.375977
642.208008,370.880005,759.328003
642.208008,388.447998,759.328003
644.159973,378.687988,749.567993
659.776001,388.447998,759.328003
673.440002,384.544006,747.616028
669.536011,392.351990,747.616028
677.343994,388.447998,755.424011
679.296021,386.496002,755.424011
683.200012,386.496002,737.856018
691.007996,396.256012,733.952026
702.719971,400.160004,747.616028
700.768005,411.872009,737.856018
708.575989,409.920013,733.952026
712.479980,415.776001,743.711975
720.288025,423.584015,735.903992
728.096008,421.631989,733.952026
733.952026,427.488007,737.856018
739.807983,435.295990,741.760010
741.760010,445.056000,743.711975
751.520020,445.056000,743.711975
749.567993,447.007996,747.616028
763.231995,452.864014,739.807983
763.231995,450.911987,747.616028
757.375977,452.864014,741.760010
757.375977,454.816010,745.664001
771.039978,468.480011,737.856018
772.992004,460.671997,741.760010
790.559998,462.623993,739.807983
788.607971,464.575989,732.000000
784.703979,482.144012,728.096008
790.559998,482.144012,728.096008
802.271973,484.096008,728.096008
802.271973,480.191986,718.335999
810.080017,489.951996,724.192017
812.031982,486.048004,726.143982
812.031982,488.000000,730.047974
808.127991,488.000000,726.143982
813.984009,480.191986,724.192017
821.791992,489.951996,728.096008
827.648010,486.048004,726.143982
817.888000,489.951996,726.143982
819.840027,495.808014,726.143982
823.744019,491.903992,726.143982
829.599976,495.808014,724.192017
833.504028,503.615997,712.479980
839.359985,503.615997,714.432007
837.408020,515.328003,712.479980
837.408020,515.328003,714.432007
827.648010,505.567993,724.192017
825.695984,517.280029,710.528015
831.552002,513.375977,706.624023
823.744019,507.519989,708.575989
831.552002,503.615997,712.479980
835.455994,509.471985,694.911987
835.455994,511.424011,694.911987
827.648010,509.471985,691.007996
837.408020,511.424011,700.768005
833.504028,509.471985,702.719971
825.695984,515.328003,708.575989
833.504028,515.328003,689.056030
829.599976,517.280029,691.007996
829.599976,513.375977,692.960022
833.504028,503.615997,696.864014
829.599976,521.184021,694.911987
819.840027,509.471985,689.056030
810.080017,509.471985,683.200012
812.031982,511.424011,685.151978
819.840027,513.375977,677.343994
812.031982,515.328003,685.151978
808.127991,515.328003,685.151978
810.080017,515.328003,687.104004
810.080017,509.471985,679.296021
806.176025,513.375977,681.247986
806.176025,495.808014,679.296021
798.367981,505.567993,677.343994
810.080017,505.567993,681.247986
800.320007,505.567993,683.200012
802.271973,495.808014,677.343994
802.271973,509.471985,667.583984
796.416016,503.615997,671.487976
794.463989,499.712006,683.200012
790.559998,499.712006,675.392029
788.607971,501.664001,667.583984
778.848022,491.903992,667.583984
784.703979,486.048004,675.392029
776.895996,488.000000,669.536011
772.992004,497.760010,669.536011
765.184021,493.855988,667.583984
767.135986,488.000000,659.776001
767.135986,480.191986,661.728027
769.088013,476.287994,663.679993
763.231995,482.144012,663.679993
757.375977,486.048004,657.823975
753.471985,488.000000,661.728027
757.375977,482.144012,663.679993
747.616028,478.239990,661.728027
743.711975,482.144012,655.872009
745.664001,478.239990,650.015991
743.711975,482.144012,653.919983
739.807983,464.575989,651.968018
733.952026,464.575989,657.823975
728.096008,460.671997,653.919983
728.096008,456.768005,650.015991
728.096008,456.768005,650.015991
724.192017,448.959991,651.968018
726.143982,450.911987,646.112000
716.383972,445.056000,642.208008
722.239990,448.959991,632.447998
716.383972,445.056000,636.351990
710.528015,441.152008,648.064026
704.671997,439.200012,644.159973
702.719971,435.295990,648.064026
704.671997,429.440002,642.208008
698.815979,439.200012,644.159973
698.815979,425.536011,650.015991
694.911987,433.343994,642.208008
698.815979,431.391998,642.208008
694.911987,427.488007,644.159973
685.151978,425.536011,646.112000
683.200012,423.584015,642.208008
681.247986,425.536011,640.255981
673.440002,413.824005,653.919983
665.632019,415.776001,646.112000
663.679993,413.824005,646.112000
669.536011,406.015991,650.015991
659.776001,409.920013,638.304016
669.536011,402.112000,644.159973
665.632019,406.015991,650.015991
659.776001,404.063995,650.015991
665.632019,398.208008,642.208008
655.872009,404.063995,648.064026
659.776001,404.063995,646.112000
659.776001,398.208008,644.159973
655.872009,390.399994,644.159973
661.728027,396.256012,644.159973
648.064026,400.160004,646.112000
653.919983,396.256012,650.015991
642.208008,394.303986,644.159973
646.112000,390.399994,648.064026
640.255981,390.399994,648.064026
638.304016,386.496002,657.823975
628.544006,392.351990,653.919983
638.304016,382.592010,646.112000
632.447998,380.640015,653.919983
630.495972,382.592010,648.064026
630.495972,374.783997,657.823975
630.495972,374.783997,648.064026
626.591980,376.735992,657.823975
624.640015,384.544006,648.064026
616.831970,370.880005,657.823975
616.831970,376.735992,659.776001
614.880005,372.832001,657.823975
607.072021,370.880005,644.159973
607.072021,368.928009,644.159973
605.119995,384.544006,648.064026
605.119995,376.735992,642.208008
597.312012,378.687988,636.351990
603.168030,390.399994,632.447998
597.312012,388.447998,634.400024
589.504028,392.351990,632.447998
587.552002,400.160004,638.304016
587.552002,396.256012,628.544006
587.552002,390.399994,624.640015
583.648010,396.256012,620.736023
583.648010,396.256012,626.591980
575.840027,400.160004,636.351990
583.648010,384.544006,630.495972
583.648010,374.783997,630.495972
579.744019,372.832001,628.544006
587.552002,372.832001,626.591980
571.935974,374.783997,624.640015
575.840027,372.832001,626.591980
573.888000,363.071991,624.640015
573.888000,368.928009,624.640015
577.791992,370.880005,620.736023
575.840027,370.880005,622.687988
569.984009,363.071991,616.831970
575.840027,365.023987,614.880005
571.935974,372.832001,620.736023
577.791992,368.928009,614.880005
566.080017,353.312012,609.023987
566.080017,351.359985,614.880005
562.176025,351.359985,624.640015
558.271973,353.312012,610.976013
566.080017,345.503998,614.880005
575.840027,349.407990,620.736023
566.080017,343.552002,618.783997
566.080017,335.743988,618.783997
573.888000,329.888000,624.640015
571.935974,335.743988,626.591980
573.888000,331.839996,624.640015
575.840027,339.648010,622.687988
571.935974,341.600006,624.640015
560.223999,331.839996,634.400024
542.656006,331.839996,632.447998
591.455994,337.696014,642.208008
630.495972,324.032013,642.208008
657.823975,337.696014,632.447998
655.872009,339.648010,650.015991
634.400024,351.359985,681.247986
589.504028,345.503998,691.007996
607.072021,372.832001,708.575989
601.216003,398.208008,698.815979
622.687988,388.447998,685.151978
630.495972,368.928009,681.247986
644.159973,376.735992,677.343994
646.112000,400.160004,683.200012
655.872009,390.399994,661.728027
644.159973,355.264008,648.064026
651.968018,374.783997,644.159973
638.304016,378.687988,632.447998
628.544006,390.399994,648.064026
612.927979,363.071991,638.304016
610.976013,355.264008,646.112000
605.119995,370.880005,632.447998
614.880005,363.071991,644.159973
610.976013,341.600006,646.112000
610.976013,327.936005,648.064026
609.023987,339.648010,644.159973
609.023987,345.503998,640.255981
622.687988,333.791992,636.351990
609.023987,312.320007,642.208008
601.216003,337.696014,657.823975
609.023987,349.407990,659.776001
669.536011,316.223999,651.968018
638.304016,318.175995,646.112000
628.544006,380.640015,648.064026
612.927979,421.631989,653.919983
597.312012,404.063995,624.640015
593.408020,431.391998,626.591980
595.359985,462.623993,618.783997
607.072021,458.720001,624.640015
620.736023,417.727997,609.023987
636.351990,413.824005,622.687988
634.400024,425.536011,632.447998
669.536011,370.880005,632.447998
667.583984,386.496002,632.447998
651.968018,419.679993,638.304016
636.351990,419.679993,640.255981
624.640015,411.872009,651.968018
624.640015,417.727997,648.064026
628.544006,423.584015,663.679993
632.447998,406.015991,659.776001
624.640015,394.303986,677.343994
638.304016,388.447998,677.343994
634.400024,390.399994,677.343994
648.064026,392.351990,661.728027
657.823975,380.640015,667.583984
644.159973,370.880005,665.632019
640.255981,396.256012,659.776001
634.400024,411.872009,653.919983
634.400024,406.015991,650.015991
628.544006,413.824005,661.728027
618.783997,421.631989,651.968018
612.927979,429.440002,659.776001
614.880005,419.679993,665.632019
620.736023,417.727997,661.728027
622.687988,425.536011,659.776001
626.591980,427.488007,659.776001
626.591980,415.776001,665.632019
620.736023,406.015991,665.632019
626.591980,417.727997,659.776001
622.687988,407.967987,655.872009
618.783997,404.063995,659.776001
612.927979,411.872009,665.632019
614.880005,415.776001,667.583984
618.783997,407.967987,661.728027
618.783997,400.160004,669.536011
620.736023,400.160004,671.487976
632.447998,404.063995,663.679993
630.495972,406.015991,669.536011
626.591980,423.584015,669.536011
616.831970,415.776001,653.919983
624.640015,417.727997,650.015991
634.400024,425.536011,655.872009
636.351990,431.391998,655.872009
626.591980,431.391998,648.064026
620.736023,425.536011,636.351990
622.687988,437.247986,636.351990
624.640015,454.816010,626.591980
614.880005,447.007996,624.640015
614.880005,439.200012,616.831970
618.783997,458.720001,614.880005
618.783997,454.816010,614.880005
612.927979,435.295990,616.831970
607.072021,425.536011,624.640015
630.495972,421.631989,626.591980
642.208008,423.584015,622.687988
640.255981,415.776001,624.640015
628.544006,421.631989,632.447998
632.447998,411.872009,626.591980
636.351990,407.967987,624.640015
620.736023,443.104004,618.783997
616.831970,470.432007,622.687988
616.831970,441.152008,622.687988
610.976013,450.911987,620.736023
618.783997,484.096008,618.783997
612.927979,470.432007,612.927979
622.687988,431.391998,616.831970
597.312012,433.343994,618.783997
601.216003,456.768005,634.400024
630.495972,441.152008,624.640015
669.536011,406.015991,609.023987
651.968018,450.911987,591.455994
648.064026,511.424011,620.736023
624.640015,462.623993,614.880005
605.119995,447.007996,601.216003
593.408020,507.519989,610.976013
591.455994,495.808014,626.591980
536.799988,421.631989,642.208008
501.664001,419.679993,667.583984
648.064026,421.631989,648.064026
609.023987,368.928009,577.791992
515.328003,382.592010,624.640015
630.495972,536.799988,739.807983
843.263977,333.791992,650.015991
687.104004,240.095993,491.903992
638.304016,812.031982,585.599976
642.208008,724.192017,667.583984
579.744019,208.863998,583.648010
536.799988,491.903992,540.703979
562.176025,825.695984,616.831970
587.552002,411.872009,632.447998
622.687988,214.720001,607.072021
632.447998,562.176025,571.935974
640.255981,587.552002,571.935974
663.679993,329.888000,577.791992
681.247986,324.032013,597.312012
657.823975,501.664001,587.552002
624.640015,534.848022,566.080017
609.023987,447.007996,603.168030
591.455994,398.208008,618.783997
605.119995,447.007996,601.216003
638.304016,527.039978,593.408020
626.591980,468.480011,626.591980
626.591980,331.839996,636.351990
648.064026,357.216003,640.255981
657.823975,509.471985,632.447998
663.679993,462.623993,632.447998
659.776001,329.888000,634.400024
651.968018,398.208008,630.495972
626.591980,575.840027,616.831970
628.544006,513.375977,593.408020
636.351990,396.256012,609.023987
605.119995,489.951996,620.736023
607.072021,568.031982,607.072021
620.736023,476.287994,599.263977
620.736023,425.536011,607.072021
622.687988,495.808014,612.927979
616.831970,501.664001,605.119995
626.591980,439.200012,605.119995
638.304016,409.920013,595.359985
628.544006,450.911987,587.552002
634.400024,460.671997,601.216003
630.495972,419.679993,609.023987
624.640015,382.592010,609.023987
632.447998,448.959991,605.119995
636.351990,464.575989,626.591980
646.112000,386.496002,628.544006
648.064026,380.640015,616.831970
636.351990,470.432007,622.687988
634.400024,396.256012,610.976013
638.304016,437.247986,614.880005
632.447998,497.760010,599.263977
638.304016,478.239990,593.408020
632.447998,462.623993,595.359985
632.447998,472.384003,599.263977
644.159973,491.903992,599.263977
646.112000,476.287994,597.312012
644.159973,464.575989,612.927979
640.255981,456.768005,620.736023
644.159973,448.959991,630.495972
638.304016,452.864014,628.544006
653.919983,435.295990,632.447998
653.919983,413.824005,638.304016
650.015991,429.440002,650.015991
644.159973,437.247986,634.400024
644.159973,407.967987,624.640015
644.159973,423.584015,624.640015
638.304016,458.720001,628.544006
630.495972,439.200012,620.736023
640.255981,417.727997,614.880005
638.304016,454.816010,603.168030
632.447998,452.864014,599.263977
632.447998,433.343994,601.216003
634.400024,448.959991,603.168030
634.400024,472.384003,603.168030
636.351990,454.816010,591.455994
634.400024,450.911987,605.119995
632.447998,452.864014,612.927979
636.351990,447.007996,616.831970
646.112000,435.295990,626.591980
642.208008,443.104004,628.544006
640.255981,429.440002,642.208008
646.112000,415.776001,650.015991
636.351990,423.584015,653.919983
648.064026,431.391998,648.064026
624.640015,404.063995,653.919983
610.976013,400.160004,669.536011
591.455994,382.592010,661.728027
609.023987,390.399994,657.823975
704.671997,365.023987,628.544006
710.528015,376.735992,591.455994
696.864014,439.200012,632.447998
620.736023,392.351990,679.296021
530.943970,353.312012,673.440002
515.328003,417.727997,634.400024
448.959991,501.664001,605.119995
460.671997,464.575989,642.208008
527.039978,394.303986,642.208008
566.080017,419.679993,577.791992
626.591980,528.992004,528.992004
681.247986,474.335999,519.231995
683.200012,341.600006,511.424011
689.056030,413.824005,488.000000
671.487976,568.031982,480.191986
651.968018,552.416016,482.144012
616.831970,466.528015,486.048004
558.271973,443.104004,499.712006
548.512024,456.768005,571.935974
540.703979,443.104004,593.408020
544.607971,423.584015,577.791992
568.031982,402.112000,546.559998
581.695984,443.104004,536.799988
591.455994,468.480011,550.463989
605.119995,409.920013,556.320007
632.447998,368.928009,544.607971
632.447998,435.295990,527.039978
640.255981,448.959991,538.752014
630.495972,374.783997,564.127991
634.400024,363.071991,577.791992
634.400024,411.872009,593.408020
640.255981,402.112000,610.976013
636.351990,341.600006,628.544006
651.968018,333.791992,638.304016
663.679993,366.976013,651.968018
667.583984,368.928009,650.015991
681.247986,363.071991,665.632019
683.200012,357.216003,667.583984
689.056030,388.447998,667.583984
681.247986,413.824005,667.583984
667.583984,433.343994,675.392029
661.728027,429.440002,675.392029
657.823975,470.432007,655.872009
687.104004,491.903992,636.351990
661.728027,489.951996,632.447998
644.159973,509.471985,655.872009
632.447998,480.191986,661.728027
632.447998,448.959991,628.544006
628.544006,505.567993,620.736023
638.304016,509.471985,638.304016
657.823975,380.640015,646.112000
673.440002,378.687988,614.880005
710.528015,458.720001,607.072021
700.768005,409.920013,612.927979
704.671997,331.839996,640.255981
696.864014,365.023987,648.064026
655.872009,406.015991,636.351990
651.968018,409.920013,638.304016
644.159973,374.783997,638.304016
626.591980,394.303986,632.447998
616.831970,443.104004,620.736023
624.640015,435.295990,599.263977
628.544006,419.679993,571.935974
646.112000,433.343994,550.463989
661.728027,448.959991,556.320007
659.776001,460.671997,552.416016
665.632019,454.816010,550.463989
646.112000,447.007996,554.367981
626.591980,478.239990,571.935974
624.640015,474.335999,587.552002
612.927979,429.440002,601.216003
589.504028,431.391998,612.927979
618.783997,439.200012,618.783997
634.400024,407.967987,603.168030
657.823975,386.496002,581.695984
677.343994,425.536011,591.455994
689.056030,407.967987,589.504028
677.343994,407.967987,583.648010
653.919983,447.007996,589.504028
634.400024,445.056000,610.976013
610.976013,431.391998,610.976013
597.312012,452.864014,618.783997
597.312012,450.911987,609.023987
612.927979,435.295990,593.408020
638.304016,441.152008,579.744019
653.919983,443.104004,569.984009
665.632019,431.391998,562.176025
659.776001,443.104004,556.320007
657.823975,470.432007,569.984009
650.015991,441.152008,568.031982
642.208008,448.959991,587.552002
632.447998,460.671997,609.023987
624.640015,441.152008,614.880005
636.351990,417.727997,616.831970
646.112000,441.152008,626.591980
657.823975,427.488007,620.736023
661.728027,411.872009,616.831970
667.583984,406.015991,616.831970
671.487976,435.295990,614.880005
661.728027,429.440002,614.880005
657.823975,431.391998,605.119995
644.159973,437.247986,603.168030
632.447998,470.432007,599.263977
632.447998,474.335999,595.359985
622.687988,470.432007,601.216003
622.687988,468.480011,603.168030
632.447998,474.335999,595.359985
646.112000,464.575989,597.312012
651.968018,450.911987,599.263977
655.872009,450.911987,599.263977
659.776001,450.911987,595.359985
665.632019,450.911987,605.119995
669.536011,441.152008,601.216003
655.872009,447.007996,618.783997
655.872009,447.007996,630.495972
655.872009,439.200012,630.495972
661.728027,443.104004,634.400024
659.776001,447.007996,638.304016
677.343994,450.911987,628.544006
673.440002,441.152008,620.736023
671.487976,464.575989,618.783997
673.440002,468.480011,618.783997
665.632019,480.191986,603.168030
657.823975,474.335999,601.216003
653.919983,482.144012,595.359985
661.728027,474.335999,577.791992
657.823975,472.384003,583.648010
651.968018,486.048004,577.791992
673.440002,464.575989,577.791992
689.056030,456.768005,569.984009
691.007996,484.096008,569.984009
706.624023,482.144012,573.888000
702.719971,454.816010,581.695984
691.007996,468.480011,587.552002
687.104004,497.760010,607.072021
685.151978,474.335999,628.544006
679.296021,474.335999,650.015991
677.343994,474.335999,663.679993
683.200012,476.287994,653.919983
698.815979,462.623993,650.015991
700.768005,468.480011,650.015991
706.624023,460.671997,650.015991
708.575989,456.768005,644.159973
698.815979,486.048004,634.400024
704.671997,491.903992,634.400024
708.575989,470.432007,634.400024
706.624023,466.528015,638.304016
708.575989,486.048004,632.447998
716.383972,466.528015,630.495972
718.335999,452.864014,620.736023
710.528015,468.480011,628.544006
718.335999,470.432007,616.831970
728.096008,456.768005,612.927979
724.192017,460.671997,609.023987
726.143982,460.671997,610.976013
735.903992,458.720001,599.263977
741.760010,470.432007,597.312012
745.664001,486.048004,605.119995
732.000000,482.144012,614.880005
730.047974,468.480011,628.544006
714.432007,482.144012,650.015991
716.383972,476.287994,661.728027
708.575989,458.720001,659.776001
710.528015,454.816010,673.440002
724.192017,454.816010,665.632019
732.000000,445.056000,648.064026
749.567993,445.056000,640.255981
755.424011,437.247986,634.400024
755.424011,447.007996,622.687988
759.328003,462.623993,618.783997
747.616028,466.528015,614.880005
751.520020,456.768005,618.783997
737.856018,456.768005,636.351990
733.952026,462.623993,642.208008
728.096008,458.720001,644.159973
724.192017,458.720001,644.159973
730.047974,456.768005,644.159973
733.952026,448.959991,626.591980
737.856018,454.816010,628.544006
743.711975,466.528015,634.400024
741.760010,443.104004,632.447998
739.807983,456.768005,636.351990
735.903992,466.528015,642.208008
732.000000,454.816010,650.015991
728.096008,443.104004,646.112000
730.047974,431.391998,650.015991
732.000000,450.911987,648.064026
730.047974,437.247986,655.872009
730.047974,423.584015,640.255981
735.903992,429.440002,632.447998
745.664001,425.536011,632.447998
737.856018,427.488007,624.640015
737.856018,431.391998,632.447998
743.711975,433.343994,634.400024
737.856018,437.247986,634.400024
733.952026,437.247986,642.208008
730.047974,433.343994,640.255981
730.047974,435.295990,644.159973
730.047974,448.959991,648.064026
718.335999,447.007996,642.208008
722.239990,441.152008,636.351990
722.239990,454.816010,636.351990
722.239990,454.816010,630.495972
720.288025,448.959991,632.447998
720.288025,437.247986,632.447998
716.383972,437.247986,632.447998
718.335999,435.295990,628.544006
712.479980,423.584015,628.544006
710.528015,413.824005,632.447998
710.528015,413.824005,644.159973
710.528015,411.872009,632.447998
708.575989,413.824005,636.351990
712.479980,406.015991,634.400024
700.768005,407.967987,638.304016
700.768005,427.488007,634.400024
698.815979,419.679993,630.495972
694.911987,411.872009,626.591980
698.815979,423.584015,626.591980
689.056030,425.536011,624.640015
692.960022,439.200012,630.495972
687.104004,431.391998,628.544006
683.200012,437.247986,630.495972
691.007996,437.247986,624.640015
691.007996,431.391998,622.687988
696.864014,406.015991,618.783997
696.864014,413.824005,630.495972
700.768005,409.920013,632.447998
691.007996,411.872009,636.351990
687.104004,406.015991,642.208008
696.864014,404.063995,644.159973
689.056030,411.872009,642.208008
687.104004,407.967987,644.159973
685.151978,400.160004,638.304016
689.056030,402.112000,648.064026
687.104004,409.920013,642.208008
683.200012,411.872009,632.447998
681.247986,425.536011,640.255981
681.247986,423.584015,628.544006
671.487976,423.584015,632.447998
679.296021,421.631989,632.447998
675.392029,423.584015,638.304016
673.440002,417.727997,630.495972
677.343994,419.679993,634.400024
679.296021,413.824005,642.208008
689.056030,406.015991,644.159973
691.007996,404.063995,644.159973
687.104004,390.399994,653.919983
691.007996,396.256012,655.872009
689.056030,386.496002,669.536011
687.104004,396.256012,661.728027
683.200012,402.112000,659.776001
681.247986,402.112000,665.632019
679.296021,396.256012,659.776001
679.296021,398.208008,657.823975
683.200012,402.112000,659.776001
691.007996,402.112000,648.064026
681.247986,407.967987,646.112000
685.151978,415.776001,644.159973
679.296021,419.679993,644.159973
679.296021,419.679993,638.304016
679.296021,411.872009,638.304016
679.296021,413.824005,644.159973
683.200012,402.112000,648.064026
685.151978,400.160004,648.064026
683.200012,396.256012,659.776001
694.911987,396.256012,663.679993
692.960022,386.496002,665.632019
691.007996,386.496002,673.440002
698.815979,388.447998,665.632019
691.007996,384.544006,665.632019
687.104004,398.208008,667.583984
683.200012,394.303986,669.536011
679.296021,396.256012,659.776001
683.200012,402.112000,651.968018
683.200012,398.208008,648.064026
683.200012,404.063995,653.919983
675.392029,407.967987,642.208008
683.200012,406.015991,636.351990
679.296021,411.872009,642.208008
681.247986,404.063995,634.400024
685.151978,400.160004,636.351990
677.343994,394.303986,650.015991
679.296021,396.256012,657.823975
685.151978,396.256012,657.823975
681.247986,396.256012,661.728027
669.536011,388.447998,657.823975
683.200012,392.351990,663.679993
675.392029,374.783997,665.632019
683.200012,374.783997,665.632019
687.104004,376.735992,655.872009
679.296021,376.735992,665.632019
679.296021,380.640015,663.679993
687.104004,388.447998,653.919983
689.056030,384.544006,653.919983
685.151978,390.399994,653.919983
675.392029,396.256012,644.159973
677.343994,402.112000,644.159973
679.296021,398.208008,646.112000
683.200012,396.256012,646.112000
685.151978,384.544006,650.015991
687.104004,378.687988,648.064026
692.960022,382.592010,665.632019
689.056030,376.735992,659.776001
692.960022,376.735992,671.487976
692.960022,370.880005,671.487976
696.864014,372.832001,673.440002
692.960022,374.783997,669.536011
696.864014,372.832001,681.247986
698.815979,370.880005,663.679993
692.960022,370.880005,667.583984
692.960022,380.640015,659.776001
692.960022,384.544006,650.015991
687.104004,390.399994,653.919983
689.056030,394.303986,650.015991
679.296021,390.399994,648.064026
692.960022,386.496002,648.064026
683.200012,384.544006,653.919983
683.200012,382.592010,650.015991
687.104004,382.592010,661.728027
683.200012,380.640015,655.872009
675.392029,363.071991,657.823975
683.200012,374.783997,663.679993
692.960022,363.071991,665.632019
685.151978,368.928009,657.823975
677.343994,368.928009,661.728027
679.296021,376.735992,655.872009
669.536011,372.832001,653.919983
669.536011,366.976013,650.015991
671.487976,376.735992,648.064026
663.679993,370.880005,632.447998
659.776001,374.783997,632.447998
669.536011,378.687988,634.400024
663.679993,376.735992,634.400024
669.536011,384.544006,628.544006
671.487976,378.687988,634.400024
669.536011,376.735992,638.304016
663.679993,378.687988,632.447998
671.487976,374.783997,630.495972
663.679993,376.735992,636.351990
665.632019,372.832001,644.159973
665.632019,376.735992,642.208008
665.632019,372.832001,644.159973
665.632019,372.832001,648.064026
665.632019,374.783997,644.159973
659.776001,376.735992,644.159973
669.536011,370.880005,642.208008
661.728027,372.832001,636.351990
667.583984,376.735992,640.255981
669.536011,378.687988,640.255981
665.632019,380.640015,644.159973
663.679993,386.496002,634.400024
657.823975,378.687988,628.544006
659.776001,386.496002,632.447998
663.679993,378.687988,640.255981
655.872009,390.399994,642.208008
665.632019,384.544006,634.400024
663.679993,384.544006,632.447998
657.823975,384.544006,638.304016
669.536011,382.592010,646.112000
669.536011,378.687988,642.208008
665.632019,380.640015,650.015991
663.679993,380.640015,646.112000
667.583984,378.687988,642.208008
671.487976,376.735992,638.304016
663.679993,388.447998,640.255981
673.440002,390.399994,644.159973
667.583984,398.208008,642.208008
663.679993,392.351990,640.255981
669.536011,390.399994,646.112000
669.536011,392.351990,648.064026
671.487976,386.496002,636.351990
671.487976,390.399994,638.304016
667.583984,394.303986,634.400024
671.487976,388.447998,632.447998
663.679993,396.256012,644.159973
673.440002,396.256012,642.208008
673.440002,400.160004,648.064026
667.583984,390.399994,646.112000
679.296021,394.303986,638.304016
679.296021,394.303986,642.208008
671.487976,400.160004,648.064026
673.440002,386.496002,646.112000
677.343994,394.303986,651.968018
681.247986,402.112000,653.919983
665.632019,390.399994,646.112000
673.440002,390.399994,653.919983
675.392029,396.256012,642.208008
677.343994,386.496002,642.208008
663.679993,398.208008,638.304016
671.487976,400.160004,644.159973
671.487976,392.351990,642.208008
673.440002,400.160004,638.304016
681.247986,392.351990,636.351990
651.968018,388.447998,632.447998
663.679993,396.256012,636.351990
663.679993,382.592010,638.304016
665.632019,388.447998,640.255981
665.632019,388.447998,640.255981
665.632019,378.687988,640.255981
669.536011,388.447998,636.351990
663.679993,396.256012,640.255981
669.536011,388.447998,638.304016
655.872009,394.303986,636.351990
653.919983,392.351990,632.447998
659.776001,384.544006,640.255981
661.728027,390.399994,634.400024
657.823975,386.496002,638.304016
655.872009,382.592010,634.400024
648.064026,386.496002,644.159973
640.255981,382.592010,632.447998
653.919983,382.592010,632.447998
653.919983,392.351990,632.447998
653.919983,386.496002,642.208008
648.064026,386.496002,636.351990
650.015991,384.544006,630.495972
648.064026,380.640015,638.304016
646.112000,390.399994,636.351990
646.112000,382.592010,634.400024
657.823975,388.447998,642.208008
659.776001,378.687988,640.255981
661.728027,374.783997,628.544006
653.919983,370.880005,636.351990
653.919983,384.544006,642.208008
657.823975,382.592010,642.208008
655.872009,374.783997,636.351990
648.064026,376.735992,648.064026
653.919983,374.783997,640.255981
653.919983,382.592010,650.015991
651.968018,380.640015,632.447998
651.968018,382.592010,642.208008
651.968018,380.640015,642.208008
657.823975,382.592010,646.112000
655.872009,374.783997,640.255981
651.968018,374.783997,646.112000
659.776001,372.832001,648.064026
661.728027,376.735992,642.208008
665.632019,374.783997,650.015991
663.679993,380.640015,653.919983
661.728027,380.640015,653.919983
677.343994,374.783997,651.968018
671.487976,370.880005,650.015991
669.536011,372.832001,655.872009
665.632019,368.928009,650.015991
667.583984,370.880005,665.632019
675.392029,355.264008,650.015991
675.392029,365.023987,661.728027
669.536011,363.071991,648.064026
671.487976,368.928009,651.968018
681.247986,368.928009,659.776001
681.247986,368.928009,659.776001
685.151978,363.071991,665.632019
689.056030,366.976013,655.872009
681.247986,361.119995,665.632019
694.911987,361.119995,677.343994
681.247986,372.832001,667.583984
685.151978,355.264008,667.583984
683.200012,361.119995,675.392029
689.056030,363.071991,663.679993
685.151978,357.216003,675.392029
696.864014,365.023987,679.296021
694.911987,365.023987,667.583984
755.424011,355.264008,671.487976
704.671997,359.167999,665.632019
772.992004,351.359985,673.440002
728.096008,368.928009,696.864014
735.903992,353.312012,712.479980
667.583984,363.071991,733.952026
689.056030,378.687988,757.375977
685.151978,372.832001,763.231995
724.192017,361.119995,733.952026
720.288025,380.640015,710.528015
757.375977,361.119995,714.432007
728.096008,361.119995,712.479980
747.616028,368.928009,702.719971
718.335999,355.264008,696.864014
724.192017,363.071991,679.296021
722.239990,407.967987,679.296021
716.383972,382.592010,673.440002
706.624023,368.928009,669.536011
694.911987,396.256012,671.487976
694.911987,392.351990,673.440002
691.007996,351.359985,665.632019
702.719971,359.167999,677.343994
704.671997,365.023987,687.104004
706.624023,345.503998,685.151978
712.479980,331.839996,683.200012
724.192017,351.359985,679.296021
716.383972,345.503998,692.960022
710.528015,353.312012,694.911987
710.528015,337.696014,691.007996
702.719971,335.743988,689.056030
704.671997,361.119995,687.104004
694.911987,361.119995,694.911987
692.960022,351.359985,691.007996
691.007996,365.023987,691.007996
692.960022,382.592010,675.392029
691.007996,366.976013,681.247986
689.056030,365.023987,677.343994
689.056030,366.976013,683.200012
692.960022,378.687988,681.247986
683.200012,366.976013,683.200012
689.056030,368.928009,683.200012
689.056030,366.976013,687.104004
681.247986,351.359985,689.056030
677.343994,349.407990,704.671997
679.296021,351.359985,706.624023
681.247986,353.312012,706.624023
679.296021,335.743988,700.768005
673.440002,337.696014,702.719971
667.583984,345.503998,704.671997
665.632019,347.455994,708.575989
661.728027,343.552002,696.864014
665.632019,355.264008,700.768005
667.583984,363.071991,679.296021
659.776001,361.119995,687.104004
659.776001,363.071991,687.104004
655.872009,355.264008,683.200012
650.015991,361.119995,685.151978
650.015991,365.023987,683.200012
644.159973,355.264008,689.056030
638.304016,359.167999,691.007996
630.495972,355.264008,683.200012
630.495972,351.359985,691.007996
626.591980,363.071991,685.151978
628.544006,361.119995,692.960022
628.544006,361.119995,692.960022
626.591980,361.119995,692.960022
626.591980,353.312012,694.911987
630.495972,355.264008,687.104004
624.640015,347.455994,687.104004
618.783997,357.216003,685.151978
614.880005,349.407990,692.960022
612.927979,347.455994,683.200012
601.216003,357.216003,679.296021
599.263977,365.023987,675.392029
599.263977,355.264008,681.247986
597.312012,359.167999,669.536011
603.168030,361.119995,685.151978
587.552002,361.119995,675.392029
591.455994,357.216003,669.536011
589.504028,363.071991,671.487976
603.168030,357.216003,667.583984
595.359985,359.167999,665.632019
589.504028,357.216003,673.440002
583.648010,368.928009,673.440002
585.599976,355.264008,663.679993
585.599976,351.359985,673.440002
585.599976,343.552002,677.343994
571.935974,339.648010,669.536011
581.695984,337.696014,677.343994
583.648010,349.407990,667.583984
581.695984,339.648010,663.679993
579.744019,325.984009,659.776001
573.888000,335.743988,655.872009
579.744019,335.743988,655.872009
581.695984,325.984009,651.968018
569.984009,325.984009,659.776001
581.695984,324.032013,657.823975
575.840027,312.320007,655.872009
568.031982,314.272003,655.872009
575.840027,308.415985,655.872009
575.840027,300.608002,655.872009
583.648010,302.559998,651.968018
566.080017,308.415985,661.728027
573.888000,298.656006,655.872009
575.840027,298.656006,650.015991
573.888000,298.656006,651.968018
579.744019,284.992004,644.159973
587.552002,284.992004,651.968018
589.504028,283.040009,661.728027
581.695984,283.040009,650.015991
583.648010,283.040009,648.064026
587.552002,279.135986,667.583984
587.552002,275.231995,665.632019
581.695984,273.279999,661.728027
585.599976,271.328003,648.064026
581.695984,279.135986,665.632019
585.599976,261.567993,671.487976
577.791992,259.615997,665.632019
583.648010,249.856003,663.679993
585.599976,255.712006,671.487976
585.599976,251.807999,679.296021
579.744019,247.904007,673.440002
591.455994,249.856003,669.536011
599.263977,249.856003,677.343994
587.552002,251.807999,685.151978
581.695984,247.904007,675.392029
591.455994,244.000000,677.343994
585.599976,245.951996,677.343994
591.455994,240.095993,685.151978
587.552002,234.240005,681.247986
581.695984,232.287994,675.392029
587.552002,234.240005,681.247986
591.455994,234.240005,681.247986
593.408020,228.384003,679.296021
585.599976,230.335999,671.487976
593.408020,226.432007,681.247986
593.408020,232.287994,687.104004
593.408020,224.479996,679.296021
591.455994,220.576004,679.296021
591.455994,210.815994,681.247986
589.504028,222.528000,685.151978
589.504028,220.576004,689.056030
597.312012,232.287994,685.151978
589.504028,222.528000,687.104004
595.359985,216.671997,687.104004
587.552002,214.720001,683.200012
595.359985,218.623993,683.200012
595.359985,216.671997,681.247986
585.599976,214.720001,691.007996
581.695984,210.815994,679.296021
581.695984,218.623993,679.296021
579.744019,218.623993,677.343994
583.648010,216.671997,675.392029
583.648010,220.576004,681.247986
569.984009,220.576004,675.392029
566.080017,232.287994,671.487976
575.840027,222.528000,671.487976
568.031982,226.432007,675.392029
568.031982,222.528000,685.151978
554.367981,228.384003,675.392029
550.463989,236.192001,679.296021
556.320007,222.528000,685.151978
554.367981,232.287994,675.392029
552.416016,240.095993,669.536011
548.512024,242.048004,677.343994
540.703979,232.287994,669.536011
544.607971,230.335999,659.776001
546.559998,240.095993,651.968018
546.559998,222.528000,665.632019
546.559998,244.000000,655.872009
532.895996,240.095993,659.776001
528.992004,247.904007,665.632019
534.848022,234.240005,665.632019
523.135986,240.095993,659.776001
540.703979,242.048004,661.728027
521.184021,234.240005,659.776001
523.135986,240.095993,648.064026
528.992004,253.759995,648.064026
527.039978,251.807999,648.064026
521.184021,251.807999,648.064026
528.992004,251.807999,648.064026
530.943970,245.951996,646.112000
528.992004,247.904007,634.400024
521.184021,255.712006,632.447998
517.280029,251.807999,640.255981
515.328003,265.471985,646.112000
511.424011,263.519989,648.064026
511.424011,265.471985,634.400024
507.519989,271.328003,636.351990
511.424011,253.759995,632.447998
517.280029,273.279999,632.447998
511.424011,265.471985,638.304016
511.424011,253.759995,632.447998
505.567993,257.664001,628.544006
505.567993,271.328003,632.447998
507.519989,273.279999,638.304016
507.519989,265.471985,632.447998
509.471985,275.231995,650.015991
511.424011,273.279999,632.447998
505.567993,277.183990,636.351990
507.519989,273.279999,644.159973
509.471985,281.088013,650.015991
515.328003,277.183990,646.112000
515.328003,286.944000,642.208008
517.280029,283.040009,638.304016
513.375977,290.847992,646.112000
521.184021,284.992004,642.208008
517.280029,286.944000,648.064026
527.039978,294.752014,644.159973
525.088013,296.704010,650.015991
530.943970,296.704010,661.728027
528.992004,304.511993,657.823975
528.992004,312.320007,673.440002
519.231995,324.032013,683.200012
532.895996,325.984009,683.200012
530.943970,327.936005,685.151978
536.799988,333.791992,706.624023
538.752014,347.455994,702.719971
538.752014,351.359985,710.528015
550.463989,355.264008,716.383972
544.607971,357.216003,710.528015
552.416016,365.023987,720.288025
556.320007,365.023987,724.192017
554.367981,372.832001,728.096008
550.463989,370.880005,724.192017
556.320007,370.880005,735.903992
554.367981,365.023987,732.000000
556.320007,368.928009,728.096008
556.320007,363.071991,730.047974
564.127991,376.735992,747.616028
558.271973,378.687988,743.711975
552.416016,380.640015,747.616028
552.416016,378.687988,739.807983
550.463989,378.687988,745.664001
554.367981,370.880005,741.760010
556.320007,384.544006,743.711975
566.080017,382.592010,737.856018
564.127991,370.880005,735.903992
558.271973,382.592010,737.856018
571.935974,378.687988,733.952026
571.935974,378.687988,732.000000
569.984009,386.496002,739.807983
560.223999,390.399994,718.335999
564.127991,380.640015,726.143982
566.080017,382.592010,724.192017
566.080017,394.303986,726.143982
562.176025,388.447998,718.335999
562.176025,388.447998,718.335999
568.031982,388.447998,722.239990
564.127991,388.447998,722.239990
554.367981,382.592010,724.192017
560.223999,392.351990,726.143982
562.176025,388.447998,712.479980
564.127991,384.544006,718.335999
556.320007,396.256012,716.383972
552.416016,406.015991,708.575989
554.367981,390.399994,714.432007
562.176025,386.496002,706.624023
552.416016,398.208008,710.528015
560.223999,386.496002,712.479980
542.656006,388.447998,708.575989
550.463989,382.592010,708.575989
554.367981,392.351990,706.624023
546.559998,396.256012,710.528015
548.512024,376.735992,704.671997
558.271973,400.160004,696.864014
552.416016,388.447998,708.575989
554.367981,382.592010,694.911987
544.607971,388.447998,708.575989
548.512024,384.544006,696.864014
544.607971,386.496002,702.719971
540.703979,384.544006,702.719971
536.799988,378.687988,706.624023
544.607971,378.687988,700.768005
534.848022,390.399994,702.719971
536.799988,386.496002,710.528015
527.039978,388.447998,694.911987
528.992004,386.496002,704.671997
525.088013,394.303986,694.911987
527.039978,396.256012,683.200012
528.992004,386.496002,687.104004
530.943970,390.399994,687.104004
527.039978,390.399994,681.247986
528.992004,396.256012,689.056030
523.135986,390.399994,687.104004
521.184021,390.399994,683.200012
521.184021,398.208008,683.200012
525.088013,400.160004,679.296021
515.328003,396.256012,683.200012
503.615997,394.303986,681.247986
507.519989,392.351990,679.296021
521.184021,390.399994,677.343994
507.519989,392.351990,685.151978
509.471985,400.160004,681.247986
507.519989,396.256012,675.392029
505.567993,396.256012,665.632019
507.519989,402.112000,663.679993
507.519989,407.967987,663.679993
509.471985,409.920013,659.776001
511.424011,407.967987,663.679993
497.760010,409.920013,650.015991
501.664001,407.967987,653.919983
497.760010,396.256012,646.112000
495.808014,406.015991,640.255981
497.760010,415.776001,632.447998
499.712006,409.920013,626.591980
497.760010,417.727997,632.447998
495.808014,409.920013,628.544006
488.000000,406.015991,632.447998
505.567993,406.015991,638.304016
499.712006,415.776001,626.591980
501.664001,409.920013,620.736023
488.000000,404.063995,622.687988
488.000000,400.160004,626.591980
493.855988,409.920013,620.736023
509.471985,398.208008,620.736023
505.567993,407.967987,610.976013
507.519989,409.920013,614.880005
505.567993,407.967987,618.783997
503.615997,398.208008,612.927979
495.808014,398.208008,616.831970
503.615997,402.112000,616.831970
507.519989,402.112000,612.927979
513.375977,400.160004,618.783997
511.424011,406.015991,616.831970
521.184021,407.967987,614.880005
525.088013,398.208008,605.119995
528.992004,406.015991,607.072021
525.088013,413.824005,601.216003
528.992004,413.824005,593.408020
527.039978,394.303986,597.312012
538.752014,406.015991,597.312012
548.512024,407.967987,599.263977
548.512024,402.112000,599.263977
546.559998,413.824005,603.168030
554.367981,413.824005,595.359985
571.935974,404.063995,587.552002
564.127991,404.063995,585.599976
566.080017,417.727997,585.599976
575.840027,406.015991,583.648010
579.744019,415.776001,587.552002
569.984009,427.488007,581.695984
581.695984,411.872009,591.455994
579.744019,413.824005,589.504028
599.263977,427.488007,587.552002
589.504028,421.631989,585.599976
597.312012,425.536011,587.552002
601.216003,435.295990,581.695984
605.119995,441.152008,571.935974
605.119995,435.295990,575.840027
607.072021,441.152008,577.791992
618.783997,437.247986,575.840027
620.736023,456.768005,571.935974
624.640015,452.864014,569.984009
624.640015,452.864014,562.176025
620.736023,450.911987,560.223999
622.687988,470.432007,562.176025
618.783997,538.752014,556.320007
622.687988,575.840027,542.656006
616.831970,605.119995,528.992004
618.783997,653.919983,525.088013
618.783997,677.343994,525.088013
610.976013,712.479980,521.184021
607.072021,745.664001,519.231995
609.023987,761.280029,505.567993
612.927979,780.799988,505.567993
609.023987,808.127991,507.519989
616.831970,860.831970,519.231995
626.591980,899.872009,519.231995
646.112000,913.536011,519.231995
651.968018,942.815979,515.328003
651.968018,931.104004,523.135986
657.823975,892.064026,525.088013
659.776001,874.495972,528.992004
655.872009,841.312012,540.703979
677.343994,804.223999,558.271973
681.247986,776.895996,564.127991
687.104004,724.192017,593.408020
689.056030,657.823975,622.687988
708.575989,589.504028,636.351990
708.575989,564.127991,663.679993
708.575989,528.992004,681.247986
716.383972,486.048004,675.392029
710.528015,489.951996,683.200012
704.671997,472.384003,673.440002
694.911987,452.864014,657.823975
700.768005,472.384003,630.495972
687.104004,482.144012,612.927979
689.056030,491.903992,587.552002
681.247986,521.184021,554.367981
673.440002,540.703979,528.992004
673.440002,558.271973,505.567993
655.872009,573.888000,488.000000
657.823975,587.552002,486.048004
651.968018,597.312012,466.528015
655.872009,589.504028,456.768005
642.208008,571.935974,468.480011
653.919983,544.607971,478.239990
642.208008,534.848022,493.855988
653.919983,521.184021,488.000000
648.064026,525.088013,486.048004
650.015991,525.088013,484.096008
624.640015,515.328003,493.855988
636.351990,495.808014,497.760010
640.255981,509.471985,484.096008
650.015991,503.615997,488.000000
644.159973,503.615997,493.855988
651.968018,505.567993,489.951996
655.872009,509.471985,491.903992
653.919983,499.712006,484.096008
650.015991,505.567993,493.855988
650.015991,509.471985,486.048004
650.015991,507.519989,495.808014
640.255981,505.567993,493.855988
646.112000,499.712006,493.855988
642.208008,521.184021,505.567993
650.015991,519.231995,509.471985
648.064026,517.280029,507.519989
651.968018,515.328003,503.615997
651.968018,515.328003,499.712006
655.872009,523.135986,503.615997
655.872009,528.992004,521.184021
671.487976,521.184021,523.135986
659.776001,523.135986,532.895996
671.487976,523.135986,536.799988
659.776001,525.088013,532.895996
671.487976,515.328003,544.607971
673.440002,521.184021,550.463989
665.632019,523.135986,556.320007
673.440002,521.184021,558.271973
663.679993,525.088013,564.127991
677.343994,525.088013,566.080017
679.296021,521.184021,558.271973
679.296021,528.992004,554.367981
681.247986,538.752014,556.320007
681.247986,515.328003,560.223999
689.056030,532.895996,550.463989
683.200012,521.184021,554.367981
683.200012,519.231995,544.607971
687.104004,521.184021,548.512024
685.151978,519.231995,540.703979
691.007996,511.424011,540.703979
681.247986,515.328003,528.992004
685.151978,513.375977,527.039978
687.104004,501.664001,534.848022
689.056030,499.712006,530.943970
683.200012,495.808014,523.135986
679.296021,493.855988,532.895996
692.960022,476.287994,532.895996
704.671997,476.287994,527.039978
685.151978,482.144012,525.088013
692.960022,472.384003,530.943970
685.151978,470.432007,528.992004
696.864014,464.575989,523.135986
685.151978,464.575989,521.184021
675.392029,464.575989,519.231995
667.583984,450.911987,523.135986
675.392029,458.720001,505.567993
673.440002,452.864014,503.615997
681.247986,466.528015,509.471985
675.392029,462.623993,503.615997
675.392029,458.720001,507.519989
683.200012,448.959991,507.519989
691.007996,445.056000,507.519989
692.960022,445.056000,503.615997
689.056030,445.056000,507.519989
683.200012,437.247986,505.567993
689.056030,437.247986,513.375977
700.768005,433.343994,507.519989
698.815979,441.152008,511.424011
691.007996,443.104004,507.519989
696.864014,429.440002,499.712006
700.768005,421.631989,509.471985
687.104004,425.536011,509.471985
694.911987,429.440002,507.519989
689.056030,425.536011,505.567993
692.960022,423.584015,501.664001
671.487976,423.584015,507.519989
677.343994,419.679993,515.328003
646.112000,425.536011,517.280029
677.343994,419.679993,519.231995
657.823975,407.967987,523.135986
702.719971,380.640015,527.039978
720.288025,409.920013,509.471985
728.096008,394.303986,495.808014
747.616028,398.208008,505.567993
741.760010,419.679993,505.567993
743.711975,423.584015,486.048004
737.856018,425.536011,489.951996
753.471985,437.247986,493.855988
755.424011,427.488007,488.000000
753.471985,433.343994,491.903992
763.231995,447.007996,484.096008
765.184021,433.343994,484.096008
759.328003,419.679993,484.096008
761.280029,435.295990,480.191986
761.280029,448.959991,480.191986
759.328003,464.575989,474.335999
765.184021,460.671997,468.480011
753.471985,466.528015,468.480011
749.567993,454.816010,470.432007
747.616028,454.816010,486.048004
767.135986,458.720001,486.048004
761.280029,441.152008,478.239990
772.992004,433.343994,491.903992
778.848022,433.343994,491.903992
761.280029,425.536011,505.567993
761.280029,417.727997,503.615997
771.039978,417.727997,507.519989
757.375977,417.727997,501.664001
759.328003,413.824005,509.471985
749.567993,400.160004,511.424011
747.616028,404.063995,525.088013
745.664001,409.920013,532.895996
751.520020,406.015991,528.992004
747.616028,406.015991,527.039978
735.903992,398.208008,538.752014
751.520020,374.783997,546.559998
757.375977,376.735992,542.656006
733.952026,392.351990,538.752014
735.903992,386.496002,540.703979
710.528015,378.687988,564.127991
702.719971,368.928009,581.695984
661.728027,374.783997,585.599976
650.015991,394.303986,595.359985
655.872009,312.320007,601.216003
716.383972,210.815994,597.312012
761.280029,355.264008,595.359985
745.664001,484.096008,603.168030
745.664001,273.279999,577.791992
706.624023,257.664001,575.840027
726.143982,437.247986,575.840027
724.192017,392.351990,564.127991
755.424011,302.559998,538.752014
813.984009,402.112000,534.848022
691.007996,417.727997,523.135986
765.184021,333.791992,509.471985
694.911987,452.864014,519.231995
757.375977,421.631989,509.471985
698.815979,372.832001,493.855988
798.367981,439.200012,482.144012
774.943970,466.528015,472.384003
747.616028,366.976013,454.816010
741.760010,415.776001,482.144012
743.711975,441.152008,499.712006
753.471985,392.351990,495.808014
776.895996,396.256012,493.855988
804.223999,407.967987,491.903992
792.512024,347.455994,525.088013
776.895996,331.839996,558.271973
778.848022,325.984009,562.176025
778.848022,279.135986,573.888000
798.367981,279.135986,581.695984
808.127991,277.183990,595.359985
804.223999,255.712006,610.976013
810.080017,242.048004,620.736023
792.512024,245.951996,632.447998
786.656006,234.240005,642.208008
780.799988,224.479996,648.064026
778.848022,230.335999,651.968018
782.752014,236.192001,644.159973
778.848022,222.528000,644.159973
778.848022,228.384003,644.159973
765.184021,240.095993,640.255981
763.231995,244.000000,632.447998
755.424011,240.095993,630.495972
759.328003,238.143997,618.783997
772.992004,263.519989,605.119995
755.424011,275.231995,609.023987
759.328003,259.615997,605.119995
741.760010,269.376007,601.216003
755.424011,281.088013,603.168030
755.424011,281.088013,589.504028
759.328003,271.328003,585.599976
743.711975,284.992004,591.455994
747.616028,283.040009,587.552002
739.807983,267.424011,593.408020
730.047974,269.376007,595.359985
726.143982,273.279999,601.216003
735.903992,255.712006,589.504028
732.000000,275.231995,595.359985
741.760010,273.279999,589.504028
733.952026,267.424011,579.744019
732.000000,253.759995,573.888000
737.856018,273.279999,573.888000
739.807983,275.231995,564.127991
733.952026,273.279999,556.320007
741.760010,277.183990,546.559998
741.760010,290.847992,542.656006
735.903992,275.231995,540.703979
726.143982,279.135986,542.656006
733.952026,284.992004,542.656006
741.760010,283.040009,532.895996
733.952026,277.183990,523.135986
737.856018,284.992004,525.088013
739.807983,281.088013,527.039978
741.760010,275.231995,525.088013
745.664001,273.279999,523.135986
755.424011,283.040009,519.231995
755.424011,269.376007,515.328003
771.039978,259.615997,509.471985
761.280029,263.519989,511.424011
774.943970,259.615997,517.280029
761.280029,259.615997,503.615997
774.943970,247.904007,511.424011
778.848022,238.143997,521.184021
774.943970,240.095993,515.328003
771.039978,238.143997,515.328003
763.231995,228.384003,511.424011
767.135986,220.576004,517.280029
772.992004,228.384003,525.088013
784.703979,214.720001,532.895996
782.752014,208.863998,527.039978
776.895996,193.248001,527.039978
780.799988,201.056000,530.943970
792.512024,203.007996,523.135986
792.512024,206.912003,521.184021
796.416016,214.720001,525.088013
784.703979,218.623993,519.231995
790.559998,228.384003,509.471985
788.607971,236.192001,495.808014
776.895996,242.048004,497.760010
776.895996,251.807999,491.903992
782.752014,251.807999,495.808014
774.943970,269.376007,484.096008
776.895996,267.424011,476.287994
771.039978,259.615997,478.239990
780.799988,269.376007,478.239990
774.943970,265.471985,474.335999
786.656006,269.376007,470.432007
782.752014,253.759995,474.335999
788.607971,255.712006,470.432007
788.607971,255.712006,470.432007
790.559998,261.567993,472.384003
772.992004,251.807999,464.575989
786.656006,261.567993,472.384003
788.607971,251.807999,476.287994
792.512024,249.856003,470.432007
792.512024,257.664001,472.384003
788.607971,263.519989,472.384003
792.512024,255.712006,470.432007
790.559998,249.856003,468.480011
808.127991,253.759995,464.575989
806.176025,259.615997,466.528015
806.176025,255.712006,452.864014
817.888000,273.279999,456.768005
817.888000,279.135986,450.911987
810.080017,277.183990,450.911987
806.176025,290.847992,435.295990
819.840027,288.895996,435.295990
804.223999,283.040009,429.440002
817.888000,294.752014,421.631989
804.223999,292.799988,413.824005
804.223999,296.704010,417.727997
798.367981,296.704010,406.015991
806.176025,300.608002,415.776001
813.984009,294.752014,417.727997
804.223999,288.895996,421.631989
817.888000,292.799988,404.063995
833.504028,288.895996,415.776001
825.695984,286.944000,400.160004
835.455994,281.088013,411.872009
837.408020,275.231995,388.447998
821.791992,251.807999,392.351990
831.552002,236.192001,384.544006
823.744019,240.095993,382.592010
823.744019,236.192001,380.640015
829.599976,240.095993,380.640015
829.599976,224.479996,366.976013
833.504028,236.192001,382.592010
849.119995,240.095993,388.447998
845.216003,247.904007,406.015991
849.119995,261.567993,415.776001
862.783997,275.231995,427.488007
868.640015,290.847992,443.104004
872.544006,312.320007,441.152008
890.112000,325.984009,441.152008
899.872009,333.791992,460.671997
894.015991,327.936005,464.575989
892.064026,339.648010,474.335999
905.728027,353.312012,489.951996
903.776001,353.312012,488.000000
897.919983,339.648010,497.760010
921.343994,343.552002,505.567993
919.392029,347.455994,515.328003
919.392029,349.407990,525.088013
931.104004,351.359985,536.799988
946.719971,341.600006,550.463989
936.960022,339.648010,548.512024
948.671997,353.312012,554.367981
948.671997,341.600006,568.031982
952.575989,331.839996,562.176025
946.719971,341.600006,566.080017
948.671997,351.359985,579.744019
950.624023,349.407990,587.552002
950.624023,359.167999,579.744019
944.768005,363.071991,585.599976
933.056030,363.071991,577.791992
933.056030,368.928009,575.840027
938.911987,376.735992,577.791992
940.864014,378.687988,583.648010
948.671997,402.112000,575.840027
942.815979,406.015991,566.080017
938.911987,409.920013,564.127991
935.007996,398.208008,556.320007
946.719971,411.872009,554.367981
936.960022,404.063995,558.271973
931.104004,411.872009,552.416016
931.104004,409.920013,556.320007
925.247986,411.872009,554.367981
921.343994,396.256012,554.367981
921.343994,402.112000,550.463989
921.343994,394.303986,564.127991
923.296021,394.303986,544.607971
917.440002,390.399994,540.703979
915.487976,388.447998,534.848022
913.536011,380.640015,532.895996
907.679993,378.687988,528.992004
905.728027,366.976013,507.519989
894.015991,370.880005,505.567993
890.112000,368.928009,489.951996
884.255981,366.976013,478.239990
874.495972,363.071991,474.335999
870.591980,347.455994,460.671997
862.783997,349.407990,458.720001
858.880005,347.455994,441.152008
858.880005,341.600006,433.343994
854.976013,349.407990,429.440002
849.119995,351.359985,431.391998
853.023987,339.648010,423.584015
847.168030,331.839996,417.727997
849.119995,333.791992,411.872009
835.455994,337.696014,409.920013
835.455994,337.696014,406.015991
827.648010,335.743988,411.872009
827.648010,341.600006,409.920013
819.840027,347.455994,411.872009
823.744019,353.312012,409.920013
821.791992,349.407990,407.967987
815.935974,351.359985,396.256012
823.744019,355.264008,409.920013
823.744019,349.407990,400.160004
810.080017,355.264008,398.208008
810.080017,353.312012,406.015991
810.080017,345.503998,404.063995
813.984009,333.791992,398.208008
796.416016,331.839996,394.303986
792.512024,341.600006,400.160004
802.271973,335.743988,398.208008
802.271973,320.127991,396.256012
790.559998,316.223999,378.687988
794.463989,333.791992,386.496002
782.752014,320.127991,378.687988
788.607971,312.320007,374.783997
776.895996,316.223999,380.640015
769.088013,306.463989,357.216003
772.992004,320.127991,339.648010
763.231995,312.320007,337.696014
771.039978,300.608002,331.839996
767.135986,300.608002,327.936005
782.752014,316.223999,322.079987
774.943970,320.127991,312.320007
788.607971,302.559998,320.127991
778.848022,294.752014,312.320007
769.088013,300.608002,322.079987
765.184021,304.511993,306.463989
774.943970,296.704010,312.320007
763.231995,269.376007,312.320007
769.088013,253.759995,318.175995
761.280029,279.135986,320.127991
757.375977,277.183990,327.936005
769.088013,265.471985,339.648010
771.039978,290.847992,347.455994
767.135986,308.415985,359.167999
765.184021,314.272003,357.216003
774.943970,314.272003,363.071991
788.607971,335.743988,368.928009
784.703979,353.312012,366.976013
806.176025,361.119995,357.216003
810.080017,335.743988,355.264008
813.984009,320.127991,347.455994
823.744019,325.984009,345.503998
821.791992,361.119995,345.503998
812.031982,359.167999,335.743988
813.984009,349.407990,351.359985
808.127991,347.455994,339.648010
815.935974,345.503998,333.791992
812.031982,353.312012,331.839996
821.791992,363.071991,337.696014
821.791992,335.743988,343.552002
817.888000,324.032013,339.648010
817.888000,312.320007,353.312012
829.599976,304.511993,365.023987
833.504028,283.040009,365.023987
831.552002,273.279999,366.976013
833.504028,253.759995,390.399994
843.263977,251.807999,400.160004
841.312012,242.048004,402.112000
851.072021,230.335999,404.063995
853.023987,226.432007,415.776001
856.927979,228.384003,421.631989
866.687988,224.479996,450.911987
872.544006,212.768005,462.623993
853.023987,212.768005,456.768005
882.304016,228.384003,462.623993
880.351990,236.192001,480.191986
878.400024,232.287994,482.144012
872.544006,210.815994,472.384003
878.400024,244.000000,488.000000
892.064026,236.192001,482.144012
882.304016,187.391998,486.048004
880.351990,150.304001,486.048004
888.159973,138.591995,482.144012
882.304016,146.399994,476.287994
884.255981,158.112000,486.048004
868.640015,175.679993,488.000000
862.783997,216.671997,499.712006
847.168030,232.287994,509.471985
853.023987,232.287994,511.424011
845.216003,234.240005,505.567993
841.312012,343.552002,517.280029
854.976013,347.455994,507.519989
847.168030,160.063995,505.567993
872.544006,89.792000,505.567993
876.447998,140.544006,513.375977
854.976013,150.304001,515.328003
841.312012,163.968002,511.424011
847.168030,212.768005,507.519989
843.263977,212.768005,503.615997
849.119995,197.151993,491.903992
853.023987,175.679993,493.855988
854.976013,165.919998,484.096008
853.023987,171.776001,472.384003
841.312012,185.440002,462.623993
837.408020,195.199997,456.768005
823.744019,195.199997,439.200012
823.744019,181.535995,439.200012
829.599976,175.679993,419.679993
837.408020,165.919998,404.063995
827.648010,165.919998,388.447998
821.791992,167.871994,368.928009
825.695984,171.776001,347.455994
815.935974,165.919998,333.791992
810.080017,177.632004,333.791992
804.223999,185.440002,314.272003
804.223999,175.679993,290.847992
794.463989,177.632004,269.376007
784.703979,163.968002,259.615997
780.799988,181.535995,234.240005
786.656006,214.720001,218.623993
767.135986,195.199997,199.104004
771.039978,181.535995,175.679993
774.943970,181.535995,156.160004
765.184021,204.960007,146.399994
759.328003,189.343994,124.928001
745.664001,183.488007,109.311996
765.184021,193.248001,101.503998
769.088013,187.391998,83.935997
774.943970,181.535995,66.367996
771.039978,185.440002,58.560001
782.752014,187.391998,29.280001
767.135986,197.151993,3.904000
755.424011,226.432007,-15.616000
743.711975,240.095993,-37.088001
745.664001,245.951996,-52.703999
737.856018,253.759995,-62.464001
755.424011,255.712006,-78.080002
733.952026,273.279999,-80.031998
743.711975,275.231995,-85.888000
751.520020,273.279999,-97.599998
771.039978,263.519989,-97.599998
774.943970,283.040009,-111.264000
782.752014,294.752014,-117.120003
786.656006,286.944000,-122.975998
771.039978,284.992004,-126.879997
767.135986,308.415985,-126.879997
769.088013,324.032013,-134.688004
780.799988,318.175995,-132.735992
786.656006,304.511993,-138.591995
798.367981,312.320007,-144.447998
802.271973,329.888000,-142.496002
812.031982,316.223999,-140.544006
821.791992,329.888000,-140.544006
823.744019,333.791992,-144.447998
794.463989,322.079987,-128.832001
638.304016,48.799999,-97.599998
710.528015,58.560001,17.568001
724.192017,267.424011,122.975998
835.455994,-31.232000,162.016006
890.112000,-406.015991,181.535995
921.343994,-366.976013,167.871994
915.487976,-74.176003,142.496002
921.343994,-37.088001,113.216003
897.919983,-154.207993,85.888000
919.392029,-255.712006,72.223999
935.007996,-183.488007,52.703999
958.432007,-74.176003,23.424000
974.047974,-19.520000,23.424000
997.471985,-78.080002,25.375999
972.096008,-64.416000,23.424000
1003.328003,17.568001,85.888000
1266.848022,-300.608002,763.231995
1692.384033,-882.304016,1727.520020
1893.439941,-1085.312012,2217.471924
1477.663940,612.927979,2166.719971
1670.911987,1889.536011,1817.312012
1651.391968,646.112000,1575.264038
1473.760010,-650.015991,1341.024048
1438.624023,-70.272003,944.768005
1280.511963,786.656006,468.480011
1042.368042,714.432007,-1.952000
882.304016,470.432007,-355.264008
841.312012,353.312012,-511.424011
817.888000,300.608002,-552.416016
815.935974,577.791992,-577.791992
858.880005,841.312012,-558.271973
952.575989,419.679993,-474.335999
1071.647949,68.320000,-183.488007
1274.656006,347.455994,325.984009
1555.744019,74.176003,882.304016
1682.624023,-144.447998,1245.375977
1635.776001,197.151993,1434.719971
1602.592041,813.984009,1462.047974
1626.015991,501.664001,1346.880005
1506.943970,-56.608002,1106.784058
1374.208008,-66.367996,763.231995
1243.423950,169.824005,394.303986
1048.223999,466.528015,23.424000
897.919983,536.799988,-312.320007
804.223999,310.368011,-489.951996
735.903992,257.664001,-558.271973
751.520020,495.808014,-568.031982
772.992004,618.783997,-569.984009
829.599976,448.959991,-488.000000
913.536011,259.615997,-255.712006
1095.072021,204.960007,162.016006
1286.368042,52.703999,562.176025
1364.447998,19.520000,892.064026
1368.352051,772.992004,1057.984009
1456.192017,821.791992,1118.495972
1501.088013,150.304001,1085.312012
1405.439941,35.136002,972.096008
1385.920044,267.424011,788.607971
1313.696045,456.768005,560.223999
1196.576050,530.943970,277.183990
1112.640015,359.167999,21.472000
915.487976,486.048004,142.496002
950.624023,525.088013,450.911987
671.487976,117.120003,115.167999
774.943970,536.799988,-431.391998
872.544006,609.023987,-655.872009
991.616028,210.815994,-503.615997
1003.328003,650.015991,-58.560001
1061.887939,728.096008,283.040009
1114.592041,187.391998,404.063995
1341.024048,271.328003,546.559998
1456.192017,396.256012,794.463989
1489.375977,253.759995,1016.992004
1479.615967,351.359985,1091.167969
1421.056030,269.376007,987.711975
1331.264038,148.352005,782.752014
1220.000000,380.640015,569.984009
1118.495972,427.488007,353.312012
1024.800049,359.167999,122.975998
929.151978,489.951996,-52.703999
872.544006,515.328003,-130.783997
790.559998,587.552002,-261.567993
1007.231995,275.231995,-37.088001
1479.615967,-450.911987,1069.696045
1897.343994,-230.335999,2133.535889
2123.775879,400.160004,2502.464111
2026.176025,751.520020,2014.463989
1538.176025,513.375977,837.408020
1052.128052,134.688004,37.088001
831.552002,675.392029,-365.023987
569.984009,1024.800049,-585.599976
527.039978,931.104004,-648.064026
607.072021,806.176025,-618.783997
726.143982,804.223999,-556.320007
745.664001,907.679993,-488.000000
794.463989,991.616028,-382.592010
977.952026,888.159973,-52.703999
1282.463989,448.959991,562.176025
1426.911987,126.879997,966.239990
1368.352051,91.744003,938.911987
1216.095947,103.456001,718.335999
1155.583984,68.320000,540.703979
1177.056030,-29.280001,607.072021
1192.671997,-103.456001,708.575989
1132.160034,-5.856000,558.271973
985.760010,201.056000,255.712006
843.263977,433.343994,-68.320000
769.088013,573.888000,-259.615997
812.031982,566.080017,-242.048004
923.296021,433.343994,-80.031998
989.664001,296.704010,101.503998
1036.511963,111.264000,335.743988
1087.264038,-58.560001,517.280029
1134.112061,-136.639999,597.312012
1220.000000,-113.216003,634.400024
1221.952026,-25.375999,540.703979
1155.583984,124.928001,396.256012
1063.839966,259.615997,251.807999
956.479980,343.552002,70.272003
839.359985,466.528015,-130.783997
761.280029,585.599976,-304.511993
737.856018,648.064026,-413.824005
733.952026,685.151978,-402.112000
767.135986,610.976013,-304.511993
845.216003,517.280029,-158.112000
935.007996,448.959991,19.520000
1042.368042,419.679993,193.248001
1110.687988,409.920013,316.223999
1130.208008,445.056000,392.351990
1151.680054,480.191986,398.208008
1128.255981,536.799988,376.735992
1087.264038,597.312012,310.368011
1046.271973,673.440002,234.240005
983.807983,753.471985,160.063995
950.624023,841.312012,95.648003
938.911987,722.239990,25.375999
923.296021,76.127998,15.616000
888.159973,-456.768005,9.760000
854.976013,-583.648010,-27.327999
845.216003,-706.624023,-140.544006
821.791992,-810.080017,-226.432007
868.640015,-813.984009,-224.479996
927.200012,-788.607971,-142.496002
950.624023,-786.656006,-89.792000
954.528015,-702.719971,-54.655998
960.383972,-616.831970,-33.183998
962.335999,-466.528015,-9.760000
983.807983,-320.127991,13.664000
968.192017,-191.296005,0.000000
981.856018,50.751999,-3.904000
1020.895996,413.824005,46.848000
1059.936035,845.216003,126.879997
1112.640015,1321.504028,257.664001
1157.536011,1610.400024,361.119995
1177.056030,1674.816040,406.015991
1192.671997,1610.400024,368.928009
1180.959961,1424.959961,290.847992
1147.776001,1079.456055,206.912003
1114.592041,732.000000,122.975998
1079.456055,429.440002,35.136002
1057.984009,185.440002,17.568001
1098.975952,156.160004,11.712000
1124.352051,298.656006,56.608002
1134.112061,394.303986,95.648003
1097.024048,406.015991,111.264000
1065.791992,394.303986,72.223999
1032.608032,359.167999,3.904000
999.424011,347.455994,-72.223999
991.616028,353.312012,-103.456001
1007.231995,339.648010,-103.456001
1030.656006,300.608002,-56.608002
1065.791992,275.231995,-23.424000
1081.407959,193.248001,23.424000
1112.640015,117.120003,66.367996
1141.920044,68.320000,97.599998
1132.160034,-21.472000,81.984001
1165.343994,9.760000,91.744003
1136.063965,40.992001,85.888000
1143.871948,50.751999,91.744003
1134.112061,115.167999,70.272003
1106.784058,156.160004,56.608002
1083.359985,240.095993,37.088001
1073.599976,300.608002,50.751999
1079.456055,376.735992,62.464001
1093.119995,400.160004,81.984001
1118.495972,382.592010,80.031998
1128.255981,333.791992,95.648003
1145.823975,267.424011,134.688004
1149.728027,208.863998,132.735992
1149.728027,162.016006,122.975998
1134.112061,130.783997,107.360001
1128.255981,95.648003,89.792000
1149.728027,78.080002,54.655998
1122.400024,68.320000,56.608002
1110.687988,60.512001,74.176003
1108.735962,64.416000,80.031998
1100.927979,91.744003,87.839996
1104.832031,99.552002,78.080002
1001.375977,142.496002,85.888000
1145.823975,228.384003,37.088001
1389.823975,160.063995,13.664000
1440.576050,33.183998,68.320000
1300.031982,37.088001,142.496002
1173.151978,62.464001,216.671997
1102.880005,89.792000,249.856003
1022.848022,101.503998,242.048004
966.239990,152.255997,160.063995
903.776001,181.535995,58.560001
899.872009,115.167999,0.000000
954.528015,-21.472000,-9.760000
1007.231995,-101.503998,27.327999
1038.463989,-70.272003,39.040001
1050.176025,119.071999,-1.952000
1089.215942,329.888000,-39.040001
1106.784058,409.920013,-7.808000
1091.167969,415.776001,44.896000
1065.791992,421.631989,91.744003
1071.647949,452.864014,128.832001
1102.880005,423.584015,179.584000
1095.072021,372.832001,189.343994
1057.984009,294.752014,156.160004
1057.984009,203.007996,124.928001
1069.696045,150.304001,85.888000
1067.744019,111.264000,52.703999
1069.696045,107.360001,23.424000
1050.176025,150.304001,0.000000
1024.800049,162.016006,-13.664000
1011.135986,171.776001,-48.799999
1011.135986,187.391998,-48.799999
1009.184021,230.335999,-42.944000
997.471985,279.135986,-50.751999
997.471985,298.656006,-60.512001
1005.280029,292.799988,-60.512001
1003.328003,273.279999,-64.416000
1016.992004,283.040009,-74.176003
1015.039978,290.847992,-68.320000
1011.135986,296.704010,-72.223999
1003.328003,322.079987,-85.888000
995.520020,288.895996,-58.560001
991.616028,263.519989,-74.176003
981.856018,263.519989,-111.264000
966.239990,267.424011,-132.735992
954.528015,226.432007,-122.975998
940.864014,226.432007,-126.879997
944.768005,234.240005,-134.688004
940.864014,294.752014,-169.824005
954.528015,327.936005,-167.871994
970.143982,333.791992,-136.639999
968.192017,355.264008,-93.695999
979.903992,363.071991,-91.744003
999.424011,374.783997,-119.071999
972.096008,294.752014,-138.591995
954.528015,66.367996,-107.360001
897.919983,-204.960007,-132.735992
813.984009,-423.584015,-193.248001
747.616028,-413.824005,-296.704010
741.760010,-226.432007,-382.592010
784.703979,-23.424000,-370.880005
886.208008,128.832001,-283.040009
985.760010,185.440002,-121.024002
1081.407959,253.759995,1.952000
1225.855957,210.815994,39.040001
1097.024048,218.623993,81.984001
1138.015991,659.776001,15.616000
1223.904053,1128.255981,5.856000
1253.183960,1337.119995,97.599998
1235.615967,1339.072021,234.240005
1198.527954,1237.567993,308.415985
1204.384033,1081.407959,310.368011
1208.287964,901.823975,286.944000
1182.911987,671.487976,255.712006
1151.680054,460.671997,208.863998
1139.968018,331.839996,154.207993
1110.687988,322.079987,68.320000
1063.839966,355.264008,-3.904000
1038.463989,372.832001,-78.080002
1038.463989,445.056000,-111.264000
1015.039978,509.471985,-101.503998
1065.791992,441.152008,-3.904000
1057.984009,302.559998,107.360001
1087.264038,197.151993,122.975998
1110.687988,257.664001,95.648003
1130.208008,325.984009,31.232000
1141.920044,333.791992,56.608002
1063.839966,503.615997,162.016006
1040.416016,489.951996,232.287994
948.671997,427.488007,169.824005
931.104004,433.343994,19.520000
987.711975,263.519989,-58.560001
1005.280029,40.992001,-39.040001
1108.735962,-40.992001,-7.808000
1177.056030,-93.695999,66.367996
1184.864014,-109.311996,142.496002
1169.248047,-31.232000,146.399994
1151.680054,87.839996,91.744003
1134.112061,226.432007,33.183998
1124.352051,-573.888000,37.088001
886.208008,-4846.815918,-113.216003
843.263977,1321.504028,-802.271973
716.383972,-261.567993,-226.432007
964.288025,-210.815994,222.528000
1028.703979,1243.423950,308.415985
1030.656006,206.912003,286.944000
1190.719971,169.824005,197.151993
1262.943970,-163.968002,277.183990
1298.079956,85.888000,277.183990
1268.800049,601.216003,333.791992
1298.079956,648.064026,361.119995
1276.608032,665.632019,298.656006
1218.047974,392.351990,195.199997
1194.624023,218.623993,99.552002
1182.911987,197.151993,109.311996
1180.959961,296.704010,171.776001
1196.576050,294.752014,255.712006
1202.432007,329.888000,267.424011
1227.807983,290.847992,222.528000
1223.904053,269.376007,185.440002
1204.384033,286.944000,208.863998
1161.439941,365.023987,216.671997
1188.767944,419.679993,197.151993
1182.911987,448.959991,187.391998
1233.663940,452.864014,183.488007
1231.712036,478.239990,185.440002
1239.520020,454.816010,193.248001
1251.232056,415.776001,203.007996
1257.088013,390.399994,208.863998
1233.663940,382.592010,210.815994
1235.615967,343.552002,203.007996
1221.952026,300.608002,173.727997
1204.384033,288.895996,152.255997
1227.807983,271.328003,163.968002
1227.807983,261.567993,148.352005
1221.952026,279.135986,140.544006
1235.615967,267.424011,122.975998
1220.000000,253.759995,101.503998
1182.911987,230.335999,83.935997
1159.488037,203.007996,27.327999
1134.112061,193.248001,-19.520000
1126.303955,197.151993,-37.088001
1145.823975,199.104004,-48.799999
1139.968018,208.863998,-60.512001
1108.735962,189.343994,-76.127998
1106.784058,189.343994,-85.888000
1114.592041,191.296005,-101.503998
1100.927979,179.584000,-99.552002
1071.647949,171.776001,-97.599998
1075.552002,150.304001,-103.456001
1048.223999,113.216003,-124.928001
1063.839966,122.975998,-144.447998
1071.647949,113.216003,-134.688004
1063.839966,146.399994,-144.447998
1069.696045,160.063995,-142.496002
1095.072021,191.296005,-154.207993
1108.735962,257.664001,-148.352005
1134.112061,292.799988,-124.928001
1134.112061,306.463989,-121.024002
1155.583984,281.088013,-107.360001
1157.536011,257.664001,-111.264000
1171.199951,224.479996,-87.839996
1163.391968,204.960007,-68.320000
1194.624023,224.479996,-85.888000
1196.576050,181.535995,-72.223999
1239.520020,208.863998,-62.464001
1216.095947,206.912003,-29.280001
1190.719971,240.095993,-15.616000
1182.911987,226.432007,-29.280001
1184.864014,212.768005,-50.751999
1196.576050,167.871994,-29.280001
1194.624023,138.591995,-13.664000
1200.479980,128.832001,-1.952000
1210.239990,130.783997,5.856000
1208.287964,162.016006,37.088001
1210.239990,208.863998,39.040001
1204.384033,199.104004,27.327999
1214.144043,203.007996,5.856000
1196.576050,187.391998,-7.808000
1167.296021,148.352005,-11.712000
1180.959961,128.832001,-5.856000
1196.576050,126.879997,-13.664000
1186.816040,132.735992,-11.712000
1180.959961,142.496002,-7.808000
1194.624023,163.968002,-7.808000
1186.816040,169.824005,-7.808000
1190.719971,169.824005,-11.712000
1180.959961,165.919998,-13.664000
1182.911987,154.207993,-27.327999
1163.391968,138.591995,-44.896000
1169.248047,148.352005,-42.944000
1143.871948,128.832001,-35.136002
1159.488037,144.447998,-50.751999
1145.823975,126.879997,-37.088001
1157.536011,144.447998,-44.896000
1139.968018,128.832001,-48.799999
1132.160034,160.063995,-50.751999
1147.776001,152.255997,-66.367996
1112.640015,150.304001,-64.416000
1120.447998,154.207993,-76.127998
1089.215942,140.544006,-68.320000
1110.687988,154.207993,-78.080002
1104.832031,138.591995,-83.935997
1110.687988,132.735992,-91.744003
1108.735962,138.591995,-85.888000
1118.495972,160.063995,-87.839996
1091.167969,158.112000,-85.888000
1075.552002,154.207993,-99.552002
1095.072021,150.304001,-105.407997
1095.072021,134.688004,-99.552002
1091.167969,144.447998,-97.599998
1073.599976,138.591995,-89.792000
1067.744019,132.735992,-99.552002
1065.791992,121.024002,-99.552002
1071.647949,121.024002,-99.552002
1083.359985,142.496002,-105.407997
1093.119995,140.544006,-103.456001
1095.072021,144.447998,-101.503998
1095.072021,160.063995,-105.407997
1085.312012,142.496002,-91.744003
1087.264038,138.591995,-101.503998
1081.407959,136.639999,-107.360001
1083.359985,140.544006,-101.503998
1095.072021,117.120003,-93.695999
1093.119995,136.639999,-74.176003
1095.072021,140.544006,-78.080002
1081.407959,128.832001,-74.176003
1087.264038,115.167999,-91.744003
1095.072021,126.879997,-91.744003
1091.167969,134.688004,-93.695999
1095.072021,134.688004,-83.935997
1077.504028,132.735992,-80.031998
1083.359985,130.783997,-76.127998
1089.215942,115.167999,-83.935997
1095.072021,119.071999,-83.935997
1085.312012,113.216003,-87.839996
1075.552002,130.783997,-91.744003
1077.504028,117.120003,-85.888000
1081.407959,95.648003,-87.839996
1085.312012,89.792000,-97.599998
1081.407959,105.407997,-89.792000
1089.215942,121.024002,-89.792000
1075.552002,107.360001,-80.031998
1089.215942,115.167999,-89.792000
1061.887939,95.648003,-95.648003
1061.887939,91.744003,-101.503998
1075.552002,103.456001,-93.695999
1073.599976,115.167999,-115.167999
1061.887939,95.648003,-119.071999
1061.887939,97.599998,-109.311996
1057.984009,101.503998,-99.552002
1069.696045,85.888000,-93.695999
1067.744019,76.127998,-97.599998
1057.984009,78.080002,-103.456001
1061.887939,81.984001,-111.264000
1067.744019,80.031998,-107.360001
1054.079956,85.888000,-107.360001
1054.079956,83.935997,-124.928001
1071.647949,93.695999,-134.688004
1042.368042,101.503998,-113.216003
1026.751953,101.503998,-126.879997
1046.271973,62.464001,-134.688004
1032.608032,66.367996,-126.879997
1040.416016,62.464001,-128.832001
1052.128052,50.751999,-134.688004
1048.223999,54.655998,-122.975998
1054.079956,66.367996,-134.688004
1052.128052,81.984001,-140.544006
1050.176025,70.272003,-138.591995
1044.319946,80.031998,-148.352005
1052.128052,97.599998,-146.399994
1052.128052,87.839996,-138.591995
1056.031982,72.223999,-134.688004
1073.599976,70.272003,-132.735992
1067.744019,46.848000,-128.832001
1071.647949,54.655998,-122.975998
1073.599976,70.272003,-122.975998
1071.647949,72.223999,-117.120003
1077.504028,54.655998,-122.975998
1081.407959,58.560001,-134.688004
1083.359985,81.984001,-126.879997
1085.312012,72.223999,-115.167999
1097.024048,78.080002,-115.167999
1093.119995,64.416000,-111.264000
1097.024048,76.127998,-111.264000
1091.167969,60.512001,-105.407997
1097.024048,60.512001,-107.360001
1106.784058,42.944000,-121.024002
1095.072021,66.367996,-101.503998
1110.687988,85.888000,-99.552002
1104.832031,74.176003,-101.503998
1097.024048,62.464001,-111.264000
1097.024048,54.655998,-113.216003
1110.687988,72.223999,-97.599998
1118.495972,54.655998,-83.935997
1106.784058,48.799999,-101.503998
1102.880005,44.896000,-101.503998
1114.592041,60.512001,-101.503998
1108.735962,50.751999,-105.407997
1106.784058,66.367996,-97.599998
1108.735962,64.416000,-101.503998
1106.784058,62.464001,-93.695999
1108.735962,54.655998,-85.888000
1112.640015,40.992001,-93.695999
1120.447998,40.992001,-95.648003
1118.495972,46.848000,-91.744003
1112.640015,64.416000,-87.839996
1110.687988,70.272003,-81.984001
1116.543945,62.464001,-87.839996
1110.687988,56.608002,-95.648003
1102.880005,58.560001,-103.456001
1098.975952,39.040001,-97.599998
1114.592041,39.040001,-101.503998
1114.592041,52.703999,-87.839996
1102.880005,46.848000,-83.935997
1095.072021,64.416000,-83.935997
1089.215942,58.560001,-91.744003
1087.264038,64.416000,-91.744003
1091.167969,54.655998,-87.839996
1093.119995,58.560001,-87.839996
1091.167969,42.944000,-95.648003
1091.167969,54.655998,-105.407997
1087.264038,46.848000,-97.599998
1093.119995,54.655998,-85.888000
1087.264038,58.560001,-85.888000
1073.599976,48.799999,-101.503998
1069.696045,40.992001,-124.928001
1075.552002,37.088001,-117.120003
1077.504028,64.416000,-101.503998
1073.599976,50.751999,-91.744003
1081.407959,50.751999,-97.599998
1063.839966,37.088001,-113.216003
1061.887939,42.944000,-107.360001
1054.079956,37.088001,-107.360001
1063.839966,35.136002,-113.216003
1061.887939,37.088001,-113.216003
1057.984009,37.088001,-101.503998
1057.984009,48.799999,-93.695999
1040.416016,19.520000,-99.552002
1056.031982,40.992001,-99.552002
1040.416016,27.327999,-93.695999
1056.031982,44.896000,-97.599998
1036.511963,19.520000,-89.792000
1067.744019,48.799999,-99.552002
1028.703979,25.375999,-89.792000
1032.608032,27.327999,-93.695999
1038.463989,17.568001,-103.456001
1028.703979,31.232000,-97.599998
1026.751953,37.088001,-95.648003
1016.992004,19.520000,-99.552002
1024.800049,27.327999,-91.744003
1015.039978,29.280001,-97.599998
1015.039978,25.375999,-85.888000
993.567993,25.375999,-103.456001
993.567993,7.808000,-124.928001
1001.375977,9.760000,-124.928001
997.471985,1.952000,-109.311996
983.807983,17.568001,-119.071999
972.096008,7.808000,-128.832001
1003.328003,7.808000,-138.591995
995.520020,7.808000,-124.928001
983.807983,23.424000,-119.071999
977.952026,33.183998,-138.591995
958.432007,27.327999,-154.207993
954.528015,31.232000,-162.016006
962.335999,13.664000,-142.496002
977.952026,15.616000,-124.928001
977.952026,7.808000,-119.071999
976.000000,31.232000,-117.120003
974.047974,21.472000,-124.928001
981.856018,29.280001,-122.975998
966.239990,52.703999,-124.928001
933.056030,58.560001,-134.688004
944.768005,52.703999,-136.639999
960.383972,35.136002,-119.071999
956.479980,39.040001,-105.407997
979.903992,17.568001,-103.456001
979.903992,3.904000,-105.407997
952.575989,27.327999,-97.599998
952.575989,46.848000,-103.456001
942.815979,60.512001,-109.311996
936.960022,58.560001,-109.311996
946.719971,60.512001,-121.024002
956.479980,58.560001,-111.264000
954.528015,46.848000,-83.935997
952.575989,54.655998,-91.744003
944.768005,54.655998,-95.648003
952.575989,37.088001,-117.120003
946.719971,56.608002,-117.120003
938.911987,85.888000,-115.167999
919.392029,76.127998,-119.071999
915.487976,68.320000,-119.071999
919.392029,72.223999,-115.167999
923.296021,58.560001,-122.975998
917.440002,58.560001,-132.735992
909.632019,66.367996,-122.975998
913.536011,83.935997,-148.352005
901.823975,70.272003,-150.304001
878.400024,81.984001,-156.160004
880.351990,83.935997,-173.727997
880.351990,87.839996,-177.632004
884.255981,97.599998,-175.679993
880.351990,107.360001,-181.535995
874.495972,89.792000,-193.248001
892.064026,80.031998,-191.296005
878.400024,91.744003,-191.296005
892.064026,103.456001,-189.343994
884.255981,93.695999,-199.104004
892.064026,97.599998,-203.007996
895.968018,107.360001,-206.912003
907.679993,128.832001,-185.440002
897.919983,122.975998,-183.488007
899.872009,122.975998,-177.632004
901.823975,113.216003,-183.488007
901.823975,130.783997,-171.776001
915.487976,130.783997,-162.016006
903.776001,138.591995,-154.207993
915.487976,134.688004,-152.255997
915.487976,140.544006,-142.496002
927.200012,140.544006,-142.496002
942.815979,140.544006,-130.783997
933.056030,138.591995,-136.639999
935.007996,136.639999,-126.879997
938.911987,134.688004,-115.167999
938.911987,138.591995,-117.120003
948.671997,140.544006,-122.975998
958.432007,140.544006,-121.024002
968.192017,156.160004,-107.360001
958.432007,160.063995,-103.456001
956.479980,150.304001,-103.456001
954.528015,142.496002,-115.167999
948.671997,136.639999,-115.167999
966.239990,138.591995,-105.407997
956.479980,130.783997,-93.695999
977.952026,122.975998,-97.599998
974.047974,111.264000,-97.599998
977.952026,117.120003,-91.744003
981.856018,132.735992,-101.503998
968.192017,144.447998,-111.264000
966.239990,140.544006,-126.879997
956.479980,128.832001,-128.832001
962.335999,128.832001,-130.783997
962.335999,115.167999,-124.928001
976.000000,105.407997,-121.024002
979.903992,111.264000,-121.024002
974.047974,95.648003,-119.071999
968.192017,93.695999,-132.735992
962.335999,101.503998,-134.688004
964.288025,111.264000,-138.591995
964.288025,99.552002,-142.496002
972.096008,97.599998,-144.447998
976.000000,87.839996,-144.447998
964.288025,93.695999,-134.688004
964.288025,89.792000,-126.879997
966.239990,76.127998,-126.879997
964.288025,74.176003,-130.783997
970.143982,78.080002,-136.639999
976.000000,87.839996,-138.591995
972.096008,91.744003,-126.879997
989.664001,83.935997,-115.167999
989.664001,81.984001,-117.120003
985.760010,68.320000,-121.024002
977.952026,72.223999,-121.024002
989.664001,64.416000,-122.975998
993.567993,62.464001,-128.832001
995.520020,54.655998,-122.975998
991.616028,62.464001,-119.071999
991.616028,54.655998,-121.024002
999.424011,58.560001,-119.071999
1001.375977,58.560001,-122.975998
1005.280029,50.751999,-119.071999
1016.992004,50.751999,-126.879997
1013.088013,50.751999,-126.879997
997.471985,46.848000,-124.928001
1005.280029,39.040001,-132.735992
999.424011,31.232000,-128.832001
1003.328003,37.088001,-122.975998
1009.184021,39.040001,-132.735992
1003.328003,35.136002,-132.735992
1009.184021,35.136002,-132.735992
1005.280029,15.616000,-124.928001
1009.184021,21.472000,-136.639999
1009.184021,7.808000,-128.832001
1001.375977,19.520000,-130.783997
1005.280029,15.616000,-130.783997
1001.375977,7.808000,-140.544006
1001.375977,11.712000,-142.496002
1001.375977,9.760000,-142.496002
999.424011,21.472000,-132.735992
995.520020,3.904000,-128.832001
995.520020,7.808000,-136.639999
989.664001,-9.760000,-146.399994
993.567993,-7.808000,-144.447998
985.760010,-5.856000,-140.544006
979.903992,-11.712000,-140.544006
977.952026,-17.568001,-142.496002
983.807983,-15.616000,-146.399994
977.952026,-29.280001,-144.447998
979.903992,-29.280001,-144.447998
976.000000,-31.232000,-152.255997
983.807983,-25.375999,-138.591995
972.096008,-21.472000,-134.688004
966.239990,-27.327999,-130.783997
964.288025,-23.424000,-138.591995
962.335999,-35.136002,-140.544006
954.528015,-31.232000,-134.688004
960.383972,-40.992001,-132.735992
958.432007,-48.799999,-136.639999
954.528015,-48.799999,-126.879997
948.671997,-54.655998,-122.975998
936.960022,-54.655998,-121.024002
931.104004,-39.040001,-122.975998
927.200012,-58.560001,-132.735992
923.296021,-64.416000,-138.591995
921.343994,-62.464001,-136.639999
905.728027,-60.512001,-126.879997
897.919983,-68.320000,-126.879997
899.872009,-78.080002,-126.879997
903.776001,-58.560001,-136.639999
903.776001,-68.320000,-132.735992
895.968018,-70.272003,-132.735992
888.159973,-64.416000,-132.735992
880.351990,-68.320000,-138.591995
874.495972,-72.223999,-148.352005
858.880005,-76.127998,-148.352005
872.544006,-74.176003,-144.447998
864.736023,-80.031998,-144.447998
866.687988,-52.703999,-160.063995
847.168030,-78.080002,-154.207993
864.736023,-74.176003,-158.112000
854.976013,-93.695999,-158.112000
851.072021,-83.935997,-165.919998
841.312012,-83.935997,-163.968002
839.359985,-80.031998,-169.824005
843.263977,-76.127998,-165.919998
845.216003,-80.031998,-165.919998
835.455994,-83.935997,-162.016006
837.408020,-64.416000,-163.968002
829.599976,-64.416000,-165.919998
821.791992,-68.320000,-167.871994
827.648010,-66.367996,-160.063995
837.408020,-76.127998,-163.968002
835.455994,-66.367996,-163.968002
831.552002,-70.272003,-167.871994
827.648010,-70.272003,-154.207993
819.840027,-66.367996,-150.304001
819.840027,-54.655998,-152.255997
810.080017,-52.703999,-167.871994
806.176025,-48.799999,-169.824005
804.223999,-52.703999,-167.871994
819.840027,-54.655998,-163.968002
813.984009,-64.416000,-160.063995
808.127991,-60.512001,-154.207993
806.176025,-52.703999,-150.304001
798.367981,-56.608002,-163.968002
792.512024,-60.512001,-175.679993
794.463989,-52.703999,-171.776001
794.463989,-37.088001,-181.535995
790.559998,-29.280001,-169.824005
792.512024,-29.280001,-179.584000
786.656006,-37.088001,-169.824005
786.656006,-42.944000,-189.343994
774.943970,-52.703999,-191.296005
772.992004,-25.375999,-199.104004
776.895996,-19.520000,-206.912003
776.895996,-15.616000,-212.768005
774.943970,-5.856000,-212.768005
778.848022,3.904000,-224.479996
767.135986,-1.952000,-236.192001
767.135986,-7.808000,-234.240005
757.375977,1.952000,-230.335999
774.943970,21.472000,-230.335999
778.848022,15.616000,-244.000000
776.895996,15.616000,-249.856003
780.799988,25.375999,-240.095993
778.848022,27.327999,-245.951996
780.799988,44.896000,-249.856003
786.656006,42.944000,-244.000000
788.607971,56.608002,-240.095993
798.367981,40.992001,-242.048004
796.416016,50.751999,-240.095993
812.031982,50.751999,-236.192001
812.031982,64.416000,-226.432007
823.744019,78.080002,-228.384003
823.744019,66.367996,-220.576004
823.744019,78.080002,-214.720001
829.599976,76.127998,-222.528000
