ACC_X,ACC_Y,ACC_Z
571.935974,409.920013,698.815979
575.840027,407.967987,700.768005
573.888000,407.967987,700.768005
583.648010,411.872009,704.671997
581.695984,407.967987,692.960022
571.935974,396.256012,702.719971
573.888000,402.112000,702.719971
573.888000,402.112000,698.815979
571.935974,404.063995,704.671997
569.984009,402.112000,694.911987
569.984009,402.112000,694.911987
575.840027,402.112000,704.671997
571.935974,406.015991,712.479980
571.935974,406.015991,706.624023
568.031982,413.824005,708.575989
575.840027,409.920013,702.719971
566.080017,409.920013,704.671997
569.984009,406.015991,710.528015
573.888000,411.872009,710.528015
569.984009,394.303986,710.528015
569.984009,406.015991,710.528015
564.127991,407.967987,710.528015
569.984009,404.063995,716.383972
568.031982,400.160004,708.575989
568.031982,400.160004,708.575989
569.984009,402.112000,704.671997
575.840027,404.063995,706.624023
573.888000,402.112000,696.864014
566.080017,390.399994,696.864014
571.935974,396.256012,696.864014
568.031982,394.303986,696.864014
569.984009,400.160004,683.200012
566.080017,400.160004,685.151978
560.223999,396.256012,681.247986
556.320007,402.112000,677.343994
566.080017,404.063995,677.343994
569.984009,394.303986,679.296021
571.935974,400.160004,685.151978
569.984009,402.112000,671.487976
564.127991,398.208008,685.151978
566.080017,398.208008,679.296021
569.984009,404.063995,681.247986
569.984009,386.496002,691.007996
575.840027,394.303986,692.960022
579.744019,400.160004,694.911987
569.984009,400.160004,687.104004
566.080017,400.160004,683.200012
564.127991,404.063995,691.007996
566.080017,404.063995,687.104004
571.935974,406.015991,683.200012
571.935974,406.015991,687.104004
571.935974,407.967987,681.247986
571.935974,404.063995,685.151978
571.935974,406.015991,687.104004
573.888000,406.015991,685.151978
575.840027,409.920013,696.864014
569.984009,406.015991,685.151978
583.648010,404.063995,689.056030
569.984009,407.967987,694.911987
571.935974,407.967987,696.864014
583.648010,406.015991,692.960022
587.552002,409.920013,692.960022
571.935974,409.920013,689.056030
575.840027,411.872009,691.007996
573.888000,409.920013,692.960022
583.648010,415.776001,694.911987
583.648010,407.967987,691.007996
581.695984,411.872009,687.104004
569.984009,411.872009,689.056030
575.840027,419.679993,694.911987
583.648010,423.584015,704.671997
581.695984,423.584015,689.056030
581.695984,431.391998,704.671997
573.888000,431.391998,694.911987
579.744019,429.440002,698.815979
575.840027,431.391998,692.960022
577.791992,425.536011,687.104004
575.840027,427.488007,696.864014
579.744019,439.200012,691.007996
583.648010,427.488007,689.056030
583.648010,435.295990,687.104004
577.791992,417.727997,696.864014
577.791992,421.631989,696.864014
569.984009,419.679993,700.768005
569.984009,423.584015,689.056030
573.888000,425.536011,683.200012
573.888000,435.295990,692.960022
569.984009,429.440002,694.911987
577.791992,427.488007,689.056030
571.935974,437.247986,687.104004
583.648010,435.295990,683.200012
577.791992,435.295990,691.007996
577.791992,431.391998,687.104004
579.744019,423.584015,683.200012
575.840027,435.295990,689.056030
577.791992,437.247986,685.151978
573.888000,450.911987,677.343994
571.935974,437.247986,679.296021
583.648010,441.152008,671.487976
573.888000,439.200012,677.343994
583.648010,429.440002,679.296021
571.935974,435.295990,681.247986
571.935974,437.247986,681.247986
573.888000,437.247986,681.247986
573.888000,431.391998,675.392029
568.031982,437.247986,685.151978
571.935974,435.295990,673.440002
571.935974,439.200012,675.392029
571.935974,439.200012,675.392029
562.176025,437.247986,679.296021
571.935974,447.007996,671.487976
569.984009,441.152008,677.343994
566.080017,443.104004,681.247986
568.031982,445.056000,683.200012
566.080017,443.104004,679.296021
571.935974,450.911987,677.343994
562.176025,448.959991,667.583984
571.935974,445.056000,665.632019
568.031982,450.911987,675.392029
571.935974,450.911987,677.343994
568.031982,445.056000,675.392029
569.984009,441.152008,675.392029
568.031982,452.864014,681.247986
569.984009,454.816010,679.296021
568.031982,454.816010,687.104004
566.080017,450.911987,679.296021
562.176025,448.959991,681.247986
568.031982,448.959991,679.296021
573.888000,443.104004,669.536011
575.840027,443.104004,681.247986
568.031982,454.816010,685.151978
575.840027,456.768005,679.296021
573.888000,456.768005,683.200012
566.080017,458.720001,679.296021
569.984009,454.816010,685.151978
575.840027,460.671997,681.247986
583.648010,464.575989,677.343994
575.840027,456.768005,683.200012
575.840027,458.720001,681.247986
575.840027,456.768005,681.247986
577.791992,458.720001,691.007996
585.599976,466.528015,685.151978
577.791992,456.768005,685.151978
579.744019,452.864014,689.056030
587.552002,452.864014,687.104004
587.552002,452.864014,683.200012
581.695984,458.720001,689.056030
577.791992,462.623993,694.911987
581.695984,456.768005,691.007996
589.504028,460.671997,689.056030
587.552002,458.720001,691.007996
579.744019,456.768005,696.864014
591.455994,452.864014,685.151978
591.455994,452.864014,689.056030
587.552002,456.768005,696.864014
577.791992,456.768005,683.200012
587.552002,454.816010,691.007996
593.408020,456.768005,694.911987
599.263977,464.575989,691.007996
591.455994,470.432007,683.200012
599.263977,460.671997,694.911987
587.552002,470.432007,687.104004
597.312012,466.528015,692.960022
583.648010,454.816010,698.815979
593.408020,456.768005,689.056030
589.504028,460.671997,683.200012
595.359985,466.528015,685.151978
589.504028,458.720001,689.056030
595.359985,462.623993,691.007996
597.312012,456.768005,683.200012
601.216003,462.623993,692.960022
597.312012,454.816010,691.007996
593.408020,452.864014,681.247986
601.216003,447.007996,689.056030
593.408020,456.768005,679.296021
593.408020,452.864014,687.104004
599.263977,454.816010,679.296021
593.408020,452.864014,689.056030
601.216003,454.816010,689.056030
597.312012,456.768005,685.151978
597.312012,454.816010,681.247986
597.312012,452.864014,671.487976
595.359985,458.720001,685.151978
603.168030,456.768005,681.247986
599.263977,452.864014,685.151978
597.312012,454.816010,681.247986
603.168030,448.959991,679.296021
601.216003,448.959991,679.296021
599.263977,445.056000,683.200012
597.312012,458.720001,677.343994
597.312012,445.056000,696.864014
601.216003,443.104004,679.296021
599.263977,445.056000,685.151978
593.408020,448.959991,696.864014
599.263977,443.104004,691.007996
597.312012,454.816010,683.200012
599.263977,454.816010,683.200012
599.263977,452.864014,689.056030
603.168030,456.768005,692.960022
601.216003,456.768005,679.296021
595.359985,454.816010,692.960022
607.072021,448.959991,685.151978
603.168030,456.768005,687.104004
603.168030,452.864014,691.007996
601.216003,448.959991,689.056030
603.168030,450.911987,696.864014
601.216003,445.056000,679.296021
607.072021,462.623993,683.200012
603.168030,454.816010,685.151978
599.263977,448.959991,689.056030
601.216003,448.959991,689.056030
612.927979,452.864014,692.960022
609.023987,454.816010,685.151978
605.119995,454.816010,685.151978
601.216003,454.816010,683.200012
607.072021,456.768005,692.960022
605.119995,454.816010,687.104004
609.023987,462.623993,685.151978
607.072021,456.768005,687.104004
612.927979,454.816010,691.007996
607.072021,460.671997,691.007996
601.216003,454.816010,683.200012
609.023987,470.432007,689.056030
607.072021,460.671997,683.200012
605.119995,460.671997,698.815979
605.119995,468.480011,691.007996
601.216003,460.671997,694.911987
607.072021,466.528015,698.815979
607.072021,452.864014,696.864014
607.072021,468.480011,692.960022
607.072021,450.911987,691.007996
603.168030,466.528015,685.151978
609.023987,458.720001,691.007996
605.119995,462.623993,687.104004
607.072021,456.768005,687.104004
603.168030,466.528015,687.104004
597.312012,458.720001,683.200012
603.168030,462.623993,681.247986
607.072021,460.671997,694.911987
610.976013,462.623993,702.719971
605.119995,470.432007,694.911987
610.976013,472.384003,692.960022
601.216003,470.432007,698.815979
599.263977,456.768005,700.768005
601.216003,460.671997,698.815979
612.927979,464.575989,698.815979
601.216003,464.575989,698.815979
603.168030,452.864014,696.864014
601.216003,472.384003,692.960022
601.216003,458.720001,698.815979
597.312012,452.864014,694.911987
601.216003,470.432007,696.864014
603.168030,470.432007,698.815979
599.263977,464.575989,700.768005
599.263977,466.528015,694.911987
601.216003,460.671997,691.007996
593.408020,452.864014,692.960022
591.455994,472.384003,691.007996
589.504028,460.671997,691.007996
597.312012,464.575989,689.056030
591.455994,462.623993,689.056030
593.408020,464.575989,691.007996
593.408020,472.384003,687.104004
595.359985,460.671997,689.056030
593.408020,462.623993,696.864014
587.552002,466.528015,691.007996
597.312012,468.480011,692.960022
593.408020,466.528015,696.864014
593.408020,468.480011,696.864014
589.504028,468.480011,694.911987
597.312012,468.480011,694.911987
593.408020,460.671997,694.911987
593.408020,468.480011,691.007996
587.552002,466.528015,698.815979
587.552002,464.575989,694.911987
591.455994,470.432007,687.104004
591.455994,460.671997,683.200012
589.504028,462.623993,689.056030
589.504028,456.768005,689.056030
589.504028,460.671997,689.056030
583.648010,470.432007,689.056030
581.695984,468.480011,689.056030
585.599976,464.575989,691.007996
587.552002,472.384003,681.247986
581.695984,462.623993,677.343994
581.695984,468.480011,685.151978
579.744019,462.623993,692.960022
583.648010,464.575989,689.056030
575.840027,456.768005,683.200012
579.744019,460.671997,694.911987
577.791992,456.768005,685.151978
577.791992,462.623993,681.247986
579.744019,462.623993,691.007996
583.648010,464.575989,685.151978
571.935974,456.768005,685.151978
581.695984,448.959991,689.056030
579.744019,456.768005,687.104004
575.840027,462.623993,683.200012
579.744019,452.864014,687.104004
569.984009,454.816010,683.200012
577.791992,456.768005,681.247986
571.935974,454.816010,681.247986
577.791992,448.959991,677.343994
569.984009,458.720001,675.392029
569.984009,448.959991,689.056030
575.840027,454.816010,687.104004
573.888000,445.056000,685.151978
579.744019,450.911987,683.200012
571.935974,454.816010,683.200012
575.840027,454.816010,685.151978
585.599976,458.720001,679.296021
575.840027,458.720001,694.911987
583.648010,456.768005,692.960022
577.791992,450.911987,696.864014
575.840027,450.911987,696.864014
571.935974,452.864014,691.007996
575.840027,450.911987,691.007996
575.840027,456.768005,689.056030
575.840027,448.959991,689.056030
575.840027,450.911987,696.864014
575.840027,448.959991,691.007996
573.888000,445.056000,687.104004
577.791992,450.911987,692.960022
573.888000,456.768005,692.960022
575.840027,452.864014,687.104004
575.840027,447.007996,691.007996
571.935974,448.959991,696.864014
571.935974,447.007996,696.864014
571.935974,447.007996,691.007996
577.791992,454.816010,683.200012
573.888000,456.768005,692.960022
577.791992,450.911987,691.007996
562.176025,447.007996,683.200012
569.984009,445.056000,683.200012
571.935974,437.247986,681.247986
571.935974,441.152008,691.007996
577.791992,443.104004,692.960022
568.031982,448.959991,685.151978
566.080017,460.671997,692.960022
575.840027,448.959991,685.151978
579.744019,448.959991,696.864014
579.744019,445.056000,689.056030
577.791992,437.247986,692.960022
581.695984,441.152008,692.960022
575.840027,450.911987,696.864014
581.695984,448.959991,691.007996
579.744019,437.247986,691.007996
585.599976,443.104004,694.911987
579.744019,448.959991,692.960022
577.791992,447.007996,696.864014
569.984009,445.056000,696.864014
579.744019,447.007996,689.056030
573.888000,441.152008,696.864014
583.648010,445.056000,696.864014
581.695984,443.104004,689.056030
585.599976,445.056000,700.768005
583.648010,448.959991,700.768005
579.744019,447.007996,692.960022
581.695984,447.007996,692.960022
583.648010,448.959991,694.911987
579.744019,445.056000,691.007996
577.791992,456.768005,689.056030
573.888000,445.056000,691.007996
575.840027,448.959991,696.864014
571.935974,450.911987,696.864014
577.791992,452.864014,696.864014
577.791992,447.007996,691.007996
571.935974,437.247986,687.104004
571.935974,441.152008,691.007996
577.791992,445.056000,689.056030
579.744019,445.056000,679.296021
569.984009,443.104004,679.296021
571.935974,445.056000,685.151978
566.080017,448.959991,696.864014
571.935974,448.959991,691.007996
568.031982,447.007996,689.056030
569.984009,448.959991,683.200012
569.984009,443.104004,683.200012
575.840027,448.959991,689.056030
569.984009,445.056000,687.104004
571.935974,450.911987,694.911987
573.888000,447.007996,696.864014
566.080017,441.152008,691.007996
569.984009,450.911987,679.296021
573.888000,443.104004,687.104004
562.176025,445.056000,692.960022
573.888000,450.911987,683.200012
568.031982,443.104004,689.056030
560.223999,447.007996,681.247986
571.935974,435.295990,692.960022
564.127991,439.200012,689.056030
564.127991,443.104004,685.151978
562.176025,452.864014,681.247986
568.031982,450.911987,687.104004
568.031982,447.007996,681.247986
562.176025,439.200012,681.247986
571.935974,441.152008,691.007996
569.984009,439.200012,687.104004
568.031982,454.816010,691.007996
562.176025,445.056000,687.104004
571.935974,443.104004,685.151978
568.031982,439.200012,687.104004
575.840027,435.295990,681.247986
571.935974,431.391998,681.247986
568.031982,441.152008,681.247986
568.031982,441.152008,681.247986
566.080017,425.536011,681.247986
566.080017,439.200012,689.056030
571.935974,437.247986,692.960022
568.031982,439.200012,691.007996
562.176025,441.152008,689.056030
566.080017,435.295990,692.960022
569.984009,429.440002,698.815979
569.984009,439.200012,694.911987
566.080017,431.391998,683.200012
564.127991,437.247986,694.911987
562.176025,437.247986,698.815979
569.984009,431.391998,694.911987
569.984009,439.200012,694.911987
571.935974,429.440002,692.960022
568.031982,411.872009,696.864014
573.888000,429.440002,698.815979
569.984009,431.391998,696.864014
566.080017,429.440002,692.960022
569.984009,435.295990,692.960022
571.935974,425.536011,689.056030
571.935974,425.536011,694.911987
562.176025,427.488007,700.768005
560.223999,419.679993,694.911987
566.080017,417.727997,696.864014
562.176025,431.391998,696.864014
558.271973,423.584015,696.864014
560.223999,413.824005,694.911987
566.080017,433.343994,683.200012
568.031982,417.727997,685.151978
560.223999,409.920013,692.960022
554.367981,413.824005,692.960022
568.031982,417.727997,694.911987
554.367981,423.584015,696.864014
558.271973,415.776001,687.104004
558.271973,419.679993,687.104004
558.271973,415.776001,694.911987
558.271973,419.679993,683.200012
568.031982,413.824005,679.296021
560.223999,409.920013,692.960022
558.271973,413.824005,696.864014
562.176025,417.727997,691.007996
562.176025,415.776001,685.151978
562.176025,415.776001,692.960022
568.031982,419.679993,687.104004
556.320007,409.920013,687.104004
556.320007,415.776001,687.104004
556.320007,406.015991,691.007996
554.367981,407.967987,689.056030
564.127991,415.776001,681.247986
566.080017,406.015991,685.151978
560.223999,411.872009,687.104004
560.223999,413.824005,687.104004
554.367981,406.015991,679.296021
554.367981,402.112000,679.296021
554.367981,407.967987,679.296021
560.223999,409.920013,687.104004
560.223999,407.967987,685.151978
569.984009,407.967987,687.104004
569.984009,411.872009,679.296021
564.127991,398.208008,681.247986
569.984009,407.967987,687.104004
566.080017,406.015991,689.056030
569.984009,402.112000,692.960022
569.984009,411.872009,689.056030
566.080017,404.063995,692.960022
575.840027,411.872009,691.007996
573.888000,404.063995,687.104004
575.840027,407.967987,694.911987
581.695984,406.015991,696.864014
569.984009,402.112000,692.960022
581.695984,400.160004,694.911987
583.648010,404.063995,696.864014
569.984009,407.967987,698.815979
581.695984,404.063995,702.719971
581.695984,406.015991,700.768005
579.744019,402.112000,696.864014
579.744019,407.967987,694.911987
575.840027,413.824005,696.864014
575.840027,407.967987,694.911987
575.840027,407.967987,694.911987
585.599976,413.824005,698.815979
587.552002,406.015991,698.815979
579.744019,415.776001,691.007996
589.504028,407.967987,691.007996
583.648010,411.872009,694.911987
577.791992,409.920013,689.056030
575.840027,404.063995,685.151978
573.888000,411.872009,691.007996
579.744019,413.824005,692.960022
585.599976,419.679993,683.200012
573.888000,409.920013,696.864014
587.552002,409.920013,692.960022
587.552002,417.727997,687.104004
581.695984,409.920013,692.960022
581.695984,415.776001,694.911987
581.695984,411.872009,691.007996
579.744019,423.584015,691.007996
571.935974,423.584015,687.104004
581.695984,417.727997,683.200012
579.744019,413.824005,683.200012
583.648010,419.679993,675.392029
583.648010,409.920013,683.200012
573.888000,423.584015,679.296021
573.888000,423.584015,679.296021
566.080017,429.440002,681.247986
571.935974,417.727997,677.343994
575.840027,429.440002,675.392029
581.695984,423.584015,679.296021
579.744019,423.584015,677.343994
577.791992,431.391998,675.392029
571.935974,433.343994,673.440002
577.791992,425.536011,673.440002
583.648010,433.343994,679.296021
591.455994,439.200012,679.296021
577.791992,431.391998,679.296021
583.648010,429.440002,679.296021
577.791992,435.295990,681.247986
579.744019,437.247986,689.056030
585.599976,427.488007,671.487976
583.648010,423.584015,675.392029
585.599976,433.343994,683.200012
575.840027,437.247986,685.151978
587.552002,441.152008,687.104004
579.744019,443.104004,689.056030
573.888000,433.343994,692.960022
575.840027,435.295990,687.104004
577.791992,425.536011,673.440002
583.648010,425.536011,681.247986
595.359985,433.343994,679.296021
583.648010,433.343994,679.296021
589.504028,441.152008,692.960022
585.599976,439.200012,689.056030
583.648010,429.440002,683.200012
585.599976,435.295990,687.104004
589.504028,443.104004,692.960022
585.599976,429.440002,685.151978
595.359985,437.247986,692.960022
579.744019,439.200012,692.960022
585.599976,439.200012,691.007996
583.648010,433.343994,691.007996
589.504028,437.247986,689.056030
587.552002,445.056000,692.960022
577.791992,437.247986,687.104004
593.408020,437.247986,700.768005
581.695984,437.247986,691.007996
589.504028,431.391998,691.007996
591.455994,437.247986,691.007996
593.408020,437.247986,696.864014
591.455994,437.247986,696.864014
589.504028,433.343994,691.007996
585.599976,450.911987,694.911987
595.359985,433.343994,691.007996
585.599976,439.200012,689.056030
595.359985,437.247986,681.247986
591.455994,433.343994,689.056030
589.504028,439.200012,679.296021
589.504028,441.152008,685.151978
589.504028,441.152008,685.151978
583.648010,439.200012,689.056030
591.455994,435.295990,696.864014
587.552002,450.911987,687.104004
599.263977,443.104004,687.104004
577.791992,441.152008,691.007996
589.504028,433.343994,689.056030
585.599976,429.440002,689.056030
585.599976,439.200012,685.151978
585.599976,431.391998,681.247986
587.552002,443.104004,677.343994
591.455994,443.104004,685.151978
591.455994,421.631989,685.151978
585.599976,427.488007,679.296021
595.359985,435.295990,683.200012
591.455994,427.488007,685.151978
585.599976,437.247986,689.056030
585.599976,439.200012,679.296021
591.455994,427.488007,683.200012
583.648010,433.343994,679.296021
587.552002,419.679993,675.392029
589.504028,425.536011,677.343994
591.455994,427.488007,683.200012
601.216003,423.584015,683.200012
593.408020,423.584015,689.056030
599.263977,417.727997,679.296021
593.408020,421.631989,681.247986
585.599976,415.776001,683.200012
603.168030,411.872009,689.056030
597.312012,425.536011,692.960022
593.408020,413.824005,692.960022
601.216003,417.727997,689.056030
595.359985,409.920013,683.200012
607.072021,419.679993,691.007996
597.312012,409.920013,694.911987
605.119995,406.015991,691.007996
595.359985,417.727997,692.960022
589.504028,415.776001,692.960022
609.023987,407.967987,694.911987
605.119995,413.824005,702.719971
607.072021,413.824005,694.911987
607.072021,421.631989,700.768005
601.216003,431.391998,698.815979
609.023987,409.920013,700.768005
610.976013,407.967987,694.911987
609.023987,411.872009,687.104004
599.263977,407.967987,698.815979
603.168030,415.776001,700.768005
607.072021,419.679993,698.815979
603.168030,427.488007,700.768005
609.023987,417.727997,698.815979
603.168030,419.679993,696.864014
597.312012,409.920013,691.007996
593.408020,417.727997,691.007996
599.263977,409.920013,692.960022
607.072021,419.679993,696.864014
597.312012,419.679993,696.864014
607.072021,415.776001,691.007996
603.168030,402.112000,689.056030
597.312012,406.015991,687.104004
603.168030,415.776001,696.864014
607.072021,413.824005,696.864014
601.216003,407.967987,694.911987
599.263977,402.112000,694.911987
603.168030,417.727997,698.815979
603.168030,419.679993,696.864014
589.504028,406.015991,700.768005
601.216003,409.920013,700.768005
595.359985,419.679993,698.815979
605.119995,419.679993,691.007996
605.119995,407.967987,704.671997
601.216003,415.776001,708.575989
607.072021,409.920013,700.768005
601.216003,411.872009,708.575989
609.023987,417.727997,704.671997
607.072021,406.015991,712.479980
607.072021,419.679993,696.864014
599.263977,406.015991,702.719971
601.216003,409.920013,698.815979
605.119995,407.967987,704.671997
607.072021,407.967987,702.719971
599.263977,402.112000,704.671997
595.359985,411.872009,706.624023
597.312012,423.584015,704.671997
603.168030,409.920013,702.719971
605.119995,407.967987,700.768005
601.216003,411.872009,702.719971
603.168030,411.872009,691.007996
603.168030,415.776001,696.864014
597.312012,413.824005,700.768005
607.072021,419.679993,702.719971
603.168030,417.727997,696.864014
603.168030,415.776001,696.864014
603.168030,417.727997,698.815979
607.072021,415.776001,700.768005
601.216003,407.967987,698.815979
605.119995,409.920013,702.719971
597.312012,413.824005,698.815979
603.168030,415.776001,708.575989
599.263977,413.824005,712.479980
607.072021,417.727997,698.815979
597.312012,409.920013,696.864014
603.168030,415.776001,700.768005
607.072021,419.679993,696.864014
597.312012,411.872009,694.911987
601.216003,417.727997,685.151978
595.359985,415.776001,687.104004
597.312012,406.015991,681.247986
599.263977,419.679993,685.151978
591.455994,415.776001,683.200012
587.552002,419.679993,685.151978
591.455994,425.536011,669.536011
591.455994,406.015991,677.343994
589.504028,417.727997,669.536011
583.648010,411.872009,675.392029
581.695984,406.015991,669.536011
573.888000,423.584015,679.296021
569.984009,423.584015,679.296021
577.791992,415.776001,671.487976
575.840027,415.776001,669.536011
566.080017,413.824005,667.583984
579.744019,415.776001,673.440002
571.935974,415.776001,671.487976
571.935974,419.679993,677.343994
568.031982,411.872009,679.296021
566.080017,407.967987,677.343994
568.031982,409.920013,673.440002
564.127991,423.584015,667.583984
562.176025,407.967987,679.296021
558.271973,407.967987,679.296021
564.127991,406.015991,675.392029
564.127991,406.015991,667.583984
558.271973,404.063995,665.632019
564.127991,411.872009,673.440002
562.176025,404.063995,677.343994
554.367981,406.015991,677.343994
556.320007,404.063995,665.632019
552.416016,406.015991,665.632019
556.320007,404.063995,659.776001
550.463989,406.015991,667.583984
542.656006,402.112000,675.392029
548.512024,396.256012,675.392029
546.559998,400.160004,681.247986
554.367981,404.063995,677.343994
552.416016,392.351990,673.440002
546.559998,392.351990,675.392029
556.320007,394.303986,677.343994
554.367981,392.351990,667.583984
546.559998,386.496002,675.392029
556.320007,382.592010,673.440002
542.656006,378.687988,669.536011
550.463989,380.640015,677.343994
552.416016,384.544006,675.392029
550.463989,378.687988,675.392029
556.320007,378.687988,681.247986
548.512024,376.735992,675.392029
550.463989,378.687988,681.247986
556.320007,378.687988,681.247986
554.367981,376.735992,665.632019
552.416016,370.880005,681.247986
550.463989,370.880005,677.343994
538.752014,378.687988,667.583984
544.607971,376.735992,675.392029
552.416016,370.880005,683.200012
556.320007,376.735992,687.104004
552.416016,376.735992,685.151978
550.463989,370.880005,679.296021
554.367981,376.735992,683.200012
554.367981,370.880005,687.104004
558.271973,372.832001,691.007996
550.463989,366.976013,687.104004
556.320007,374.783997,691.007996
552.416016,366.976013,683.200012
564.127991,370.880005,683.200012
554.367981,376.735992,679.296021
560.223999,365.023987,677.343994
566.080017,363.071991,687.104004
562.176025,361.119995,687.104004
568.031982,365.023987,683.200012
558.271973,366.976013,689.056030
558.271973,359.167999,683.200012
568.031982,366.976013,687.104004
558.271973,372.832001,689.056030
566.080017,363.071991,681.247986
554.367981,366.976013,689.056030
560.223999,370.880005,689.056030
560.223999,359.167999,683.200012
556.320007,359.167999,683.200012
560.223999,363.071991,671.487976
558.271973,365.023987,683.200012
556.320007,357.216003,685.151978
550.463989,359.167999,685.151978
564.127991,359.167999,675.392029
560.223999,357.216003,675.392029
560.223999,351.359985,675.392029
558.271973,366.976013,679.296021
562.176025,355.264008,677.343994
556.320007,363.071991,677.343994
556.320007,347.455994,673.440002
554.367981,361.119995,671.487976
552.416016,365.023987,677.343994
554.367981,372.832001,679.296021
546.559998,363.071991,681.247986
548.512024,363.071991,691.007996
554.367981,365.023987,683.200012
554.367981,359.167999,679.296021
552.416016,363.071991,681.247986
552.416016,365.023987,677.343994
546.559998,365.023987,685.151978
550.463989,353.312012,685.151978
550.463989,361.119995,685.151978
546.559998,365.023987,691.007996
548.512024,355.264008,683.200012
548.512024,359.167999,681.247986
552.416016,366.976013,679.296021
554.367981,365.023987,683.200012
554.367981,365.023987,679.296021
560.223999,355.264008,685.151978
550.463989,355.264008,671.487976
554.367981,368.928009,679.296021
554.367981,357.216003,675.392029
552.416016,372.832001,679.296021
544.607971,372.832001,675.392029
548.512024,370.880005,665.632019
550.463989,372.832001,671.487976
556.320007,368.928009,679.296021
556.320007,372.832001,671.487976
556.320007,372.832001,671.487976
552.416016,366.976013,673.440002
548.512024,363.071991,669.536011
550.463989,370.880005,671.487976
558.271973,363.071991,665.632019
564.127991,365.023987,679.296021
554.367981,361.119995,667.583984
560.223999,368.928009,669.536011
560.223999,363.071991,677.343994
558.271973,363.071991,669.536011
558.271973,363.071991,673.440002
550.463989,376.735992,667.583984
562.176025,372.832001,669.536011
558.271973,363.071991,665.632019
560.223999,372.832001,679.296021
558.271973,368.928009,665.632019
566.080017,361.119995,675.392029
569.984009,363.071991,679.296021
575.840027,363.071991,673.440002
575.840027,365.023987,671.487976
569.984009,365.023987,675.392029
569.984009,357.216003,679.296021
581.695984,366.976013,681.247986
583.648010,370.880005,679.296021
575.840027,363.071991,687.104004
583.648010,370.880005,685.151978
583.648010,366.976013,692.960022
583.648010,363.071991,687.104004
595.359985,357.216003,698.815979
581.695984,347.455994,706.624023
585.599976,370.880005,710.528015
585.599976,361.119995,694.911987
587.552002,359.167999,692.960022
587.552002,359.167999,689.056030
593.408020,359.167999,700.768005
589.504028,361.119995,700.768005
599.263977,353.312012,704.671997
589.504028,361.119995,700.768005
603.168030,351.359985,696.864014
595.359985,347.455994,702.719971
589.504028,361.119995,706.624023
591.455994,353.312012,696.864014
585.599976,357.216003,704.671997
595.359985,359.167999,702.719971
603.168030,351.359985,698.815979
603.168030,357.216003,702.719971
603.168030,355.264008,698.815979
601.216003,355.264008,708.575989
599.263977,347.455994,706.624023
597.312012,349.407990,704.671997
605.119995,345.503998,706.624023
610.976013,357.216003,710.528015
603.168030,347.455994,716.383972
605.119995,345.503998,716.383972
607.072021,343.552002,714.432007
603.168030,343.552002,714.432007
599.263977,347.455994,718.335999
605.119995,331.839996,716.383972
609.023987,341.600006,712.479980
607.072021,339.648010,712.479980
609.023987,341.600006,718.335999
607.072021,331.839996,716.383972
612.927979,333.791992,718.335999
605.119995,337.696014,718.335999
610.976013,333.791992,718.335999
601.216003,331.839996,718.335999
610.976013,347.455994,718.335999
610.976013,345.503998,724.192017
614.880005,341.600006,724.192017
609.023987,341.600006,726.143982
612.927979,337.696014,720.288025
610.976013,337.696014,726.143982
609.023987,343.552002,718.335999
614.880005,347.455994,735.903992
605.119995,339.648010,737.856018
612.927979,345.503998,735.903992
609.023987,347.455994,739.807983
601.216003,349.407990,739.807983
605.119995,349.407990,741.760010
607.072021,353.312012,739.807983
599.263977,351.359985,741.760010
609.023987,343.552002,743.711975
609.023987,333.791992,735.903992
607.072021,333.791992,739.807983
614.880005,339.648010,741.760010
607.072021,339.648010,741.760010
605.119995,339.648010,733.952026
605.119995,339.648010,743.711975
603.168030,335.743988,743.711975
601.216003,349.407990,747.616028
601.216003,343.552002,749.567993
593.408020,345.503998,741.760010
599.263977,347.455994,737.856018
593.408020,345.503998,743.711975
603.168030,335.743988,735.903992
599.263977,341.600006,743.711975
585.599976,345.503998,741.760010
585.599976,345.503998,745.664001
583.648010,337.696014,739.807983
581.695984,341.600006,739.807983
577.791992,339.648010,741.760010
579.744019,339.648010,730.047974
579.744019,345.503998,730.047974
587.552002,349.407990,732.000000
585.599976,349.407990,730.047974
587.552002,355.264008,724.192017
581.695984,361.119995,728.096008
573.888000,355.264008,722.239990
575.840027,359.167999,720.288025
579.744019,357.216003,716.383972
571.935974,368.928009,716.383972
571.935974,368.928009,718.335999
569.984009,363.071991,712.479980
579.744019,351.359985,702.719971
575.840027,365.023987,704.671997
581.695984,366.976013,696.864014
579.744019,374.783997,696.864014
583.648010,378.687988,691.007996
579.744019,370.880005,694.911987
573.888000,374.783997,687.104004
568.031982,388.447998,679.296021
579.744019,392.351990,685.151978
571.935974,376.735992,671.487976
569.984009,353.312012,671.487976
569.984009,355.264008,677.343994
581.695984,374.783997,671.487976
571.935974,390.399994,673.440002
569.984009,368.928009,663.679993
571.935974,361.119995,659.776001
569.984009,359.167999,659.776001
569.984009,370.880005,650.015991
575.840027,374.783997,655.872009
583.648010,368.928009,655.872009
575.840027,366.976013,661.728027
579.744019,378.687988,655.872009
571.935974,372.832001,655.872009
579.744019,372.832001,650.015991
575.840027,370.880005,653.919983
577.791992,366.976013,653.919983
577.791992,380.640015,663.679993
583.648010,376.735992,659.776001
577.791992,380.640015,661.728027
583.648010,382.592010,663.679993
587.552002,376.735992,661.728027
587.552002,374.783997,665.632019
587.552002,374.783997,677.343994
589.504028,366.976013,673.440002
591.455994,376.735992,673.440002
587.552002,372.832001,671.487976
587.552002,370.880005,685.151978
597.312012,374.783997,692.960022
601.216003,384.544006,691.007996
599.263977,384.544006,683.200012
597.312012,374.783997,685.151978
605.119995,378.687988,691.007996
607.072021,378.687988,691.007996
607.072021,374.783997,692.960022
603.168030,372.832001,692.960022
603.168030,376.735992,700.768005
589.504028,372.832001,700.768005
599.263977,370.880005,700.768005
603.168030,378.687988,694.911987
609.023987,378.687988,700.768005
610.976013,380.640015,710.528015
609.023987,378.687988,702.719971
605.119995,382.592010,710.528015
609.023987,378.687988,706.624023
603.168030,378.687988,702.719971
605.119995,376.735992,706.624023
614.880005,378.687988,710.528015
607.072021,388.447998,710.528015
605.119995,386.496002,710.528015
610.976013,382.592010,714.432007
612.927979,384.544006,718.335999
618.783997,384.544006,714.432007
622.687988,384.544006,724.192017
616.831970,380.640015,726.143982
620.736023,382.592010,726.143982
622.687988,380.640015,728.096008
626.591980,382.592010,726.143982
626.591980,388.447998,735.903992
620.736023,384.544006,726.143982
620.736023,382.592010,730.047974
622.687988,382.592010,737.856018
618.783997,378.687988,735.903992
622.687988,390.399994,743.711975
624.640015,384.544006,737.856018
626.591980,380.640015,735.903992
634.400024,378.687988,735.903992
628.544006,372.832001,743.711975
620.736023,378.687988,737.856018
622.687988,378.687988,743.711975
628.544006,372.832001,747.616028
626.591980,378.687988,741.760010
634.400024,374.783997,747.616028
636.351990,374.783997,745.664001
634.400024,376.735992,751.520020
634.400024,366.976013,737.856018
626.591980,363.071991,749.567993
630.495972,366.976013,757.375977
634.400024,366.976013,755.424011
638.304016,372.832001,749.567993
624.640015,368.928009,753.471985
628.544006,366.976013,747.616028
634.400024,374.783997,751.520020
634.400024,372.832001,743.711975
634.400024,372.832001,743.711975
640.255981,374.783997,751.520020
642.208008,370.880005,757.375977
634.400024,359.167999,753.471985
650.015991,368.928009,753.471985
638.304016,372.832001,755.424011
646.112000,376.735992,745.664001
648.064026,368.928009,745.664001
650.015991,384.544006,747.616028
640.255981,368.928009,749.567993
640.255981,370.880005,753.471985
651.968018,370.880005,759.328003
657.823975,374.783997,749.567993
650.015991,378.687988,749.567993
653.919983,388.447998,745.664001
644.159973,370.880005,755.424011
655.872009,388.447998,755.424011
657.823975,380.640015,755.424011
655.872009,378.687988,749.567993
665.632019,388.447998,751.520020
667.583984,382.592010,749.567993
663.679993,382.592010,751.520020
659.776001,392.351990,745.664001
663.679993,384.544006,741.760010
675.392029,392.351990,747.616028
673.440002,392.351990,751.520020
679.296021,386.496002,735.903992
675.392029,378.687988,737.856018
667.583984,382.592010,741.760010
675.392029,392.351990,737.856018
683.200012,390.399994,743.711975
679.296021,392.351990,732.000000
679.296021,384.544006,743.711975
681.247986,390.399994,745.664001
689.056030,394.303986,739.807983
687.104004,390.399994,743.711975
687.104004,390.399994,749.567993
692.960022,392.351990,745.664001
687.104004,388.447998,743.711975
692.960022,388.447998,743.711975
698.815979,392.351990,745.664001
698.815979,392.351990,749.567993
685.151978,404.063995,759.328003
696.864014,394.303986,755.424011
696.864014,392.351990,759.328003
696.864014,400.160004,755.424011
694.911987,398.208008,757.375977
694.911987,396.256012,757.375977
700.768005,398.208008,763.231995
696.864014,390.399994,751.520020
698.815979,402.112000,763.231995
692.960022,398.208008,763.231995
706.624023,402.112000,759.328003
702.719971,402.112000,757.375977
706.624023,406.015991,767.135986
706.624023,400.160004,757.375977
702.719971,404.063995,769.088013
700.768005,413.824005,771.039978
706.624023,407.967987,763.231995
716.383972,398.208008,765.184021
706.624023,406.015991,761.280029
712.479980,406.015991,765.184021
712.479980,406.015991,765.184021
706.624023,411.872009,774.943970
712.479980,409.920013,774.943970
710.528015,407.967987,776.895996
716.383972,409.920013,772.992004
708.575989,406.015991,774.943970
706.624023,406.015991,784.703979
708.575989,398.208008,776.895996
704.671997,411.872009,772.992004
712.479980,409.920013,774.943970
712.479980,415.776001,780.799988
706.624023,411.872009,778.848022
702.719971,411.872009,778.848022
724.192017,413.824005,776.895996
718.335999,413.824005,774.943970
714.432007,421.631989,772.992004
712.479980,425.536011,778.848022
718.335999,431.391998,769.088013
712.479980,413.824005,780.799988
716.383972,417.727997,778.848022
698.815979,417.727997,776.895996
708.575989,415.776001,788.607971
704.671997,423.584015,772.992004
716.383972,425.536011,771.039978
706.624023,415.776001,784.703979
710.528015,423.584015,786.656006
720.288025,417.727997,786.656006
706.624023,421.631989,778.848022
716.383972,419.679993,778.848022
712.479980,425.536011,782.752014
706.624023,419.679993,780.799988
702.719971,435.295990,782.752014
700.768005,431.391998,772.992004
702.719971,433.343994,776.895996
700.768005,433.343994,769.088013
696.864014,429.440002,769.088013
696.864014,435.295990,769.088013
696.864014,425.536011,774.943970
702.719971,425.536011,778.848022
704.671997,427.488007,761.280029
700.768005,421.631989,753.471985
694.911987,431.391998,763.231995
698.815979,427.488007,759.328003
704.671997,423.584015,751.520020
696.864014,425.536011,757.375977
694.911987,439.200012,763.231995
704.671997,433.343994,765.184021
694.911987,427.488007,749.567993
696.864014,427.488007,749.567993
698.815979,429.440002,747.616028
708.575989,435.295990,751.520020
706.624023,423.584015,745.664001
702.719971,427.488007,749.567993
702.719971,421.631989,757.375977
704.671997,419.679993,747.616028
712.479980,431.391998,745.664001
708.575989,429.440002,747.616028
694.911987,429.440002,757.375977
700.768005,423.584015,753.471985
702.719971,439.200012,771.039978
706.624023,435.295990,767.135986
698.815979,433.343994,761.280029
698.815979,433.343994,769.088013
706.624023,423.584015,765.184021
704.671997,427.488007,761.280029
694.911987,435.295990,767.135986
698.815979,427.488007,769.088013
700.768005,431.391998,774.943970
708.575989,431.391998,782.752014
708.575989,435.295990,772.992004
700.768005,425.536011,769.088013
694.911987,423.584015,772.992004
702.719971,429.440002,774.943970
712.479980,427.488007,776.895996
698.815979,421.631989,769.088013
702.719971,419.679993,776.895996
698.815979,423.584015,772.992004
708.575989,415.776001,765.184021
694.911987,415.776001,771.039978
696.864014,409.920013,771.039978
691.007996,407.967987,771.039978
692.960022,406.015991,771.039978
685.151978,409.920013,774.943970
689.056030,398.208008,765.184021
679.296021,396.256012,767.135986
691.007996,390.399994,771.039978
685.151978,382.592010,761.280029
685.151978,374.783997,771.039978
675.392029,370.880005,761.280029
671.487976,376.735992,763.231995
673.440002,374.783997,759.328003
681.247986,374.783997,763.231995
677.343994,366.976013,751.520020
675.392029,363.071991,753.471985
677.343994,363.071991,749.567993
669.536011,359.167999,757.375977
673.440002,365.023987,749.567993
667.583984,363.071991,751.520020
663.679993,365.023987,749.567993
669.536011,368.928009,747.616028
665.632019,366.976013,747.616028
657.823975,363.071991,745.664001
653.919983,370.880005,749.567993
657.823975,370.880005,753.471985
655.872009,359.167999,755.424011
642.208008,368.928009,755.424011
655.872009,378.687988,751.520020
644.159973,372.832001,753.471985
665.632019,370.880005,749.567993
657.823975,368.928009,747.616028
655.872009,355.264008,753.471985
644.159973,357.216003,749.567993
653.919983,359.167999,749.567993
651.968018,359.167999,747.616028
650.015991,353.312012,745.664001
648.064026,345.503998,741.760010
648.064026,345.503998,741.760010
648.064026,341.600006,733.952026
644.159973,341.600006,739.807983
648.064026,347.455994,728.096008
648.064026,327.936005,743.711975
642.208008,327.936005,735.903992
648.064026,329.888000,726.143982
653.919983,333.791992,728.096008
648.064026,335.743988,720.288025
653.919983,337.696014,720.288025
651.968018,339.648010,710.528015
650.015991,329.888000,724.192017
655.872009,327.936005,716.383972
657.823975,341.600006,712.479980
659.776001,333.791992,716.383972
642.208008,331.839996,722.239990
651.968018,337.696014,728.096008
655.872009,335.743988,724.192017
657.823975,327.936005,714.432007
657.823975,327.936005,728.096008
655.872009,327.936005,718.335999
663.679993,318.175995,714.432007
653.919983,324.032013,716.383972
651.968018,325.984009,712.479980
653.919983,320.127991,714.432007
661.728027,325.984009,720.288025
655.872009,316.223999,712.479980
659.776001,314.272003,710.528015
657.823975,308.415985,716.383972
650.015991,314.272003,724.192017
651.968018,322.079987,726.143982
650.015991,314.272003,716.383972
650.015991,308.415985,718.335999
646.112000,304.511993,710.528015
650.015991,306.463989,722.239990
646.112000,304.511993,720.288025
638.304016,306.463989,724.192017
634.400024,290.847992,733.952026
628.544006,302.559998,733.952026
634.400024,302.559998,726.143982
620.736023,308.415985,730.047974
624.640015,306.463989,732.000000
622.687988,298.656006,730.047974
628.544006,300.608002,737.856018
618.783997,304.511993,733.952026
616.831970,298.656006,730.047974
620.736023,300.608002,741.760010
618.783997,292.799988,735.903992
607.072021,294.752014,733.952026
616.831970,286.944000,735.903992
616.831970,288.895996,737.856018
616.831970,284.992004,743.711975
614.880005,284.992004,733.952026
609.023987,279.135986,735.903992
614.880005,277.183990,735.903992
609.023987,288.895996,737.856018
609.023987,290.847992,730.047974
610.976013,286.944000,741.760010
603.168030,288.895996,730.047974
609.023987,284.992004,739.807983
616.831970,290.847992,739.807983
610.976013,288.895996,739.807983
610.976013,288.895996,733.952026
607.072021,292.799988,735.903992
597.312012,281.088013,751.520020
597.312012,283.040009,747.616028
597.312012,284.992004,739.807983
599.263977,284.992004,745.664001
599.263977,284.992004,749.567993
601.216003,296.704010,759.328003
599.263977,292.799988,745.664001
595.359985,281.088013,747.616028
589.504028,294.752014,743.711975
595.359985,290.847992,737.856018
591.455994,288.895996,737.856018
593.408020,298.656006,741.760010
581.695984,296.704010,743.711975
581.695984,284.992004,743.711975
581.695984,288.895996,741.760010
575.840027,286.944000,743.711975
573.888000,281.088013,743.711975
568.031982,288.895996,741.760010
573.888000,298.656006,741.760010
562.176025,296.704010,745.664001
569.984009,290.847992,741.760010
566.080017,286.944000,743.711975
556.320007,296.704010,747.616028
558.271973,300.608002,739.807983
558.271973,304.511993,751.520020
552.416016,308.415985,745.664001
556.320007,302.559998,747.616028
546.559998,308.415985,737.856018
554.367981,304.511993,739.807983
550.463989,302.559998,739.807983
552.416016,302.559998,741.760010
544.607971,302.559998,733.952026
542.656006,298.656006,739.807983
540.703979,306.463989,735.903992
542.656006,302.559998,730.047974
536.799988,296.704010,735.903992
546.559998,296.704010,728.096008
527.039978,304.511993,728.096008
534.848022,310.368011,724.192017
536.799988,302.559998,730.047974
527.039978,298.656006,726.143982
527.039978,300.608002,728.096008
532.895996,298.656006,730.047974
528.992004,298.656006,720.288025
523.135986,302.559998,720.288025
528.992004,288.895996,712.479980
528.992004,284.992004,718.335999
530.943970,290.847992,716.383972
538.752014,290.847992,714.432007
536.799988,284.992004,712.479980
528.992004,284.992004,712.479980
527.039978,286.944000,698.815979
525.088013,284.992004,706.624023
523.135986,288.895996,706.624023
523.135986,281.088013,698.815979
523.135986,286.944000,706.624023
536.799988,284.992004,706.624023
523.135986,283.040009,704.671997
538.752014,273.279999,702.719971
530.943970,273.279999,694.911987
525.088013,273.279999,696.864014
528.992004,273.279999,696.864014
527.039978,265.471985,702.719971
528.992004,269.376007,696.864014
527.039978,275.231995,689.056030
528.992004,273.279999,687.104004
525.088013,275.231995,696.864014
521.184021,271.328003,704.671997
521.184021,271.328003,691.007996
519.231995,263.519989,692.960022
515.328003,273.279999,692.960022
527.039978,267.424011,694.911987
525.088013,275.231995,696.864014
530.943970,273.279999,691.007996
527.039978,265.471985,692.960022
525.088013,271.328003,687.104004
527.039978,267.424011,691.007996
525.088013,267.424011,696.864014
523.135986,271.328003,692.960022
521.184021,267.424011,692.960022
527.039978,279.135986,696.864014
536.799988,277.183990,700.768005
538.752014,273.279999,692.960022
536.799988,281.088013,700.768005
536.799988,273.279999,704.671997
527.039978,269.376007,704.671997
534.848022,261.567993,694.911987
540.703979,273.279999,700.768005
538.752014,271.328003,704.671997
538.752014,267.424011,712.479980
536.799988,257.664001,712.479980
534.848022,263.519989,706.624023
546.559998,265.471985,702.719971
548.512024,271.328003,706.624023
556.320007,271.328003,716.383972
550.463989,265.471985,706.624023
548.512024,267.424011,720.288025
554.367981,263.519989,716.383972
550.463989,263.519989,710.528015
558.271973,269.376007,724.192017
552.416016,271.328003,722.239990
548.512024,265.471985,724.192017
550.463989,273.279999,726.143982
550.463989,269.376007,730.047974
558.271973,267.424011,728.096008
564.127991,283.040009,741.760010
554.367981,273.279999,741.760010
552.416016,279.135986,735.903992
548.512024,273.279999,730.047974
548.512024,273.279999,726.143982
542.656006,271.328003,726.143982
556.320007,279.135986,730.047974
542.656006,279.135986,726.143982
550.463989,279.135986,728.096008
540.703979,284.992004,732.000000
550.463989,286.944000,720.288025
550.463989,283.040009,716.383972
552.416016,288.895996,726.143982
560.223999,296.704010,714.432007
548.512024,286.944000,720.288025
552.416016,300.608002,716.383972
544.607971,298.656006,716.383972
544.607971,306.463989,712.479980
548.512024,298.656006,708.575989
550.463989,304.511993,702.719971
538.752014,310.368011,704.671997
528.992004,292.799988,698.815979
534.848022,314.272003,708.575989
542.656006,314.272003,698.815979
532.895996,318.175995,706.624023
536.799988,316.223999,704.671997
527.039978,308.415985,708.575989
534.848022,302.559998,691.007996
528.992004,298.656006,698.815979
538.752014,310.368011,694.911987
536.799988,314.272003,694.911987
530.943970,302.559998,698.815979
538.752014,302.559998,694.911987
540.703979,312.320007,692.960022
544.607971,314.272003,691.007996
527.039978,314.272003,691.007996
527.039978,318.175995,691.007996
542.656006,312.320007,685.151978
536.799988,318.175995,689.056030
540.703979,312.320007,692.960022
532.895996,314.272003,689.056030
548.512024,329.888000,689.056030
542.656006,329.888000,683.200012
540.703979,324.032013,691.007996
527.039978,333.791992,689.056030
540.703979,337.696014,685.151978
540.703979,339.648010,683.200012
538.752014,337.696014,681.247986
542.656006,337.696014,679.296021
544.607971,327.936005,677.343994
538.752014,329.888000,687.104004
546.559998,327.936005,671.487976
546.559998,329.888000,673.440002
552.416016,329.888000,669.536011
546.559998,327.936005,677.343994
548.512024,329.888000,681.247986
544.607971,327.936005,677.343994
554.367981,324.032013,673.440002
556.320007,325.984009,675.392029
558.271973,329.888000,669.536011
560.223999,318.175995,671.487976
554.367981,320.127991,673.440002
558.271973,325.984009,669.536011
571.935974,325.984009,671.487976
564.127991,337.696014,671.487976
566.080017,324.032013,671.487976
571.935974,322.079987,665.632019
571.935974,331.839996,669.536011
577.791992,325.984009,671.487976
577.791992,327.936005,671.487976
577.791992,325.984009,679.296021
575.840027,333.791992,675.392029
577.791992,335.743988,675.392029
581.695984,331.839996,677.343994
583.648010,333.791992,679.296021
581.695984,324.032013,677.343994
585.599976,324.032013,675.392029
573.888000,325.984009,689.056030
579.744019,325.984009,685.151978
587.552002,320.127991,692.960022
591.455994,325.984009,694.911987
587.552002,331.839996,696.864014
593.408020,327.936005,698.815979
597.312012,324.032013,694.911987
593.408020,324.032013,716.383972
605.119995,322.079987,714.432007
603.168030,318.175995,714.432007
599.263977,316.223999,724.192017
597.312012,318.175995,730.047974
610.976013,314.272003,724.192017
601.216003,316.223999,730.047974
607.072021,316.223999,722.239990
605.119995,316.223999,730.047974
610.976013,316.223999,728.096008
605.119995,322.079987,732.000000
607.072021,316.223999,730.047974
605.119995,316.223999,728.096008
614.880005,320.127991,730.047974
610.976013,322.079987,726.143982
603.168030,327.936005,728.096008
601.216003,324.032013,714.432007
610.976013,329.888000,710.528015
603.168030,329.888000,716.383972
609.023987,331.839996,716.383972
614.880005,337.696014,710.528015
609.023987,337.696014,706.624023
603.168030,331.839996,706.624023
609.023987,337.696014,706.624023
609.023987,333.791992,702.719971
614.880005,331.839996,712.479980
624.640015,339.648010,704.671997
612.927979,324.032013,718.335999
624.640015,333.791992,720.288025
628.544006,320.127991,706.624023
632.447998,325.984009,712.479980
626.591980,333.791992,718.335999
628.544006,329.888000,724.192017
628.544006,320.127991,726.143982
628.544006,333.791992,720.288025
638.304016,320.127991,720.288025
636.351990,322.079987,714.432007
636.351990,324.032013,720.288025
640.255981,329.888000,726.143982
636.351990,327.936005,728.096008
640.255981,318.175995,718.335999
636.351990,320.127991,728.096008
642.208008,331.839996,720.288025
642.208008,337.696014,726.143982
636.351990,333.791992,726.143982
634.400024,335.743988,724.192017
640.255981,335.743988,720.288025
640.255981,331.839996,724.192017
640.255981,345.503998,728.096008
642.208008,343.552002,732.000000
638.304016,339.648010,728.096008
638.304016,333.791992,728.096008
644.159973,329.888000,716.383972
638.304016,337.696014,718.335999
640.255981,339.648010,718.335999
651.968018,339.648010,720.288025
646.112000,339.648010,720.288025
636.351990,337.696014,714.432007
638.304016,343.552002,712.479980
646.112000,333.791992,720.288025
640.255981,343.552002,716.383972
638.304016,337.696014,718.335999
638.304016,331.839996,718.335999
638.304016,331.839996,714.432007
638.304016,329.888000,718.335999
650.015991,331.839996,720.288025
642.208008,329.888000,722.239990
642.208008,324.032013,722.239990
650.015991,324.032013,714.432007
646.112000,329.888000,724.192017
638.304016,318.175995,720.288025
642.208008,322.079987,714.432007
642.208008,325.984009,710.528015
644.159973,322.079987,712.479980
650.015991,325.984009,714.432007
640.255981,318.175995,720.288025
648.064026,314.272003,710.528015
640.255981,314.272003,718.335999
642.208008,325.984009,710.528015
644.159973,322.079987,712.479980
632.447998,325.984009,722.239990
640.255981,324.032013,724.192017
648.064026,314.272003,716.383972
653.919983,316.223999,716.383972
648.064026,314.272003,716.383972
648.064026,312.320007,716.383972
653.919983,325.984009,726.143982
651.968018,316.223999,726.143982
646.112000,312.320007,732.000000
650.015991,320.127991,718.335999
661.728027,314.272003,732.000000
663.679993,306.463989,730.047974
663.679993,318.175995,739.807983
663.679993,308.415985,726.143982
655.872009,310.368011,722.239990
669.536011,312.320007,735.903992
669.536011,318.175995,735.903992
667.583984,304.511993,743.711975
659.776001,304.511993,747.616028
677.343994,312.320007,743.711975
667.583984,304.511993,749.567993
648.064026,314.272003,745.664001
653.919983,314.272003,745.664001
663.679993,314.272003,757.375977
669.536011,304.511993,747.616028
671.487976,304.511993,749.567993
677.343994,306.463989,753.471985
667.583984,300.608002,745.664001
663.679993,298.656006,747.616028
673.440002,312.320007,755.424011
671.487976,300.608002,741.760010
665.632019,300.608002,755.424011
667.583984,294.752014,751.520020
659.776001,302.559998,753.471985
673.440002,300.608002,759.328003
669.536011,288.895996,763.231995
673.440002,300.608002,753.471985
667.583984,296.704010,759.328003
677.343994,298.656006,755.424011
667.583984,288.895996,759.328003
669.536011,294.752014,759.328003
663.679993,283.040009,757.375977
671.487976,286.944000,757.375977
669.536011,294.752014,761.280029
671.487976,292.799988,759.328003
669.536011,292.799988,763.231995
659.776001,296.704010,759.328003
665.632019,290.847992,759.328003
663.679993,283.040009,763.231995
665.632019,288.895996,759.328003
667.583984,283.040009,757.375977
669.536011,275.231995,749.567993
667.583984,273.279999,757.375977
663.679993,275.231995,749.567993
669.536011,283.040009,749.567993
659.776001,277.183990,749.567993
669.536011,277.183990,759.328003
677.343994,265.471985,759.328003
665.632019,265.471985,759.328003
659.776001,267.424011,755.424011
661.728027,261.567993,753.471985
665.632019,253.759995,751.520020
657.823975,251.807999,751.520020
655.872009,253.759995,755.424011
665.632019,253.759995,767.135986
659.776001,265.471985,759.328003
657.823975,251.807999,753.471985
657.823975,255.712006,767.135986
657.823975,259.615997,769.088013
650.015991,261.567993,763.231995
655.872009,251.807999,761.280029
661.728027,255.712006,763.231995
667.583984,253.759995,767.135986
661.728027,251.807999,767.135986
659.776001,255.712006,769.088013
653.919983,249.856003,761.280029
644.159973,253.759995,767.135986
648.064026,238.143997,769.088013
653.919983,247.904007,771.039978
644.159973,244.000000,767.135986
646.112000,234.240005,771.039978
636.351990,240.095993,763.231995
646.112000,238.143997,767.135986
628.544006,232.287994,771.039978
642.208008,222.528000,759.328003
640.255981,232.287994,759.328003
634.400024,228.384003,759.328003
636.351990,214.720001,761.280029
632.447998,218.623993,765.184021
624.640015,214.720001,765.184021
628.544006,224.479996,755.424011
634.400024,222.528000,765.184021
626.591980,212.768005,751.520020
618.783997,203.007996,755.424011
609.023987,206.912003,749.567993
614.880005,212.768005,743.711975
614.880005,216.671997,745.664001
618.783997,208.863998,747.616028
616.831970,208.863998,741.760010
618.783997,208.863998,743.711975
610.976013,204.960007,751.520020
607.072021,206.912003,739.807983
601.216003,195.199997,741.760010
603.168030,204.960007,737.856018
607.072021,206.912003,735.903992
603.168030,193.248001,741.760010
599.263977,195.199997,741.760010
601.216003,191.296005,726.143982
603.168030,195.199997,732.000000
601.216003,193.248001,733.952026
610.976013,183.488007,726.143982
601.216003,189.343994,724.192017
599.263977,193.248001,720.288025
595.359985,187.391998,726.143982
591.455994,181.535995,728.096008
587.552002,179.584000,720.288025
589.504028,163.968002,724.192017
583.648010,173.727997,718.335999
585.599976,179.584000,714.432007
583.648010,177.632004,720.288025
583.648010,177.632004,714.432007
589.504028,181.535995,732.000000
591.455994,167.871994,716.383972
587.552002,169.824005,720.288025
589.504028,179.584000,720.288025
583.648010,171.776001,710.528015
585.599976,179.584000,714.432007
591.455994,179.584000,714.432007
587.552002,169.824005,712.479980
587.552002,165.919998,714.432007
591.455994,171.776001,712.479980
589.504028,175.679993,702.719971
589.504028,177.632004,710.528015
591.455994,171.776001,712.479980
589.504028,167.871994,706.624023
591.455994,173.727997,722.239990
593.408020,177.632004,704.671997
585.599976,171.776001,706.624023
587.552002,171.776001,706.624023
587.552002,167.871994,706.624023
591.455994,181.535995,712.479980
595.359985,171.776001,710.528015
591.455994,173.727997,706.624023
585.599976,173.727997,706.624023
593.408020,171.776001,704.671997
585.599976,169.824005,704.671997
599.263977,181.535995,708.575989
589.504028,179.584000,708.575989
601.216003,177.632004,706.624023
599.263977,173.727997,708.575989
593.408020,175.679993,698.815979
595.359985,167.871994,698.815979
595.359985,175.679993,702.719971
607.072021,177.632004,708.575989
597.312012,181.535995,706.624023
599.263977,185.440002,704.671997
597.312012,179.584000,716.383972
593.408020,183.488007,708.575989
593.408020,197.151993,712.479980
599.263977,197.151993,712.479980
607.072021,187.391998,708.575989
597.312012,183.488007,712.479980
605.119995,193.248001,714.432007
601.216003,199.104004,708.575989
609.023987,189.343994,720.288025
601.216003,193.248001,710.528015
605.119995,195.199997,714.432007
603.168030,187.391998,716.383972
607.072021,201.056000,726.143982
601.216003,193.248001,722.239990
607.072021,201.056000,728.096008
605.119995,195.199997,722.239990
605.119995,204.960007,720.288025
599.263977,197.151993,718.335999
610.976013,203.007996,724.192017
612.927979,201.056000,716.383972
607.072021,204.960007,720.288025
626.591980,203.007996,714.432007
610.976013,191.296005,718.335999
605.119995,193.248001,720.288025
603.168030,203.007996,722.239990
620.736023,212.768005,728.096008
607.072021,201.056000,728.096008
605.119995,206.912003,720.288025
593.408020,203.007996,720.288025
609.023987,206.912003,724.192017
612.927979,208.863998,712.479980
609.023987,208.863998,716.383972
605.119995,206.912003,718.335999
610.976013,204.960007,716.383972
610.976013,206.912003,724.192017
607.072021,210.815994,718.335999
597.312012,214.720001,722.239990
603.168030,212.768005,714.432007
595.359985,216.671997,722.239990
595.359985,212.768005,718.335999
601.216003,218.623993,722.239990
605.119995,208.863998,718.335999
597.312012,212.768005,714.432007
599.263977,210.815994,710.528015
601.216003,203.007996,714.432007
605.119995,206.912003,712.479980
603.168030,218.623993,716.383972
603.168030,212.768005,712.479980
595.359985,214.720001,712.479980
597.312012,212.768005,718.335999
595.359985,214.720001,710.528015
601.216003,218.623993,710.528015
603.168030,210.815994,714.432007
597.312012,204.960007,710.528015
603.168030,216.671997,712.479980
603.168030,218.623993,710.528015
610.976013,224.479996,714.432007
593.408020,216.671997,716.383972
605.119995,218.623993,718.335999
595.359985,214.720001,714.432007
597.312012,218.623993,714.432007
601.216003,224.479996,718.335999
597.312012,218.623993,718.335999
603.168030,218.623993,716.383972
607.072021,218.623993,716.383972
610.976013,224.479996,712.479980
609.023987,218.623993,706.624023
610.976013,218.623993,700.768005
607.072021,206.912003,710.528015
614.880005,216.671997,720.288025
607.072021,216.671997,716.383972
605.119995,204.960007,710.528015
609.023987,224.479996,714.432007
601.216003,212.768005,716.383972
607.072021,212.768005,724.192017
603.168030,218.623993,718.335999
605.119995,216.671997,714.432007
609.023987,214.720001,718.335999
609.023987,212.768005,714.432007
607.072021,212.768005,718.335999
618.783997,220.576004,720.288025
614.880005,214.720001,714.432007
614.880005,210.815994,720.288025
607.072021,212.768005,718.335999
607.072021,210.815994,724.192017
614.880005,214.720001,716.383972
609.023987,212.768005,724.192017
614.880005,212.768005,722.239990
609.023987,208.863998,720.288025
620.736023,208.863998,722.239990
609.023987,216.671997,720.288025
616.831970,210.815994,710.528015
616.831970,212.768005,714.432007
618.783997,216.671997,728.096008
609.023987,212.768005,718.335999
610.976013,210.815994,724.192017
614.880005,218.623993,718.335999
605.119995,214.720001,726.143982
614.880005,214.720001,724.192017
609.023987,212.768005,712.479980
612.927979,203.007996,706.624023
614.880005,206.912003,712.479980
616.831970,208.863998,716.383972
618.783997,204.960007,724.192017
614.880005,212.768005,714.432007
616.831970,203.007996,716.383972
620.736023,208.863998,722.239990
616.831970,212.768005,710.528015
612.927979,203.007996,714.432007
616.831970,208.863998,712.479980
616.831970,210.815994,710.528015
616.831970,214.720001,720.288025
610.976013,203.007996,724.192017
616.831970,203.007996,720.288025
620.736023,199.104004,712.479980
620.736023,216.671997,714.432007
616.831970,210.815994,718.335999
620.736023,216.671997,722.239990
618.783997,224.479996,720.288025
620.736023,208.863998,720.288025
616.831970,210.815994,722.239990
612.927979,208.863998,726.143982
612.927979,212.768005,728.096008
618.783997,222.528000,716.383972
622.687988,212.768005,716.383972
616.831970,220.576004,714.432007
626.591980,210.815994,710.528015
616.831970,214.720001,710.528015
620.736023,216.671997,712.479980
614.880005,216.671997,714.432007
616.831970,216.671997,708.575989
614.880005,214.720001,712.479980
609.023987,208.863998,716.383972
614.880005,210.815994,716.383972
618.783997,220.576004,718.335999
616.831970,212.768005,708.575989
618.783997,208.863998,706.624023
614.880005,216.671997,710.528015
609.023987,216.671997,692.960022
616.831970,218.623993,694.911987
612.927979,212.768005,696.864014
612.927979,218.623993,694.911987
609.023987,226.432007,698.815979
614.880005,218.623993,700.768005
609.023987,218.623993,706.624023
620.736023,212.768005,700.768005
624.640015,222.528000,694.911987
630.495972,228.384003,706.624023
630.495972,222.528000,700.768005
628.544006,230.335999,696.864014
630.495972,226.432007,706.624023
640.255981,226.432007,694.911987
634.400024,222.528000,702.719971
640.255981,228.384003,708.575989
646.112000,228.384003,698.815979
638.304016,228.384003,708.575989
636.351990,236.192001,702.719971
648.064026,236.192001,694.911987
636.351990,224.479996,710.528015
638.304016,222.528000,698.815979
646.112000,228.384003,708.575989
644.159973,234.240005,712.479980
644.159973,226.432007,706.624023
650.015991,228.384003,714.432007
644.159973,236.192001,714.432007
653.919983,242.048004,710.528015
653.919983,234.240005,706.624023
657.823975,224.479996,706.624023
655.872009,234.240005,724.192017
650.015991,240.095993,720.288025
657.823975,236.192001,726.143982
653.919983,236.192001,724.192017
650.015991,238.143997,720.288025
648.064026,240.095993,716.383972
653.919983,234.240005,716.383972
648.064026,240.095993,714.432007
657.823975,242.048004,714.432007
665.632019,236.192001,712.479980
651.968018,236.192001,706.624023
644.159973,230.335999,704.671997
648.064026,240.095993,710.528015
644.159973,240.095993,704.671997
646.112000,249.856003,704.671997
644.159973,244.000000,698.815979
651.968018,244.000000,702.719971
657.823975,242.048004,700.768005
653.919983,249.856003,696.864014
653.919983,242.048004,696.864014
642.208008,238.143997,687.104004
642.208008,238.143997,696.864014
650.015991,238.143997,691.007996
646.112000,238.143997,694.911987
651.968018,234.240005,692.960022
646.112000,238.143997,687.104004
648.064026,240.095993,691.007996
640.255981,236.192001,696.864014
646.112000,244.000000,691.007996
638.304016,247.904007,692.960022
644.159973,238.143997,692.960022
651.968018,232.287994,694.911987
648.064026,245.951996,683.200012
648.064026,240.095993,689.056030
650.015991,232.287994,689.056030
653.919983,234.240005,687.104004
648.064026,240.095993,691.007996
646.112000,242.048004,691.007996
636.351990,242.048004,694.911987
640.255981,236.192001,692.960022
644.159973,240.095993,692.960022
650.015991,242.048004,698.815979
640.255981,234.240005,696.864014
646.112000,238.143997,698.815979
636.351990,240.095993,698.815979
648.064026,238.143997,694.911987
644.159973,244.000000,700.768005
648.064026,230.335999,698.815979
646.112000,236.192001,702.719971
653.919983,236.192001,706.624023
648.064026,230.335999,698.815979
646.112000,230.335999,704.671997
636.351990,245.951996,700.768005
646.112000,228.384003,702.719971
640.255981,224.479996,698.815979
636.351990,222.528000,698.815979
636.351990,222.528000,691.007996
630.495972,220.576004,694.911987
634.400024,232.287994,698.815979
642.208008,218.623993,698.815979
638.304016,218.623993,706.624023
634.400024,218.623993,704.671997
628.544006,220.576004,698.815979
632.447998,216.671997,700.768005
632.447998,214.720001,696.864014
632.447998,220.576004,704.671997
642.208008,220.576004,694.911987
636.351990,212.768005,704.671997
630.495972,224.479996,708.575989
632.447998,212.768005,694.911987
634.400024,210.815994,700.768005
624.640015,204.960007,708.575989
618.783997,206.912003,694.911987
634.400024,197.151993,696.864014
624.640015,206.912003,702.719971
630.495972,210.815994,700.768005
620.736023,204.960007,700.768005
626.591980,199.104004,704.671997
632.447998,193.248001,702.719971
628.544006,193.248001,706.624023
620.736023,195.199997,698.815979
618.783997,206.912003,698.815979
624.640015,183.488007,696.864014
622.687988,193.248001,696.864014
616.831970,193.248001,694.911987
622.687988,187.391998,694.911987
620.736023,187.391998,700.768005
612.927979,193.248001,696.864014
620.736023,193.248001,700.768005
626.591980,191.296005,696.864014
620.736023,201.056000,694.911987
616.831970,193.248001,694.911987
618.783997,187.391998,694.911987
618.783997,187.391998,696.864014
618.783997,185.440002,696.864014
618.783997,187.391998,696.864014
610.976013,185.440002,696.864014
614.880005,179.584000,679.296021
612.927979,177.632004,691.007996
612.927979,183.488007,698.815979
610.976013,179.584000,704.671997
614.880005,185.440002,698.815979
612.927979,187.391998,691.007996
610.976013,187.391998,691.007996
605.119995,179.584000,694.911987
610.976013,179.584000,704.671997
610.976013,175.679993,691.007996
609.023987,185.440002,700.768005
618.783997,187.391998,698.815979
605.119995,179.584000,694.911987
612.927979,185.440002,696.864014
618.783997,185.440002,696.864014
609.023987,177.632004,696.864014
614.880005,179.584000,691.007996
610.976013,181.535995,706.624023
610.976013,183.488007,698.815979
605.119995,181.535995,700.768005
607.072021,185.440002,704.671997
601.216003,183.488007,698.815979
601.216003,171.776001,696.864014
607.072021,173.727997,708.575989
605.119995,177.632004,704.671997
609.023987,169.824005,698.815979
612.927979,175.679993,710.528015
605.119995,169.824005,716.383972
609.023987,175.679993,716.383972
603.168030,179.584000,712.479980
610.976013,169.824005,714.432007
603.168030,175.679993,706.624023
597.312012,158.112000,706.624023
595.359985,169.824005,712.479980
601.216003,163.968002,700.768005
593.408020,163.968002,706.624023
599.263977,167.871994,706.624023
603.168030,160.063995,708.575989
595.359985,165.919998,700.768005
595.359985,162.016006,698.815979
591.455994,158.112000,700.768005
599.263977,152.255997,694.911987
587.552002,150.304001,696.864014
587.552002,162.016006,702.719971
581.695984,158.112000,698.815979
587.552002,148.352005,696.864014
585.599976,152.255997,683.200012
583.648010,150.304001,692.960022
577.791992,150.304001,685.151978
583.648010,148.352005,691.007996
581.695984,150.304001,691.007996
581.695984,148.352005,696.864014
585.599976,158.112000,689.056030
577.791992,142.496002,687.104004
575.840027,130.783997,681.247986
579.744019,140.544006,675.392029
571.935974,154.207993,681.247986
571.935974,150.304001,683.200012
581.695984,142.496002,689.056030
587.552002,138.591995,692.960022
573.888000,132.735992,689.056030
569.984009,136.639999,683.200012
569.984009,142.496002,679.296021
568.031982,132.735992,683.200012
571.935974,130.783997,685.151978
569.984009,130.783997,679.296021
571.935974,130.783997,685.151978
575.840027,132.735992,679.296021
575.840027,136.639999,677.343994
573.888000,124.928001,677.343994
573.888000,124.928001,675.392029
569.984009,128.832001,673.440002
569.984009,119.071999,675.392029
571.935974,126.879997,667.583984
569.984009,132.735992,671.487976
579.744019,126.879997,675.392029
575.840027,124.928001,679.296021
579.744019,113.216003,677.343994
575.840027,119.071999,667.583984
575.840027,115.167999,667.583984
573.888000,115.167999,667.583984
575.840027,105.407997,663.679993
575.840027,115.167999,673.440002
575.840027,109.311996,669.536011
573.888000,109.311996,673.440002
571.935974,109.311996,663.679993
569.984009,109.311996,667.583984
569.984009,117.120003,669.536011
577.791992,107.360001,667.583984
571.935974,109.311996,669.536011
573.888000,105.407997,673.440002
575.840027,107.360001,671.487976
583.648010,122.975998,669.536011
585.599976,113.216003,663.679993
575.840027,121.024002,663.679993
585.599976,111.264000,673.440002
591.455994,109.311996,675.392029
585.599976,111.264000,663.679993
593.408020,111.264000,665.632019
587.552002,113.216003,669.536011
585.599976,111.264000,669.536011
589.504028,111.264000,667.583984
597.312012,109.311996,673.440002
597.312012,103.456001,665.632019
601.216003,111.264000,665.632019
589.504028,107.360001,669.536011
601.216003,109.311996,667.583984
607.072021,107.360001,665.632019
603.168030,97.599998,667.583984
597.312012,97.599998,671.487976
603.168030,101.503998,665.632019
603.168030,103.456001,671.487976
603.168030,101.503998,665.632019
605.119995,101.503998,667.583984
610.976013,105.407997,671.487976
610.976013,111.264000,669.536011
607.072021,107.360001,659.776001
612.927979,101.503998,673.440002
609.023987,107.360001,669.536011
609.023987,107.360001,665.632019
614.880005,107.360001,669.536011
612.927979,103.456001,673.440002
609.023987,105.407997,667.583984
622.687988,113.216003,673.440002
620.736023,111.264000,663.679993
616.831970,111.264000,675.392029
618.783997,119.071999,671.487976
618.783997,119.071999,665.632019
614.880005,111.264000,663.679993
610.976013,121.024002,669.536011
618.783997,119.071999,665.632019
612.927979,109.311996,661.728027
616.831970,122.975998,651.968018
610.976013,117.120003,663.679993
612.927979,121.024002,663.679993
605.119995,122.975998,661.728027
620.736023,132.735992,663.679993
622.687988,138.591995,655.872009
622.687988,126.879997,657.823975
626.591980,138.591995,665.632019
616.831970,132.735992,663.679993
612.927979,134.688004,661.728027
622.687988,134.688004,650.015991
616.831970,142.496002,644.159973
620.736023,128.832001,657.823975
620.736023,124.928001,653.919983
626.591980,126.879997,651.968018
624.640015,128.832001,653.919983
620.736023,122.975998,648.064026
616.831970,128.832001,659.776001
624.640015,128.832001,653.919983
630.495972,132.735992,653.919983
624.640015,140.544006,655.872009
624.640015,138.591995,661.728027
624.640015,134.688004,653.919983
626.591980,128.832001,651.968018
634.400024,124.928001,651.968018
632.447998,126.879997,644.159973
632.447998,134.688004,653.919983
636.351990,142.496002,651.968018
640.255981,142.496002,650.015991
630.495972,138.591995,648.064026
628.544006,146.399994,648.064026
634.400024,152.255997,655.872009
628.544006,154.207993,653.919983
624.640015,158.112000,644.159973
638.304016,148.352005,644.159973
638.304016,154.207993,650.015991
638.304016,154.207993,642.208008
638.304016,154.207993,644.159973
624.640015,150.304001,646.112000
628.544006,148.352005,648.064026
630.495972,162.016006,648.064026
630.495972,160.063995,642.208008
632.447998,158.112000,642.208008
636.351990,158.112000,644.159973
634.400024,160.063995,638.304016
638.304016,160.063995,638.304016
638.304016,160.063995,636.351990
632.447998,163.968002,638.304016
634.400024,160.063995,646.112000
634.400024,160.063995,646.112000
632.447998,165.919998,640.255981
636.351990,165.919998,640.255981
640.255981,160.063995,636.351990
640.255981,160.063995,646.112000
646.112000,167.871994,636.351990
640.255981,169.824005,630.495972
642.208008,165.919998,628.544006
644.159973,179.584000,632.447998
650.015991,177.632004,638.304016
646.112000,169.824005,640.255981
646.112000,165.919998,636.351990
648.064026,167.871994,632.447998
650.015991,169.824005,640.255981
646.112000,167.871994,642.208008
651.968018,177.632004,640.255981
646.112000,173.727997,644.159973
650.015991,171.776001,642.208008
648.064026,175.679993,644.159973
651.968018,177.632004,640.255981
646.112000,173.727997,640.255981
648.064026,189.343994,646.112000
648.064026,175.679993,646.112000
648.064026,177.632004,653.919983
638.304016,173.727997,655.872009
642.208008,173.727997,651.968018
640.255981,171.776001,644.159973
650.015991,167.871994,650.015991
632.447998,181.535995,650.015991
632.447998,167.871994,648.064026
632.447998,167.871994,648.064026
640.255981,173.727997,642.208008
632.447998,169.824005,640.255981
630.495972,173.727997,648.064026
632.447998,173.727997,648.064026
628.544006,165.919998,644.159973
622.687988,167.871994,638.304016
616.831970,167.871994,636.351990
609.023987,163.968002,642.208008
614.880005,158.112000,626.591980
618.783997,156.160004,628.544006
616.831970,152.255997,626.591980
618.783997,152.255997,634.400024
626.591980,154.207993,632.447998
620.736023,152.255997,618.783997
607.072021,158.112000,605.119995
609.023987,162.016006,601.216003
599.263977,158.112000,579.744019
603.168030,160.063995,571.935974
595.359985,165.919998,571.935974
599.263977,163.968002,554.367981
587.552002,165.919998,556.320007
597.312012,175.679993,562.176025
595.359985,162.016006,550.463989
599.263977,156.160004,554.367981
599.263977,154.207993,552.416016
603.168030,144.447998,560.223999
603.168030,150.304001,568.031982
603.168030,138.591995,564.127991
605.119995,136.639999,566.080017
603.168030,128.832001,571.935974
601.216003,130.783997,564.127991
603.168030,122.975998,568.031982
605.119995,109.311996,566.080017
612.927979,124.928001,573.888000
609.023987,119.071999,568.031982
605.119995,121.024002,568.031982
605.119995,121.024002,562.176025
607.072021,124.928001,554.367981
607.072021,119.071999,556.320007
603.168030,117.120003,556.320007
610.976013,117.120003,548.512024
597.312012,122.975998,548.512024
601.216003,121.024002,538.752014
607.072021,121.024002,548.512024
589.504028,124.928001,546.559998
595.359985,130.783997,536.799988
597.312012,119.071999,528.992004
607.072021,126.879997,534.848022
607.072021,132.735992,523.135986
612.927979,138.591995,525.088013
612.927979,126.879997,519.231995
605.119995,126.879997,519.231995
605.119995,124.928001,519.231995
609.023987,124.928001,530.943970
614.880005,121.024002,523.135986
605.119995,113.216003,528.992004
618.783997,107.360001,525.088013
616.831970,103.456001,538.752014
624.640015,95.648003,538.752014
626.591980,93.695999,544.607971
630.495972,91.744003,542.656006
622.687988,91.744003,542.656006
632.447998,83.935997,538.752014
636.351990,83.935997,538.752014
650.015991,93.695999,540.703979
659.776001,99.552002,536.799988
653.919983,81.984001,534.848022
651.968018,81.984001,544.607971
663.679993,83.935997,550.463989
669.536011,91.744003,538.752014
675.392029,81.984001,534.848022
683.200012,74.176003,536.799988
681.247986,87.839996,540.703979
689.056030,80.031998,538.752014
694.911987,85.888000,542.656006
708.575989,83.935997,552.416016
714.432007,83.935997,556.320007
720.288025,91.744003,566.080017
716.383972,95.648003,583.648010
735.903992,109.311996,573.888000
739.807983,122.975998,599.263977
751.520020,132.735992,614.880005
759.328003,124.928001,624.640015
761.280029,138.591995,628.544006
765.184021,152.255997,640.255981
774.943970,158.112000,653.919983
774.943970,165.919998,655.872009
776.895996,175.679993,665.632019
778.848022,183.488007,657.823975
776.895996,191.296005,659.776001
790.559998,197.151993,669.536011
794.463989,189.343994,673.440002
798.367981,187.391998,659.776001
786.656006,204.960007,655.872009
792.512024,208.863998,665.632019
780.799988,214.720001,659.776001
792.512024,210.815994,650.015991
788.607971,199.104004,648.064026
794.463989,214.720001,644.159973
792.512024,220.576004,642.208008
790.559998,220.576004,634.400024
788.607971,222.528000,632.447998
792.512024,228.384003,616.831970
798.367981,220.576004,612.927979
788.607971,224.479996,614.880005
794.463989,222.528000,605.119995
794.463989,212.768005,609.023987
788.607971,220.576004,610.976013
792.512024,212.768005,601.216003
800.320007,212.768005,609.023987
810.080017,206.912003,603.168030
808.127991,210.815994,614.880005
815.935974,208.863998,628.544006
823.744019,214.720001,630.495972
833.504028,228.384003,640.255981
837.408020,224.479996,640.255981
839.359985,220.576004,653.919983
847.168030,222.528000,648.064026
837.408020,228.384003,650.015991
849.119995,226.432007,659.776001
858.880005,224.479996,661.728027
864.736023,224.479996,661.728027
864.736023,226.432007,651.968018
868.640015,232.287994,650.015991
868.640015,232.287994,651.968018
882.304016,232.287994,659.776001
878.400024,244.000000,651.968018
882.304016,249.856003,655.872009
894.015991,242.048004,657.823975
892.064026,245.951996,661.728027
890.112000,247.904007,657.823975
892.064026,257.664001,659.776001
888.159973,253.759995,665.632019
892.064026,251.807999,663.679993
899.872009,253.759995,655.872009
897.919983,245.951996,659.776001
897.919983,265.471985,659.776001
901.823975,257.664001,667.583984
909.632019,247.904007,657.823975
901.823975,247.904007,667.583984
907.679993,253.759995,659.776001
905.728027,255.712006,669.536011
917.440002,242.048004,667.583984
915.487976,244.000000,681.247986
913.536011,249.856003,681.247986
919.392029,249.856003,679.296021
905.728027,247.904007,671.487976
907.679993,247.904007,685.151978
903.776001,247.904007,683.200012
913.536011,244.000000,681.247986
905.728027,257.664001,685.151978
899.872009,244.000000,689.056030
897.919983,245.951996,691.007996
895.968018,253.759995,679.296021
901.823975,249.856003,694.911987
901.823975,244.000000,689.056030
895.968018,236.192001,694.911987
897.919983,222.528000,689.056030
882.304016,220.576004,692.960022
892.064026,210.815994,679.296021
878.400024,203.007996,689.056030
880.351990,191.296005,679.296021
888.159973,179.584000,683.200012
870.591980,171.776001,677.343994
862.783997,152.255997,685.151978
856.927979,154.207993,685.151978
854.976013,130.783997,679.296021
853.023987,124.928001,689.056030
856.927979,119.071999,687.104004
856.927979,122.975998,689.056030
853.023987,124.928001,685.151978
847.168030,121.024002,692.960022
851.072021,115.167999,692.960022
854.976013,113.216003,687.104004
853.023987,117.120003,687.104004
847.168030,117.120003,692.960022
845.216003,115.167999,698.815979
845.216003,107.360001,704.671997
827.648010,111.264000,692.960022
821.791992,95.648003,700.768005
827.648010,95.648003,698.815979
825.695984,91.744003,706.624023
829.599976,87.839996,704.671997
821.791992,76.127998,702.719971
821.791992,76.127998,696.864014
821.791992,76.127998,700.768005
813.984009,76.127998,694.911987
812.031982,74.176003,696.864014
810.080017,58.560001,689.056030
800.320007,62.464001,691.007996
798.367981,54.655998,689.056030
802.271973,56.608002,681.247986
808.127991,48.799999,675.392029
798.367981,42.944000,659.776001
784.703979,39.040001,663.679993
792.512024,33.183998,661.728027
790.559998,17.568001,651.968018
786.656006,17.568001,650.015991
782.752014,11.712000,636.351990
774.943970,5.856000,628.544006
780.799988,-1.952000,634.400024
782.752014,-1.952000,622.687988
778.848022,-13.664000,609.023987
772.992004,-9.760000,607.072021
774.943970,-15.616000,599.263977
769.088013,-21.472000,591.455994
763.231995,-13.664000,583.648010
765.184021,-21.472000,575.840027
763.231995,-29.280001,571.935974
767.135986,-37.088001,560.223999
759.328003,-33.183998,560.223999
761.280029,-25.375999,558.271973
741.760010,-29.280001,554.367981
745.664001,-31.232000,548.512024
745.664001,-33.183998,532.895996
739.807983,-37.088001,532.895996
747.616028,-37.088001,532.895996
745.664001,-29.280001,527.039978
741.760010,-35.136002,527.039978
741.760010,-35.136002,523.135986
743.711975,-31.232000,511.424011
739.807983,-33.183998,505.567993
730.047974,-23.424000,491.903992
728.096008,-23.424000,489.951996
724.192017,-21.472000,480.191986
730.047974,-1.952000,476.287994
724.192017,-1.952000,472.384003
733.952026,-17.568001,458.720001
724.192017,-37.088001,468.480011
710.528015,-58.560001,462.623993
708.575989,-70.272003,464.575989
708.575989,-21.472000,466.528015
732.000000,42.944000,456.768005
714.432007,74.176003,447.007996
712.479980,46.848000,441.152008
708.575989,-7.808000,425.536011
730.047974,-1.952000,417.727997
726.143982,39.040001,411.872009
728.096008,48.799999,411.872009
724.192017,21.472000,411.872009
737.856018,9.760000,404.063995
735.903992,13.664000,407.967987
739.807983,23.424000,402.112000
733.952026,37.088001,404.063995
733.952026,42.944000,390.399994
730.047974,35.136002,394.303986
737.856018,35.136002,388.447998
743.711975,48.799999,392.351990
751.520020,62.464001,390.399994
743.711975,76.127998,382.592010
745.664001,81.984001,378.687988
747.616028,81.984001,384.544006
772.992004,91.744003,384.544006
776.895996,99.552002,384.544006
790.559998,107.360001,378.687988
780.799988,113.216003,370.880005
800.320007,142.496002,380.640015
808.127991,146.399994,376.735992
798.367981,140.544006,368.928009
804.223999,152.255997,374.783997
808.127991,150.304001,378.687988
812.031982,152.255997,368.928009
806.176025,150.304001,359.167999
808.127991,156.160004,349.407990
819.840027,158.112000,349.407990
833.504028,140.544006,339.648010
837.408020,132.735992,353.312012
837.408020,140.544006,349.407990
839.359985,138.591995,349.407990
847.168030,146.399994,347.455994
845.216003,138.591995,359.167999
845.216003,138.591995,363.071991
841.312012,138.591995,368.928009
847.168030,136.639999,388.447998
843.263977,140.544006,382.592010
847.168030,124.928001,388.447998
854.976013,121.024002,392.351990
868.640015,122.975998,396.256012
860.831970,126.879997,394.303986
870.591980,126.879997,404.063995
880.351990,128.832001,407.967987
872.544006,134.688004,409.920013
888.159973,146.399994,417.727997
882.304016,152.255997,425.536011
888.159973,171.776001,415.776001
888.159973,189.343994,431.391998
894.015991,203.007996,439.200012
892.064026,224.479996,431.391998
907.679993,228.384003,439.200012
913.536011,240.095993,443.104004
927.200012,249.856003,452.864014
913.536011,263.519989,466.528015
933.056030,263.519989,470.432007
940.864014,279.135986,474.335999
942.815979,281.088013,478.239990
958.432007,284.992004,482.144012
954.528015,275.231995,478.239990
952.575989,261.567993,474.335999
993.567993,249.856003,478.239990
956.479980,253.759995,474.335999
981.856018,277.183990,484.096008
964.288025,286.944000,482.144012
989.664001,269.376007,482.144012
983.807983,257.664001,488.000000
979.903992,265.471985,497.760010
989.664001,283.040009,503.615997
977.952026,261.567993,517.280029
989.664001,232.287994,513.375977
993.567993,212.768005,507.519989
1001.375977,224.479996,507.519989
1001.375977,195.199997,525.088013
1009.184021,185.440002,527.039978
991.616028,179.584000,542.656006
1003.328003,199.104004,552.416016
1001.375977,189.343994,546.559998
995.520020,163.968002,554.367981
993.567993,165.919998,562.176025
1003.328003,175.679993,554.367981
999.424011,173.727997,556.320007
1005.280029,171.776001,550.463989
1018.943970,165.919998,550.463989
1001.375977,183.488007,556.320007
1015.039978,203.007996,558.271973
987.711975,232.287994,542.656006
991.616028,251.807999,556.320007
983.807983,259.615997,569.984009
995.520020,263.519989,569.984009
999.424011,284.992004,569.984009
995.520020,294.752014,568.031982
1003.328003,279.135986,562.176025
989.664001,267.424011,558.271973
1003.328003,251.807999,566.080017
983.807983,232.287994,566.080017
972.096008,212.768005,556.320007
989.664001,185.440002,528.992004
995.520020,165.919998,517.280029
1003.328003,136.639999,505.567993
999.424011,130.783997,491.903992
1003.328003,134.688004,484.096008
991.616028,136.639999,488.000000
948.671997,109.311996,480.191986
819.840027,-89.792000,507.519989
933.056030,-21.472000,581.695984
890.112000,119.071999,659.776001
915.487976,-105.407997,671.487976
882.304016,-193.248001,650.015991
911.583984,21.472000,626.591980
872.544006,56.608002,595.359985
923.296021,-76.127998,550.463989
970.143982,-91.744003,499.712006
976.000000,0.000000,474.335999
968.192017,-11.712000,458.720001
997.471985,-56.608002,445.056000
1001.375977,-19.520000,431.391998
997.471985,48.799999,425.536011
1003.328003,23.424000,437.247986
1018.943970,23.424000,443.104004
999.424011,121.024002,450.911987
997.471985,181.535995,441.152008
999.424011,208.863998,445.056000
989.664001,255.712006,437.247986
983.807983,300.608002,445.056000
979.903992,302.559998,452.864014
979.903992,318.175995,445.056000
948.671997,345.503998,448.959991
950.624023,312.320007,447.007996
940.864014,261.567993,435.295990
935.007996,249.856003,415.776001
921.343994,228.384003,404.063995
929.151978,160.063995,386.496002
905.728027,119.071999,382.592010
909.632019,103.456001,365.023987
886.208008,78.080002,363.071991
890.112000,58.560001,347.455994
874.495972,44.896000,327.936005
880.351990,58.560001,325.984009
872.544006,72.223999,300.608002
878.400024,85.888000,283.040009
880.351990,117.120003,279.135986
862.783997,121.024002,261.567993
870.591980,132.735992,263.519989
854.976013,167.871994,255.712006
862.783997,204.960007,251.807999
856.927979,212.768005,245.951996
853.023987,218.623993,236.192001
856.927979,240.095993,222.528000
866.687988,236.192001,216.671997
847.168030,226.432007,203.007996
872.544006,220.576004,201.056000
864.736023,220.576004,187.391998
864.736023,203.007996,179.584000
862.783997,177.632004,163.968002
868.640015,165.919998,165.919998
858.880005,144.447998,156.160004
864.736023,142.496002,142.496002
858.880005,117.120003,142.496002
935.007996,136.639999,162.016006
923.296021,109.311996,163.968002
925.247986,74.176003,165.919998
929.151978,121.024002,173.727997
933.056030,146.399994,173.727997
927.200012,122.975998,167.871994
923.296021,134.688004,183.488007
935.007996,163.968002,204.960007
919.392029,140.544006,224.479996
966.239990,171.776001,249.856003
991.616028,255.712006,263.519989
1032.608032,240.095993,294.752014
1005.280029,189.343994,341.600006
983.807983,232.287994,372.832001
962.335999,281.088013,390.399994
952.575989,283.040009,429.440002
933.056030,224.479996,470.432007
979.903992,240.095993,495.808014
1003.328003,247.904007,503.615997
1028.703979,204.960007,511.424011
1044.319946,208.863998,519.231995
1046.271973,214.720001,528.992004
1044.319946,210.815994,519.231995
749.567993,398.208008,714.432007
640.255981,712.479980,1389.823975
1052.128052,515.328003,1479.615967
1056.031982,29.280001,1438.624023
1266.848022,439.200012,1278.560059
1354.687988,938.911987,1015.039978
1397.631958,704.671997,825.695984
1352.735962,501.664001,872.544006
1259.040039,437.247986,966.239990
1180.959961,238.143997,892.064026
1169.248047,283.040009,692.960022
1175.104004,329.888000,488.000000
1196.576050,80.031998,357.216003
1177.056030,-9.760000,318.175995
1104.832031,163.968002,376.735992
1054.079956,130.783997,439.200012
1054.079956,-17.568001,462.623993
1061.887939,62.464001,429.440002
1069.696045,169.824005,396.256012
1081.407959,72.223999,366.976013
1079.456055,29.280001,388.447998
1077.504028,99.552002,406.015991
1057.984009,87.839996,402.112000
1054.079956,107.360001,390.399994
1067.744019,152.255997,380.640015
1071.647949,136.639999,363.071991
1071.647949,140.544006,347.455994
1093.119995,158.112000,339.648010
1104.832031,136.639999,335.743988
1106.784058,146.399994,335.743988
1102.880005,193.248001,353.312012
1108.735962,259.615997,347.455994
1098.975952,245.951996,372.832001
1098.975952,-40.992001,407.967987
1118.495972,-513.375977,423.584015
1130.208008,-716.383972,421.631989
1114.592041,-593.408020,450.911987
1095.072021,-374.783997,448.959991
1097.024048,-124.928001,450.911987
1112.640015,97.599998,448.959991
1116.543945,216.671997,452.864014
1122.400024,175.679993,450.911987
1122.400024,17.568001,441.152008
1130.208008,-150.304001,425.536011
1114.592041,-275.231995,402.112000
1106.784058,-286.944000,392.351990
1097.024048,-232.287994,370.880005
1095.072021,-162.016006,365.023987
1091.167969,-81.984001,353.312012
1075.552002,-5.856000,353.312012
1057.984009,39.040001,333.791992
1038.463989,83.935997,306.463989
1026.751953,126.879997,273.279999
1015.039978,179.584000,259.615997
1015.039978,210.815994,232.287994
1009.184021,286.944000,197.151993
1003.328003,351.359985,171.776001
999.424011,308.415985,144.447998
999.424011,74.176003,140.544006
991.616028,-142.496002,154.207993
987.711975,-232.287994,183.488007
993.567993,-80.031998,224.479996
1003.328003,167.871994,263.519989
1018.943970,325.984009,275.231995
1022.848022,302.559998,292.799988
1018.943970,171.776001,281.088013
1013.088013,44.896000,263.519989
1001.375977,-33.183998,224.479996
999.424011,-33.183998,189.343994
993.567993,33.183998,167.871994
979.903992,163.968002,156.160004
966.239990,210.815994,162.016006
948.671997,193.248001,140.544006
958.432007,136.639999,128.832001
940.864014,-7.808000,134.688004
952.575989,-35.136002,156.160004
952.575989,72.223999,189.343994
985.760010,218.623993,214.720001
1001.375977,322.079987,220.576004
1024.800049,312.320007,197.151993
1044.319946,195.199997,152.255997
1016.992004,42.944000,117.120003
993.567993,-1.952000,81.984001
981.856018,58.560001,58.560001
962.335999,142.496002,44.896000
968.192017,179.584000,33.183998
948.671997,177.632004,1.952000
917.440002,132.735992,-21.472000
895.968018,76.127998,-50.751999
890.112000,33.183998,-81.984001
868.640015,-13.664000,-117.120003
853.023987,-9.760000,-150.304001
839.359985,50.751999,-191.296005
872.544006,415.776001,-195.199997
917.440002,837.408020,-173.727997
917.440002,808.127991,-93.695999
895.968018,318.175995,-19.520000
925.247986,-345.503998,15.616000
974.047974,-800.320007,-1.952000
933.056030,-749.567993,-5.856000
847.168030,-253.759995,-15.616000
827.648010,251.807999,-35.136002
847.168030,417.727997,-46.848000
837.408020,95.648003,-37.088001
837.408020,-505.567993,-1.952000
868.640015,-735.903992,13.664000
880.351990,-357.216003,29.280001
851.072021,290.847992,39.040001
901.823975,845.216003,5.856000
919.392029,1063.839966,-42.944000
919.392029,823.744019,-89.792000
921.343994,316.223999,-140.544006
946.719971,-124.928001,-206.912003
917.440002,-290.847992,-238.143997
886.208008,-132.735992,-226.432007
853.023987,216.671997,-216.671997
940.864014,458.720001,-238.143997
976.000000,450.911987,-238.143997
985.760010,122.975998,-185.440002
964.288025,-325.984009,-113.216003
962.335999,-419.679993,-85.888000
921.343994,109.311996,-52.703999
829.599976,911.583984,17.568001
798.367981,1032.608032,87.839996
810.080017,284.992004,72.223999
901.823975,-751.520020,60.512001
1052.128052,-1711.904053,83.935997
1079.456055,-1752.895996,175.679993
1030.656006,-595.359985,238.143997
1028.703979,808.127991,255.712006
1075.552002,1481.567993,234.240005
1104.832031,1405.439941,183.488007
1040.416016,837.408020,144.447998
1036.511963,-81.984001,60.512001
1063.839966,-827.648010,-13.664000
1061.887939,-993.567993,-62.464001
1022.848022,-462.623993,-103.456001
956.479980,421.631989,-148.352005
903.776001,1534.271973,-111.264000
849.119995,2143.295898,-39.040001
784.703979,1526.463989,-15.616000
845.216003,-165.919998,-72.223999
964.288025,-1524.511963,-185.440002
1040.416016,-1961.760010,-236.192001
981.856018,-1622.112061,-163.968002
940.864014,-706.624023,-78.080002
944.768005,357.216003,13.664000
1005.280029,1038.463989,39.040001
1032.608032,1157.536011,-17.568001
1028.703979,774.943970,-78.080002
1059.936035,154.207993,-119.071999
1087.264038,-527.039978,-162.016006
1112.640015,-849.119995,-201.056000
1077.504028,-726.143982,-245.951996
1018.943970,-273.279999,-263.519989
1030.656006,158.112000,-251.807999
944.768005,540.703979,-97.599998
931.104004,874.495972,60.512001
913.536011,880.351990,156.160004
1030.656006,612.927979,150.304001
1042.368042,136.639999,111.264000
1063.839966,-456.768005,58.560001
1061.887939,-806.176025,58.560001
1114.592041,-753.471985,40.992001
1122.400024,-365.023987,5.856000
1122.400024,76.127998,-27.327999
1122.400024,622.687988,-85.888000
1134.112061,1270.751953,-33.183998
1163.391968,1743.135986,70.272003
1253.183960,1957.855957,169.824005
1102.880005,1305.887939,255.712006
1093.119995,-324.032013,255.712006
1194.624023,-1561.599976,177.632004
1241.472046,-1670.911987,101.503998
1245.375977,-753.471985,29.280001
1225.855957,528.992004,-13.664000
1237.567993,1411.296021,-44.896000
1245.375977,1561.599976,-99.552002
1257.088013,938.911987,-136.639999
1284.416016,-107.360001,-175.679993
1337.119995,-907.679993,-191.296005
1368.352051,-1173.151978,-203.007996
1348.832031,-1015.039978,-113.216003
1272.703979,-400.160004,1.952000
1186.816040,402.112000,150.304001
1159.488037,841.312012,288.895996
1235.615967,1026.751953,349.407990
1257.088013,1157.536011,372.832001
1298.079956,1218.047974,322.079987
1245.375977,911.583984,294.752014
1266.848022,-70.272003,242.048004
1366.400024,-958.432007,175.679993
1382.015991,-1190.719971,144.447998
1393.728027,-673.440002,119.071999
1383.968018,142.496002,113.216003
1370.303955,815.935974,126.879997
1397.631958,1147.776001,117.120003
1389.823975,1081.407959,130.783997
1391.776001,603.168030,160.063995
1401.536011,-148.352005,169.824005
1440.576050,-706.624023,160.063995
1426.911987,-794.463989,156.160004
1434.719971,-441.152008,140.544006
1419.104004,156.160004,119.071999
1403.488037,636.351990,115.167999
1401.536011,804.223999,97.599998
1428.864014,659.776001,83.935997
1423.008057,347.455994,66.367996
1891.488037,-1050.176025,1401.536011
3115.392090,-2810.879883,4743.359863
3880.575928,-1549.887939,5524.160156
4116.768066,81.984001,3847.392090
3304.736084,138.591995,2402.912109
2045.696045,519.231995,1188.767944
1155.583984,1411.296021,-277.183990
671.487976,2063.263916,-1483.520020
566.080017,1624.063965,-1866.112061
806.176025,735.903992,-1335.167969
1138.015991,95.648003,-355.264008
1438.624023,-327.936005,509.471985
1663.104004,-251.807999,864.736023
1743.135986,-331.839996,870.591980
1688.479980,-173.727997,663.679993
1497.183960,95.648003,134.688004
1214.144043,374.783997,-435.295990
1007.231995,513.375977,-753.471985
972.096008,448.959991,-733.952026
1081.407959,312.320007,-447.007996
1255.135986,189.343994,-91.744003
1391.776001,74.176003,265.471985
1493.280029,19.520000,472.384003
1542.079956,68.320000,435.295990
1415.199951,138.591995,245.951996
1243.423950,199.104004,39.040001
1067.744019,232.287994,-117.120003
995.520020,247.904007,-193.248001
1022.848022,261.567993,-230.335999
1081.407959,197.151993,-203.007996
1130.208008,87.839996,-83.935997
1147.776001,-3.904000,1.952000
1165.343994,-21.472000,37.088001
1151.680054,-5.856000,-7.808000
1112.640015,31.232000,-74.176003
1081.407959,81.984001,-105.407997
1077.504028,76.127998,-78.080002
1089.215942,70.272003,-66.367996
1097.024048,85.888000,-80.031998
1122.400024,99.552002,-85.888000
1149.728027,60.512001,-31.232000
1165.343994,42.944000,23.424000
1184.864014,40.992001,44.896000
1182.911987,62.464001,37.088001
1177.056030,99.552002,13.664000
1165.343994,97.599998,-1.952000
1136.063965,93.695999,-11.712000
1132.160034,80.031998,-7.808000
1132.160034,68.320000,-1.952000
1145.823975,70.272003,-19.520000
1128.255981,60.512001,-35.136002
1097.024048,27.327999,-44.896000
1087.264038,31.232000,-62.464001
1081.407959,44.896000,-91.744003
1087.264038,15.616000,-83.935997
1083.359985,-1.952000,-40.992001
1097.024048,-11.712000,-17.568001
1093.119995,13.664000,-27.327999
1102.880005,-7.808000,-37.088001
1097.024048,-50.751999,-23.424000
1100.927979,-35.136002,-15.616000
1106.784058,-29.280001,-21.472000
1100.927979,-46.848000,-19.520000
1091.167969,-68.320000,-21.472000
1093.119995,-72.223999,-23.424000
1098.975952,-68.320000,-1.952000
1087.264038,-62.464001,-25.375999
1073.599976,-70.272003,-44.896000
1071.647949,-83.935997,-50.751999
1071.647949,-70.272003,-33.183998
1079.456055,-37.088001,3.904000
1071.647949,50.751999,-1.952000
1083.359985,162.016006,-23.424000
1087.264038,240.095993,-11.712000
1100.927979,327.936005,25.375999
1114.592041,363.071991,52.703999
1112.640015,380.640015,70.272003
1112.640015,376.735992,25.375999
1106.784058,343.552002,9.760000
1085.312012,298.656006,17.568001
1069.696045,259.615997,15.616000
1061.887939,201.056000,0.000000
1052.128052,130.783997,-42.944000
1044.319946,62.464001,-52.703999
1030.656006,25.375999,-39.040001
1028.703979,11.712000,-29.280001
1016.992004,23.424000,-33.183998
1018.943970,56.608002,-58.560001
1024.800049,66.367996,-68.320000
1024.800049,74.176003,-48.799999
1024.800049,81.984001,-42.944000
1026.751953,107.360001,-56.608002
1030.656006,128.832001,-76.127998
1026.751953,121.024002,-83.935997
1038.463989,115.167999,-74.176003
1056.031982,113.216003,-46.848000
1057.984009,105.407997,-50.751999
1046.271973,97.599998,-52.703999
1056.031982,87.839996,-52.703999
1063.839966,81.984001,-74.176003
1046.271973,83.935997,-78.080002
1038.463989,85.888000,-87.839996
1050.176025,72.223999,-83.935997
1071.647949,72.223999,-83.935997
1075.552002,78.080002,-72.223999
1067.744019,74.176003,-66.367996
1056.031982,58.560001,-89.792000
1057.984009,64.416000,-95.648003
1065.791992,62.464001,-81.984001
1071.647949,81.984001,-56.608002
1054.079956,80.031998,-68.320000
1030.656006,89.792000,-87.839996
1011.135986,83.935997,-95.648003
1015.039978,58.560001,-109.311996
1020.895996,31.232000,-80.031998
1005.280029,29.280001,-93.695999
991.616028,25.375999,-111.264000
991.616028,25.375999,-122.975998
997.471985,13.664000,-99.552002
1026.751953,-31.232000,-19.520000
1077.504028,-91.744003,78.080002
1112.640015,-138.591995,146.399994
1120.447998,-187.391998,165.919998
1089.215942,-204.960007,91.744003
1052.128052,-230.335999,-1.952000
1013.088013,-226.432007,-76.127998
993.567993,-255.712006,-107.360001
983.807983,-277.183990,-146.399994
1007.231995,-230.335999,-162.016006
1030.656006,-197.151993,-142.496002
1059.936035,-160.063995,-105.407997
1087.264038,-76.127998,-78.080002
1114.592041,-39.040001,-46.848000
1145.823975,-56.608002,-9.760000
1163.391968,-54.655998,-7.808000
1157.536011,-48.799999,-23.424000
1147.776001,-54.655998,-56.608002
1130.208008,-27.327999,-93.695999
1136.063965,9.760000,-117.120003
1151.680054,21.472000,-119.071999
1161.439941,39.040001,-113.216003
1175.104004,72.223999,-109.311996
1196.576050,89.792000,-91.744003
1196.576050,111.264000,-83.935997
1190.719971,140.544006,-95.648003
1194.624023,163.968002,-97.599998
1196.576050,177.632004,-83.935997
1212.192017,193.248001,-76.127998
1214.144043,216.671997,-72.223999
1218.047974,228.384003,-74.176003
1210.239990,255.712006,-78.080002
1202.432007,277.183990,-72.223999
1204.384033,283.040009,-74.176003
1212.192017,284.992004,-74.176003
1214.144043,273.279999,-66.367996
1214.144043,279.135986,-60.512001
1221.952026,275.231995,-58.560001
1212.192017,275.231995,-50.751999
1210.239990,261.567993,-56.608002
1206.336060,267.424011,-66.367996
1200.479980,263.519989,-81.984001
1192.671997,251.807999,-81.984001
1184.864014,247.904007,-78.080002
1177.056030,230.335999,-83.935997
1165.343994,220.576004,-80.031998
1167.296021,210.815994,-80.031998
1169.248047,203.007996,-83.935997
1165.343994,187.391998,-93.695999
1151.680054,189.343994,-91.744003
1151.680054,191.296005,-95.648003
1147.776001,181.535995,-109.311996
1149.728027,175.679993,-103.456001
1161.439941,160.063995,-85.888000
1159.488037,163.968002,-87.839996
1167.296021,163.968002,-95.648003
1159.488037,140.544006,-83.935997
1169.248047,121.024002,-76.127998
1161.439941,140.544006,-99.552002
1155.583984,126.879997,-109.311996
1147.776001,128.832001,-103.456001
1157.536011,162.016006,-121.024002
1155.583984,185.440002,-132.735992
1169.248047,173.727997,-111.264000
1177.056030,169.824005,-93.695999
1169.248047,167.871994,-109.311996
1173.151978,187.391998,-111.264000
1177.056030,193.248001,-119.071999
1175.104004,203.007996,-107.360001
1188.767944,199.104004,-111.264000
1188.767944,193.248001,-99.552002
1179.008057,191.296005,-89.792000
1276.608032,257.664001,-140.544006
1153.631958,208.863998,-105.407997
1186.816040,89.792000,-17.568001
1161.439941,76.127998,-72.223999
1069.696045,158.112000,-163.968002
1083.359985,296.704010,-242.048004
1095.072021,284.992004,-238.143997
1186.816040,242.048004,-124.928001
1247.328003,169.824005,-35.136002
1194.624023,171.776001,-35.136002
1100.927979,183.488007,-76.127998
1083.359985,160.063995,-152.255997
1120.447998,97.599998,-189.343994
1120.447998,111.264000,-162.016006
1104.832031,150.304001,-148.352005
1116.543945,234.240005,-179.584000
1126.303955,273.279999,-191.296005
1120.447998,199.104004,-99.552002
1141.920044,169.824005,-46.848000
1171.199951,189.343994,-111.264000
1151.680054,199.104004,-142.496002
1097.024048,177.632004,-105.407997
1089.215942,191.296005,-126.879997
1134.112061,238.143997,-214.720001
1091.167969,162.016006,-146.399994
1098.975952,134.688004,-72.223999
1149.728027,165.919998,-115.167999
1149.728027,173.727997,-111.264000
1132.160034,177.632004,-76.127998
1108.735962,214.720001,-115.167999
1122.400024,232.287994,-162.016006
1104.832031,179.584000,-148.352005
1093.119995,167.871994,-91.744003
1120.447998,206.912003,-97.599998
1114.592041,206.912003,-122.975998
1093.119995,185.440002,-99.552002
1087.264038,171.776001,-101.503998
1097.024048,173.727997,-119.071999
1106.784058,154.207993,-121.024002
1097.024048,128.832001,-101.503998
1106.784058,195.199997,-126.879997
1069.696045,208.863998,-128.832001
1073.599976,163.968002,-95.648003
1097.024048,146.399994,-111.264000
1091.167969,169.824005,-115.167999
1063.839966,181.535995,-83.935997
1067.744019,193.248001,-95.648003
1071.647949,158.112000,-121.024002
1061.887939,124.928001,-113.216003
1044.319946,119.071999,-95.648003
1059.936035,173.727997,-132.735992
1034.560059,171.776001,-130.783997
1028.703979,144.447998,-109.311996
1044.319946,128.832001,-130.783997
1042.368042,97.599998,-146.399994
1038.463989,134.688004,-107.360001
1024.800049,173.727997,-111.264000
1020.895996,144.447998,-126.879997
1034.560059,165.919998,-148.352005
1013.088013,122.975998,-134.688004
1009.184021,121.024002,-109.311996
1026.751953,121.024002,-142.496002
1016.992004,87.839996,-163.968002
1015.039978,95.648003,-117.120003
1003.328003,122.975998,-122.975998
1015.039978,152.255997,-152.255997
1015.039978,124.928001,-136.639999
1015.039978,130.783997,-122.975998
1020.895996,175.679993,-152.255997
989.664001,103.456001,-126.879997
1015.039978,107.360001,-130.783997
1007.231995,66.367996,-160.063995
987.711975,68.320000,-134.688004
1009.184021,136.639999,-134.688004
991.616028,146.399994,-165.919998
989.664001,144.447998,-134.688004
1003.328003,140.544006,-130.783997
1007.231995,101.503998,-134.688004
1001.375977,87.839996,-113.216003
999.424011,99.552002,-119.071999
1005.280029,117.120003,-158.112000
970.143982,95.648003,-122.975998
1003.328003,115.167999,-122.975998
1007.231995,124.928001,-163.968002
989.664001,105.407997,-124.928001
1003.328003,113.216003,-97.599998
1024.800049,134.688004,-144.447998
979.903992,81.984001,-119.071999
997.471985,119.071999,-93.695999
1007.231995,136.639999,-150.304001
981.856018,93.695999,-140.544006
1001.375977,124.928001,-109.311996
1003.328003,95.648003,-148.352005
1001.375977,101.503998,-134.688004
1005.280029,80.031998,-81.984001
1024.800049,97.599998,-128.832001
1015.039978,109.311996,-126.879997
995.520020,99.552002,-91.744003
1007.231995,124.928001,-128.832001
1015.039978,83.935997,-150.304001
1005.280029,76.127998,-115.167999
1016.992004,101.503998,-107.360001
1024.800049,107.360001,-134.688004
1009.184021,68.320000,-109.311996
1015.039978,81.984001,-95.648003
1018.943970,46.848000,-138.591995
1026.751953,87.839996,-126.879997
1020.895996,87.839996,-109.311996
1018.943970,83.935997,-128.832001
1024.800049,93.695999,-115.167999
1028.703979,81.984001,-113.216003
1026.751953,91.744003,-119.071999
1022.848022,74.176003,-109.311996
1036.511963,85.888000,-109.311996
1032.608032,66.367996,-150.304001
1013.088013,64.416000,-113.216003
1024.800049,95.648003,-101.503998
1040.416016,103.456001,-140.544006
1022.848022,85.888000,-124.928001
1030.656006,97.599998,-80.031998
1038.463989,107.360001,-105.407997
1034.560059,83.935997,-124.928001
1026.751953,78.080002,-111.264000
1013.088013,117.120003,-117.120003
1024.800049,103.456001,-150.304001
1013.088013,109.311996,-113.216003
1011.135986,124.928001,-105.407997
1020.895996,103.456001,-148.352005
1038.463989,111.264000,-130.783997
1042.368042,68.320000,-78.080002
1040.416016,128.832001,-81.984001
1026.751953,107.360001,-117.120003
1011.135986,64.416000,-152.255997
1018.943970,81.984001,-138.591995
1028.703979,93.695999,-113.216003
1011.135986,113.216003,-122.975998
1013.088013,122.975998,-136.639999
1003.328003,132.735992,-144.447998
1036.511963,99.552002,-122.975998
948.671997,40.992001,-99.552002
839.359985,230.335999,-95.648003
823.744019,411.872009,-163.968002
950.624023,232.287994,-220.576004
1089.215942,-54.655998,-138.591995
1223.904053,-93.695999,23.424000
1262.943970,-409.920013,58.560001
1184.864014,-169.824005,-3.904000
991.616028,52.703999,-89.792000
843.263977,259.615997,-294.752014
827.648010,347.455994,-376.735992
882.304016,415.776001,-308.415985
962.335999,290.847992,-228.384003
1042.368042,165.919998,-128.832001
1100.927979,-64.416000,-23.424000
1153.631958,-173.727997,54.655998
1126.303955,-167.871994,117.120003
1071.647949,-95.648003,50.751999
1003.328003,81.984001,-124.928001
933.056030,158.112000,-269.376007
899.872009,183.488007,-312.320007
950.624023,107.360001,-277.183990
1030.656006,78.080002,-140.544006
1095.072021,54.655998,1.952000
1097.024048,40.992001,46.848000
1087.264038,56.608002,9.760000
1042.368042,35.136002,-80.031998
1003.328003,68.320000,-152.255997
950.624023,101.503998,-179.584000
927.200012,97.599998,-162.016006
950.624023,50.751999,-138.591995
995.520020,39.040001,-85.888000
1030.656006,42.944000,-37.088001
1054.079956,40.992001,-21.472000
1056.031982,76.127998,-66.367996
1036.511963,81.984001,-101.503998
1005.280029,111.264000,-111.264000
981.856018,113.216003,-132.735992
964.288025,81.984001,-144.447998
972.096008,58.560001,-132.735992
985.760010,29.280001,-85.888000
991.616028,42.944000,-76.127998
997.471985,40.992001,-76.127998
987.711975,64.416000,-111.264000
976.000000,70.272003,-128.832001
983.807983,87.839996,-122.975998
991.616028,81.984001,-113.216003
997.471985,87.839996,-101.503998
989.664001,85.888000,-105.407997
977.952026,35.136002,-111.264000
972.096008,54.655998,-115.167999
974.047974,66.367996,-107.360001
968.192017,76.127998,-113.216003
966.239990,111.264000,-117.120003
974.047974,87.839996,-111.264000
977.952026,66.367996,-109.311996
979.903992,68.320000,-95.648003
985.760010,64.416000,-85.888000
977.952026,72.223999,-81.984001
976.000000,83.935997,-87.839996
970.143982,95.648003,-103.456001
977.952026,93.695999,-99.552002
979.903992,99.552002,-95.648003
976.000000,83.935997,-80.031998
976.000000,62.464001,-70.272003
977.952026,62.464001,-76.127998
977.952026,64.416000,-76.127998
976.000000,76.127998,-83.935997
985.760010,78.080002,-78.080002
976.000000,85.888000,-85.888000
968.192017,78.080002,-93.695999
974.047974,68.320000,-89.792000
972.096008,68.320000,-85.888000
989.664001,70.272003,-78.080002
985.760010,66.367996,-85.888000
993.567993,70.272003,-74.176003
964.288025,72.223999,-83.935997
962.335999,76.127998,-95.648003
974.047974,66.367996,-91.744003
962.335999,66.367996,-93.695999
960.383972,62.464001,-80.031998
970.143982,58.560001,-89.792000
962.335999,50.751999,-89.792000
964.288025,64.416000,-91.744003
962.335999,74.176003,-95.648003
952.575989,70.272003,-91.744003
960.383972,66.367996,-93.695999
956.479980,72.223999,-93.695999
950.624023,74.176003,-83.935997
960.383972,64.416000,-91.744003
956.479980,64.416000,-93.695999
962.335999,58.560001,-83.935997
954.528015,68.320000,-87.839996
956.479980,74.176003,-93.695999
960.383972,68.320000,-95.648003
960.383972,70.272003,-107.360001
950.624023,76.127998,-91.744003
956.479980,70.272003,-89.792000
952.575989,68.320000,-80.031998
962.335999,62.464001,-83.935997
960.383972,62.464001,-85.888000
966.239990,60.512001,-83.935997
968.192017,52.703999,-89.792000
972.096008,52.703999,-81.984001
968.192017,58.560001,-74.176003
960.383972,68.320000,-76.127998
966.239990,58.560001,-83.935997
970.143982,54.655998,-93.695999
966.239990,62.464001,-87.839996
964.288025,66.367996,-87.839996
968.192017,54.655998,-80.031998
970.143982,58.560001,-60.512001
966.239990,66.367996,-66.367996
960.383972,72.223999,-76.127998
960.383972,74.176003,-74.176003
958.432007,68.320000,-78.080002
954.528015,64.416000,-80.031998
966.239990,54.655998,-85.888000
968.192017,56.608002,-80.031998
966.239990,62.464001,-72.223999
960.383972,58.560001,-64.416000
962.335999,58.560001,-70.272003
960.383972,58.560001,-89.792000
966.239990,58.560001,-72.223999
962.335999,68.320000,-83.935997
968.192017,62.464001,-78.080002
962.335999,68.320000,-89.792000
948.671997,58.560001,-85.888000
956.479980,62.464001,-81.984001
962.335999,62.464001,-85.888000
956.479980,56.608002,-85.888000
954.528015,74.176003,-89.792000
952.575989,66.367996,-91.744003
946.719971,60.512001,-93.695999
946.719971,60.512001,-93.695999
944.768005,50.751999,-91.744003
956.479980,72.223999,-93.695999
956.479980,70.272003,-91.744003
954.528015,68.320000,-91.744003
956.479980,66.367996,-93.695999
958.432007,70.272003,-87.839996
958.432007,62.464001,-93.695999
952.575989,66.367996,-95.648003
954.528015,78.080002,-85.888000
956.479980,70.272003,-97.599998
954.528015,70.272003,-89.792000
960.383972,80.031998,-87.839996
958.432007,87.839996,-93.695999
960.383972,80.031998,-81.984001
956.479980,83.935997,-80.031998
956.479980,81.984001,-76.127998
948.671997,87.839996,-85.888000
956.479980,87.839996,-89.792000
958.432007,95.648003,-83.935997
962.335999,91.744003,-72.223999
964.288025,91.744003,-74.176003
952.575989,85.888000,-70.272003
966.239990,97.599998,-68.320000
962.335999,91.744003,-78.080002
958.432007,89.792000,-70.272003
970.143982,95.648003,-70.272003
972.096008,95.648003,-70.272003
960.383972,93.695999,-76.127998
956.479980,95.648003,-68.320000
966.239990,85.888000,-72.223999
952.575989,85.888000,-72.223999
962.335999,93.695999,-83.935997
964.288025,99.552002,-76.127998
960.383972,93.695999,-76.127998
954.528015,95.648003,-85.888000
960.383972,95.648003,-83.935997
964.288025,83.935997,-89.792000
964.288025,91.744003,-89.792000
962.335999,93.695999,-85.888000
966.239990,91.744003,-89.792000
962.335999,89.792000,-89.792000
958.432007,87.839996,-87.839996
958.432007,93.695999,-87.839996
970.143982,103.456001,-81.984001
960.383972,97.599998,-91.744003
962.335999,95.648003,-93.695999
954.528015,97.599998,-85.888000
956.479980,107.360001,-87.839996
962.335999,111.264000,-80.031998
964.288025,107.360001,-83.935997
960.383972,105.407997,-81.984001
966.239990,101.503998,-76.127998
956.479980,103.456001,-95.648003
948.671997,107.360001,-97.599998
952.575989,95.648003,-91.744003
954.528015,103.456001,-93.695999
958.432007,99.552002,-87.839996
958.432007,99.552002,-93.695999
948.671997,107.360001,-91.744003
954.528015,109.311996,-89.792000
954.528015,103.456001,-95.648003
962.335999,109.311996,-93.695999
956.479980,107.360001,-93.695999
960.383972,107.360001,-91.744003
948.671997,103.456001,-101.503998
952.575989,105.407997,-95.648003
956.479980,107.360001,-93.695999
960.383972,101.503998,-87.839996
952.575989,97.599998,-101.503998
948.671997,105.407997,-97.599998
952.575989,103.456001,-91.744003
952.575989,99.552002,-93.695999
960.383972,105.407997,-85.888000
954.528015,107.360001,-93.695999
950.624023,91.744003,-97.599998
944.768005,101.503998,-91.744003
946.719971,99.552002,-97.599998
952.575989,93.695999,-93.695999
962.335999,101.503998,-93.695999
958.432007,93.695999,-87.839996
950.624023,93.695999,-87.839996
948.671997,103.456001,-91.744003
954.528015,99.552002,-89.792000
954.528015,103.456001,-95.648003
944.768005,101.503998,-95.648003
948.671997,99.552002,-91.744003
954.528015,99.552002,-91.744003
956.479980,101.503998,-99.552002
960.383972,97.599998,-95.648003
948.671997,89.792000,-105.407997
944.768005,99.552002,-103.456001
956.479980,97.599998,-97.599998
952.575989,91.744003,-95.648003
962.335999,103.456001,-97.599998
954.528015,101.503998,-101.503998
952.575989,99.552002,-109.311996
954.528015,85.888000,-105.407997
966.239990,95.648003,-101.503998
960.383972,95.648003,-95.648003
958.432007,93.695999,-97.599998
956.479980,91.744003,-105.407997
958.432007,81.984001,-105.407997
960.383972,95.648003,-95.648003
964.288025,85.888000,-95.648003
964.288025,89.792000,-103.456001
960.383972,85.888000,-101.503998
966.239990,83.935997,-91.744003
962.335999,78.080002,-93.695999
964.288025,83.935997,-95.648003
962.335999,78.080002,-99.552002
960.383972,87.839996,-99.552002
962.335999,87.839996,-83.935997
964.288025,91.744003,-89.792000
964.288025,95.648003,-97.599998
970.143982,95.648003,-91.744003
964.288025,85.888000,-91.744003
968.192017,87.839996,-101.503998
970.143982,95.648003,-95.648003
970.143982,89.792000,-91.744003
964.288025,89.792000,-93.695999
972.096008,103.456001,-97.599998
970.143982,97.599998,-109.311996
970.143982,107.360001,-99.552002
968.192017,101.503998,-95.648003
968.192017,101.503998,-95.648003
964.288025,109.311996,-101.503998
966.239990,95.648003,-95.648003
964.288025,115.167999,-95.648003
956.479980,107.360001,-97.599998
964.288025,103.456001,-93.695999
966.239990,105.407997,-93.695999
962.335999,107.360001,-105.407997
974.047974,105.407997,-101.503998
970.143982,111.264000,-85.888000
970.143982,119.071999,-89.792000
968.192017,115.167999,-85.888000
972.096008,109.311996,-83.935997
970.143982,121.024002,-89.792000
972.096008,115.167999,-95.648003
972.096008,121.024002,-93.695999
970.143982,117.120003,-91.744003
974.047974,113.216003,-89.792000
972.096008,109.311996,-81.984001
977.952026,101.503998,-89.792000
993.567993,113.216003,-83.935997
979.903992,109.311996,-89.792000
977.952026,113.216003,-87.839996
981.856018,115.167999,-93.695999
976.000000,117.120003,-83.935997
987.711975,119.071999,-74.176003
981.856018,121.024002,-83.935997
991.616028,113.216003,-80.031998
985.760010,117.120003,-81.984001
976.000000,115.167999,-81.984001
989.664001,115.167999,-81.984001
979.903992,121.024002,-87.839996
981.856018,119.071999,-74.176003
976.000000,126.879997,-80.031998
981.856018,117.120003,-74.176003
972.096008,117.120003,-74.176003
974.047974,117.120003,-80.031998
974.047974,122.975998,-80.031998
974.047974,126.879997,-85.888000
974.047974,121.024002,-80.031998
976.000000,121.024002,-85.888000
976.000000,121.024002,-76.127998
972.096008,119.071999,-68.320000
977.952026,124.928001,-68.320000
966.239990,121.024002,-81.984001
974.047974,126.879997,-76.127998
979.903992,126.879997,-80.031998
968.192017,121.024002,-78.080002
970.143982,122.975998,-64.416000
968.192017,119.071999,-81.984001
968.192017,128.832001,-81.984001
962.335999,124.928001,-80.031998
958.432007,132.735992,-80.031998
962.335999,121.024002,-72.223999
966.239990,128.832001,-72.223999
970.143982,121.024002,-70.272003
962.335999,122.975998,-64.416000
966.239990,119.071999,-78.080002
956.479980,130.783997,-70.272003
962.335999,122.975998,-81.984001
960.383972,126.879997,-68.320000
954.528015,124.928001,-83.935997
952.575989,126.879997,-83.935997
950.624023,126.879997,-81.984001
950.624023,126.879997,-80.031998
944.768005,124.928001,-89.792000
944.768005,117.120003,-85.888000
950.624023,134.688004,-83.935997
944.768005,121.024002,-81.984001
948.671997,122.975998,-87.839996
944.768005,117.120003,-76.127998
942.815979,117.120003,-80.031998
946.719971,126.879997,-72.223999
944.768005,126.879997,-74.176003
938.911987,115.167999,-72.223999
952.575989,121.024002,-64.416000
942.815979,117.120003,-74.176003
940.864014,109.311996,-72.223999
944.768005,111.264000,-70.272003
942.815979,109.311996,-64.416000
944.768005,111.264000,-72.223999
952.575989,111.264000,-64.416000
944.768005,105.407997,-66.367996
960.383972,103.456001,-60.512001
948.671997,105.407997,-58.560001
956.479980,101.503998,-60.512001
958.432007,95.648003,-62.464001
952.575989,97.599998,-58.560001
944.768005,99.552002,-60.512001
950.624023,95.648003,-48.799999
950.624023,91.744003,-54.655998
958.432007,99.552002,-48.799999
958.432007,89.792000,-46.848000
948.671997,87.839996,-50.751999
954.528015,95.648003,-56.608002
946.719971,99.552002,-60.512001
952.575989,95.648003,-50.751999
956.479980,87.839996,-54.655998
948.671997,95.648003,-44.896000
954.528015,85.888000,-54.655998
952.575989,87.839996,-48.799999
954.528015,87.839996,-48.799999
954.528015,85.888000,-54.655998
948.671997,87.839996,-50.751999
946.719971,81.984001,-56.608002
950.624023,80.031998,-60.512001
933.056030,83.935997,-60.512001
944.768005,78.080002,-54.655998
936.960022,80.031998,-54.655998
946.719971,76.127998,-48.799999
950.624023,74.176003,-58.560001
942.815979,80.031998,-58.560001
942.815979,76.127998,-44.896000
938.911987,78.080002,-52.703999
936.960022,70.272003,-58.560001
936.960022,76.127998,-54.655998
948.671997,70.272003,-58.560001
946.719971,70.272003,-50.751999
940.864014,74.176003,-54.655998
940.864014,70.272003,-56.608002
936.960022,62.464001,-48.799999
936.960022,62.464001,-58.560001
940.864014,66.367996,-52.703999
940.864014,74.176003,-58.560001
940.864014,66.367996,-52.703999
944.768005,64.416000,-48.799999
942.815979,66.367996,-50.751999
944.768005,66.367996,-54.655998
942.815979,81.984001,-58.560001
946.719971,72.223999,-52.703999
944.768005,64.416000,-50.751999
944.768005,64.416000,-54.655998
940.864014,56.608002,-54.655998
946.719971,76.127998,-52.703999
940.864014,66.367996,-46.848000
938.911987,74.176003,-54.655998
935.007996,74.176003,-42.944000
946.719971,80.031998,-62.464001
933.056030,70.272003,-56.608002
931.104004,76.127998,-64.416000
931.104004,62.464001,-50.751999
933.056030,76.127998,-54.655998
935.007996,66.367996,-60.512001
925.247986,72.223999,-66.367996
931.104004,74.176003,-62.464001
925.247986,83.935997,-56.608002
931.104004,78.080002,-64.416000
931.104004,76.127998,-68.320000
929.151978,74.176003,-64.416000
931.104004,83.935997,-66.367996
931.104004,78.080002,-56.608002
929.151978,74.176003,-70.272003
917.440002,80.031998,-64.416000
923.296021,76.127998,-68.320000
917.440002,74.176003,-70.272003
929.151978,78.080002,-68.320000
923.296021,72.223999,-74.176003
929.151978,74.176003,-68.320000
925.247986,76.127998,-56.608002
929.151978,78.080002,-60.512001
927.200012,81.984001,-74.176003
921.343994,81.984001,-74.176003
929.151978,80.031998,-56.608002
929.151978,83.935997,-70.272003
931.104004,78.080002,-60.512001
931.104004,81.984001,-54.655998
931.104004,80.031998,-52.703999
929.151978,83.935997,-58.560001
935.007996,78.080002,-62.464001
935.007996,81.984001,-52.703999
942.815979,80.031998,-64.416000
938.911987,74.176003,-52.703999
940.864014,74.176003,-52.703999
940.864014,72.223999,-56.608002
948.671997,80.031998,-58.560001
952.575989,76.127998,-48.799999
950.624023,72.223999,-46.848000
954.528015,80.031998,-40.992001
944.768005,66.367996,-44.896000
948.671997,76.127998,-44.896000
948.671997,74.176003,-58.560001
954.528015,68.320000,-60.512001
946.719971,72.223999,-50.751999
952.575989,68.320000,-50.751999
948.671997,56.608002,-54.655998
962.335999,62.464001,-50.751999
956.479980,54.655998,-46.848000
958.432007,52.703999,-46.848000
952.575989,68.320000,-48.799999
958.432007,62.464001,-50.751999
958.432007,62.464001,-56.608002
956.479980,60.512001,-50.751999
962.335999,62.464001,-50.751999
962.335999,66.367996,-62.464001
962.335999,58.560001,-46.848000
956.479980,60.512001,-50.751999
950.624023,56.608002,-54.655998
950.624023,56.608002,-56.608002
956.479980,54.655998,-62.464001
948.671997,46.848000,-52.703999
954.528015,58.560001,-44.896000
956.479980,60.512001,-46.848000
956.479980,60.512001,-48.799999
944.768005,60.512001,-50.751999
956.479980,56.608002,-50.751999
956.479980,54.655998,-44.896000
960.383972,54.655998,-35.136002
956.479980,54.655998,-44.896000
960.383972,42.944000,-37.088001
952.575989,56.608002,-33.183998
958.432007,52.703999,-40.992001
958.432007,60.512001,-37.088001
962.335999,56.608002,-39.040001
960.383972,58.560001,-40.992001
948.671997,54.655998,-42.944000
948.671997,54.655998,-44.896000
946.719971,60.512001,-37.088001
952.575989,60.512001,-35.136002
950.624023,56.608002,-33.183998
944.768005,54.655998,-44.896000
944.768005,50.751999,-39.040001
946.719971,56.608002,-42.944000
948.671997,50.751999,-42.944000
950.624023,54.655998,-42.944000
942.815979,54.655998,-37.088001
950.624023,46.848000,-46.848000
942.815979,46.848000,-46.848000
942.815979,54.655998,-44.896000
940.864014,48.799999,-48.799999
938.911987,50.751999,-44.896000
935.007996,50.751999,-48.799999
942.815979,52.703999,-54.655998
936.960022,56.608002,-48.799999
929.151978,52.703999,-39.040001
933.056030,40.992001,-42.944000
940.864014,42.944000,-48.799999
929.151978,50.751999,-46.848000
936.960022,52.703999,-46.848000
929.151978,48.799999,-50.751999
931.104004,50.751999,-52.703999
925.247986,54.655998,-46.848000
927.200012,46.848000,-50.751999
929.151978,44.896000,-44.896000
933.056030,39.040001,-48.799999
925.247986,44.896000,-60.512001
925.247986,52.703999,-44.896000
925.247986,60.512001,-46.848000
925.247986,54.655998,-48.799999
936.960022,58.560001,-44.896000
927.200012,58.560001,-46.848000
923.296021,58.560001,-54.655998
927.200012,62.464001,-42.944000
927.200012,60.512001,-39.040001
933.056030,62.464001,-50.751999
938.911987,68.320000,-44.896000
935.007996,64.416000,-40.992001
929.151978,58.560001,-39.040001
935.007996,60.512001,-48.799999
931.104004,60.512001,-40.992001
929.151978,76.127998,-44.896000
936.960022,62.464001,-46.848000
938.911987,72.223999,-44.896000
935.007996,68.320000,-50.751999
925.247986,62.464001,-48.799999
938.911987,80.031998,-48.799999
929.151978,74.176003,-50.751999
929.151978,80.031998,-54.655998
940.864014,66.367996,-52.703999
940.864014,64.416000,-58.560001
936.960022,62.464001,-50.751999
942.815979,80.031998,-58.560001
944.768005,80.031998,-60.512001
940.864014,74.176003,-46.848000
938.911987,68.320000,-44.896000
