ACC_X,ACC_Y,ACC_Z
595.359985,482.144012,650.015991
599.263977,474.335999,653.919983
589.504028,489.951996,648.064026
587.552002,484.096008,653.919983
589.504028,493.855988,640.255981
587.552002,478.239990,653.919983
587.552002,478.239990,651.968018
587.552002,486.048004,646.112000
589.504028,480.191986,644.159973
589.504028,484.096008,644.159973
591.455994,484.096008,644.159973
591.455994,489.951996,655.872009
589.504028,491.903992,653.919983
583.648010,489.951996,657.823975
583.648010,488.000000,650.015991
585.599976,486.048004,644.159973
589.504028,489.951996,648.064026
585.599976,489.951996,651.968018
585.599976,489.951996,648.064026
577.791992,491.903992,650.015991
587.552002,484.096008,650.015991
583.648010,489.951996,648.064026
585.599976,493.855988,648.064026
585.599976,489.951996,657.823975
583.648010,495.808014,651.968018
583.648010,488.000000,650.015991
587.552002,478.239990,650.015991
585.599976,491.903992,653.919983
583.648010,497.760010,648.064026
585.599976,493.855988,651.968018
583.648010,493.855988,653.919983
587.552002,484.096008,655.872009
577.791992,493.855988,650.015991
583.648010,501.664001,651.968018
583.648010,497.760010,651.968018
583.648010,491.903992,653.919983
577.791992,505.567993,650.015991
577.791992,499.712006,653.919983
587.552002,497.760010,646.112000
585.599976,489.951996,653.919983
575.840027,488.000000,653.919983
571.935974,493.855988,644.159973
583.648010,493.855988,644.159973
571.935974,491.903992,650.015991
577.791992,493.855988,650.015991
583.648010,489.951996,651.968018
577.791992,491.903992,659.776001
583.648010,497.760010,648.064026
579.744019,495.808014,650.015991
583.648010,495.808014,648.064026
575.840027,499.712006,653.919983
577.791992,497.760010,648.064026
573.888000,493.855988,650.015991
585.599976,495.808014,648.064026
571.935974,501.664001,644.159973
583.648010,499.712006,653.919983
581.695984,503.615997,650.015991
585.599976,501.664001,648.064026
583.648010,495.808014,650.015991
583.648010,505.567993,651.968018
585.599976,501.664001,648.064026
581.695984,507.519989,646.112000
579.744019,503.615997,650.015991
581.695984,513.375977,653.919983
573.888000,509.471985,659.776001
577.791992,511.424011,663.679993
587.552002,513.375977,653.919983
589.504028,509.471985,650.015991
581.695984,509.471985,650.015991
593.408020,515.328003,653.919983
591.455994,513.375977,661.728027
591.455994,503.615997,655.872009
581.695984,513.375977,661.728027
585.599976,507.519989,655.872009
587.552002,509.471985,655.872009
587.552002,511.424011,650.015991
587.552002,515.328003,651.968018
587.552002,503.615997,657.823975
591.455994,513.375977,655.872009
591.455994,515.328003,653.919983
585.599976,503.615997,653.919983
587.552002,513.375977,650.015991
589.504028,511.424011,655.872009
585.599976,521.184021,651.968018
587.552002,515.328003,655.872009
587.552002,515.328003,653.919983
587.552002,515.328003,655.872009
585.599976,523.135986,651.968018
593.408020,517.280029,650.015991
585.599976,515.328003,661.728027
589.504028,523.135986,653.919983
587.552002,525.088013,657.823975
591.455994,511.424011,661.728027
597.312012,503.615997,665.632019
603.168030,513.375977,659.776001
593.408020,507.519989,659.776001
585.599976,507.519989,663.679993
587.552002,515.328003,655.872009
585.599976,517.280029,655.872009
591.455994,515.328003,651.968018
589.504028,511.424011,661.728027
601.216003,517.280029,659.776001
593.408020,513.375977,659.776001
597.312012,505.567993,667.583984
595.359985,523.135986,657.823975
587.552002,515.328003,655.872009
591.455994,511.424011,661.728027
589.504028,509.471985,661.728027
591.455994,507.519989,665.632019
597.312012,503.615997,659.776001
593.408020,517.280029,659.776001
593.408020,519.231995,665.632019
595.359985,507.519989,661.728027
601.216003,513.375977,665.632019
599.263977,509.471985,663.679993
595.359985,517.280029,663.679993
595.359985,517.280029,669.536011
589.504028,517.280029,663.679993
593.408020,519.231995,669.536011
601.216003,521.184021,669.536011
597.312012,521.184021,665.632019
593.408020,519.231995,669.536011
599.263977,521.184021,667.583984
601.216003,511.424011,659.776001
603.168030,515.328003,667.583984
603.168030,511.424011,667.583984
599.263977,519.231995,667.583984
599.263977,519.231995,667.583984
605.119995,523.135986,675.392029
601.216003,521.184021,673.440002
595.359985,511.424011,671.487976
595.359985,517.280029,669.536011
603.168030,521.184021,667.583984
597.312012,513.375977,663.679993
601.216003,517.280029,677.343994
599.263977,521.184021,673.440002
599.263977,511.424011,679.296021
603.168030,509.471985,671.487976
605.119995,515.328003,671.487976
609.023987,523.135986,671.487976
597.312012,515.328003,665.632019
593.408020,503.615997,675.392029
595.359985,507.519989,675.392029
599.263977,517.280029,679.296021
601.216003,521.184021,675.392029
593.408020,515.328003,675.392029
601.216003,517.280029,679.296021
601.216003,517.280029,681.247986
589.504028,513.375977,669.536011
599.263977,515.328003,673.440002
595.359985,517.280029,673.440002
595.359985,521.184021,677.343994
595.359985,515.328003,667.583984
599.263977,521.184021,673.440002
601.216003,521.184021,673.440002
597.312012,515.328003,669.536011
597.312012,511.424011,663.679993
597.312012,511.424011,665.632019
603.168030,515.328003,665.632019
603.168030,515.328003,665.632019
603.168030,515.328003,669.536011
605.119995,517.280029,667.583984
603.168030,511.424011,669.536011
599.263977,515.328003,681.247986
603.168030,523.135986,681.247986
603.168030,519.231995,675.392029
603.168030,515.328003,669.536011
599.263977,528.992004,671.487976
599.263977,523.135986,669.536011
603.168030,515.328003,673.440002
607.072021,521.184021,677.343994
607.072021,519.231995,675.392029
605.119995,509.471985,677.343994
603.168030,517.280029,673.440002
607.072021,515.328003,677.343994
610.976013,517.280029,677.343994
597.312012,525.088013,679.296021
603.168030,521.184021,667.583984
593.408020,517.280029,673.440002
599.263977,515.328003,675.392029
603.168030,519.231995,679.296021
605.119995,521.184021,675.392029
597.312012,517.280029,667.583984
593.408020,515.328003,675.392029
597.312012,513.375977,673.440002
593.408020,519.231995,673.440002
597.312012,519.231995,685.151978
599.263977,517.280029,665.632019
595.359985,515.328003,677.343994
591.455994,515.328003,673.440002
597.312012,517.280029,671.487976
585.599976,513.375977,667.583984
587.552002,519.231995,665.632019
583.648010,509.471985,667.583984
583.648010,511.424011,671.487976
577.791992,515.328003,669.536011
583.648010,515.328003,665.632019
581.695984,519.231995,673.440002
577.791992,513.375977,665.632019
575.840027,497.760010,661.728027
577.791992,509.471985,663.679993
569.984009,507.519989,651.968018
579.744019,505.567993,653.919983
581.695984,499.712006,646.112000
571.935974,505.567993,650.015991
571.935974,497.760010,650.015991
568.031982,505.567993,648.064026
568.031982,509.471985,648.064026
568.031982,499.712006,640.255981
568.031982,499.712006,646.112000
558.271973,495.808014,648.064026
566.080017,495.808014,657.823975
554.367981,501.664001,648.064026
566.080017,495.808014,657.823975
562.176025,489.951996,655.872009
558.271973,491.903992,657.823975
566.080017,493.855988,669.536011
562.176025,493.855988,661.728027
566.080017,491.903992,661.728027
568.031982,501.664001,663.679993
562.176025,499.712006,659.776001
562.176025,495.808014,665.632019
566.080017,493.855988,663.679993
556.320007,493.855988,667.583984
560.223999,499.712006,667.583984
558.271973,513.375977,661.728027
569.984009,501.664001,665.632019
564.127991,501.664001,653.919983
562.176025,499.712006,661.728027
571.935974,499.712006,657.823975
558.271973,495.808014,651.968018
560.223999,497.760010,659.776001
564.127991,495.808014,653.919983
564.127991,491.903992,651.968018
558.271973,495.808014,653.919983
554.367981,501.664001,648.064026
558.271973,501.664001,657.823975
558.271973,491.903992,657.823975
562.176025,499.712006,653.919983
566.080017,501.664001,657.823975
569.984009,499.712006,657.823975
568.031982,509.471985,661.728027
569.984009,505.567993,659.776001
573.888000,499.712006,651.968018
569.984009,501.664001,663.679993
566.080017,497.760010,657.823975
569.984009,499.712006,669.536011
575.840027,503.615997,669.536011
573.888000,509.471985,679.296021
571.935974,503.615997,677.343994
568.031982,507.519989,675.392029
575.840027,517.280029,671.487976
571.935974,507.519989,667.583984
566.080017,507.519989,665.632019
583.648010,509.471985,673.440002
569.984009,511.424011,671.487976
569.984009,499.712006,681.247986
571.935974,511.424011,677.343994
569.984009,521.184021,667.583984
566.080017,509.471985,663.679993
569.984009,511.424011,671.487976
566.080017,515.328003,669.536011
568.031982,521.184021,663.679993
568.031982,507.519989,659.776001
575.840027,511.424011,659.776001
569.984009,501.664001,665.632019
571.935974,503.615997,665.632019
579.744019,515.328003,669.536011
568.031982,521.184021,663.679993
571.935974,515.328003,663.679993
571.935974,515.328003,667.583984
566.080017,507.519989,659.776001
566.080017,515.328003,667.583984
562.176025,521.184021,661.728027
558.271973,513.375977,663.679993
568.031982,519.231995,665.632019
558.271973,513.375977,661.728027
571.935974,513.375977,665.632019
571.935974,511.424011,663.679993
571.935974,517.280029,657.823975
571.935974,515.328003,659.776001
571.935974,515.328003,657.823975
571.935974,513.375977,669.536011
573.888000,517.280029,655.872009
571.935974,521.184021,665.632019
569.984009,528.992004,653.919983
569.984009,517.280029,657.823975
571.935974,515.328003,659.776001
569.984009,527.039978,651.968018
569.984009,517.280029,661.728027
566.080017,525.088013,661.728027
569.984009,519.231995,657.823975
573.888000,515.328003,661.728027
564.127991,513.375977,661.728027
562.176025,515.328003,661.728027
566.080017,511.424011,636.351990
568.031982,511.424011,644.159973
575.840027,519.231995,650.015991
564.127991,523.135986,651.968018
566.080017,513.375977,657.823975
571.935974,519.231995,651.968018
571.935974,525.088013,655.872009
577.791992,521.184021,653.919983
573.888000,513.375977,665.632019
566.080017,519.231995,650.015991
579.744019,507.519989,651.968018
571.935974,517.280029,651.968018
571.935974,517.280029,648.064026
571.935974,513.375977,640.255981
573.888000,519.231995,650.015991
579.744019,505.567993,651.968018
575.840027,505.567993,650.015991
575.840027,509.471985,648.064026
581.695984,505.567993,648.064026
579.744019,495.808014,644.159973
581.695984,495.808014,642.208008
577.791992,505.567993,644.159973
583.648010,505.567993,636.351990
577.791992,511.424011,651.968018
585.599976,493.855988,640.255981
591.455994,505.567993,636.351990
585.599976,499.712006,640.255981
587.552002,491.903992,646.112000
585.599976,497.760010,648.064026
589.504028,501.664001,646.112000
585.599976,495.808014,646.112000
589.504028,491.903992,648.064026
601.216003,489.951996,644.159973
599.263977,491.903992,650.015991
595.359985,484.096008,646.112000
589.504028,484.096008,650.015991
591.455994,488.000000,648.064026
603.168030,488.000000,655.872009
603.168030,486.048004,655.872009
605.119995,482.144012,659.776001
593.408020,472.384003,655.872009
605.119995,478.239990,655.872009
614.880005,478.239990,659.776001
605.119995,474.335999,659.776001
609.023987,472.384003,659.776001
612.927979,480.191986,651.968018
618.783997,470.432007,655.872009
616.831970,472.384003,659.776001
620.736023,472.384003,661.728027
616.831970,468.480011,659.776001
618.783997,464.575989,667.583984
618.783997,466.528015,665.632019
614.880005,472.384003,655.872009
616.831970,464.575989,659.776001
614.880005,462.623993,650.015991
618.783997,464.575989,659.776001
626.591980,466.528015,657.823975
616.831970,462.623993,659.776001
622.687988,462.623993,657.823975
620.736023,460.671997,665.632019
624.640015,452.864014,655.872009
620.736023,452.864014,659.776001
624.640015,450.911987,661.728027
622.687988,450.911987,661.728027
632.447998,452.864014,663.679993
630.495972,448.959991,665.632019
612.927979,448.959991,661.728027
634.400024,447.007996,665.632019
626.591980,448.959991,673.440002
626.591980,458.720001,665.632019
632.447998,443.104004,671.487976
628.544006,445.056000,667.583984
636.351990,437.247986,669.536011
628.544006,447.007996,663.679993
624.640015,435.295990,659.776001
632.447998,441.152008,667.583984
638.304016,439.200012,663.679993
626.591980,447.007996,663.679993
634.400024,431.391998,661.728027
626.591980,435.295990,673.440002
630.495972,431.391998,667.583984
642.208008,435.295990,663.679993
628.544006,431.391998,659.776001
636.351990,435.295990,669.536011
628.544006,443.104004,667.583984
636.351990,421.631989,671.487976
636.351990,425.536011,671.487976
636.351990,421.631989,661.728027
628.544006,421.631989,677.343994
630.495972,435.295990,665.632019
638.304016,429.440002,675.392029
630.495972,431.391998,677.343994
630.495972,435.295990,677.343994
632.447998,425.536011,675.392029
626.591980,421.631989,677.343994
624.640015,423.584015,667.583984
626.591980,437.247986,671.487976
632.447998,427.488007,675.392029
632.447998,423.584015,683.200012
632.447998,425.536011,691.007996
638.304016,427.488007,683.200012
630.495972,421.631989,681.247986
638.304016,433.343994,689.056030
634.400024,425.536011,687.104004
636.351990,425.536011,681.247986
632.447998,423.584015,685.151978
632.447998,423.584015,677.343994
632.447998,423.584015,683.200012
620.736023,427.488007,679.296021
632.447998,423.584015,689.056030
626.591980,427.488007,689.056030
624.640015,425.536011,675.392029
622.687988,415.776001,675.392029
624.640015,421.631989,679.296021
628.544006,423.584015,683.200012
630.495972,413.824005,681.247986
624.640015,409.920013,689.056030
624.640015,411.872009,691.007996
622.687988,409.920013,685.151978
616.831970,407.967987,677.343994
634.400024,406.015991,667.583984
616.831970,406.015991,681.247986
618.783997,427.488007,677.343994
626.591980,407.967987,685.151978
620.736023,409.920013,679.296021
618.783997,409.920013,677.343994
616.831970,411.872009,667.583984
620.736023,406.015991,673.440002
618.783997,409.920013,685.151978
612.927979,419.679993,673.440002
610.976013,419.679993,681.247986
618.783997,409.920013,673.440002
612.927979,415.776001,679.296021
609.023987,419.679993,659.776001
616.831970,406.015991,673.440002
610.976013,406.015991,671.487976
605.119995,402.112000,669.536011
605.119995,407.967987,667.583984
603.168030,407.967987,671.487976
605.119995,398.208008,669.536011
610.976013,404.063995,675.392029
601.216003,407.967987,669.536011
607.072021,407.967987,667.583984
610.976013,402.112000,667.583984
607.072021,409.920013,665.632019
607.072021,409.920013,665.632019
601.216003,409.920013,663.679993
601.216003,402.112000,663.679993
601.216003,409.920013,667.583984
614.880005,407.967987,671.487976
603.168030,423.584015,667.583984
607.072021,413.824005,673.440002
609.023987,419.679993,675.392029
609.023987,409.920013,667.583984
612.927979,415.776001,677.343994
610.976013,402.112000,673.440002
614.880005,404.063995,673.440002
612.927979,406.015991,669.536011
618.783997,406.015991,669.536011
610.976013,409.920013,669.536011
607.072021,413.824005,677.343994
609.023987,409.920013,669.536011
614.880005,411.872009,663.679993
607.072021,415.776001,677.343994
603.168030,419.679993,667.583984
605.119995,409.920013,665.632019
605.119995,415.776001,659.776001
601.216003,409.920013,665.632019
597.312012,423.584015,669.536011
603.168030,421.631989,665.632019
607.072021,419.679993,665.632019
597.312012,413.824005,675.392029
595.359985,413.824005,673.440002
589.504028,423.584015,663.679993
591.455994,406.015991,669.536011
587.552002,419.679993,675.392029
589.504028,415.776001,669.536011
583.648010,411.872009,663.679993
589.504028,423.584015,663.679993
591.455994,411.872009,663.679993
589.504028,411.872009,663.679993
585.599976,406.015991,665.632019
581.695984,409.920013,655.872009
591.455994,421.631989,655.872009
583.648010,411.872009,669.536011
587.552002,413.824005,653.919983
581.695984,409.920013,661.728027
573.888000,419.679993,659.776001
579.744019,421.631989,655.872009
579.744019,421.631989,655.872009
577.791992,431.391998,653.919983
573.888000,417.727997,653.919983
579.744019,413.824005,651.968018
573.888000,411.872009,657.823975
568.031982,421.631989,650.015991
569.984009,421.631989,657.823975
569.984009,431.391998,650.015991
564.127991,425.536011,650.015991
568.031982,427.488007,653.919983
564.127991,439.200012,646.112000
562.176025,421.631989,650.015991
562.176025,425.536011,646.112000
560.223999,437.247986,640.255981
550.463989,425.536011,640.255981
562.176025,425.536011,642.208008
554.367981,439.200012,640.255981
560.223999,425.536011,638.304016
556.320007,431.391998,638.304016
550.463989,431.391998,646.112000
542.656006,427.488007,632.447998
556.320007,437.247986,638.304016
554.367981,431.391998,640.255981
548.512024,425.536011,640.255981
544.607971,439.200012,632.447998
544.607971,441.152008,634.400024
548.512024,429.440002,632.447998
542.656006,439.200012,630.495972
542.656006,433.343994,634.400024
538.752014,431.391998,632.447998
542.656006,431.391998,636.351990
544.607971,435.295990,630.495972
534.848022,423.584015,630.495972
536.799988,425.536011,628.544006
530.943970,439.200012,624.640015
534.848022,435.295990,630.495972
536.799988,433.343994,624.640015
540.703979,431.391998,620.736023
540.703979,435.295990,618.783997
540.703979,435.295990,618.783997
544.607971,437.247986,622.687988
530.943970,433.343994,612.927979
538.752014,431.391998,622.687988
538.752014,435.295990,620.736023
544.607971,431.391998,620.736023
538.752014,437.247986,618.783997
532.895996,433.343994,626.591980
540.703979,439.200012,618.783997
542.656006,443.104004,622.687988
554.367981,429.440002,616.831970
542.656006,437.247986,616.831970
564.127991,439.200012,616.831970
558.271973,433.343994,624.640015
566.080017,437.247986,630.495972
562.176025,439.200012,630.495972
560.223999,441.152008,630.495972
558.271973,439.200012,628.544006
564.127991,448.959991,644.159973
564.127991,439.200012,638.304016
552.416016,447.007996,642.208008
566.080017,439.200012,648.064026
566.080017,447.007996,648.064026
575.840027,447.007996,640.255981
575.840027,435.295990,636.351990
581.695984,425.536011,638.304016
577.791992,443.104004,644.159973
573.888000,435.295990,644.159973
579.744019,439.200012,642.208008
571.935974,447.007996,638.304016
569.984009,441.152008,628.544006
569.984009,454.816010,628.544006
577.791992,445.056000,636.351990
573.888000,450.911987,630.495972
575.840027,452.864014,628.544006
583.648010,454.816010,632.447998
562.176025,447.007996,628.544006
585.599976,454.816010,632.447998
581.695984,460.671997,638.304016
575.840027,458.720001,634.400024
575.840027,462.623993,628.544006
581.695984,462.623993,638.304016
579.744019,478.239990,644.159973
575.840027,466.528015,650.015991
579.744019,468.480011,650.015991
581.695984,472.384003,651.968018
581.695984,470.432007,653.919983
577.791992,456.768005,661.728027
583.648010,468.480011,653.919983
591.455994,478.239990,653.919983
581.695984,476.287994,650.015991
583.648010,458.720001,648.064026
589.504028,472.384003,657.823975
593.408020,476.287994,661.728027
591.455994,464.575989,661.728027
583.648010,462.623993,655.872009
591.455994,478.239990,661.728027
589.504028,466.528015,651.968018
591.455994,464.575989,657.823975
591.455994,458.720001,661.728027
581.695984,478.239990,657.823975
587.552002,482.144012,653.919983
589.504028,470.432007,659.776001
597.312012,468.480011,675.392029
597.312012,482.144012,663.679993
599.263977,470.432007,679.296021
599.263977,466.528015,669.536011
595.359985,480.191986,673.440002
595.359985,470.432007,679.296021
599.263977,476.287994,677.343994
599.263977,478.239990,679.296021
603.168030,484.096008,677.343994
597.312012,482.144012,677.343994
599.263977,478.239990,683.200012
601.216003,480.191986,677.343994
597.312012,497.760010,683.200012
597.312012,488.000000,685.151978
605.119995,486.048004,679.296021
597.312012,484.096008,683.200012
601.216003,486.048004,677.343994
607.072021,480.191986,683.200012
603.168030,488.000000,685.151978
595.359985,484.096008,679.296021
605.119995,488.000000,685.151978
601.216003,482.144012,679.296021
593.408020,488.000000,665.632019
597.312012,486.048004,673.440002
597.312012,480.191986,671.487976
597.312012,484.096008,671.487976
595.359985,480.191986,675.392029
603.168030,482.144012,679.296021
601.216003,484.096008,685.151978
599.263977,482.144012,671.487976
595.359985,484.096008,679.296021
601.216003,484.096008,683.200012
595.359985,484.096008,679.296021
595.359985,493.855988,685.151978
597.312012,491.903992,679.296021
603.168030,476.287994,671.487976
597.312012,482.144012,675.392029
599.263977,476.287994,671.487976
593.408020,484.096008,675.392029
605.119995,482.144012,679.296021
601.216003,476.287994,679.296021
589.504028,470.432007,683.200012
605.119995,478.239990,679.296021
599.263977,472.384003,683.200012
605.119995,478.239990,679.296021
610.976013,476.287994,689.056030
605.119995,468.480011,681.247986
601.216003,474.335999,689.056030
609.023987,474.335999,675.392029
607.072021,456.768005,677.343994
616.831970,470.432007,677.343994
609.023987,474.335999,675.392029
610.976013,464.575989,681.247986
610.976013,468.480011,687.104004
618.783997,466.528015,691.007996
618.783997,460.671997,691.007996
620.736023,470.432007,691.007996
618.783997,470.432007,689.056030
622.687988,470.432007,687.104004
612.927979,462.623993,696.864014
616.831970,454.816010,706.624023
626.591980,456.768005,706.624023
616.831970,460.671997,702.719971
622.687988,462.623993,702.719971
618.783997,462.623993,702.719971
618.783997,464.575989,702.719971
618.783997,462.623993,698.815979
609.023987,445.056000,700.768005
614.880005,456.768005,698.815979
616.831970,447.007996,694.911987
612.927979,437.247986,696.864014
618.783997,447.007996,692.960022
614.880005,437.247986,692.960022
616.831970,439.200012,689.056030
622.687988,445.056000,696.864014
616.831970,437.247986,696.864014
605.119995,439.200012,692.960022
605.119995,439.200012,700.768005
603.168030,450.911987,696.864014
605.119995,433.343994,692.960022
612.927979,435.295990,702.719971
610.976013,443.104004,696.864014
618.783997,437.247986,696.864014
601.216003,439.200012,694.911987
612.927979,433.343994,696.864014
607.072021,441.152008,696.864014
618.783997,445.056000,692.960022
618.783997,425.536011,696.864014
618.783997,433.343994,708.575989
616.831970,447.007996,702.719971
612.927979,429.440002,700.768005
612.927979,431.391998,698.815979
618.783997,435.295990,708.575989
612.927979,439.200012,706.624023
618.783997,429.440002,708.575989
610.976013,433.343994,692.960022
614.880005,419.679993,698.815979
616.831970,417.727997,700.768005
616.831970,419.679993,704.671997
614.880005,425.536011,704.671997
612.927979,427.488007,704.671997
622.687988,421.631989,714.432007
626.591980,421.631989,710.528015
620.736023,417.727997,706.624023
618.783997,419.679993,712.479980
618.783997,409.920013,716.383972
609.023987,413.824005,702.719971
612.927979,421.631989,712.479980
610.976013,413.824005,714.432007
612.927979,419.679993,712.479980
618.783997,413.824005,712.479980
612.927979,421.631989,714.432007
605.119995,417.727997,716.383972
622.687988,409.920013,718.335999
614.880005,407.967987,720.288025
610.976013,415.776001,724.192017
618.783997,427.488007,728.096008
605.119995,419.679993,730.047974
607.072021,417.727997,728.096008
605.119995,409.920013,726.143982
605.119995,413.824005,720.288025
599.263977,411.872009,722.239990
607.072021,404.063995,714.432007
605.119995,404.063995,716.383972
599.263977,400.160004,714.432007
593.408020,404.063995,732.000000
597.312012,392.351990,712.479980
593.408020,396.256012,714.432007
591.455994,404.063995,714.432007
595.359985,394.303986,712.479980
587.552002,390.399994,706.624023
589.504028,396.256012,710.528015
591.455994,394.303986,702.719971
583.648010,404.063995,712.479980
585.599976,392.351990,700.768005
587.552002,388.447998,692.960022
583.648010,390.399994,696.864014
579.744019,396.256012,694.911987
579.744019,392.351990,696.864014
577.791992,392.351990,692.960022
581.695984,402.112000,691.007996
571.935974,404.063995,685.151978
571.935974,394.303986,681.247986
575.840027,402.112000,675.392029
569.984009,384.544006,683.200012
568.031982,394.303986,671.487976
566.080017,392.351990,671.487976
562.176025,394.303986,677.343994
558.271973,386.496002,663.679993
554.367981,386.496002,663.679993
564.127991,390.399994,665.632019
564.127991,386.496002,663.679993
554.367981,392.351990,661.728027
552.416016,376.735992,651.968018
554.367981,370.880005,651.968018
550.463989,378.687988,653.919983
556.320007,361.119995,659.776001
558.271973,366.976013,651.968018
546.559998,366.976013,651.968018
554.367981,366.976013,646.112000
550.463989,357.216003,650.015991
560.223999,372.832001,657.823975
546.559998,370.880005,651.968018
542.656006,374.783997,644.159973
554.367981,368.928009,646.112000
550.463989,361.119995,648.064026
556.320007,359.167999,650.015991
556.320007,363.071991,640.255981
550.463989,357.216003,650.015991
554.367981,365.023987,653.919983
550.463989,357.216003,650.015991
560.223999,359.167999,650.015991
556.320007,347.455994,650.015991
562.176025,357.216003,650.015991
566.080017,357.216003,648.064026
560.223999,353.312012,650.015991
562.176025,347.455994,650.015991
568.031982,349.407990,648.064026
560.223999,345.503998,653.919983
556.320007,353.312012,661.728027
566.080017,347.455994,657.823975
571.935974,347.455994,657.823975
575.840027,345.503998,663.679993
573.888000,347.455994,665.632019
577.791992,347.455994,665.632019
571.935974,343.552002,651.968018
583.648010,345.503998,659.776001
581.695984,341.600006,667.583984
579.744019,339.648010,663.679993
573.888000,339.648010,673.440002
571.935974,333.791992,675.392029
566.080017,337.696014,673.440002
571.935974,337.696014,673.440002
575.840027,339.648010,675.392029
579.744019,337.696014,673.440002
575.840027,333.791992,673.440002
571.935974,341.600006,681.247986
583.648010,337.696014,679.296021
577.791992,325.984009,677.343994
585.599976,339.648010,679.296021
579.744019,327.936005,675.392029
581.695984,327.936005,681.247986
579.744019,337.696014,675.392029
569.984009,349.407990,683.200012
585.599976,333.791992,677.343994
577.791992,339.648010,681.247986
587.552002,343.552002,671.487976
581.695984,327.936005,681.247986
585.599976,333.791992,685.151978
587.552002,335.743988,691.007996
585.599976,333.791992,689.056030
589.504028,324.032013,692.960022
591.455994,331.839996,689.056030
585.599976,333.791992,677.343994
595.359985,333.791992,687.104004
585.599976,327.936005,687.104004
589.504028,333.791992,679.296021
589.504028,333.791992,679.296021
591.455994,329.888000,687.104004
591.455994,333.791992,681.247986
589.504028,333.791992,677.343994
595.359985,333.791992,683.200012
593.408020,322.079987,687.104004
593.408020,325.984009,675.392029
599.263977,324.032013,685.151978
599.263977,327.936005,673.440002
591.455994,329.888000,677.343994
585.599976,333.791992,677.343994
585.599976,333.791992,677.343994
591.455994,333.791992,679.296021
597.312012,331.839996,667.583984
593.408020,327.936005,681.247986
599.263977,329.888000,679.296021
603.168030,327.936005,673.440002
603.168030,327.936005,667.583984
589.504028,333.791992,681.247986
593.408020,327.936005,681.247986
601.216003,329.888000,677.343994
599.263977,327.936005,679.296021
597.312012,327.936005,677.343994
603.168030,339.648010,685.151978
597.312012,335.743988,673.440002
601.216003,337.696014,671.487976
597.312012,331.839996,685.151978
597.312012,341.600006,681.247986
603.168030,327.936005,669.536011
605.119995,345.503998,675.392029
605.119995,331.839996,679.296021
605.119995,349.407990,679.296021
603.168030,331.839996,683.200012
605.119995,329.888000,679.296021
609.023987,331.839996,687.104004
614.880005,329.888000,675.392029
605.119995,331.839996,689.056030
614.880005,335.743988,683.200012
614.880005,339.648010,689.056030
616.831970,335.743988,683.200012
612.927979,333.791992,685.151978
616.831970,339.648010,683.200012
622.687988,327.936005,687.104004
626.591980,335.743988,691.007996
624.640015,337.696014,691.007996
624.640015,341.600006,694.911987
624.640015,331.839996,696.864014
632.447998,339.648010,694.911987
624.640015,335.743988,696.864014
620.736023,335.743988,696.864014
622.687988,335.743988,696.864014
624.640015,337.696014,698.815979
628.544006,343.552002,694.911987
628.544006,345.503998,694.911987
624.640015,339.648010,692.960022
624.640015,341.600006,691.007996
630.495972,343.552002,696.864014
630.495972,347.455994,712.479980
630.495972,335.743988,700.768005
624.640015,341.600006,702.719971
628.544006,337.696014,706.624023
632.447998,333.791992,702.719971
626.591980,333.791992,702.719971
634.400024,327.936005,702.719971
624.640015,331.839996,702.719971
634.400024,327.936005,698.815979
632.447998,324.032013,702.719971
630.495972,329.888000,708.575989
630.495972,329.888000,702.719971
628.544006,325.984009,698.815979
630.495972,331.839996,696.864014
630.495972,320.127991,708.575989
638.304016,327.936005,698.815979
640.255981,325.984009,702.719971
640.255981,333.791992,708.575989
648.064026,333.791992,720.288025
640.255981,333.791992,710.528015
650.015991,320.127991,712.479980
651.968018,324.032013,716.383972
651.968018,314.272003,720.288025
650.015991,322.079987,718.335999
657.823975,324.032013,728.096008
648.064026,333.791992,722.239990
651.968018,322.079987,718.335999
653.919983,320.127991,720.288025
653.919983,329.888000,732.000000
651.968018,329.888000,726.143982
651.968018,329.888000,726.143982
657.823975,331.839996,730.047974
665.632019,333.791992,728.096008
659.776001,320.127991,726.143982
651.968018,329.888000,730.047974
657.823975,325.984009,730.047974
661.728027,337.696014,720.288025
659.776001,327.936005,728.096008
651.968018,331.839996,730.047974
650.015991,343.552002,739.807983
646.112000,337.696014,747.616028
653.919983,335.743988,745.664001
651.968018,329.888000,733.952026
653.919983,331.839996,739.807983
651.968018,339.648010,739.807983
653.919983,335.743988,735.903992
644.159973,329.888000,741.760010
646.112000,345.503998,741.760010
648.064026,333.791992,741.760010
646.112000,333.791992,743.711975
642.208008,322.079987,741.760010
650.015991,316.223999,747.616028
648.064026,329.888000,755.424011
653.919983,325.984009,755.424011
655.872009,318.175995,759.328003
657.823975,324.032013,757.375977
648.064026,312.320007,757.375977
655.872009,302.559998,761.280029
655.872009,318.175995,759.328003
655.872009,318.175995,761.280029
653.919983,312.320007,759.328003
657.823975,318.175995,767.135986
657.823975,318.175995,759.328003
661.728027,300.608002,765.184021
651.968018,310.368011,784.703979
657.823975,308.415985,778.848022
653.919983,308.415985,772.992004
659.776001,310.368011,774.943970
653.919983,302.559998,778.848022
657.823975,306.463989,790.559998
657.823975,306.463989,786.656006
642.208008,310.368011,790.559998
642.208008,304.511993,794.463989
642.208008,294.752014,786.656006
638.304016,290.847992,790.559998
642.208008,265.471985,798.367981
655.872009,265.471985,800.320007
648.064026,284.992004,796.416016
655.872009,288.895996,788.607971
659.776001,292.799988,788.607971
659.776001,267.424011,794.463989
665.632019,261.567993,782.752014
659.776001,283.040009,767.135986
646.112000,292.799988,757.375977
650.015991,288.895996,755.424011
655.872009,277.183990,755.424011
644.159973,263.519989,743.711975
648.064026,284.992004,741.760010
651.968018,304.511993,741.760010
646.112000,310.368011,735.903992
651.968018,277.183990,718.335999
665.632019,136.639999,671.487976
687.104004,42.944000,515.328003
677.343994,597.312012,400.160004
642.208008,979.903992,394.303986
597.312012,642.208008,456.768005
747.616028,325.984009,507.519989
478.239990,433.343994,527.039978
519.231995,429.440002,550.463989
548.512024,452.864014,589.504028
540.703979,489.951996,568.031982
579.744019,349.407990,511.424011
571.935974,306.463989,503.615997
571.935974,470.432007,568.031982
542.656006,456.768005,610.976013
550.463989,244.000000,610.976013
558.271973,204.960007,609.023987
593.408020,318.175995,626.591980
587.552002,294.752014,665.632019
603.168030,167.871994,704.671997
591.455994,119.071999,702.719971
609.023987,146.399994,708.575989
595.359985,171.776001,708.575989
595.359985,162.016006,712.479980
589.504028,144.447998,728.096008
589.504028,126.879997,702.719971
579.744019,160.063995,671.487976
581.695984,204.960007,651.968018
560.223999,214.720001,644.159973
554.367981,201.056000,622.687988
542.656006,234.240005,589.504028
542.656006,279.135986,569.984009
534.848022,286.944000,554.367981
534.848022,292.799988,534.848022
521.184021,302.559998,530.943970
511.424011,292.799988,527.039978
513.375977,300.608002,528.992004
505.567993,312.320007,532.895996
515.328003,304.511993,530.943970
519.231995,275.231995,538.752014
525.088013,253.759995,556.320007
523.135986,251.807999,556.320007
525.088013,224.479996,575.840027
534.848022,206.912003,589.504028
540.703979,187.391998,595.359985
548.512024,183.488007,607.072021
546.559998,167.871994,616.831970
550.463989,165.919998,612.927979
548.512024,169.824005,610.976013
532.895996,187.391998,612.927979
534.848022,187.391998,612.927979
538.752014,191.296005,605.119995
540.703979,201.056000,583.648010
525.088013,218.623993,577.791992
532.895996,238.143997,569.984009
536.799988,247.904007,569.984009
528.992004,259.615997,542.656006
525.088013,277.183990,542.656006
538.752014,281.088013,552.416016
536.799988,247.904007,552.416016
540.703979,283.040009,556.320007
550.463989,298.656006,560.223999
554.367981,281.088013,575.840027
556.320007,253.759995,593.408020
558.271973,255.712006,607.072021
575.840027,269.376007,632.447998
573.888000,265.471985,644.159973
581.695984,263.519989,650.015991
587.552002,249.856003,673.440002
603.168030,245.951996,681.247986
589.504028,265.471985,692.960022
593.408020,284.992004,692.960022
601.216003,263.519989,694.911987
605.119995,257.664001,691.007996
609.023987,298.656006,696.864014
601.216003,302.559998,687.104004
605.119995,288.895996,677.343994
599.263977,312.320007,665.632019
601.216003,325.984009,657.823975
607.072021,327.936005,665.632019
610.976013,324.032013,653.919983
610.976013,320.127991,648.064026
605.119995,318.175995,657.823975
614.880005,320.127991,663.679993
616.831970,316.223999,665.632019
630.495972,302.559998,673.440002
632.447998,296.704010,675.392029
632.447998,288.895996,691.007996
648.064026,279.135986,710.528015
646.112000,257.664001,702.719971
655.872009,265.471985,710.528015
657.823975,275.231995,722.239990
673.440002,263.519989,728.096008
663.679993,259.615997,720.288025
673.440002,257.664001,741.760010
685.151978,269.376007,730.047974
675.392029,269.376007,722.239990
685.151978,283.040009,720.288025
687.104004,286.944000,732.000000
685.151978,288.895996,722.239990
679.296021,302.559998,714.432007
679.296021,302.559998,714.432007
689.056030,304.511993,716.383972
689.056030,306.463989,716.383972
689.056030,312.320007,735.903992
696.864014,306.463989,735.903992
696.864014,308.415985,743.711975
700.768005,298.656006,749.567993
704.671997,302.559998,761.280029
712.479980,279.135986,761.280029
702.719971,281.088013,782.752014
712.479980,290.847992,794.463989
710.528015,277.183990,802.271973
706.624023,263.519989,802.271973
716.383972,279.135986,804.223999
712.479980,281.088013,815.935974
710.528015,279.135986,813.984009
706.624023,283.040009,815.935974
710.528015,290.847992,813.984009
702.719971,298.656006,817.888000
704.671997,288.895996,812.031982
706.624023,292.799988,806.176025
696.864014,306.463989,806.176025
704.671997,308.415985,812.031982
681.247986,302.559998,806.176025
685.151978,296.704010,800.320007
671.487976,310.368011,804.223999
669.536011,302.559998,798.367981
669.536011,296.704010,796.416016
667.583984,298.656006,784.703979
661.728027,286.944000,782.752014
659.776001,300.608002,774.943970
650.015991,286.944000,769.088013
644.159973,279.135986,759.328003
646.112000,261.567993,755.424011
642.208008,265.471985,749.567993
634.400024,267.424011,747.616028
624.640015,261.567993,728.096008
618.783997,271.328003,714.432007
610.976013,257.664001,714.432007
599.263977,255.712006,708.575989
603.168030,249.856003,692.960022
593.408020,265.471985,692.960022
587.552002,271.328003,683.200012
581.695984,273.279999,683.200012
569.984009,275.231995,681.247986
579.744019,277.183990,675.392029
568.031982,279.135986,669.536011
569.984009,277.183990,663.679993
564.127991,279.135986,667.583984
554.367981,259.615997,663.679993
550.463989,271.328003,659.776001
552.416016,288.895996,663.679993
550.463989,263.519989,653.919983
550.463989,261.567993,651.968018
540.703979,290.847992,646.112000
544.607971,283.040009,640.255981
534.848022,259.615997,640.255981
534.848022,277.183990,624.640015
525.088013,290.847992,630.495972
521.184021,286.944000,628.544006
513.375977,279.135986,624.640015
525.088013,296.704010,618.783997
515.328003,292.799988,605.119995
517.280029,284.992004,605.119995
507.519989,296.704010,605.119995
513.375977,298.656006,589.504028
505.567993,288.895996,585.599976
501.664001,312.320007,583.648010
495.808014,308.415985,575.840027
486.048004,304.511993,575.840027
488.000000,306.463989,571.935974
486.048004,314.272003,568.031982
488.000000,310.368011,556.320007
484.096008,298.656006,556.320007
489.951996,302.559998,560.223999
478.239990,312.320007,556.320007
478.239990,302.559998,542.656006
472.384003,298.656006,542.656006
472.384003,306.463989,548.512024
474.335999,310.368011,534.848022
464.575989,314.272003,528.992004
466.528015,296.704010,530.943970
458.720001,318.175995,519.231995
462.623993,312.320007,513.375977
458.720001,314.272003,509.471985
456.768005,306.463989,513.375977
454.816010,296.704010,507.519989
448.959991,310.368011,507.519989
464.575989,306.463989,503.615997
464.575989,306.463989,501.664001
462.623993,284.992004,491.903992
456.768005,298.656006,489.951996
458.720001,300.608002,495.808014
476.287994,290.847992,497.760010
472.384003,275.231995,497.760010
478.239990,284.992004,484.096008
484.096008,281.088013,476.287994
484.096008,294.752014,472.384003
486.048004,277.183990,476.287994
495.808014,288.895996,480.191986
503.615997,281.088013,480.191986
509.471985,277.183990,478.239990
513.375977,271.328003,482.144012
505.567993,279.135986,482.144012
525.088013,269.376007,480.191986
511.424011,265.471985,476.287994
527.039978,265.471985,474.335999
527.039978,269.376007,480.191986
544.607971,265.471985,482.144012
542.656006,253.759995,484.096008
550.463989,240.095993,488.000000
556.320007,255.712006,484.096008
568.031982,255.712006,484.096008
568.031982,238.143997,484.096008
571.935974,242.048004,489.951996
583.648010,245.951996,491.903992
581.695984,249.856003,489.951996
591.455994,255.712006,493.855988
593.408020,251.807999,495.808014
593.408020,249.856003,503.615997
597.312012,255.712006,499.712006
612.927979,267.424011,523.135986
609.023987,281.088013,525.088013
612.927979,298.656006,540.703979
626.591980,292.799988,552.416016
620.736023,308.415985,564.127991
628.544006,310.368011,560.223999
638.304016,312.320007,568.031982
634.400024,316.223999,571.935974
642.208008,314.272003,577.791992
646.112000,324.032013,579.744019
651.968018,329.888000,579.744019
661.728027,331.839996,591.455994
651.968018,333.791992,595.359985
657.823975,341.600006,593.408020
653.919983,329.888000,610.976013
661.728027,337.696014,612.927979
671.487976,341.600006,618.783997
677.343994,345.503998,626.591980
671.487976,343.552002,630.495972
685.151978,351.359985,632.447998
691.007996,347.455994,640.255981
694.911987,351.359985,646.112000
692.960022,349.407990,653.919983
694.911987,351.359985,657.823975
698.815979,351.359985,653.919983
687.104004,370.880005,665.632019
696.864014,357.216003,659.776001
700.768005,351.359985,665.632019
710.528015,357.216003,675.392029
706.624023,370.880005,669.536011
712.479980,372.832001,677.343994
704.671997,372.832001,677.343994
706.624023,370.880005,681.247986
702.719971,368.928009,685.151978
708.575989,368.928009,683.200012
712.479980,376.735992,679.296021
706.624023,380.640015,683.200012
712.479980,378.687988,675.392029
710.528015,370.880005,689.056030
710.528015,370.880005,689.056030
712.479980,372.832001,689.056030
710.528015,376.735992,679.296021
716.383972,370.880005,679.296021
702.719971,370.880005,689.056030
712.479980,368.928009,689.056030
708.575989,361.119995,694.911987
708.575989,366.976013,687.104004
702.719971,361.119995,681.247986
698.815979,359.167999,677.343994
694.911987,365.023987,667.583984
704.671997,366.976013,663.679993
698.815979,347.455994,651.968018
704.671997,349.407990,653.919983
694.911987,349.407990,655.872009
700.768005,341.600006,642.208008
694.911987,333.791992,642.208008
700.768005,327.936005,636.351990
700.768005,327.936005,634.400024
704.671997,327.936005,632.447998
708.575989,327.936005,628.544006
702.719971,327.936005,642.208008
712.479980,337.696014,636.351990
716.383972,325.984009,650.015991
722.239990,337.696014,644.159973
718.335999,339.648010,646.112000
732.000000,341.600006,650.015991
735.903992,357.216003,653.919983
743.711975,351.359985,665.632019
739.807983,347.455994,669.536011
741.760010,361.119995,669.536011
747.616028,359.167999,681.247986
757.375977,349.407990,685.151978
755.424011,355.264008,689.056030
761.280029,361.119995,679.296021
757.375977,353.312012,687.104004
769.088013,355.264008,691.007996
772.992004,351.359985,694.911987
774.943970,357.216003,681.247986
769.088013,353.312012,685.151978
778.848022,353.312012,681.247986
769.088013,355.264008,685.151978
776.895996,347.455994,687.104004
786.656006,357.216003,692.960022
776.895996,359.167999,681.247986
772.992004,363.071991,679.296021
780.799988,359.167999,675.392029
782.752014,370.880005,683.200012
774.943970,359.167999,675.392029
778.848022,361.119995,677.343994
794.463989,372.832001,675.392029
774.943970,370.880005,679.296021
780.799988,365.023987,681.247986
776.895996,374.783997,671.487976
780.799988,372.832001,677.343994
772.992004,384.544006,673.440002
780.799988,374.783997,665.632019
780.799988,378.687988,681.247986
774.943970,378.687988,675.392029
784.703979,378.687988,665.632019
774.943970,388.447998,671.487976
778.848022,394.303986,661.728027
792.512024,370.880005,665.632019
784.703979,374.783997,657.823975
780.799988,392.351990,657.823975
786.656006,378.687988,653.919983
782.752014,370.880005,644.159973
772.992004,382.592010,644.159973
788.607971,392.351990,648.064026
782.752014,396.256012,646.112000
782.752014,388.447998,634.400024
782.752014,388.447998,642.208008
769.088013,390.399994,636.351990
776.895996,394.303986,636.351990
774.943970,394.303986,628.544006
780.799988,394.303986,628.544006
790.559998,400.160004,624.640015
790.559998,394.303986,630.495972
784.703979,390.399994,620.736023
786.656006,390.399994,622.687988
784.703979,388.447998,622.687988
780.799988,382.592010,614.880005
788.607971,388.447998,614.880005
769.088013,388.447998,607.072021
782.752014,384.544006,610.976013
776.895996,384.544006,601.216003
778.848022,376.735992,595.359985
767.135986,384.544006,585.599976
780.799988,380.640015,585.599976
767.135986,378.687988,577.791992
767.135986,380.640015,577.791992
771.039978,380.640015,579.744019
771.039978,382.592010,569.984009
761.280029,388.447998,571.935974
761.280029,384.544006,566.080017
763.231995,376.735992,571.935974
769.088013,382.592010,571.935974
765.184021,372.832001,568.031982
772.992004,382.592010,569.984009
774.943970,386.496002,568.031982
769.088013,382.592010,571.935974
774.943970,372.832001,575.840027
765.184021,380.640015,569.984009
790.559998,382.592010,573.888000
778.848022,380.640015,579.744019
776.895996,378.687988,579.744019
771.039978,380.640015,573.888000
778.848022,382.592010,587.552002
786.656006,374.783997,583.648010
776.895996,376.735992,591.455994
776.895996,384.544006,589.504028
774.943970,388.447998,587.552002
780.799988,386.496002,585.599976
776.895996,378.687988,585.599976
774.943970,380.640015,601.216003
774.943970,388.447998,591.455994
778.848022,378.687988,593.408020
776.895996,376.735992,591.455994
778.848022,376.735992,597.312012
774.943970,376.735992,597.312012
771.039978,376.735992,591.455994
782.752014,368.928009,593.408020
774.943970,368.928009,601.216003
778.848022,368.928009,603.168030
782.752014,366.976013,603.168030
786.656006,363.071991,603.168030
774.943970,368.928009,605.119995
782.752014,372.832001,612.927979
782.752014,368.928009,614.880005
790.559998,366.976013,620.736023
802.271973,366.976013,620.736023
798.367981,349.407990,636.351990
810.080017,351.359985,650.015991
810.080017,347.455994,650.015991
813.984009,349.407990,655.872009
821.791992,353.312012,665.632019
833.504028,357.216003,671.487976
819.840027,337.696014,673.440002
819.840027,349.407990,679.296021
821.791992,343.552002,681.247986
821.791992,337.696014,692.960022
819.840027,329.888000,691.007996
821.791992,337.696014,692.960022
821.791992,339.648010,696.864014
815.935974,335.743988,692.960022
825.695984,327.936005,694.911987
821.791992,327.936005,691.007996
819.840027,331.839996,692.960022
825.695984,329.888000,712.479980
815.935974,318.175995,702.719971
825.695984,312.320007,712.479980
825.695984,320.127991,714.432007
833.504028,314.272003,720.288025
829.599976,304.511993,712.479980
841.312012,296.704010,732.000000
837.408020,296.704010,743.711975
837.408020,298.656006,735.903992
835.455994,281.088013,735.903992
839.359985,273.279999,741.760010
839.359985,290.847992,747.616028
829.599976,284.992004,753.471985
829.599976,263.519989,755.424011
829.599976,273.279999,755.424011
821.791992,281.088013,755.424011
821.791992,271.328003,757.375977
819.840027,257.664001,753.471985
819.840027,269.376007,747.616028
810.080017,283.040009,743.711975
806.176025,265.471985,747.616028
806.176025,259.615997,743.711975
806.176025,253.759995,745.664001
796.416016,275.231995,745.664001
796.416016,269.376007,735.903992
780.799988,242.048004,739.807983
780.799988,242.048004,741.760010
784.703979,247.904007,728.096008
784.703979,244.000000,722.239990
776.895996,226.432007,730.047974
774.943970,218.623993,726.143982
776.895996,230.335999,728.096008
761.280029,228.384003,728.096008
769.088013,224.479996,728.096008
755.424011,216.671997,726.143982
753.471985,214.720001,724.192017
751.520020,214.720001,714.432007
747.616028,203.007996,716.383972
741.760010,204.960007,706.624023
737.856018,216.671997,704.671997
741.760010,216.671997,708.575989
733.952026,203.007996,696.864014
726.143982,220.576004,704.671997
726.143982,220.576004,694.911987
726.143982,204.960007,696.864014
728.096008,212.768005,692.960022
720.288025,210.815994,681.247986
714.432007,203.007996,681.247986
708.575989,212.768005,685.151978
712.479980,210.815994,671.487976
716.383972,206.912003,677.343994
706.624023,204.960007,679.296021
702.719971,212.768005,681.247986
700.768005,197.151993,683.200012
708.575989,195.199997,675.392029
700.768005,195.199997,677.343994
694.911987,191.296005,671.487976
698.815979,187.391998,675.392029
694.911987,191.296005,665.632019
694.911987,193.248001,667.583984
687.104004,191.296005,655.872009
694.911987,183.488007,655.872009
687.104004,197.151993,651.968018
687.104004,201.056000,657.823975
685.151978,193.248001,657.823975
687.104004,179.584000,661.728027
685.151978,197.151993,661.728027
692.960022,189.343994,655.872009
689.056030,179.584000,655.872009
700.768005,181.535995,661.728027
691.007996,179.584000,663.679993
692.960022,163.968002,681.247986
702.719971,165.919998,677.343994
708.575989,169.824005,675.392029
694.911987,167.871994,679.296021
702.719971,158.112000,679.296021
706.624023,165.919998,692.960022
714.432007,160.063995,683.200012
706.624023,169.824005,685.151978
716.383972,160.063995,683.200012
712.479980,160.063995,681.247986
716.383972,160.063995,681.247986
708.575989,160.063995,689.056030
712.479980,165.919998,687.104004
710.528015,167.871994,694.911987
704.671997,146.399994,694.911987
706.624023,144.447998,689.056030
716.383972,156.160004,689.056030
714.432007,154.207993,679.296021
714.432007,140.544006,685.151978
722.239990,148.352005,689.056030
716.383972,146.399994,689.056030
710.528015,148.352005,687.104004
720.288025,144.447998,685.151978
718.335999,144.447998,692.960022
714.432007,130.783997,694.911987
735.903992,142.496002,689.056030
732.000000,134.688004,689.056030
722.239990,122.975998,687.104004
735.903992,124.928001,692.960022
726.143982,148.352005,698.815979
737.856018,130.783997,683.200012
737.856018,117.120003,692.960022
732.000000,119.071999,692.960022
730.047974,124.928001,687.104004
739.807983,130.783997,692.960022
735.903992,130.783997,685.151978
735.903992,121.024002,704.671997
724.192017,113.216003,704.671997
728.096008,128.832001,696.864014
733.952026,128.832001,694.911987
726.143982,117.120003,692.960022
739.807983,111.264000,694.911987
739.807983,122.975998,700.768005
733.952026,113.216003,694.911987
743.711975,117.120003,700.768005
741.760010,119.071999,694.911987
751.520020,115.167999,689.056030
745.664001,113.216003,698.815979
737.856018,119.071999,700.768005
747.616028,113.216003,698.815979
735.903992,113.216003,691.007996
726.143982,124.928001,691.007996
739.807983,130.783997,694.911987
730.047974,117.120003,683.200012
735.903992,128.832001,687.104004
735.903992,130.783997,685.151978
730.047974,130.783997,677.343994
730.047974,128.832001,671.487976
722.239990,140.544006,671.487976
722.239990,154.207993,685.151978
716.383972,146.399994,679.296021
724.192017,154.207993,673.440002
728.096008,163.968002,657.823975
712.479980,154.207993,665.632019
720.288025,160.063995,665.632019
714.432007,154.207993,657.823975
712.479980,160.063995,655.872009
692.960022,158.112000,653.919983
714.432007,148.352005,648.064026
710.528015,148.352005,651.968018
716.383972,163.968002,653.919983
716.383972,150.304001,653.919983
716.383972,148.352005,655.872009
698.815979,162.016006,653.919983
710.528015,173.727997,653.919983
700.768005,158.112000,648.064026
687.104004,152.255997,650.015991
716.383972,169.824005,644.159973
692.960022,183.488007,634.400024
698.815979,191.296005,622.687988
683.200012,173.727997,630.495972
687.104004,191.296005,632.447998
683.200012,210.815994,612.927979
691.007996,208.863998,603.168030
683.200012,199.104004,614.880005
689.056030,197.151993,603.168030
687.104004,224.479996,599.263977
673.440002,222.528000,603.168030
685.151978,206.912003,599.263977
691.007996,212.768005,593.408020
675.392029,218.623993,595.359985
679.296021,224.479996,593.408020
681.247986,214.720001,591.455994
673.440002,216.671997,583.648010
683.200012,222.528000,587.552002
669.536011,230.335999,577.791992
677.343994,234.240005,577.791992
663.679993,232.287994,577.791992
659.776001,228.384003,579.744019
669.536011,232.287994,564.127991
673.440002,244.000000,560.223999
685.151978,245.951996,544.607971
663.679993,247.904007,542.656006
675.392029,263.519989,538.752014
659.776001,263.519989,544.607971
657.823975,265.471985,534.848022
669.536011,259.615997,528.992004
669.536011,245.951996,525.088013
673.440002,265.471985,530.943970
669.536011,269.376007,527.039978
673.440002,249.856003,530.943970
673.440002,251.807999,525.088013
675.392029,271.328003,528.992004
673.440002,263.519989,523.135986
683.200012,255.712006,525.088013
683.200012,247.904007,528.992004
691.007996,244.000000,530.943970
694.911987,242.048004,530.943970
702.719971,242.048004,528.992004
689.056030,240.095993,528.992004
700.768005,230.335999,534.848022
712.479980,234.240005,536.799988
708.575989,242.048004,532.895996
718.335999,232.287994,536.799988
720.288025,224.479996,548.512024
712.479980,238.143997,540.703979
718.335999,244.000000,542.656006
733.952026,240.095993,542.656006
732.000000,234.240005,552.416016
735.903992,236.192001,564.127991
733.952026,240.095993,566.080017
745.664001,251.807999,573.888000
745.664001,255.712006,577.791992
769.088013,259.615997,583.648010
761.280029,247.904007,595.359985
769.088013,255.712006,603.168030
765.184021,271.328003,612.927979
774.943970,259.615997,624.640015
788.607971,253.759995,630.495972
794.463989,249.856003,618.783997
798.367981,249.856003,634.400024
792.512024,249.856003,632.447998
800.320007,245.951996,642.208008
808.127991,255.712006,646.112000
815.935974,244.000000,659.776001
819.840027,251.807999,655.872009
827.648010,238.143997,655.872009
833.504028,238.143997,673.440002
841.312012,245.951996,677.343994
847.168030,240.095993,671.487976
853.023987,236.192001,679.296021
856.927979,230.335999,687.104004
866.687988,242.048004,689.056030
868.640015,218.623993,696.864014
872.544006,230.335999,700.768005
888.159973,220.576004,712.479980
890.112000,214.720001,712.479980
899.872009,212.768005,722.239990
901.823975,218.623993,732.000000
901.823975,199.104004,732.000000
911.583984,210.815994,753.471985
925.247986,197.151993,741.760010
923.296021,203.007996,757.375977
927.200012,206.912003,757.375977
933.056030,197.151993,769.088013
936.960022,206.912003,772.992004
946.719971,212.768005,774.943970
944.768005,204.960007,784.703979
954.528015,210.815994,792.512024
950.624023,218.623993,800.320007
950.624023,206.912003,806.176025
958.432007,214.720001,804.223999
954.528015,216.671997,808.127991
946.719971,218.623993,806.176025
942.815979,224.479996,821.791992
946.719971,222.528000,821.791992
952.575989,216.671997,817.888000
942.815979,232.287994,831.552002
946.719971,247.904007,837.408020
944.768005,238.143997,823.744019
940.864014,240.095993,823.744019
935.007996,253.759995,831.552002
931.104004,257.664001,835.455994
935.007996,275.231995,825.695984
931.104004,279.135986,827.648010
931.104004,284.992004,831.552002
915.487976,283.040009,827.648010
919.392029,284.992004,823.744019
909.632019,292.799988,821.791992
905.728027,304.511993,817.888000
903.776001,310.368011,815.935974
882.304016,312.320007,806.176025
878.400024,318.175995,798.367981
870.591980,324.032013,786.656006
860.831970,316.223999,776.895996
854.976013,308.415985,759.328003
847.168030,318.175995,737.856018
841.312012,302.559998,714.432007
837.408020,281.088013,700.768005
817.888000,277.183990,698.815979
812.031982,263.519989,685.151978
800.320007,247.904007,657.823975
796.416016,255.712006,663.679993
792.512024,255.712006,651.968018
784.703979,247.904007,644.159973
774.943970,253.759995,644.159973
771.039978,255.712006,632.447998
767.135986,247.904007,642.208008
767.135986,253.759995,634.400024
763.231995,253.759995,626.591980
757.375977,257.664001,626.591980
749.567993,249.856003,634.400024
747.616028,259.615997,616.831970
741.760010,261.567993,610.976013
730.047974,284.992004,610.976013
722.239990,283.040009,601.216003
724.192017,279.135986,599.263977
726.143982,294.752014,589.504028
700.768005,292.799988,575.840027
706.624023,302.559998,562.176025
696.864014,300.608002,568.031982
694.911987,298.656006,564.127991
687.104004,304.511993,556.320007
681.247986,318.175995,534.848022
683.200012,318.175995,532.895996
667.583984,324.032013,521.184021
663.679993,335.743988,507.519989
657.823975,333.791992,509.471985
650.015991,331.839996,509.471985
648.064026,335.743988,489.951996
650.015991,331.839996,484.096008
650.015991,335.743988,480.191986
640.255981,339.648010,472.384003
622.687988,327.936005,468.480011
632.447998,335.743988,474.335999
620.736023,333.791992,460.671997
610.976013,324.032013,464.575989
610.976013,329.888000,460.671997
591.455994,333.791992,456.768005
593.408020,333.791992,454.816010
595.359985,329.888000,443.104004
587.552002,329.888000,437.247986
573.888000,333.791992,443.104004
575.840027,324.032013,429.440002
583.648010,333.791992,421.631989
571.935974,325.984009,421.631989
573.888000,327.936005,415.776001
569.984009,335.743988,411.872009
560.223999,327.936005,406.015991
562.176025,327.936005,411.872009
562.176025,325.984009,396.256012
562.176025,331.839996,390.399994
558.271973,324.032013,392.351990
560.223999,318.175995,384.544006
552.416016,331.839996,374.783997
556.320007,335.743988,384.544006
560.223999,335.743988,370.880005
562.176025,327.936005,372.832001
560.223999,325.984009,368.928009
556.320007,345.503998,365.023987
560.223999,339.648010,359.167999
556.320007,343.552002,359.167999
556.320007,337.696014,347.455994
558.271973,343.552002,357.216003
556.320007,345.503998,343.552002
564.127991,339.648010,339.648010
568.031982,355.264008,333.791992
564.127991,353.312012,329.888000
564.127991,351.359985,329.888000
571.935974,357.216003,325.984009
566.080017,347.455994,325.984009
579.744019,347.455994,327.936005
585.599976,335.743988,324.032013
589.504028,329.888000,331.839996
599.263977,327.936005,339.648010
601.216003,324.032013,345.503998
601.216003,324.032013,335.743988
603.168030,331.839996,335.743988
609.023987,331.839996,339.648010
610.976013,320.127991,341.600006
618.783997,327.936005,343.552002
612.927979,331.839996,355.264008
630.495972,333.791992,359.167999
638.304016,325.984009,372.832001
646.112000,341.600006,388.447998
648.064026,335.743988,404.063995
650.015991,339.648010,423.584015
655.872009,349.407990,443.104004
667.583984,335.743988,464.575989
673.440002,320.127991,486.048004
692.960022,310.368011,497.760010
691.007996,318.175995,517.280029
696.864014,300.608002,544.607971
708.575989,300.608002,564.127991
706.624023,296.704010,569.984009
706.624023,306.463989,581.695984
710.528015,310.368011,603.168030
710.528015,318.175995,610.976013
718.335999,322.079987,612.927979
724.192017,333.791992,610.976013
728.096008,347.455994,609.023987
728.096008,361.119995,612.927979
732.000000,357.216003,620.736023
735.903992,363.071991,620.736023
747.616028,365.023987,618.783997
747.616028,365.023987,620.736023
745.664001,376.735992,620.736023
749.567993,374.783997,628.544006
755.424011,372.832001,638.304016
765.184021,374.783997,644.159973
763.231995,363.071991,650.015991
765.184021,359.167999,655.872009
757.375977,365.023987,661.728027
767.135986,355.264008,659.776001
772.992004,349.407990,675.392029
772.992004,337.696014,679.296021
780.799988,327.936005,685.151978
780.799988,320.127991,687.104004
774.943970,316.223999,681.247986
784.703979,296.704010,685.151978
784.703979,286.944000,687.104004
778.848022,290.847992,681.247986
782.752014,275.231995,677.343994
782.752014,257.664001,673.440002
772.992004,255.712006,663.679993
763.231995,249.856003,655.872009
774.943970,242.048004,648.064026
763.231995,238.143997,653.919983
771.039978,238.143997,650.015991
771.039978,240.095993,650.015991
767.135986,244.000000,642.208008
761.280029,245.951996,642.208008
771.039978,244.000000,657.823975
772.992004,253.759995,657.823975
767.135986,259.615997,655.872009
757.375977,269.376007,648.064026
771.039978,267.424011,669.536011
761.280029,269.376007,663.679993
782.752014,265.471985,667.583984
771.039978,267.424011,675.392029
772.992004,271.328003,679.296021
778.848022,283.040009,687.104004
772.992004,273.279999,679.296021
776.895996,265.471985,689.056030
782.752014,269.376007,691.007996
778.848022,257.664001,683.200012
774.943970,259.615997,687.104004
767.135986,249.856003,696.864014
765.184021,242.048004,692.960022
765.184021,230.335999,694.911987
765.184021,236.192001,687.104004
759.328003,244.000000,687.104004
767.135986,228.384003,679.296021
757.375977,224.479996,685.151978
759.328003,216.671997,685.151978
751.520020,214.720001,677.343994
753.471985,212.768005,675.392029
747.616028,203.007996,673.440002
745.664001,204.960007,673.440002
745.664001,220.576004,663.679993
735.903992,214.720001,661.728027
741.760010,206.912003,665.632019
733.952026,216.671997,653.919983
733.952026,208.863998,642.208008
726.143982,220.576004,632.447998
724.192017,226.432007,626.591980
714.432007,224.479996,634.400024
712.479980,228.384003,610.976013
710.528015,228.384003,609.023987
704.671997,228.384003,603.168030
704.671997,222.528000,599.263977
696.864014,212.768005,593.408020
708.575989,214.720001,589.504028
704.671997,199.104004,585.599976
691.007996,204.960007,599.263977
692.960022,191.296005,593.408020
700.768005,187.391998,589.504028
696.864014,185.440002,589.504028
696.864014,179.584000,601.216003
696.864014,165.919998,609.023987
696.864014,171.776001,607.072021
696.864014,160.063995,614.880005
708.575989,154.207993,618.783997
704.671997,152.255997,618.783997
702.719971,146.399994,620.736023
712.479980,140.544006,624.640015
712.479980,136.639999,630.495972
702.719971,144.447998,632.447998
710.528015,132.735992,636.351990
716.383972,130.783997,642.208008
716.383972,124.928001,640.255981
710.528015,132.735992,642.208008
728.096008,122.975998,650.015991
718.335999,126.879997,638.304016
722.239990,121.024002,651.968018
730.047974,126.879997,644.159973
733.952026,119.071999,651.968018
728.096008,119.071999,655.872009
733.952026,109.311996,657.823975
739.807983,117.120003,659.776001
733.952026,115.167999,659.776001
728.096008,113.216003,655.872009
726.143982,115.167999,659.776001
732.000000,113.216003,655.872009
732.000000,119.071999,655.872009
732.000000,113.216003,651.968018
726.143982,115.167999,673.440002
733.952026,107.360001,677.343994
737.856018,109.311996,683.200012
741.760010,111.264000,694.911987
745.664001,107.360001,694.911987
743.711975,103.456001,700.768005
739.807983,109.311996,698.815979
749.567993,103.456001,704.671997
747.616028,97.599998,702.719971
753.471985,109.311996,700.768005
747.616028,122.975998,696.864014
743.711975,119.071999,691.007996
743.711975,109.311996,683.200012
741.760010,121.024002,669.536011
741.760010,138.591995,661.728027
735.903992,136.639999,655.872009
732.000000,134.688004,650.015991
732.000000,142.496002,650.015991
726.143982,136.639999,638.304016
728.096008,144.447998,624.640015
726.143982,140.544006,632.447998
730.047974,142.496002,620.736023
722.239990,142.496002,630.495972
724.192017,130.783997,626.591980
720.288025,130.783997,634.400024
726.143982,128.832001,636.351990
720.288025,122.975998,628.544006
718.335999,117.120003,642.208008
718.335999,113.216003,636.351990
722.239990,128.832001,636.351990
720.288025,126.879997,638.304016
716.383972,121.024002,636.351990
716.383972,128.832001,642.208008
706.624023,128.832001,624.640015
712.479980,128.832001,624.640015
710.528015,128.832001,620.736023
706.624023,136.639999,620.736023
706.624023,140.544006,622.687988
702.719971,146.399994,616.831970
706.624023,154.207993,609.023987
708.575989,156.160004,609.023987
700.768005,165.919998,603.168030
702.719971,169.824005,605.119995
696.864014,169.824005,603.168030
698.815979,169.824005,595.359985
696.864014,185.440002,595.359985
691.007996,185.440002,591.455994
689.056030,187.391998,587.552002
696.864014,187.391998,599.263977
691.007996,185.440002,595.359985
683.200012,181.535995,585.599976
692.960022,173.727997,595.359985
696.864014,183.488007,591.455994
696.864014,175.679993,589.504028
698.815979,185.440002,591.455994
704.671997,179.584000,599.263977
700.768005,181.535995,589.504028
704.671997,181.535995,599.263977
698.815979,183.488007,593.408020
706.624023,179.584000,610.976013
712.479980,193.248001,616.831970
728.096008,193.248001,618.783997
724.192017,189.343994,609.023987
726.143982,199.104004,628.544006
733.952026,203.007996,634.400024
733.952026,208.863998,628.544006
741.760010,206.912003,644.159973
749.567993,212.768005,648.064026
757.375977,206.912003,655.872009
761.280029,216.671997,655.872009
767.135986,214.720001,655.872009
776.895996,212.768005,653.919983
784.703979,220.576004,659.776001
790.559998,222.528000,663.679993
794.463989,214.720001,661.728027
802.271973,224.479996,667.583984
815.935974,224.479996,673.440002
825.695984,222.528000,669.536011
823.744019,220.576004,669.536011
821.791992,228.384003,673.440002
833.504028,226.432007,677.343994
843.263977,228.384003,683.200012
854.976013,228.384003,691.007996
854.976013,222.528000,694.911987
860.831970,232.287994,698.815979
866.687988,230.335999,708.575989
866.687988,240.095993,708.575989
862.783997,234.240005,714.432007
868.640015,240.095993,724.192017
868.640015,244.000000,732.000000
872.544006,236.192001,724.192017
870.591980,234.240005,724.192017
886.208008,253.759995,726.143982
878.400024,255.712006,724.192017
886.208008,247.904007,732.000000
894.015991,251.807999,726.143982
882.304016,253.759995,724.192017
878.400024,240.095993,728.096008
892.064026,251.807999,726.143982
895.968018,242.048004,724.192017
892.064026,244.000000,724.192017
890.112000,245.951996,720.288025
888.159973,238.143997,718.335999
882.304016,226.432007,722.239990
880.351990,226.432007,720.288025
882.304016,230.335999,720.288025
874.495972,236.192001,714.432007
880.351990,232.287994,708.575989
870.591980,226.432007,704.671997
876.447998,228.384003,704.671997
878.400024,232.287994,691.007996
870.591980,224.479996,696.864014
872.544006,228.384003,681.247986
862.783997,226.432007,681.247986
860.831970,224.479996,679.296021
856.927979,228.384003,677.343994
849.119995,228.384003,677.343994
856.927979,226.432007,669.536011
845.216003,222.528000,665.632019
845.216003,226.432007,663.679993
843.263977,232.287994,653.919983
839.359985,234.240005,646.112000
843.263977,236.192001,648.064026
841.312012,234.240005,651.968018
837.408020,230.335999,653.919983
835.455994,226.432007,644.159973
835.455994,236.192001,644.159973
835.455994,240.095993,648.064026
829.599976,244.000000,646.112000
817.888000,230.335999,648.064026
823.744019,234.240005,644.159973
823.744019,240.095993,640.255981
821.791992,234.240005,640.255981
825.695984,238.143997,644.159973
821.791992,238.143997,650.015991
829.599976,230.335999,646.112000
815.935974,236.192001,636.351990
815.935974,230.335999,636.351990
804.223999,232.287994,638.304016
813.984009,240.095993,628.544006
808.127991,236.192001,632.447998
806.176025,240.095993,630.495972
804.223999,238.143997,630.495972
802.271973,238.143997,622.687988
794.463989,247.904007,622.687988
794.463989,245.951996,618.783997
790.559998,238.143997,618.783997
794.463989,242.048004,609.023987
798.367981,247.904007,610.976013
802.271973,242.048004,614.880005
796.416016,244.000000,612.927979
792.512024,234.240005,605.119995
784.703979,245.951996,612.927979
790.559998,240.095993,616.831970
790.559998,247.904007,618.783997
790.559998,245.951996,622.687988
794.463989,253.759995,634.400024
792.512024,249.856003,630.495972
792.512024,263.519989,616.831970
794.463989,255.712006,620.736023
788.607971,251.807999,630.495972
788.607971,253.759995,632.447998
796.416016,259.615997,640.255981
798.367981,253.759995,630.495972
800.320007,255.712006,636.351990
792.512024,257.664001,626.591980
788.607971,251.807999,638.304016
806.176025,242.048004,634.400024
790.559998,244.000000,628.544006
784.703979,247.904007,620.736023
792.512024,236.192001,616.831970
800.320007,249.856003,610.976013
806.176025,267.424011,593.408020
780.799988,263.519989,599.263977
788.607971,253.759995,607.072021
792.512024,253.759995,616.831970
804.223999,261.567993,622.687988
800.320007,253.759995,624.640015
806.176025,242.048004,634.400024
819.840027,232.287994,650.015991
817.888000,247.904007,636.351990
815.935974,261.567993,634.400024
825.695984,251.807999,632.447998
831.552002,244.000000,634.400024
827.648010,283.040009,616.831970
821.791992,298.656006,605.119995
841.312012,288.895996,612.927979
831.552002,277.183990,603.168030
831.552002,288.895996,597.312012
825.695984,298.656006,595.359985
815.935974,314.272003,595.359985
815.935974,322.079987,603.168030
813.984009,324.032013,595.359985
804.223999,318.175995,601.216003
806.176025,335.743988,587.552002
800.320007,345.503998,587.552002
802.271973,324.032013,581.695984
810.080017,325.984009,569.984009
812.031982,353.312012,568.031982
813.984009,333.791992,554.367981
819.840027,322.079987,556.320007
829.599976,329.888000,560.223999
821.791992,331.839996,562.176025
825.695984,322.079987,560.223999
845.216003,306.463989,564.127991
839.359985,325.984009,575.840027
837.408020,318.175995,581.695984
841.312012,316.223999,591.455994
849.119995,308.415985,601.216003
843.263977,333.791992,620.736023
853.023987,331.839996,630.495972
851.072021,327.936005,640.255981
868.640015,327.936005,657.823975
870.591980,324.032013,663.679993
872.544006,335.743988,665.632019
874.495972,349.407990,669.536011
880.351990,331.839996,667.583984
880.351990,341.600006,675.392029
876.447998,357.216003,663.679993
884.255981,347.455994,665.632019
876.447998,351.359985,661.728027
876.447998,361.119995,657.823975
866.687988,359.167999,644.159973
868.640015,368.928009,634.400024
864.736023,366.976013,626.591980
854.976013,361.119995,616.831970
868.640015,359.167999,618.783997
856.927979,368.928009,612.927979
862.783997,366.976013,603.168030
868.640015,343.552002,597.312012
872.544006,343.552002,603.168030
868.640015,343.552002,603.168030
864.736023,343.552002,599.263977
874.495972,329.888000,599.263977
864.736023,327.936005,589.504028
862.783997,331.839996,597.312012
866.687988,333.791992,597.312012
866.687988,320.127991,607.072021
872.544006,339.648010,616.831970
864.736023,349.407990,612.927979
866.687988,339.648010,616.831970
862.783997,353.312012,624.640015
868.640015,359.167999,626.591980
851.072021,368.928009,632.447998
866.687988,370.880005,640.255981
864.736023,382.592010,638.304016
864.736023,382.592010,632.447998
856.927979,380.640015,626.591980
860.831970,378.687988,622.687988
849.119995,378.687988,622.687988
847.168030,374.783997,622.687988
845.216003,374.783997,618.783997
841.312012,376.735992,618.783997
847.168030,366.976013,618.783997
845.216003,368.928009,618.783997
839.359985,365.023987,614.880005
833.504028,363.071991,618.783997
833.504028,349.407990,612.927979
827.648010,337.696014,618.783997
823.744019,343.552002,614.880005
825.695984,341.600006,612.927979
813.984009,327.936005,616.831970
825.695984,333.791992,609.023987
819.840027,335.743988,601.216003
813.984009,331.839996,607.072021
804.223999,341.600006,597.312012
792.512024,329.888000,589.504028
796.416016,331.839996,595.359985
794.463989,337.696014,587.552002
794.463989,337.696014,591.455994
794.463989,333.791992,585.599976
794.463989,343.552002,593.408020
794.463989,341.600006,587.552002
782.752014,331.839996,593.408020
780.799988,333.791992,601.216003
778.848022,331.839996,603.168030
772.992004,324.032013,601.216003
776.895996,322.079987,599.263977
782.752014,312.320007,599.263977
772.992004,312.320007,607.072021
769.088013,304.511993,601.216003
776.895996,300.608002,603.168030
769.088013,298.656006,597.312012
763.231995,294.752014,597.312012
753.471985,292.799988,603.168030
753.471985,284.992004,603.168030
755.424011,273.279999,603.168030
753.471985,279.135986,593.408020
751.520020,271.328003,591.455994
757.375977,267.424011,595.359985
751.520020,273.279999,589.504028
745.664001,275.231995,585.599976
745.664001,288.895996,593.408020
751.520020,267.424011,587.552002
737.856018,267.424011,587.552002
730.047974,265.471985,587.552002
728.096008,279.135986,593.408020
733.952026,261.567993,591.455994
735.903992,261.567993,585.599976
735.903992,269.376007,587.552002
735.903992,257.664001,595.359985
733.952026,261.567993,593.408020
728.096008,253.759995,597.312012
728.096008,247.904007,599.263977
726.143982,236.192001,599.263977
728.096008,232.287994,614.880005
722.239990,234.240005,614.880005
718.335999,226.432007,605.119995
722.239990,230.335999,603.168030
710.528015,222.528000,612.927979
704.671997,220.576004,610.976013
704.671997,224.479996,614.880005
708.575989,232.287994,614.880005
704.671997,218.623993,607.072021
698.815979,216.671997,605.119995
694.911987,220.576004,610.976013
696.864014,214.720001,605.119995
692.960022,218.623993,603.168030
689.056030,224.479996,603.168030
687.104004,220.576004,593.408020
683.200012,216.671997,591.455994
663.679993,216.671997,577.791992
681.247986,220.576004,591.455994
671.487976,208.863998,585.599976
673.440002,212.768005,581.695984
677.343994,204.960007,573.888000
669.536011,204.960007,579.744019
677.343994,199.104004,573.888000
669.536011,203.007996,571.935974
669.536011,199.104004,571.935974
661.728027,187.391998,571.935974
673.440002,197.151993,579.744019
667.583984,187.391998,568.031982
665.632019,185.440002,571.935974
669.536011,191.296005,571.935974
665.632019,195.199997,577.791992
663.679993,193.248001,583.648010
665.632019,195.199997,579.744019
659.776001,197.151993,569.984009
657.823975,193.248001,569.984009
659.776001,195.199997,573.888000
669.536011,191.296005,571.935974
663.679993,189.343994,579.744019
661.728027,193.248001,573.888000
651.968018,189.343994,579.744019
667.583984,193.248001,585.599976
655.872009,185.440002,575.840027
663.679993,189.343994,573.888000
673.440002,181.535995,579.744019
665.632019,171.776001,583.648010
663.679993,187.391998,587.552002
655.872009,177.632004,585.599976
673.440002,189.343994,569.984009
663.679993,177.632004,575.840027
669.536011,171.776001,571.935974
671.487976,171.776001,575.840027
673.440002,183.488007,569.984009
667.583984,179.584000,569.984009
673.440002,173.727997,566.080017
675.392029,173.727997,571.935974
667.583984,185.440002,568.031982
667.583984,179.584000,575.840027
663.679993,175.679993,568.031982
657.823975,163.968002,569.984009
667.583984,177.632004,568.031982
661.728027,177.632004,569.984009
673.440002,160.063995,568.031982
671.487976,165.919998,571.935974
677.343994,167.871994,562.176025
677.343994,171.776001,571.935974
667.583984,169.824005,564.127991
671.487976,171.776001,554.367981
667.583984,169.824005,560.223999
671.487976,167.871994,562.176025
663.679993,173.727997,554.367981
673.440002,173.727997,552.416016
673.440002,171.776001,552.416016
669.536011,173.727997,554.367981
661.728027,167.871994,558.271973
663.679993,163.968002,554.367981
659.776001,167.871994,544.607971
665.632019,175.679993,550.463989
665.632019,167.871994,540.703979
653.919983,183.488007,534.848022
663.679993,183.488007,544.607971
661.728027,185.440002,534.848022
665.632019,175.679993,536.799988
655.872009,181.535995,536.799988
661.728027,177.632004,536.799988
657.823975,181.535995,540.703979
663.679993,181.535995,542.656006
665.632019,185.440002,530.943970
653.919983,181.535995,534.848022
669.536011,171.776001,534.848022
667.583984,175.679993,540.703979
673.440002,177.632004,540.703979
665.632019,177.632004,534.848022
665.632019,175.679993,536.799988
673.440002,173.727997,534.848022
671.487976,163.968002,540.703979
675.392029,177.632004,548.512024
681.247986,163.968002,532.895996
677.343994,162.016006,542.656006
679.296021,169.824005,538.752014
683.200012,175.679993,540.703979
679.296021,173.727997,536.799988
681.247986,175.679993,542.656006
689.056030,189.343994,546.559998
681.247986,183.488007,540.703979
694.911987,189.343994,538.752014
689.056030,193.248001,542.656006
691.007996,203.007996,542.656006
689.056030,206.912003,550.463989
696.864014,206.912003,556.320007
704.671997,220.576004,552.416016
704.671997,212.768005,540.703979
708.575989,212.768005,556.320007
714.432007,214.720001,552.416016
714.432007,220.576004,560.223999
706.624023,228.384003,568.031982
706.624023,218.623993,566.080017
708.575989,210.815994,566.080017
706.624023,210.815994,569.984009
712.479980,208.863998,566.080017
702.719971,206.912003,568.031982
710.528015,220.576004,562.176025
710.528015,204.960007,569.984009
712.479980,208.863998,556.320007
716.383972,212.768005,552.416016
712.479980,199.104004,548.512024
712.479980,204.960007,546.559998
718.335999,206.912003,546.559998
716.383972,212.768005,544.607971
716.383972,206.912003,534.848022
708.575989,216.671997,534.848022
708.575989,212.768005,530.943970
716.383972,216.671997,534.848022
714.432007,224.479996,532.895996
714.432007,230.335999,528.992004
718.335999,226.432007,525.088013
718.335999,230.335999,530.943970
724.192017,242.048004,530.943970
724.192017,236.192001,534.848022
722.239990,232.287994,538.752014
732.000000,230.335999,540.703979
726.143982,228.384003,532.895996
728.096008,240.095993,542.656006
726.143982,242.048004,538.752014
728.096008,232.287994,542.656006
730.047974,234.240005,550.463989
735.903992,236.192001,552.416016
728.096008,232.287994,546.559998
733.952026,232.287994,546.559998
732.000000,234.240005,534.848022
739.807983,232.287994,544.607971
732.000000,234.240005,540.703979
732.000000,232.287994,540.703979
735.903992,236.192001,534.848022
722.239990,245.951996,530.943970
716.383972,253.759995,528.992004
722.239990,244.000000,519.231995
732.000000,247.904007,525.088013
726.143982,251.807999,519.231995
718.335999,255.712006,503.615997
726.143982,257.664001,491.903992
726.143982,257.664001,495.808014
720.288025,257.664001,488.000000
716.383972,261.567993,488.000000
702.719971,263.519989,480.191986
710.528015,263.519989,480.191986
708.575989,261.567993,480.191986
702.719971,265.471985,482.144012
712.479980,275.231995,472.384003
714.432007,277.183990,478.239990
714.432007,269.376007,474.335999
704.671997,263.519989,474.335999
710.528015,263.519989,474.335999
710.528015,271.328003,470.432007
698.815979,267.424011,464.575989
708.575989,269.376007,468.480011
712.479980,263.519989,462.623993
706.624023,253.759995,454.816010
700.768005,261.567993,452.864014
702.719971,263.519989,456.768005
698.815979,271.328003,450.911987
696.864014,271.328003,450.911987
704.671997,275.231995,435.295990
696.864014,275.231995,443.104004
696.864014,269.376007,425.536011
691.007996,273.279999,427.488007
692.960022,271.328003,425.536011
687.104004,283.040009,419.679993
685.151978,290.847992,417.727997
687.104004,288.895996,411.872009
696.864014,281.088013,407.967987
692.960022,288.895996,407.967987
687.104004,296.704010,404.063995
692.960022,294.752014,394.303986
685.151978,284.992004,400.160004
696.864014,286.944000,394.303986
696.864014,286.944000,396.256012
700.768005,296.704010,386.496002
700.768005,292.799988,388.447998
692.960022,281.088013,390.399994
687.104004,300.608002,384.544006
694.911987,306.463989,384.544006
691.007996,294.752014,384.544006
694.911987,294.752014,370.880005
696.864014,308.415985,372.832001
698.815979,312.320007,372.832001
694.911987,300.608002,366.976013
700.768005,308.415985,368.928009
696.864014,304.511993,368.928009
698.815979,306.463989,374.783997
702.719971,304.511993,368.928009
704.671997,304.511993,365.023987
708.575989,300.608002,368.928009
712.479980,296.704010,380.640015
712.479980,296.704010,368.928009
720.288025,286.944000,382.592010
712.479980,288.895996,374.783997
714.432007,292.799988,374.783997
726.143982,288.895996,374.783997
728.096008,283.040009,378.687988
726.143982,279.135986,382.592010
728.096008,273.279999,380.640015
728.096008,265.471985,396.256012
737.856018,263.519989,398.208008
747.616028,249.856003,396.256012
753.471985,251.807999,396.256012
749.567993,255.712006,398.208008
747.616028,234.240005,398.208008
759.328003,232.287994,396.256012
761.280029,238.143997,404.063995
769.088013,240.095993,402.112000
786.656006,226.432007,402.112000
804.223999,210.815994,398.208008
792.512024,232.287994,396.256012
800.320007,244.000000,413.824005
821.791992,210.815994,419.679993
810.080017,218.623993,429.440002
823.744019,238.143997,431.391998
829.599976,232.287994,437.247986
827.648010,232.287994,447.007996
841.312012,242.048004,462.623993
849.119995,242.048004,472.384003
853.023987,230.335999,478.239990
870.591980,245.951996,489.951996
880.351990,240.095993,493.855988
878.400024,232.287994,521.184021
890.112000,236.192001,528.992004
899.872009,230.335999,530.943970
907.679993,230.335999,538.752014
897.919983,240.095993,534.848022
894.015991,236.192001,544.607971
895.968018,218.623993,544.607971
886.208008,228.384003,552.416016
888.159973,251.807999,556.320007
882.304016,253.759995,554.367981
886.208008,245.951996,550.463989
888.159973,240.095993,548.512024
882.304016,257.664001,558.271973
892.064026,259.615997,550.463989
894.015991,257.664001,550.463989
890.112000,253.759995,546.559998
886.208008,259.615997,536.799988
890.112000,281.088013,525.088013
895.968018,273.279999,525.088013
895.968018,247.904007,511.424011
895.968018,259.615997,513.375977
874.495972,273.279999,507.519989
874.495972,257.664001,499.712006
882.304016,244.000000,497.760010
878.400024,240.095993,484.096008
882.304016,240.095993,484.096008
884.255981,222.528000,482.144012
878.400024,218.623993,474.335999
886.208008,208.863998,486.048004
886.208008,193.248001,484.096008
888.159973,185.440002,493.855988
899.872009,177.632004,482.144012
897.919983,175.679993,482.144012
897.919983,179.584000,491.903992
890.112000,171.776001,489.951996
897.919983,169.824005,484.096008
884.255981,177.632004,484.096008
890.112000,183.488007,486.048004
895.968018,183.488007,489.951996
897.919983,193.248001,486.048004
905.728027,189.343994,489.951996
901.823975,212.768005,484.096008
913.536011,212.768005,486.048004
907.679993,201.056000,489.951996
903.776001,214.720001,489.951996
909.632019,238.143997,491.903992
903.776001,234.240005,491.903992
913.536011,232.287994,484.096008
903.776001,220.576004,484.096008
901.823975,236.192001,488.000000
894.015991,234.240005,493.855988
901.823975,214.720001,491.903992
897.919983,214.720001,493.855988
901.823975,218.623993,484.096008
905.728027,210.815994,484.096008
921.343994,197.151993,491.903992
917.440002,193.248001,489.951996
911.583984,191.296005,488.000000
919.392029,212.768005,493.855988
909.632019,195.199997,489.951996
901.823975,181.535995,488.000000
901.823975,204.960007,486.048004
894.015991,206.912003,482.144012
890.112000,220.576004,474.335999
892.064026,220.576004,476.287994
890.112000,220.576004,464.575989
890.112000,218.623993,462.623993
884.255981,240.095993,458.720001
880.351990,263.519989,462.623993
884.255981,240.095993,454.816010
880.351990,240.095993,445.056000
876.447998,251.807999,437.247986
866.687988,271.328003,439.200012
854.976013,253.759995,429.440002
851.072021,245.951996,425.536011
849.119995,253.759995,417.727997
845.216003,263.519989,419.679993
839.359985,271.328003,402.112000
843.263977,244.000000,394.303986
835.455994,224.479996,396.256012
833.504028,234.240005,388.447998
829.599976,244.000000,386.496002
825.695984,234.240005,384.544006
827.648010,230.335999,384.544006
821.791992,226.432007,384.544006
827.648010,238.143997,380.640015
823.744019,242.048004,382.592010
821.791992,238.143997,380.640015
829.599976,240.095993,384.544006
833.504028,232.287994,372.832001
835.455994,251.807999,355.264008
813.984009,271.328003,353.312012
819.840027,261.567993,363.071991
808.127991,247.904007,370.880005
804.223999,263.519989,357.216003
800.320007,283.040009,357.216003
802.271973,267.424011,345.503998
792.512024,263.519989,345.503998
810.080017,275.231995,347.455994
806.176025,271.328003,353.312012
802.271973,267.424011,351.359985
798.367981,261.567993,345.503998
782.752014,245.951996,347.455994
792.512024,259.615997,353.312012
796.416016,259.615997,353.312012
808.127991,263.519989,349.407990
812.031982,251.807999,333.791992
812.031982,234.240005,339.648010
812.031982,234.240005,341.600006
829.599976,240.095993,343.552002
833.504028,232.287994,343.552002
825.695984,238.143997,339.648010
831.552002,224.479996,341.600006
845.216003,208.863998,335.743988
835.455994,220.576004,339.648010
851.072021,230.335999,335.743988
853.023987,214.720001,320.127991
854.976013,203.007996,324.032013
841.312012,210.815994,341.600006
843.263977,203.007996,337.696014
858.880005,193.248001,347.455994
864.736023,179.584000,335.743988
860.831970,201.056000,335.743988
888.159973,179.584000,335.743988
872.544006,165.919998,339.648010
876.447998,160.063995,349.407990
884.255981,152.255997,357.216003
870.591980,136.639999,359.167999
882.304016,136.639999,365.023987
895.968018,121.024002,378.687988
835.455994,117.120003,378.687988
921.343994,121.024002,409.920013
894.015991,85.888000,394.303986
915.487976,48.799999,378.687988
938.911987,62.464001,402.112000
897.919983,78.080002,439.200012
923.296021,76.127998,452.864014
956.479980,29.280001,435.295990
946.719971,19.520000,415.776001
991.616028,35.136002,423.584015
981.856018,21.472000,439.200012
972.096008,33.183998,437.247986
987.711975,52.703999,437.247986
981.856018,46.848000,448.959991
979.903992,48.799999,454.816010
1007.231995,42.944000,447.007996
1007.231995,40.992001,456.768005
1011.135986,56.608002,456.768005
1001.375977,56.608002,462.623993
997.471985,54.655998,472.384003
1022.848022,50.751999,476.287994
940.864014,70.272003,515.328003
1087.264038,97.599998,581.695984
1042.368042,66.367996,640.255981
1063.839966,-27.327999,642.208008
1069.696045,37.088001,638.304016
1056.031982,132.735992,665.632019
1095.072021,126.879997,691.007996
1057.984009,85.888000,685.151978
1042.368042,169.824005,692.960022
1028.703979,169.824005,716.383972
1042.368042,111.264000,706.624023
1040.416016,216.671997,718.335999
1083.359985,245.951996,767.135986
1100.927979,99.552002,792.512024
1136.063965,50.751999,835.455994
1173.151978,109.311996,866.687988
1161.439941,107.360001,882.304016
1182.911987,80.031998,888.159973
1200.479980,107.360001,888.159973
1202.432007,150.304001,882.304016
1194.624023,162.016006,870.591980
1194.624023,158.112000,862.783997
1159.488037,181.535995,866.687988
1145.823975,220.576004,868.640015
1141.920044,218.623993,847.168030
1124.352051,226.432007,839.359985
1136.063965,265.471985,804.223999
1071.647949,283.040009,806.176025
1132.160034,320.127991,813.984009
1173.151978,269.376007,769.088013
1132.160034,222.528000,720.288025
1132.160034,341.600006,732.000000
1104.832031,378.687988,788.607971
1116.543945,277.183990,782.752014
1122.400024,203.007996,751.520020
1136.063965,249.856003,745.664001
1145.823975,322.079987,759.328003
1134.112061,265.471985,759.328003
1159.488037,171.776001,761.280029
1159.488037,169.824005,761.280029
1139.968018,230.335999,776.895996
1138.015991,240.095993,786.656006
1118.495972,187.391998,772.992004
1120.447998,162.016006,767.135986
1071.647949,193.248001,753.471985
1022.848022,232.287994,747.616028
1034.560059,199.104004,733.952026
1016.992004,138.591995,702.719971
1024.800049,130.783997,663.679993
997.471985,175.679993,638.304016
993.567993,249.856003,612.927979
995.520020,269.376007,589.504028
1009.184021,234.240005,552.416016
1050.176025,203.007996,534.848022
1056.031982,210.815994,530.943970
1075.552002,210.815994,530.943970
1063.839966,204.960007,519.231995
1075.552002,187.391998,527.039978
1079.456055,146.399994,513.375977
1056.031982,124.928001,509.471985
1069.696045,103.456001,489.951996
1046.271973,97.599998,489.951996
1036.511963,95.648003,482.144012
1018.943970,81.984001,484.096008
1001.375977,76.127998,484.096008
985.760010,62.464001,478.239990
966.239990,60.512001,482.144012
946.719971,78.080002,478.239990
946.719971,148.352005,478.239990
946.719971,173.727997,468.480011
946.719971,105.407997,468.480011
944.768005,89.792000,456.768005
962.335999,163.968002,454.816010
954.528015,197.151993,460.671997
948.671997,144.447998,454.816010
940.864014,109.311996,450.911987
929.151978,136.639999,435.295990
929.151978,177.632004,429.440002
923.296021,134.688004,425.536011
923.296021,89.792000,413.824005
901.823975,115.167999,411.872009
905.728027,126.879997,392.351990
886.208008,115.167999,388.447998
878.400024,93.695999,370.880005
858.880005,87.839996,363.071991
849.119995,101.503998,365.023987
831.552002,121.024002,347.455994
827.648010,122.975998,329.888000
819.840027,117.120003,320.127991
815.935974,130.783997,300.608002
806.176025,132.735992,292.799988
796.416016,150.304001,277.183990
788.607971,146.399994,261.567993
786.656006,140.544006,245.951996
782.752014,152.255997,251.807999
778.848022,148.352005,222.528000
774.943970,138.591995,216.671997
774.943970,144.447998,201.056000
767.135986,140.544006,193.248001
761.280029,154.207993,169.824005
745.664001,152.255997,152.255997
749.567993,152.255997,132.735992
737.856018,167.871994,121.024002
733.952026,169.824005,105.407997
728.096008,173.727997,89.792000
732.000000,173.727997,83.935997
722.239990,177.632004,72.223999
724.192017,185.440002,68.320000
735.903992,183.488007,48.799999
722.239990,169.824005,39.040001
722.239990,162.016006,17.568001
714.432007,163.968002,7.808000
722.239990,158.112000,-9.760000
726.143982,160.063995,-23.424000
720.288025,158.112000,-25.375999
739.807983,156.160004,-21.472000
720.288025,142.496002,-31.232000
716.383972,148.352005,-35.136002
722.239990,162.016006,-29.280001
720.288025,160.063995,-39.040001
726.143982,162.016006,-33.183998
716.383972,158.112000,-31.232000
733.952026,156.160004,-35.136002
743.711975,158.112000,-33.183998
747.616028,181.535995,-40.992001
759.328003,199.104004,-40.992001
755.424011,179.584000,-48.799999
767.135986,185.440002,-54.655998
778.848022,232.287994,-60.512001
788.607971,263.519989,-52.703999
765.184021,244.000000,-66.367996
771.039978,242.048004,-78.080002
788.607971,279.135986,-74.176003
788.607971,273.279999,-64.416000
790.559998,279.135986,-76.127998
796.416016,290.847992,-76.127998
806.176025,318.175995,-78.080002
817.888000,337.696014,-78.080002
821.791992,339.648010,-74.176003
825.695984,333.791992,-85.888000
825.695984,337.696014,-87.839996
831.552002,339.648010,-87.839996
845.216003,286.944000,-105.407997
841.312012,288.895996,-95.648003
860.831970,314.272003,-76.127998
868.640015,288.895996,-87.839996
866.687988,255.712006,-101.503998
894.015991,228.384003,-89.792000
911.583984,183.488007,-64.416000
935.007996,142.496002,-70.272003
880.351990,189.343994,-56.608002
854.976013,616.831970,-50.751999
938.911987,751.520020,-46.848000
915.487976,327.936005,-31.232000
956.479980,-19.520000,-13.664000
1026.751953,40.992001,-13.664000
989.664001,310.368011,5.856000
970.143982,501.664001,11.712000
974.047974,472.384003,33.183998
997.471985,322.079987,66.367996
1007.231995,218.623993,93.695999
1005.280029,298.656006,128.832001
1007.231995,466.528015,142.496002
919.392029,406.015991,156.160004
685.151978,-187.391998,228.384003
905.728027,-62.464001,365.023987
1120.447998,251.807999,421.631989
997.471985,23.424000,441.152008
845.216003,-294.752014,435.295990
1124.352051,-122.975998,417.727997
1044.319946,148.352005,378.687988
1024.800049,177.632004,343.552002
1087.264038,-70.272003,335.743988
1087.264038,-251.807999,310.368011
1204.384033,-27.327999,322.079987
1200.479980,-13.664000,343.552002
1169.248047,-121.024002,355.264008
1239.520020,-136.639999,378.687988
1262.943970,-183.488007,390.399994
1264.895996,-185.440002,411.872009
1233.663940,-183.488007,441.152008
1216.095947,-140.544006,466.528015
1231.712036,-56.608002,513.375977
1235.615967,-17.568001,544.607971
1227.807983,-95.648003,575.840027
1247.328003,-185.440002,610.976013
1237.567993,-144.447998,624.640015
1241.472046,-54.655998,628.544006
1221.952026,29.280001,650.015991
1214.144043,117.120003,669.536011
1227.807983,191.296005,689.056030
1239.520020,249.856003,708.575989
1253.183960,306.463989,733.952026
1260.991943,337.696014,761.280029
1262.943970,378.687988,776.895996
1268.800049,415.776001,788.607971
1270.751953,409.920013,800.320007
1270.751953,394.303986,800.320007
1266.848022,394.303986,790.559998
1260.991943,378.687988,786.656006
1257.088013,343.552002,784.703979
1251.232056,292.799988,778.848022
1221.952026,247.904007,776.895996
1241.472046,224.479996,755.424011
1221.952026,162.016006,749.567993
1218.047974,93.695999,735.903992
1214.144043,70.272003,724.192017
1194.624023,80.031998,708.575989
1196.576050,56.608002,691.007996
1182.911987,17.568001,694.911987
1161.439941,44.896000,683.200012
1139.968018,83.935997,661.728027
1130.208008,126.879997,636.351990
1122.400024,150.304001,634.400024
1106.784058,175.679993,601.216003
1110.687988,206.912003,585.599976
1091.167969,247.904007,562.176025
1067.744019,273.279999,542.656006
1059.936035,275.231995,513.375977
1065.791992,296.704010,482.144012
1063.839966,300.608002,441.152008
1057.984009,292.799988,415.776001
1073.599976,265.471985,382.592010
1063.839966,236.192001,361.119995
1059.936035,214.720001,329.888000
1046.271973,195.199997,314.272003
1030.656006,171.776001,288.895996
1030.656006,146.399994,259.615997
1016.992004,128.832001,238.143997
997.471985,126.879997,216.671997
983.807983,101.503998,197.151993
960.383972,97.599998,175.679993
960.383972,113.216003,169.824005
960.383972,117.120003,152.255997
944.768005,103.456001,128.832001
946.719971,117.120003,109.311996
938.911987,134.688004,107.360001
927.200012,154.207993,95.648003
933.056030,163.968002,74.176003
921.343994,177.632004,58.560001
935.007996,175.679993,35.136002
919.392029,185.440002,29.280001
917.440002,191.296005,15.616000
911.583984,193.248001,21.472000
923.296021,187.391998,9.760000
950.624023,212.768005,9.760000
995.520020,171.776001,-9.760000
1005.280029,152.255997,-23.424000
976.000000,230.335999,-40.992001
917.440002,240.095993,-60.512001
913.536011,222.528000,-74.176003
903.776001,175.679993,-87.839996
884.255981,242.048004,-99.552002
808.127991,267.424011,-87.839996
665.632019,314.272003,52.703999
714.432007,175.679993,329.888000
692.960022,-119.071999,306.463989
771.039978,91.744003,-7.808000
886.208008,224.479996,-201.056000
927.200012,-107.360001,-193.248001
919.392029,-126.879997,-25.375999
759.328003,44.896000,162.016006
825.695984,87.839996,277.183990
958.432007,290.847992,402.112000
1005.280029,407.967987,589.504028
1085.312012,269.376007,726.143982
1085.312012,283.040009,802.271973
1087.264038,398.208008,792.512024
1073.599976,347.455994,724.192017
1042.368042,234.240005,587.552002
1018.943970,163.968002,421.631989
987.711975,97.599998,261.567993
983.807983,-17.568001,130.783997
962.335999,-3.904000,52.703999
927.200012,150.304001,25.375999
886.208008,124.928001,-3.904000
864.736023,89.792000,-33.183998
872.544006,173.727997,-68.320000
897.919983,158.112000,-121.024002
876.447998,148.352005,-134.688004
847.168030,228.384003,-115.167999
823.744019,343.552002,-119.071999
845.216003,390.399994,-167.871994
849.119995,384.544006,-201.056000
835.455994,392.351990,-201.056000
831.552002,400.160004,-224.479996
821.791992,433.343994,-251.807999
821.791992,421.631989,-263.519989
831.552002,351.359985,-292.799988
825.695984,357.216003,-322.079987
765.184021,294.752014,-335.743988
774.943970,-121.024002,-318.175995
831.552002,-589.504028,-283.040009
819.840027,-835.455994,-245.951996
849.119995,-735.903992,-273.279999
835.455994,-407.967987,-298.656006
831.552002,3.904000,-314.272003
825.695984,304.511993,-331.839996
813.984009,349.407990,-320.127991
827.648010,177.632004,-329.888000
847.168030,-122.975998,-333.791992
876.447998,-421.631989,-341.600006
870.591980,-540.703979,-359.167999
866.687988,-415.776001,-394.303986
876.447998,-160.063995,-396.256012
892.064026,-185.440002,-398.208008
888.159973,-568.031982,-314.272003
874.495972,-677.343994,-226.432007
899.872009,-308.415985,-171.776001
929.151978,275.231995,-122.975998
964.288025,747.616028,-103.456001
997.471985,677.343994,-97.599998
997.471985,208.863998,-68.320000
1007.231995,-242.048004,-52.703999
1011.135986,-275.231995,-58.560001
1009.184021,93.695999,-113.216003
1013.088013,534.848022,-162.016006
1044.319946,741.760010,-187.391998
1028.703979,726.143982,-201.056000
991.616028,583.648010,-234.240005
1005.280029,251.807999,-308.415985
987.711975,-156.160004,-357.216003
958.432007,-402.112000,-392.351990
999.424011,142.496002,-417.727997
925.247986,979.903992,-337.696014
880.351990,1155.583984,-288.895996
903.776001,609.023987,-267.424011
915.487976,-302.559998,-210.815994
1020.895996,-1009.184021,-171.776001
1126.303955,-1545.984009,-101.503998
1120.447998,-1382.015991,9.760000
1110.687988,-294.752014,91.744003
1122.400024,866.687988,109.311996
1161.439941,1401.536011,85.888000
1179.008057,1325.407959,50.751999
1186.816040,632.447998,15.616000
1206.336060,-441.152008,-37.088001
1249.280029,-1272.703979,-52.703999
1270.751953,-1216.095947,-46.848000
1239.520020,-347.455994,-29.280001
1221.952026,640.255981,5.856000
1239.520020,1104.832031,33.183998
1245.375977,851.072021,25.375999
1253.183960,117.120003,40.992001
1284.416016,-409.920013,48.799999
1292.223999,-368.928009,121.024002
1251.232056,39.040001,242.048004
1247.328003,353.312012,269.376007
1249.280029,322.079987,255.712006
1300.031982,-35.136002,203.007996
1301.984009,-755.424011,228.384003
1286.368042,-1198.527954,279.135986
1274.656006,-728.096008,284.992004
1257.088013,181.535995,267.424011
1249.280029,843.263977,238.143997
1264.895996,927.200012,206.912003
1245.375977,452.864014,181.535995
1257.088013,-263.519989,130.783997
1274.656006,-837.408020,70.272003
1266.848022,-878.400024,35.136002
1270.751953,-423.584015,-3.904000
1245.375977,175.679993,-29.280001
1257.088013,636.351990,-68.320000
1239.520020,894.015991,-93.695999
1259.040039,897.919983,-113.216003
1220.000000,866.687988,-99.552002
1212.192017,694.911987,-66.367996
1192.671997,384.544006,11.712000
1200.479980,70.272003,44.896000
1227.807983,29.280001,48.799999
1216.095947,214.720001,54.655998
1204.384033,507.519989,68.320000
1186.816040,581.695984,74.176003
1173.151978,238.143997,66.367996
1161.439941,-193.248001,42.944000
1169.248047,-343.552002,25.375999
1151.680054,-175.679993,-1.952000
1155.583984,222.528000,-52.703999
1157.536011,601.216003,-85.888000
1149.728027,813.984009,-126.879997
1151.680054,796.416016,-181.535995
1147.776001,603.168030,-210.815994
1149.728027,302.559998,-244.000000
1161.439941,25.375999,-286.944000
1163.391968,-83.935997,-322.079987
1159.488037,1.952000,-353.312012
1169.248047,208.863998,-378.687988
1157.536011,458.720001,-380.640015
1182.911987,642.208008,-308.415985
1118.495972,605.119995,-150.304001
1081.407959,284.992004,25.375999
1116.543945,146.399994,140.544006
1179.008057,203.007996,195.199997
1206.336060,370.880005,185.440002
1223.904053,517.280029,146.399994
1253.183960,638.304016,95.648003
1243.423950,546.559998,42.944000
1249.280029,406.015991,3.904000
1259.040039,300.608002,1.952000
1235.615967,308.415985,9.760000
1255.135986,392.351990,-11.712000
1221.952026,501.664001,-27.327999
1210.239990,538.752014,-68.320000
1204.384033,536.799988,-128.832001
1180.959961,530.943970,-175.679993
1173.151978,491.903992,-234.240005
1138.015991,648.064026,-267.424011
1124.352051,1034.560059,-261.567993
1095.072021,1391.776001,-222.528000
1040.416016,1524.511963,-175.679993
995.520020,989.664001,-154.207993
1028.703979,-224.479996,-107.360001
1093.119995,-1239.520020,-93.695999
1093.119995,-1311.744019,-80.031998
1067.744019,-427.488007,-80.031998
1028.703979,663.679993,-99.552002
1001.375977,1241.472046,-144.447998
993.567993,1046.271973,-214.720001
1007.231995,283.040009,-284.992004
1048.223999,-454.816010,-366.976013
1034.560059,-718.335999,-423.584015
1040.416016,-447.007996,-470.432007
1015.039978,148.352005,-497.760010
1007.231995,681.247986,-513.375977
985.760010,872.544006,-525.088013
985.760010,696.864014,-530.943970
993.567993,310.368011,-546.559998
995.520020,15.616000,-552.416016
999.424011,-23.424000,-544.607971
987.711975,70.272003,-515.328003
1007.231995,189.343994,-472.384003
979.903992,294.752014,-380.640015
942.815979,400.160004,-251.807999
915.487976,511.424011,-126.879997
897.919983,616.831970,-64.416000
903.776001,726.143982,-56.608002
907.679993,878.400024,-85.888000
884.255981,1001.375977,-150.304001
886.208008,1056.031982,-238.143997
880.351990,1102.880005,-327.936005
890.112000,1108.735962,-411.872009
841.312012,728.096008,-482.144012
894.015991,-173.727997,-554.367981
940.864014,-817.888000,-601.216003
1001.375977,-964.288025,-558.271973
2203.808105,-4089.439941,2801.120117
4300.255859,-6683.647949,9072.896484
5654.943848,-4229.983887,9172.448242
4678.943848,-3550.687988,5147.423828
3154.431885,-1663.104004,1395.680054
2225.280029,-128.832001,171.776001
2102.303955,-1122.400024,1259.040039
2094.496094,-331.839996,1438.624023
1627.968018,638.304016,-394.303986
977.952026,2016.416016,-2730.847900
380.640015,3154.431885,-4233.888184
-240.095993,2717.184082,-3626.815918
-708.575989,-421.631989,-1046.271973
-587.552002,-1061.887939,218.623993
78.080002,993.567993,-651.968018
411.872009,669.536011,-1257.088013
618.783997,-630.495972,-991.616028
692.960022,380.640015,-201.056000
968.192017,-306.463989,759.328003
1206.336060,-960.383972,1085.312012
1278.560059,-603.168030,503.615997
1130.208008,-245.951996,-384.544006
919.392029,519.231995,-1108.735962
737.856018,845.216003,-1317.599976
628.544006,400.160004,-894.015991
691.007996,115.167999,-599.263977
823.744019,259.615997,-702.719971
851.072021,130.783997,-771.039978
792.512024,-167.871994,-714.432007
737.856018,-240.095993,-601.216003
741.760010,-175.679993,-382.592010
804.223999,-37.088001,-214.720001
835.455994,119.071999,-187.391998
843.263977,208.863998,-236.192001
829.599976,308.415985,-312.320007
892.064026,468.480011,-341.600006
972.096008,610.976013,-288.895996
1013.088013,679.296021,-226.432007
1013.088013,710.528015,-204.960007
1003.328003,749.567993,-277.183990
1001.375977,704.671997,-298.656006
1016.992004,562.176025,-292.799988
1018.943970,407.967987,-208.863998
1013.088013,361.119995,-195.199997
1005.280029,357.216003,-240.095993
1015.039978,316.223999,-236.192001
1013.088013,298.656006,-212.768005
1042.368042,302.559998,-175.679993
1081.407959,304.511993,-128.832001
1120.447998,345.503998,-130.783997
1095.072021,374.783997,-162.016006
1065.791992,398.208008,-179.584000
1050.176025,390.399994,-187.391998
1040.416016,394.303986,-173.727997
1056.031982,394.303986,-171.776001
1063.839966,390.399994,-183.488007
1075.552002,357.216003,-179.584000
1065.791992,292.799988,-156.160004
1054.079956,267.424011,-171.776001
1046.271973,236.192001,-179.584000
1048.223999,173.727997,-171.776001
1067.744019,140.544006,-150.304001
1075.552002,148.352005,-150.304001
1067.744019,165.919998,-175.679993
1069.696045,189.343994,-179.584000
1069.696045,203.007996,-165.919998
1083.359985,195.199997,-150.304001
1063.839966,220.576004,-199.104004
1038.463989,228.384003,-240.095993
1040.416016,187.391998,-245.951996
1046.271973,130.783997,-232.287994
1063.839966,89.792000,-226.432007
1085.312012,66.367996,-199.104004
1069.696045,64.416000,-201.056000
1044.319946,62.464001,-210.815994
1026.751953,21.472000,-228.384003
1018.943970,25.375999,-247.904007
1032.608032,68.320000,-230.335999
1036.511963,80.031998,-208.863998
1057.984009,64.416000,-191.296005
1054.079956,31.232000,-175.679993
1040.416016,31.232000,-162.016006
1050.176025,25.375999,-150.304001
1067.744019,29.280001,-156.160004
1071.647949,52.703999,-173.727997
1052.128052,50.751999,-167.871994
1034.560059,50.751999,-138.591995
1030.656006,66.367996,-144.447998
1042.368042,76.127998,-154.207993
1046.271973,89.792000,-150.304001
1054.079956,105.407997,-121.024002
1057.984009,134.688004,-128.832001
1050.176025,144.447998,-134.688004
1044.319946,119.071999,-136.639999
1052.128052,119.071999,-130.783997
1071.647949,136.639999,-154.207993
1071.647949,140.544006,-152.255997
1075.552002,144.447998,-158.112000
1054.079956,146.399994,-154.207993
1044.319946,162.016006,-177.632004
1013.088013,163.968002,-203.007996
1015.039978,134.688004,-193.248001
1022.848022,130.783997,-210.815994
1030.656006,124.928001,-242.048004
1030.656006,107.360001,-242.048004
1038.463989,87.839996,-204.960007
1054.079956,80.031998,-169.824005
1048.223999,68.320000,-197.151993
1032.608032,105.407997,-234.240005
1007.231995,148.352005,-273.279999
1003.328003,171.776001,-296.704010
1009.184021,148.352005,-271.328003
1028.703979,132.735992,-216.671997
1061.887939,144.447998,-201.056000
1077.504028,152.255997,-185.440002
1069.696045,158.112000,-173.727997
1059.936035,193.248001,-216.671997
1038.463989,183.488007,-216.671997
1030.656006,150.304001,-156.160004
1036.511963,138.591995,-124.928001
1030.656006,156.160004,-152.255997
1013.088013,183.488007,-201.056000
1009.184021,173.727997,-210.815994
1020.895996,128.832001,-163.968002
1016.992004,121.024002,-136.639999
1013.088013,142.496002,-162.016006
1009.184021,158.112000,-216.671997
972.096008,154.207993,-242.048004
981.856018,134.688004,-208.863998
993.567993,134.688004,-191.296005
993.567993,130.783997,-206.912003
981.856018,122.975998,-220.576004
976.000000,113.216003,-228.384003
970.143982,142.496002,-242.048004
954.528015,150.304001,-242.048004
958.432007,146.399994,-220.576004
952.575989,126.879997,-204.960007
954.528015,121.024002,-214.720001
942.815979,138.591995,-265.471985
946.719971,150.304001,-294.752014
936.960022,126.879997,-273.279999
950.624023,109.311996,-236.192001
946.719971,117.120003,-253.759995
935.007996,138.591995,-281.088013
933.056030,122.975998,-263.519989
946.719971,142.496002,-265.471985
950.624023,146.399994,-265.471985
944.768005,142.496002,-277.183990
944.768005,142.496002,-251.807999
956.479980,124.928001,-244.000000
977.952026,152.255997,-255.712006
976.000000,165.919998,-265.471985
974.047974,154.207993,-257.664001
979.903992,150.304001,-244.000000
976.000000,146.399994,-232.287994
981.856018,146.399994,-238.143997
979.903992,171.776001,-245.951996
997.471985,220.576004,-232.287994
995.520020,224.479996,-222.528000
993.567993,169.824005,-222.528000
991.616028,109.311996,-236.192001
981.856018,93.695999,-281.088013
979.903992,109.311996,-283.040009
981.856018,128.832001,-265.471985
997.471985,113.216003,-240.095993
1007.231995,81.984001,-226.432007
1001.375977,87.839996,-265.471985
995.520020,99.552002,-273.279999
1001.375977,91.744003,-261.567993
991.616028,99.552002,-236.192001
1003.328003,80.031998,-240.095993
1001.375977,83.935997,-273.279999
987.711975,99.552002,-277.183990
991.616028,107.360001,-265.471985
991.616028,83.935997,-253.759995
991.616028,46.848000,-226.432007
1001.375977,15.616000,-236.192001
993.567993,48.799999,-257.664001
983.807983,95.648003,-279.135986
987.711975,89.792000,-261.567993
997.471985,72.223999,-236.192001
1001.375977,39.040001,-238.143997
995.520020,54.655998,-257.664001
981.856018,103.456001,-298.656006
972.096008,117.120003,-308.415985
981.856018,111.264000,-273.279999
997.471985,56.608002,-255.712006
999.424011,21.472000,-244.000000
1016.992004,7.808000,-257.664001
995.520020,33.183998,-265.471985
989.664001,87.839996,-275.231995
985.760010,117.120003,-284.992004
981.856018,121.024002,-269.376007
983.807983,91.744003,-249.856003
997.471985,46.848000,-226.432007
997.471985,0.000000,-210.815994
985.760010,-17.568001,-238.143997
981.856018,1.952000,-249.856003
972.096008,44.896000,-257.664001
972.096008,66.367996,-259.615997
974.047974,60.512001,-244.000000
974.047974,80.031998,-267.424011
966.239990,70.272003,-286.944000
974.047974,68.320000,-283.040009
966.239990,44.896000,-259.615997
958.432007,5.856000,-228.384003
956.479980,-42.944000,-238.143997
944.768005,-37.088001,-255.712006
944.768005,-11.712000,-279.135986
942.815979,5.856000,-269.376007
946.719971,15.616000,-265.471985
935.007996,42.944000,-283.040009
917.440002,83.935997,-308.415985
927.200012,101.503998,-298.656006
923.296021,58.560001,-269.376007
940.864014,-33.183998,-226.432007
946.719971,-113.216003,-224.479996
927.200012,-64.416000,-281.088013
897.919983,40.992001,-339.648010
890.112000,101.503998,-308.415985
899.872009,68.320000,-257.664001
909.632019,11.712000,-224.479996
907.679993,-17.568001,-255.712006
892.064026,3.904000,-304.511993
878.400024,31.232000,-314.272003
866.687988,17.568001,-284.992004
878.400024,-17.568001,-269.376007
884.255981,-37.088001,-263.519989
858.880005,-15.616000,-300.608002
851.072021,17.568001,-310.368011
849.119995,33.183998,-310.368011
845.216003,31.232000,-292.799988
837.408020,42.944000,-300.608002
841.312012,15.616000,-290.847992
851.072021,-48.799999,-267.424011
847.168030,-91.744003,-273.279999
837.408020,-48.799999,-324.032013
808.127991,35.136002,-372.832001
798.367981,121.024002,-357.216003
819.840027,128.832001,-312.320007
839.359985,29.280001,-267.424011
841.312012,-48.799999,-265.471985
845.216003,-68.320000,-320.127991
815.935974,-21.472000,-355.264008
810.080017,29.280001,-361.119995
804.223999,52.703999,-335.743988
813.984009,76.127998,-327.936005
823.744019,64.416000,-322.079987
817.888000,23.424000,-320.127991
813.984009,-13.664000,-324.032013
823.744019,-27.327999,-331.839996
835.455994,-3.904000,-333.791992
831.552002,13.664000,-351.359985
831.552002,42.944000,-335.743988
837.408020,76.127998,-339.648010
833.504028,83.935997,-353.312012
837.408020,95.648003,-345.503998
835.455994,56.608002,-339.648010
851.072021,15.616000,-335.743988
847.168030,-17.568001,-331.839996
851.072021,-9.760000,-335.743988
843.263977,37.088001,-351.359985
843.263977,95.648003,-359.167999
849.119995,113.216003,-359.167999
868.640015,89.792000,-347.455994
866.687988,56.608002,-339.648010
868.640015,54.655998,-347.455994
864.736023,48.799999,-349.407990
872.544006,33.183998,-347.455994
876.447998,27.327999,-353.312012
876.447998,64.416000,-374.783997
870.591980,99.552002,-370.880005
878.400024,103.456001,-357.216003
880.351990,95.648003,-343.552002
890.112000,95.648003,-349.407990
888.159973,95.648003,-353.312012
899.872009,74.176003,-353.312012
911.583984,52.703999,-349.407990
909.632019,58.560001,-343.552002
915.487976,87.839996,-345.503998
913.536011,95.648003,-349.407990
909.632019,97.599998,-353.312012
919.392029,93.695999,-347.455994
917.440002,121.024002,-351.359985
909.632019,113.216003,-355.264008
913.536011,97.599998,-339.648010
935.007996,83.935997,-339.648010
933.056030,68.320000,-335.743988
940.864014,80.031998,-337.696014
933.056030,99.552002,-351.359985
948.671997,109.311996,-351.359985
942.815979,138.591995,-355.264008
944.768005,128.832001,-357.216003
954.528015,136.639999,-353.312012
954.528015,103.456001,-341.600006
954.528015,89.792000,-351.359985
962.335999,97.599998,-357.216003
956.479980,103.456001,-370.880005
958.432007,91.744003,-355.264008
974.047974,87.839996,-351.359985
985.760010,107.360001,-341.600006
976.000000,144.447998,-345.503998
991.616028,146.399994,-345.503998
989.664001,119.071999,-333.791992
997.471985,101.503998,-333.791992
987.711975,109.311996,-351.359985
974.047974,117.120003,-355.264008
987.711975,132.735992,-345.503998
999.424011,95.648003,-347.455994
999.424011,68.320000,-355.264008
1001.375977,44.896000,-365.023987
1009.184021,62.464001,-380.640015
1007.231995,121.024002,-384.544006
1003.328003,177.632004,-386.496002
1011.135986,224.479996,-368.928009
1020.895996,191.296005,-353.312012
1028.703979,109.311996,-355.264008
1022.848022,46.848000,-365.023987
1024.800049,0.000000,-372.832001
1030.656006,39.040001,-398.208008
1020.895996,81.984001,-402.112000
1026.751953,177.632004,-402.112000
1044.319946,240.095993,-390.399994
1052.128052,226.432007,-365.023987
1059.936035,193.248001,-374.783997
1063.839966,99.552002,-365.023987
1069.696045,31.232000,-337.696014
1077.504028,-1.952000,-333.791992
1075.552002,0.000000,-347.455994
1065.791992,48.799999,-357.216003
1067.744019,111.264000,-345.503998
1063.839966,134.688004,-353.312012
1073.599976,134.688004,-351.359985
1077.504028,117.120003,-345.503998
1085.312012,74.176003,-351.359985
1098.975952,33.183998,-343.552002
1104.832031,27.327999,-329.888000
1089.215942,62.464001,-343.552002
1081.407959,107.360001,-347.455994
1087.264038,62.464001,-337.696014
1091.167969,11.712000,-339.648010
1095.072021,-9.760000,-345.503998
1089.215942,17.568001,-365.023987
1077.504028,42.944000,-370.880005
1087.264038,17.568001,-365.023987
1081.407959,29.280001,-374.783997
1089.215942,52.703999,-370.880005
1079.456055,48.799999,-363.071991
1083.359985,-7.808000,-357.216003
1081.407959,-62.464001,-355.264008
1083.359985,-31.232000,-359.167999
1079.456055,31.232000,-368.928009
1067.744019,64.416000,-368.928009
1059.936035,21.472000,-363.071991
1063.839966,-27.327999,-359.167999
1067.744019,-39.040001,-324.032013
1069.696045,-9.760000,-343.552002
1057.984009,-23.424000,-335.743988
1059.936035,-17.568001,-355.264008
1052.128052,-29.280001,-372.832001
1022.848022,5.856000,-370.880005
1030.656006,66.367996,-382.592010
1028.703979,31.232000,-370.880005
1032.608032,-19.520000,-365.023987
1024.800049,-72.223999,-363.071991
1028.703979,-44.896000,-355.264008
1011.135986,-52.703999,-353.312012
1001.375977,-46.848000,-357.216003
989.664001,-15.616000,-382.592010
976.000000,42.944000,-394.303986
968.192017,83.935997,-398.208008
960.383972,1.952000,-404.063995
956.479980,-107.360001,-380.640015
974.047974,-146.399994,-384.544006
962.335999,-154.207993,-400.160004
952.575989,-97.599998,-431.391998
933.056030,-35.136002,-437.247986
942.815979,52.703999,-417.727997
974.047974,80.031998,-374.783997
995.520020,25.375999,-308.415985
1007.231995,-37.088001,-275.231995
1020.895996,-68.320000,-283.040009
1009.184021,-29.280001,-324.032013
981.856018,1.952000,-353.312012
962.335999,-17.568001,-355.264008
950.624023,-11.712000,-363.071991
944.768005,1.952000,-404.063995
935.007996,9.760000,-439.200012
931.104004,-19.520000,-415.776001
933.056030,-83.935997,-382.592010
929.151978,-122.975998,-382.592010
935.007996,-93.695999,-419.679993
911.583984,-19.520000,-466.528015
878.400024,15.616000,-478.239990
894.015991,-1.952000,-419.679993
909.632019,-50.751999,-355.264008
927.200012,-101.503998,-296.704010
938.911987,-136.639999,-279.135986
942.815979,-154.207993,-292.799988
925.247986,-167.871994,-302.559998
903.776001,-132.735992,-329.888000
888.159973,-44.896000,-394.303986
874.495972,25.375999,-407.967987
870.591980,33.183998,-372.832001
884.255981,-44.896000,-312.320007
892.064026,-146.399994,-300.608002
874.495972,-203.007996,-357.216003
856.927979,-197.151993,-409.920013
839.359985,-185.440002,-421.631989
833.504028,-171.776001,-406.015991
849.119995,-136.639999,-368.928009
868.640015,-46.848000,-366.976013
878.400024,7.808000,-335.743988
890.112000,44.896000,-308.415985
892.064026,13.664000,-335.743988
880.351990,-124.928001,-320.127991
870.591980,-265.471985,-294.752014
854.976013,-251.807999,-335.743988
831.552002,-163.968002,-419.679993
813.984009,-15.616000,-458.720001
819.840027,83.935997,-407.967987
849.119995,85.888000,-304.511993
888.159973,19.520000,-244.000000
903.776001,-60.512001,-275.231995
888.159973,-115.167999,-351.359985
853.023987,-132.735992,-402.112000
800.320007,-115.167999,-404.063995
763.231995,-93.695999,-390.399994
691.007996,-33.183998,-368.928009
653.919983,9.760000,-431.391998
696.864014,11.712000,-525.088013
577.791992,5.856000,-532.895996
737.856018,-179.584000,-579.744019
761.280029,-126.879997,-568.031982
862.783997,-97.599998,-507.519989
880.351990,-140.544006,-439.200012
884.255981,-89.792000,-406.015991
950.624023,50.751999,-394.303986
923.296021,-5.856000,-300.608002
952.575989,-54.655998,-232.287994
938.911987,-35.136002,-261.567993
884.255981,15.616000,-320.127991
849.119995,62.464001,-376.735992
819.840027,46.848000,-423.584015
833.504028,19.520000,-489.951996
813.984009,101.503998,-573.888000
815.935974,171.776001,-585.599976
851.072021,136.639999,-474.335999
903.776001,54.655998,-386.496002
936.960022,-87.839996,-325.984009
942.815979,-130.783997,-347.455994
933.056030,-62.464001,-366.976013
925.247986,27.327999,-378.687988
929.151978,72.223999,-331.839996
927.200012,109.311996,-308.415985
933.056030,78.080002,-322.079987
933.056030,50.751999,-361.119995
917.440002,31.232000,-384.544006
901.823975,23.424000,-423.584015
894.015991,35.136002,-484.096008
880.351990,37.088001,-544.607971
866.687988,48.799999,-560.223999
872.544006,62.464001,-458.720001
909.632019,70.272003,-335.743988
976.000000,17.568001,-232.287994
1007.231995,9.760000,-228.384003
1005.280029,19.520000,-286.944000
987.711975,40.992001,-322.079987
966.239990,68.320000,-333.791992
962.335999,80.031998,-382.592010
950.624023,68.320000,-466.528015
927.200012,78.080002,-532.895996
911.583984,132.735992,-589.504028
903.776001,156.160004,-552.416016
925.247986,95.648003,-448.959991
968.192017,-23.424000,-347.455994
983.807983,-80.031998,-333.791992
991.616028,-76.127998,-341.600006
979.903992,5.856000,-341.600006
970.143982,101.503998,-349.407990
968.192017,134.688004,-357.216003
977.952026,97.599998,-316.223999
993.567993,117.120003,-298.656006
995.520020,105.407997,-310.368011
993.567993,44.896000,-327.936005
979.903992,-31.232000,-314.272003
972.096008,-23.424000,-279.135986
1007.231995,60.512001,-302.559998
1009.184021,124.928001,-322.079987
997.471985,167.871994,-337.696014
968.192017,119.071999,-372.832001
964.288025,35.136002,-378.687988
952.575989,-5.856000,-376.735992
976.000000,72.223999,-376.735992
989.664001,85.888000,-339.648010
991.616028,42.944000,-310.368011
997.471985,-27.327999,-298.656006
987.711975,-19.520000,-333.791992
995.520020,58.560001,-376.735992
977.952026,183.488007,-406.015991
981.856018,204.960007,-409.920013
981.856018,175.679993,-413.824005
974.047974,48.799999,-372.832001
993.567993,-52.703999,-361.119995
981.856018,-62.464001,-421.631989
958.432007,-54.655998,-452.864014
942.815979,29.280001,-474.335999
929.151978,83.935997,-493.855988
915.487976,111.264000,-493.855988
915.487976,117.120003,-513.375977
899.872009,138.591995,-530.943970
892.064026,177.632004,-562.176025
888.159973,148.352005,-521.184021
903.776001,52.703999,-484.096008
899.872009,-33.183998,-462.623993
905.728027,-121.024002,-437.247986
892.064026,-154.207993,-447.007996
872.544006,-146.399994,-488.000000
853.023987,-107.360001,-495.808014
845.216003,-70.272003,-472.384003
851.072021,-35.136002,-435.295990
858.880005,-33.183998,-390.399994
886.208008,-60.512001,-320.127991
882.304016,-5.856000,-331.839996
884.255981,31.232000,-413.824005
851.072021,60.512001,-466.528015
841.312012,37.088001,-495.808014
823.744019,-31.232000,-472.384003
827.648010,-54.655998,-458.720001
839.359985,-83.935997,-441.152008
858.880005,-54.655998,-433.343994
866.687988,-19.520000,-409.920013
860.831970,29.280001,-425.536011
858.880005,91.744003,-493.855988
831.552002,76.127998,-546.559998
815.935974,-33.183998,-534.848022
817.888000,-95.648003,-507.519989
837.408020,-109.311996,-517.280029
812.031982,-31.232000,-532.895996
810.080017,95.648003,-601.216003
806.176025,138.591995,-575.840027
810.080017,175.679993,-583.648010
829.599976,101.503998,-583.648010
815.935974,-19.520000,-577.791992
782.752014,-150.304001,-589.504028
765.184021,-329.888000,-544.607971
796.416016,-437.247986,-402.112000
853.023987,-380.640015,-265.471985
938.911987,-220.576004,-113.216003
1016.992004,-44.896000,-13.664000
1026.751953,66.367996,-35.136002
1018.943970,87.839996,-115.167999
1003.328003,-50.751999,-115.167999
1018.943970,-177.632004,-25.375999
1040.416016,-134.688004,-50.751999
1028.703979,0.000000,-156.160004
989.664001,148.352005,-251.807999
923.296021,234.240005,-339.648010
868.640015,181.535995,-421.631989
843.263977,95.648003,-523.135986
821.791992,5.856000,-685.151978
798.367981,-158.112000,-685.151978
823.744019,-251.807999,-562.176025
884.255981,-218.623993,-476.287994
919.392029,-122.975998,-411.872009
946.719971,-23.424000,-365.023987
950.624023,39.040001,-337.696014
931.104004,103.456001,-425.536011
892.064026,87.839996,-507.519989
874.495972,-7.808000,-499.712006
892.064026,-130.783997,-417.727997
907.679993,-101.503998,-476.287994
890.112000,-48.799999,-599.263977
847.168030,-29.280001,-687.104004
854.976013,-111.264000,-583.648010
882.304016,-144.447998,-431.391998
895.968018,-37.088001,-417.727997
917.440002,23.424000,-445.056000
901.823975,107.360001,-489.951996
868.640015,171.776001,-591.455994
849.119995,193.248001,-679.296021
821.791992,154.207993,-716.383972
823.744019,40.992001,-661.728027
806.176025,31.232000,-667.583984
810.080017,101.503998,-675.392029
804.223999,193.248001,-669.536011
821.791992,222.528000,-603.168030
847.168030,122.975998,-486.048004
860.831970,27.327999,-505.567993
849.119995,-206.912003,-599.263977
851.072021,-1272.703979,-497.760010
897.919983,-1202.432007,-341.600006
999.424011,-431.391998,-122.975998
1136.063965,271.328003,13.664000
1182.911987,618.783997,-68.320000
1167.296021,220.576004,-91.744003
1118.495972,-298.656006,-101.503998
1075.552002,-349.407990,-193.248001
1071.647949,-109.311996,-199.104004
1079.456055,124.928001,-232.287994
1026.751953,204.960007,-386.496002
970.143982,56.608002,-425.536011
940.864014,-93.695999,-435.295990
936.960022,-247.904007,-359.167999
977.952026,-304.511993,-273.279999
1015.039978,-238.143997,-269.376007
1013.088013,-11.712000,-349.407990
987.711975,148.352005,-439.200012
968.192017,162.016006,-454.816010
942.815979,134.688004,-445.056000
923.296021,76.127998,-452.864014
931.104004,5.856000,-435.295990
940.864014,-5.856000,-429.440002
929.151978,35.136002,-491.903992
913.536011,50.751999,-497.760010
915.487976,68.320000,-441.152008
923.296021,111.264000,-374.783997
929.151978,130.783997,-402.112000
944.768005,109.311996,-415.776001
936.960022,80.031998,-433.343994
915.487976,60.512001,-507.519989
880.351990,29.280001,-560.223999
854.976013,-11.712000,-585.599976
853.023987,-62.464001,-554.367981
874.495972,-81.984001,-474.335999
886.208008,-9.760000,-458.720001
