ACC_X,ACC_Y,ACC_Z
435.295990,552.416016,769.088013
433.343994,548.512024,757.375977
431.391998,546.559998,749.567993
429.440002,556.320007,757.375977
429.440002,550.463989,757.375977
437.247986,552.416016,743.711975
437.247986,560.223999,753.471985
439.200012,552.416016,745.664001
437.247986,560.223999,753.471985
447.007996,550.463989,751.520020
441.152008,552.416016,753.471985
435.295990,558.271973,753.471985
439.200012,558.271973,743.711975
439.200012,558.271973,749.567993
437.247986,562.176025,753.471985
437.247986,571.935974,743.711975
439.200012,556.320007,751.520020
433.343994,560.223999,753.471985
429.440002,558.271973,749.567993
437.247986,558.271973,759.328003
433.343994,560.223999,751.520020
435.295990,558.271973,745.664001
431.391998,560.223999,753.471985
431.391998,564.127991,745.664001
439.200012,564.127991,745.664001
437.247986,564.127991,743.711975
425.536011,564.127991,743.711975
431.391998,558.271973,751.520020
433.343994,558.271973,745.664001
427.488007,552.416016,743.711975
427.488007,564.127991,745.664001
419.679993,556.320007,749.567993
423.584015,556.320007,759.328003
429.440002,564.127991,751.520020
429.440002,564.127991,745.664001
439.200012,552.416016,745.664001
433.343994,558.271973,741.760010
435.295990,560.223999,751.520020
427.488007,560.223999,749.567993
429.440002,564.127991,745.664001
439.200012,558.271973,751.520020
439.200012,560.223999,751.520020
433.343994,568.031982,745.664001
435.295990,556.320007,753.471985
441.152008,560.223999,751.520020
441.152008,562.176025,755.424011
441.152008,568.031982,751.520020
439.200012,569.984009,757.375977
437.247986,575.840027,749.567993
443.104004,569.984009,749.567993
445.056000,568.031982,745.664001
441.152008,560.223999,755.424011
445.056000,568.031982,753.471985
448.959991,566.080017,757.375977
447.007996,575.840027,753.471985
443.104004,573.888000,751.520020
445.056000,573.888000,749.567993
443.104004,573.888000,751.520020
439.200012,573.888000,755.424011
439.200012,577.791992,759.328003
435.295990,568.031982,763.231995
433.343994,577.791992,763.231995
429.440002,569.984009,755.424011
433.343994,575.840027,757.375977
429.440002,573.888000,751.520020
431.391998,577.791992,743.711975
431.391998,575.840027,749.567993
435.295990,566.080017,741.760010
425.536011,571.935974,743.711975
433.343994,577.791992,743.711975
431.391998,575.840027,745.664001
435.295990,566.080017,747.616028
425.536011,575.840027,743.711975
429.440002,569.984009,755.424011
429.440002,579.744019,757.375977
427.488007,583.648010,753.471985
435.295990,579.744019,757.375977
437.247986,577.791992,755.424011
429.440002,577.791992,751.520020
429.440002,583.648010,751.520020
433.343994,583.648010,753.471985
439.200012,573.888000,757.375977
433.343994,579.744019,763.231995
439.200012,587.552002,757.375977
431.391998,585.599976,759.328003
431.391998,575.840027,755.424011
435.295990,581.695984,759.328003
443.104004,571.935974,761.280029
433.343994,571.935974,753.471985
427.488007,575.840027,761.280029
433.343994,571.935974,757.375977
431.391998,568.031982,765.184021
429.440002,569.984009,767.135986
433.343994,568.031982,759.328003
435.295990,568.031982,749.567993
433.343994,562.176025,753.471985
429.440002,562.176025,759.328003
429.440002,568.031982,763.231995
425.536011,571.935974,767.135986
419.679993,566.080017,759.328003
417.727997,566.080017,767.135986
425.536011,550.463989,763.231995
417.727997,564.127991,765.184021
423.584015,564.127991,761.280029
427.488007,575.840027,755.424011
429.440002,571.935974,757.375977
421.631989,575.840027,759.328003
427.488007,568.031982,757.375977
427.488007,566.080017,753.471985
427.488007,566.080017,753.471985
425.536011,556.320007,759.328003
417.727997,554.367981,761.280029
423.584015,556.320007,755.424011
415.776001,556.320007,755.424011
409.920013,552.416016,759.328003
425.536011,552.416016,757.375977
417.727997,560.223999,755.424011
409.920013,554.367981,753.471985
419.679993,560.223999,755.424011
415.776001,564.127991,761.280029
411.872009,558.271973,763.231995
407.967987,562.176025,755.424011
409.920013,564.127991,763.231995
409.920013,564.127991,763.231995
411.872009,560.223999,757.375977
415.776001,562.176025,769.088013
409.920013,554.367981,763.231995
409.920013,566.080017,771.039978
407.967987,564.127991,765.184021
411.872009,558.271973,767.135986
407.967987,552.416016,761.280029
409.920013,568.031982,761.280029
407.967987,554.367981,765.184021
400.160004,556.320007,763.231995
407.967987,554.367981,771.039978
404.063995,550.463989,769.088013
407.967987,550.463989,774.943970
407.967987,548.512024,767.135986
406.015991,538.752014,765.184021
402.112000,556.320007,772.992004
409.920013,550.463989,774.943970
400.160004,556.320007,771.039978
398.208008,550.463989,763.231995
398.208008,542.656006,757.375977
404.063995,550.463989,753.471985
402.112000,542.656006,757.375977
402.112000,556.320007,761.280029
409.920013,546.559998,761.280029
404.063995,546.559998,772.992004
404.063995,552.416016,771.039978
400.160004,542.656006,769.088013
402.112000,534.848022,776.895996
406.015991,546.559998,774.943970
411.872009,538.752014,774.943970
406.015991,546.559998,786.656006
402.112000,548.512024,798.367981
404.063995,546.559998,780.799988
404.063995,542.656006,784.703979
406.015991,546.559998,774.943970
407.967987,540.703979,788.607971
402.112000,542.656006,782.752014
413.824005,548.512024,784.703979
411.872009,548.512024,784.703979
411.872009,548.512024,784.703979
413.824005,538.752014,782.752014
413.824005,546.559998,788.607971
417.727997,542.656006,790.559998
407.967987,542.656006,792.512024
409.920013,548.512024,788.607971
413.824005,546.559998,788.607971
415.776001,538.752014,788.607971
415.776001,540.703979,784.703979
409.920013,528.992004,780.799988
409.920013,544.607971,790.559998
409.920013,548.512024,794.463989
409.920013,538.752014,784.703979
423.584015,534.848022,790.559998
415.776001,538.752014,784.703979
413.824005,544.607971,782.752014
415.776001,552.416016,790.559998
406.015991,554.367981,788.607971
404.063995,560.223999,788.607971
407.967987,562.176025,790.559998
406.015991,554.367981,784.703979
398.208008,548.512024,788.607971
404.063995,546.559998,780.799988
404.063995,554.367981,778.848022
411.872009,554.367981,769.088013
402.112000,560.223999,776.895996
409.920013,560.223999,782.752014
404.063995,550.463989,782.752014
402.112000,562.176025,784.703979
406.015991,550.463989,784.703979
402.112000,552.416016,784.703979
402.112000,560.223999,782.752014
409.920013,560.223999,774.943970
398.208008,548.512024,769.088013
402.112000,544.607971,769.088013
400.160004,550.463989,771.039978
398.208008,552.416016,776.895996
398.208008,552.416016,772.992004
396.256012,550.463989,772.992004
394.303986,548.512024,772.992004
406.015991,552.416016,771.039978
402.112000,566.080017,776.895996
398.208008,564.127991,782.752014
386.496002,569.984009,772.992004
394.303986,554.367981,771.039978
382.592010,560.223999,767.135986
398.208008,556.320007,761.280029
392.351990,558.271973,761.280029
396.256012,556.320007,755.424011
394.303986,550.463989,759.328003
394.303986,552.416016,761.280029
400.160004,554.367981,745.664001
390.399994,560.223999,749.567993
402.112000,542.656006,757.375977
386.496002,544.607971,759.328003
392.351990,556.320007,769.088013
390.399994,556.320007,776.895996
390.399994,546.559998,771.039978
394.303986,546.559998,769.088013
396.256012,548.512024,767.135986
390.399994,546.559998,767.135986
402.112000,548.512024,769.088013
394.303986,548.512024,765.184021
400.160004,556.320007,763.231995
386.496002,544.607971,753.471985
386.496002,552.416016,763.231995
394.303986,550.463989,759.328003
382.592010,552.416016,767.135986
384.544006,558.271973,767.135986
382.592010,552.416016,761.280029
378.687988,546.559998,759.328003
396.256012,544.607971,759.328003
396.256012,548.512024,755.424011
398.208008,536.799988,757.375977
388.447998,538.752014,753.471985
382.592010,536.799988,753.471985
388.447998,532.895996,757.375977
396.256012,532.895996,753.471985
384.544006,536.799988,749.567993
382.592010,527.039978,761.280029
388.447998,525.088013,757.375977
386.496002,528.992004,755.424011
392.351990,540.703979,753.471985
390.399994,528.992004,743.711975
390.399994,532.895996,747.616028
390.399994,523.135986,745.664001
392.351990,534.848022,755.424011
386.496002,534.848022,753.471985
390.399994,534.848022,751.520020
390.399994,530.943970,749.567993
388.447998,528.992004,755.424011
394.303986,538.752014,753.471985
396.256012,542.656006,759.328003
392.351990,534.848022,755.424011
396.256012,538.752014,763.231995
398.208008,532.895996,771.039978
406.015991,540.703979,769.088013
398.208008,525.088013,765.184021
402.112000,532.895996,772.992004
390.399994,530.943970,769.088013
394.303986,525.088013,771.039978
400.160004,525.088013,771.039978
402.112000,532.895996,772.992004
406.015991,525.088013,771.039978
398.208008,528.992004,761.280029
400.160004,528.992004,765.184021
402.112000,527.039978,772.992004
394.303986,536.799988,763.231995
394.303986,530.943970,765.184021
398.208008,536.799988,767.135986
404.063995,536.799988,763.231995
400.160004,532.895996,747.616028
390.399994,527.039978,749.567993
386.496002,532.895996,757.375977
396.256012,536.799988,761.280029
400.160004,536.799988,759.328003
400.160004,523.135986,759.328003
386.496002,521.184021,757.375977
390.399994,515.328003,763.231995
396.256012,527.039978,769.088013
392.351990,528.992004,763.231995
394.303986,525.088013,763.231995
388.447998,515.328003,759.328003
394.303986,519.231995,763.231995
392.351990,523.135986,757.375977
394.303986,519.231995,761.280029
390.399994,521.184021,763.231995
382.592010,527.039978,757.375977
388.447998,521.184021,759.328003
396.256012,521.184021,753.471985
396.256012,530.943970,747.616028
390.399994,528.992004,749.567993
382.592010,523.135986,755.424011
398.208008,523.135986,749.567993
390.399994,513.375977,753.471985
396.256012,505.567993,749.567993
396.256012,519.231995,751.520020
388.447998,515.328003,753.471985
386.496002,532.895996,759.328003
390.399994,521.184021,753.471985
388.447998,515.328003,761.280029
396.256012,509.471985,749.567993
388.447998,517.280029,753.471985
388.447998,515.328003,753.471985
394.303986,519.231995,761.280029
400.160004,515.328003,749.567993
400.160004,527.039978,759.328003
388.447998,515.328003,753.471985
398.208008,517.280029,757.375977
392.351990,521.184021,755.424011
396.256012,519.231995,747.616028
386.496002,519.231995,745.664001
396.256012,519.231995,745.664001
392.351990,525.088013,735.903992
398.208008,525.088013,745.664001
390.399994,527.039978,745.664001
394.303986,515.328003,747.616028
400.160004,513.375977,747.616028
400.160004,515.328003,743.711975
394.303986,513.375977,741.760010
396.256012,527.039978,745.664001
404.063995,513.375977,755.424011
402.112000,525.088013,759.328003
398.208008,521.184021,741.760010
390.399994,525.088013,741.760010
394.303986,521.184021,749.567993
398.208008,527.039978,739.807983
394.303986,519.231995,733.952026
394.303986,530.943970,730.047974
400.160004,525.088013,732.000000
396.256012,517.280029,735.903992
390.399994,527.039978,739.807983
394.303986,525.088013,733.952026
388.447998,515.328003,728.096008
392.351990,525.088013,726.143982
386.496002,521.184021,728.096008
392.351990,521.184021,726.143982
390.399994,525.088013,724.192017
392.351990,521.184021,718.335999
386.496002,521.184021,724.192017
382.592010,517.280029,720.288025
390.399994,515.328003,728.096008
388.447998,519.231995,718.335999
390.399994,519.231995,724.192017
396.256012,521.184021,722.239990
392.351990,517.280029,730.047974
390.399994,515.328003,728.096008
392.351990,511.424011,718.335999
386.496002,503.615997,726.143982
386.496002,513.375977,718.335999
382.592010,517.280029,714.432007
386.496002,509.471985,714.432007
384.544006,507.519989,714.432007
382.592010,517.280029,720.288025
374.783997,509.471985,712.479980
372.832001,515.328003,710.528015
368.928009,515.328003,706.624023
368.928009,507.519989,706.624023
378.687988,505.567993,718.335999
372.832001,501.664001,712.479980
365.023987,501.664001,710.528015
366.976013,495.808014,716.383972
359.167999,499.712006,716.383972
365.023987,499.712006,702.719971
363.071991,511.424011,716.383972
363.071991,511.424011,710.528015
351.359985,507.519989,714.432007
370.880005,503.615997,720.288025
361.119995,501.664001,720.288025
361.119995,499.712006,712.479980
353.312012,499.712006,716.383972
365.023987,497.760010,714.432007
349.407990,501.664001,726.143982
359.167999,499.712006,726.143982
345.503998,486.048004,726.143982
351.359985,495.808014,735.903992
343.552002,505.567993,733.952026
351.359985,495.808014,728.096008
345.503998,493.855988,733.952026
343.552002,489.951996,737.856018
345.503998,491.903992,730.047974
341.600006,499.712006,728.096008
339.648010,488.000000,733.952026
339.648010,482.144012,728.096008
349.407990,489.951996,726.143982
325.984009,482.144012,732.000000
343.552002,493.855988,728.096008
331.839996,491.903992,726.143982
333.791992,486.048004,726.143982
327.936005,495.808014,726.143982
324.032013,482.144012,728.096008
335.743988,486.048004,718.335999
325.984009,489.951996,733.952026
320.127991,484.096008,730.047974
324.032013,472.384003,722.239990
324.032013,468.480011,714.432007
322.079987,480.191986,718.335999
333.791992,468.480011,718.335999
327.936005,476.287994,722.239990
318.175995,478.239990,712.479980
320.127991,474.335999,716.383972
324.032013,468.480011,718.335999
320.127991,464.575989,728.096008
324.032013,476.287994,710.528015
322.079987,464.575989,710.528015
314.272003,468.480011,718.335999
322.079987,468.480011,716.383972
325.984009,460.671997,716.383972
320.127991,456.768005,712.479980
322.079987,452.864014,712.479980
327.936005,464.575989,716.383972
333.791992,454.816010,720.288025
327.936005,458.720001,720.288025
341.600006,452.864014,730.047974
327.936005,448.959991,730.047974
337.696014,447.007996,726.143982
331.839996,454.816010,726.143982
333.791992,454.816010,726.143982
345.503998,454.816010,730.047974
341.600006,452.864014,735.903992
347.455994,448.959991,728.096008
341.600006,458.720001,732.000000
353.312012,448.959991,722.239990
353.312012,454.816010,730.047974
345.503998,452.864014,732.000000
353.312012,445.056000,730.047974
347.455994,448.959991,728.096008
363.071991,462.623993,730.047974
363.071991,452.864014,737.856018
365.023987,447.007996,732.000000
368.928009,454.816010,739.807983
376.735992,456.768005,735.903992
370.880005,441.152008,743.711975
372.832001,441.152008,743.711975
374.783997,447.007996,755.424011
376.735992,443.104004,767.135986
390.399994,433.343994,772.992004
394.303986,431.391998,769.088013
392.351990,435.295990,782.752014
390.399994,433.343994,780.799988
398.208008,433.343994,782.752014
396.256012,443.104004,780.799988
407.967987,439.200012,784.703979
396.256012,447.007996,790.559998
398.208008,447.007996,786.656006
404.063995,447.007996,794.463989
409.920013,450.911987,784.703979
406.015991,443.104004,780.799988
407.967987,441.152008,782.752014
411.872009,445.056000,784.703979
404.063995,447.007996,780.799988
407.967987,441.152008,776.895996
404.063995,441.152008,780.799988
409.920013,447.007996,769.088013
419.679993,437.247986,786.656006
406.015991,448.959991,786.656006
417.727997,443.104004,782.752014
421.631989,437.247986,782.752014
415.776001,437.247986,784.703979
417.727997,435.295990,786.656006
419.679993,439.200012,794.463989
415.776001,450.911987,792.512024
427.488007,445.056000,780.799988
419.679993,441.152008,790.559998
415.776001,450.911987,782.752014
419.679993,445.056000,782.752014
419.679993,456.768005,780.799988
407.967987,458.720001,784.703979
413.824005,454.816010,778.848022
423.584015,456.768005,782.752014
413.824005,456.768005,780.799988
419.679993,460.671997,778.848022
417.727997,468.480011,774.943970
411.872009,474.335999,772.992004
402.112000,462.623993,772.992004
406.015991,452.864014,772.992004
423.584015,448.959991,772.992004
409.920013,464.575989,774.943970
409.920013,468.480011,774.943970
409.920013,462.623993,772.992004
411.872009,462.623993,763.231995
413.824005,458.720001,767.135986
411.872009,460.671997,769.088013
411.872009,466.528015,771.039978
409.920013,458.720001,765.184021
400.160004,462.623993,765.184021
411.872009,470.432007,765.184021
407.967987,486.048004,757.375977
407.967987,478.239990,761.280029
409.920013,478.239990,759.328003
411.872009,489.951996,755.424011
417.727997,482.144012,765.184021
409.920013,484.096008,759.328003
415.776001,489.951996,771.039978
413.824005,489.951996,757.375977
415.776001,484.096008,765.184021
415.776001,493.855988,769.088013
427.488007,486.048004,763.231995
417.727997,486.048004,772.992004
421.631989,480.191986,771.039978
419.679993,482.144012,765.184021
419.679993,489.951996,771.039978
427.488007,488.000000,778.848022
419.679993,488.000000,774.943970
431.391998,484.096008,774.943970
437.247986,484.096008,769.088013
433.343994,495.808014,772.992004
433.343994,499.712006,776.895996
429.440002,497.760010,778.848022
429.440002,491.903992,772.992004
441.152008,493.855988,774.943970
439.200012,491.903992,778.848022
450.911987,499.712006,780.799988
435.295990,495.808014,782.752014
445.056000,503.615997,788.607971
439.200012,501.664001,780.799988
441.152008,499.712006,786.656006
452.864014,491.903992,778.848022
447.007996,495.808014,788.607971
447.007996,497.760010,786.656006
441.152008,501.664001,790.559998
445.056000,491.903992,788.607971
447.007996,501.664001,784.703979
450.911987,482.144012,782.752014
448.959991,489.951996,786.656006
443.104004,501.664001,792.512024
445.056000,493.855988,798.367981
448.959991,489.951996,790.559998
454.816010,488.000000,790.559998
450.911987,486.048004,782.752014
452.864014,495.808014,771.039978
452.864014,488.000000,778.848022
443.104004,486.048004,772.992004
447.007996,488.000000,778.848022
445.056000,486.048004,771.039978
447.007996,484.096008,772.992004
450.911987,482.144012,763.231995
448.959991,489.951996,765.184021
445.056000,480.191986,778.848022
443.104004,489.951996,767.135986
448.959991,476.287994,771.039978
448.959991,480.191986,772.992004
441.152008,480.191986,772.992004
447.007996,472.384003,771.039978
454.816010,482.144012,782.752014
456.768005,472.384003,774.943970
452.864014,466.528015,786.656006
462.623993,476.287994,786.656006
450.911987,468.480011,782.752014
450.911987,478.239990,784.703979
448.959991,472.384003,788.607971
450.911987,474.335999,780.799988
454.816010,478.239990,784.703979
452.864014,464.575989,780.799988
462.623993,482.144012,778.848022
460.671997,470.432007,776.895996
454.816010,474.335999,765.184021
458.720001,462.623993,778.848022
450.911987,462.623993,776.895996
450.911987,468.480011,774.943970
456.768005,472.384003,774.943970
448.959991,476.287994,772.992004
445.056000,476.287994,772.992004
448.959991,470.432007,761.280029
448.959991,470.432007,767.135986
450.911987,482.144012,763.231995
450.911987,480.191986,765.184021
452.864014,478.239990,771.039978
458.720001,474.335999,757.375977
458.720001,478.239990,761.280029
460.671997,480.191986,767.135986
448.959991,486.048004,772.992004
450.911987,482.144012,763.231995
458.720001,474.335999,761.280029
460.671997,474.335999,763.231995
462.623993,484.096008,778.848022
456.768005,482.144012,769.088013
460.671997,480.191986,757.375977
466.528015,476.287994,769.088013
468.480011,468.480011,771.039978
470.432007,489.951996,771.039978
476.287994,488.000000,774.943970
478.239990,493.855988,774.943970
480.191986,495.808014,774.943970
488.000000,484.096008,782.752014
478.239990,488.000000,778.848022
484.096008,488.000000,780.799988
482.144012,493.855988,786.656006
489.951996,491.903992,772.992004
491.903992,497.760010,780.799988
493.855988,491.903992,772.992004
495.808014,491.903992,776.895996
491.903992,489.951996,778.848022
495.808014,501.664001,780.799988
488.000000,497.760010,780.799988
488.000000,493.855988,790.559998
491.903992,491.903992,782.752014
499.712006,484.096008,780.799988
491.903992,491.903992,784.703979
495.808014,495.808014,772.992004
509.471985,497.760010,774.943970
499.712006,497.760010,782.752014
497.760010,503.615997,776.895996
501.664001,493.855988,782.752014
509.471985,497.760010,778.848022
509.471985,491.903992,778.848022
509.471985,505.567993,776.895996
501.664001,495.808014,776.895996
503.615997,509.471985,782.752014
509.471985,505.567993,776.895996
509.471985,499.712006,786.656006
511.424011,488.000000,771.039978
511.424011,507.519989,784.703979
511.424011,505.567993,782.752014
503.615997,499.712006,778.848022
505.567993,505.567993,772.992004
509.471985,505.567993,774.943970
505.567993,513.375977,772.992004
517.280029,513.375977,782.752014
513.375977,503.615997,772.992004
503.615997,501.664001,782.752014
507.519989,509.471985,772.992004
507.519989,509.471985,771.039978
503.615997,505.567993,767.135986
513.375977,513.375977,771.039978
509.471985,517.280029,767.135986
509.471985,511.424011,769.088013
515.328003,495.808014,778.848022
507.519989,505.567993,776.895996
513.375977,503.615997,765.184021
507.519989,517.280029,772.992004
509.471985,509.471985,774.943970
509.471985,519.231995,780.799988
505.567993,517.280029,778.848022
513.375977,513.375977,784.703979
509.471985,505.567993,784.703979
509.471985,515.328003,790.559998
511.424011,511.424011,784.703979
511.424011,509.471985,784.703979
515.328003,513.375977,794.463989
517.280029,501.664001,792.512024
511.424011,509.471985,788.607971
515.328003,509.471985,790.559998
515.328003,503.615997,790.559998
513.375977,511.424011,784.703979
513.375977,513.375977,790.559998
515.328003,507.519989,790.559998
511.424011,509.471985,782.752014
519.231995,515.328003,786.656006
511.424011,517.280029,776.895996
523.135986,501.664001,776.895996
534.848022,505.567993,788.607971
534.848022,505.567993,778.848022
538.752014,507.519989,778.848022
552.416016,515.328003,782.752014
548.512024,513.375977,782.752014
542.656006,511.424011,790.559998
552.416016,511.424011,788.607971
562.176025,511.424011,786.656006
566.080017,505.567993,792.512024
575.840027,509.471985,802.271973
573.888000,513.375977,812.031982
573.888000,513.375977,821.791992
581.695984,515.328003,819.840027
575.840027,513.375977,827.648010
569.984009,517.280029,835.455994
587.552002,513.375977,837.408020
603.168030,493.855988,839.359985
607.072021,491.903992,853.023987
618.783997,491.903992,847.168030
612.927979,499.712006,853.023987
618.783997,509.471985,868.640015
626.591980,515.328003,870.591980
634.400024,519.231995,876.447998
634.400024,521.184021,888.159973
622.687988,528.992004,895.968018
626.591980,527.039978,903.776001
628.544006,525.088013,903.776001
646.112000,515.328003,909.632019
653.919983,505.567993,913.536011
659.776001,509.471985,913.536011
653.919983,505.567993,921.343994
661.728027,501.664001,923.296021
653.919983,507.519989,923.296021
659.776001,511.424011,925.247986
663.679993,501.664001,925.247986
655.872009,505.567993,940.864014
663.679993,511.424011,946.719971
659.776001,501.664001,933.056030
653.919983,489.951996,935.007996
665.632019,488.000000,935.007996
659.776001,488.000000,933.056030
651.968018,495.808014,929.151978
653.919983,491.903992,925.247986
653.919983,484.096008,931.104004
653.919983,489.951996,938.911987
659.776001,491.903992,942.815979
651.968018,491.903992,933.056030
657.823975,499.712006,935.007996
642.208008,540.703979,940.864014
667.583984,495.808014,938.911987
646.112000,445.056000,935.007996
640.255981,527.039978,940.864014
657.823975,544.607971,935.007996
651.968018,489.951996,929.151978
661.728027,443.104004,933.056030
659.776001,478.239990,923.296021
667.583984,532.895996,909.632019
651.968018,540.703979,911.583984
646.112000,525.088013,909.632019
644.159973,513.375977,901.823975
646.112000,538.752014,895.968018
642.208008,566.080017,882.304016
650.015991,560.223999,876.447998
648.064026,552.416016,864.736023
632.447998,546.559998,862.783997
634.400024,542.656006,854.976013
642.208008,566.080017,849.119995
632.447998,571.935974,839.359985
628.544006,554.367981,829.599976
634.400024,550.463989,810.080017
612.927979,538.752014,810.080017
614.880005,558.271973,800.320007
599.263977,560.223999,790.559998
599.263977,554.367981,776.895996
587.552002,523.135986,771.039978
581.695984,519.231995,763.231995
587.552002,527.039978,749.567993
587.552002,519.231995,753.471985
569.984009,519.231995,749.567993
573.888000,507.519989,741.760010
573.888000,513.375977,741.760010
564.127991,507.519989,730.047974
552.416016,513.375977,728.096008
552.416016,513.375977,726.143982
552.416016,503.615997,733.952026
542.656006,507.519989,730.047974
527.039978,517.280029,733.952026
523.135986,509.471985,735.903992
511.424011,521.184021,728.096008
509.471985,521.184021,732.000000
493.855988,519.231995,739.807983
486.048004,517.280029,732.000000
489.951996,528.992004,720.288025
505.567993,538.752014,714.432007
517.280029,511.424011,720.288025
544.607971,486.048004,722.239990
558.271973,488.000000,726.143982
534.848022,478.239990,726.143982
525.088013,468.480011,730.047974
503.615997,472.384003,728.096008
515.328003,509.471985,714.432007
515.328003,519.231995,712.479980
507.519989,505.567993,710.528015
530.943970,476.287994,716.383972
550.463989,486.048004,722.239990
552.416016,478.239990,718.335999
552.416016,452.864014,720.288025
536.799988,439.200012,732.000000
523.135986,452.864014,724.192017
515.328003,488.000000,726.143982
509.471985,493.855988,724.192017
484.096008,484.096008,730.047974
480.191986,482.144012,722.239990
488.000000,476.287994,722.239990
489.951996,482.144012,726.143982
493.855988,474.335999,732.000000
480.191986,470.432007,735.903992
468.480011,470.432007,743.711975
470.432007,472.384003,741.760010
464.575989,470.432007,745.664001
460.671997,450.911987,743.711975
464.575989,441.152008,743.711975
448.959991,454.816010,741.760010
458.720001,437.247986,745.664001
445.056000,437.247986,739.807983
445.056000,423.584015,741.760010
443.104004,431.391998,726.143982
452.864014,421.631989,733.952026
448.959991,407.967987,728.096008
454.816010,386.496002,724.192017
448.959991,396.256012,724.192017
450.911987,407.967987,730.047974
454.816010,394.303986,722.239990
448.959991,394.303986,722.239990
447.007996,390.399994,728.096008
452.864014,390.399994,720.288025
441.152008,384.544006,722.239990
435.295990,396.256012,716.383972
411.872009,415.776001,724.192017
406.015991,411.872009,728.096008
419.679993,409.920013,718.335999
419.679993,400.160004,714.432007
437.247986,394.303986,708.575989
447.007996,380.640015,706.624023
450.911987,374.783997,710.528015
447.007996,368.928009,718.335999
443.104004,370.880005,726.143982
439.200012,368.928009,739.807983
443.104004,366.976013,737.856018
429.440002,370.880005,753.471985
433.343994,355.264008,759.328003
437.247986,339.648010,753.471985
437.247986,329.888000,759.328003
427.488007,333.791992,765.184021
433.343994,331.839996,771.039978
447.007996,325.984009,771.039978
447.007996,333.791992,774.943970
445.056000,312.320007,772.992004
448.959991,302.559998,780.799988
447.007996,314.272003,798.367981
443.104004,324.032013,813.984009
447.007996,312.320007,812.031982
445.056000,314.272003,827.648010
445.056000,322.079987,825.695984
443.104004,324.032013,833.504028
429.440002,308.415985,825.695984
433.343994,320.127991,831.552002
435.295990,331.839996,819.840027
447.007996,327.936005,815.935974
470.432007,310.368011,796.416016
488.000000,304.511993,794.463989
489.951996,314.272003,780.799988
476.287994,331.839996,782.752014
474.335999,322.079987,784.703979
462.623993,320.127991,806.176025
456.768005,320.127991,796.416016
460.671997,310.368011,782.752014
448.959991,302.559998,780.799988
437.247986,288.895996,772.992004
443.104004,296.704010,774.943970
421.631989,308.415985,767.135986
423.584015,306.463989,761.280029
429.440002,290.847992,769.088013
435.295990,279.135986,759.328003
419.679993,296.704010,759.328003
417.727997,283.040009,757.375977
415.776001,275.231995,759.328003
421.631989,265.471985,755.424011
394.303986,279.135986,761.280029
402.112000,277.183990,771.039978
380.640015,265.471985,769.088013
400.160004,267.424011,765.184021
390.399994,273.279999,751.520020
394.303986,265.471985,749.567993
388.447998,269.376007,747.616028
396.256012,275.231995,747.616028
398.208008,269.376007,726.143982
398.208008,279.135986,726.143982
390.399994,290.847992,724.192017
382.592010,296.704010,724.192017
376.735992,296.704010,722.239990
380.640015,294.752014,712.479980
370.880005,300.608002,714.432007
365.023987,298.656006,716.383972
386.496002,281.088013,712.479980
370.880005,288.895996,714.432007
384.544006,292.799988,702.719971
378.687988,281.088013,698.815979
372.832001,275.231995,702.719971
378.687988,298.656006,698.815979
376.735992,302.559998,702.719971
374.783997,290.847992,691.007996
380.640015,283.040009,702.719971
388.447998,296.704010,698.815979
378.687988,284.992004,704.671997
372.832001,279.135986,696.864014
374.783997,277.183990,696.864014
376.735992,275.231995,696.864014
374.783997,286.944000,698.815979
372.832001,284.992004,706.624023
372.832001,269.376007,696.864014
380.640015,281.088013,700.768005
372.832001,281.088013,696.864014
366.976013,288.895996,694.911987
374.783997,271.328003,687.104004
382.592010,273.279999,694.911987
392.351990,273.279999,698.815979
380.640015,277.183990,694.911987
380.640015,267.424011,708.575989
384.544006,271.328003,702.719971
378.687988,281.088013,712.479980
378.687988,265.471985,710.528015
384.544006,265.471985,708.575989
378.687988,265.471985,708.575989
388.447998,277.183990,712.479980
384.544006,265.471985,708.575989
388.447998,286.944000,712.479980
388.447998,281.088013,712.479980
382.592010,283.040009,706.624023
384.544006,281.088013,718.335999
398.208008,283.040009,714.432007
396.256012,283.040009,720.288025
396.256012,281.088013,724.192017
400.160004,275.231995,716.383972
396.256012,292.799988,732.000000
400.160004,286.944000,726.143982
384.544006,283.040009,733.952026
390.399994,290.847992,728.096008
390.399994,290.847992,739.807983
394.303986,283.040009,737.856018
394.303986,286.944000,733.952026
388.447998,284.992004,728.096008
394.303986,284.992004,737.856018
398.208008,281.088013,735.903992
388.447998,283.040009,728.096008
400.160004,284.992004,726.143982
396.256012,286.944000,726.143982
398.208008,284.992004,724.192017
394.303986,275.231995,735.903992
400.160004,269.376007,732.000000
386.496002,277.183990,726.143982
396.256012,277.183990,710.528015
400.160004,271.328003,720.288025
402.112000,279.135986,728.096008
411.872009,277.183990,726.143982
406.015991,269.376007,730.047974
400.160004,269.376007,722.239990
404.063995,271.328003,739.807983
402.112000,271.328003,741.760010
409.920013,273.279999,745.664001
409.920013,273.279999,743.711975
409.920013,279.135986,751.520020
406.015991,275.231995,763.231995
413.824005,277.183990,769.088013
402.112000,275.231995,757.375977
411.872009,283.040009,763.231995
417.727997,279.135986,774.943970
415.776001,275.231995,778.848022
419.679993,275.231995,778.848022
421.631989,277.183990,776.895996
423.584015,290.847992,778.848022
423.584015,283.040009,780.799988
421.631989,281.088013,776.895996
425.536011,283.040009,788.607971
433.343994,281.088013,788.607971
431.391998,281.088013,788.607971
421.631989,283.040009,784.703979
415.776001,286.944000,792.512024
419.679993,290.847992,790.559998
431.391998,279.135986,790.559998
435.295990,277.183990,790.559998
421.631989,269.376007,786.656006
427.488007,269.376007,782.752014
437.247986,275.231995,790.559998
419.679993,283.040009,786.656006
431.391998,257.664001,794.463989
429.440002,261.567993,786.656006
421.631989,261.567993,776.895996
429.440002,263.519989,778.848022
437.247986,261.567993,782.752014
425.536011,257.664001,784.703979
431.391998,253.759995,780.799988
419.679993,259.615997,776.895996
429.440002,255.712006,769.088013
425.536011,253.759995,769.088013
425.536011,253.759995,774.943970
429.440002,245.951996,774.943970
437.247986,245.951996,772.992004
429.440002,249.856003,772.992004
441.152008,244.000000,778.848022
443.104004,240.095993,767.135986
437.247986,245.951996,772.992004
447.007996,240.095993,778.848022
429.440002,240.095993,778.848022
435.295990,242.048004,788.607971
433.343994,247.904007,790.559998
443.104004,240.095993,788.607971
450.911987,226.432007,778.848022
435.295990,226.432007,788.607971
454.816010,242.048004,794.463989
445.056000,245.951996,798.367981
445.056000,230.335999,784.703979
443.104004,234.240005,798.367981
450.911987,236.192001,798.367981
450.911987,238.143997,790.559998
452.864014,238.143997,794.463989
450.911987,251.807999,794.463989
433.343994,257.664001,798.367981
462.623993,267.424011,788.607971
441.152008,251.807999,786.656006
464.575989,245.951996,782.752014
448.959991,263.519989,786.656006
460.671997,275.231995,788.607971
454.816010,261.567993,790.559998
464.575989,263.519989,792.512024
448.959991,265.471985,790.559998
472.384003,271.328003,782.752014
470.432007,265.471985,778.848022
462.623993,265.471985,776.895996
462.623993,283.040009,780.799988
460.671997,277.183990,776.895996
478.239990,277.183990,782.752014
472.384003,271.328003,782.752014
482.144012,267.424011,772.992004
478.239990,275.231995,778.848022
486.048004,290.847992,774.943970
482.144012,294.752014,772.992004
488.000000,302.559998,782.752014
476.287994,300.608002,780.799988
489.951996,304.511993,780.799988
476.287994,302.559998,792.512024
472.384003,325.984009,794.463989
472.384003,325.984009,790.559998
478.239990,322.079987,782.752014
486.048004,327.936005,786.656006
486.048004,327.936005,790.559998
495.808014,331.839996,790.559998
491.903992,333.791992,790.559998
489.951996,339.648010,786.656006
488.000000,331.839996,790.559998
489.951996,333.791992,798.367981
480.191986,337.696014,794.463989
486.048004,351.359985,784.703979
476.287994,331.839996,790.559998
482.144012,345.503998,788.607971
466.528015,345.503998,784.703979
486.048004,357.216003,771.039978
466.528015,357.216003,776.895996
476.287994,359.167999,765.184021
468.480011,357.216003,763.231995
464.575989,365.023987,755.424011
468.480011,366.976013,753.471985
462.623993,370.880005,749.567993
466.528015,372.832001,753.471985
464.575989,372.832001,749.567993
468.480011,378.687988,745.664001
464.575989,374.783997,749.567993
468.480011,386.496002,743.711975
486.048004,382.592010,743.711975
458.720001,392.351990,751.520020
460.671997,398.208008,743.711975
478.239990,394.303986,743.711975
470.432007,394.303986,741.760010
458.720001,390.399994,737.856018
462.623993,398.208008,735.903992
464.575989,394.303986,743.711975
468.480011,386.496002,735.903992
460.671997,396.256012,743.711975
462.623993,402.112000,739.807983
447.007996,398.208008,743.711975
472.384003,396.256012,733.952026
466.528015,411.872009,730.047974
472.384003,398.208008,737.856018
460.671997,394.303986,726.143982
476.287994,392.351990,726.143982
476.287994,394.303986,724.192017
488.000000,396.256012,735.903992
478.239990,390.399994,733.952026
489.951996,378.687988,737.856018
472.384003,400.160004,726.143982
466.528015,398.208008,733.952026
474.335999,390.399994,737.856018
464.575989,398.208008,730.047974
482.144012,406.015991,735.903992
472.384003,409.920013,728.096008
476.287994,396.256012,733.952026
484.096008,411.872009,730.047974
482.144012,402.112000,733.952026
486.048004,404.063995,735.903992
478.239990,409.920013,733.952026
484.096008,413.824005,751.520020
482.144012,407.967987,751.520020
482.144012,411.872009,745.664001
472.384003,404.063995,755.424011
489.951996,407.967987,751.520020
488.000000,411.872009,757.375977
491.903992,402.112000,757.375977
486.048004,394.303986,751.520020
501.664001,392.351990,767.135986
493.855988,392.351990,765.184021
474.335999,400.160004,763.231995
484.096008,386.496002,763.231995
480.191986,378.687988,771.039978
488.000000,376.735992,771.039978
497.760010,372.832001,769.088013
484.096008,363.071991,761.280029
495.808014,355.264008,751.520020
489.951996,361.119995,759.328003
489.951996,376.735992,765.184021
472.384003,370.880005,757.375977
482.144012,365.023987,767.135986
489.951996,359.167999,767.135986
493.855988,355.264008,753.471985
476.287994,363.071991,755.424011
484.096008,363.071991,751.520020
478.239990,368.928009,753.471985
476.287994,380.640015,749.567993
476.287994,368.928009,747.616028
501.664001,347.455994,755.424011
472.384003,355.264008,753.471985
491.903992,366.976013,757.375977
464.575989,363.071991,765.184021
480.191986,361.119995,769.088013
472.384003,365.023987,757.375977
476.287994,357.216003,767.135986
482.144012,347.455994,755.424011
464.575989,347.455994,763.231995
476.287994,347.455994,759.328003
472.384003,361.119995,761.280029
480.191986,343.552002,753.471985
484.096008,341.600006,757.375977
478.239990,347.455994,755.424011
466.528015,343.552002,757.375977
456.768005,335.743988,761.280029
466.528015,351.359985,757.375977
474.335999,353.312012,751.520020
466.528015,335.743988,753.471985
460.671997,327.936005,737.856018
452.864014,347.455994,745.664001
466.528015,339.648010,753.471985
452.864014,349.407990,741.760010
462.623993,345.503998,747.616028
464.575989,325.984009,741.760010
472.384003,320.127991,743.711975
468.480011,324.032013,747.616028
460.671997,341.600006,751.520020
456.768005,335.743988,753.471985
456.768005,339.648010,757.375977
472.384003,337.696014,737.856018
468.480011,316.223999,751.520020
470.432007,320.127991,759.328003
468.480011,341.600006,757.375977
464.575989,329.888000,759.328003
468.480011,329.888000,763.231995
476.287994,325.984009,751.520020
474.335999,325.984009,749.567993
476.287994,327.936005,767.135986
478.239990,333.791992,761.280029
478.239990,339.648010,761.280029
480.191986,339.648010,767.135986
486.048004,335.743988,761.280029
472.384003,331.839996,755.424011
480.191986,345.503998,769.088013
476.287994,325.984009,769.088013
488.000000,329.888000,771.039978
476.287994,327.936005,767.135986
480.191986,316.223999,761.280029
491.903992,298.656006,767.135986
480.191986,310.368011,761.280029
482.144012,316.223999,771.039978
484.096008,310.368011,778.848022
480.191986,298.656006,774.943970
478.239990,300.608002,769.088013
476.287994,288.895996,771.039978
480.191986,283.040009,765.184021
480.191986,290.847992,771.039978
480.191986,298.656006,767.135986
478.239990,284.992004,767.135986
474.335999,277.183990,753.471985
480.191986,279.135986,749.567993
472.384003,273.279999,747.616028
478.239990,269.376007,755.424011
476.287994,279.135986,755.424011
474.335999,284.992004,747.616028
482.144012,269.376007,747.616028
468.480011,273.279999,735.903992
474.335999,263.519989,741.760010
474.335999,267.424011,733.952026
464.575989,265.471985,747.616028
472.384003,257.664001,737.856018
470.432007,251.807999,741.760010
472.384003,267.424011,747.616028
464.575989,271.328003,741.760010
460.671997,253.759995,741.760010
474.335999,255.712006,747.616028
480.191986,257.664001,741.760010
464.575989,247.904007,733.952026
460.671997,249.856003,737.856018
464.575989,253.759995,743.711975
482.144012,238.143997,749.567993
476.287994,238.143997,753.471985
480.191986,247.904007,747.616028
478.239990,238.143997,755.424011
482.144012,234.240005,759.328003
488.000000,240.095993,763.231995
489.951996,245.951996,755.424011
486.048004,242.048004,757.375977
488.000000,238.143997,753.471985
488.000000,236.192001,753.471985
488.000000,234.240005,767.135986
489.951996,236.192001,767.135986
493.855988,230.335999,769.088013
497.760010,222.528000,749.567993
491.903992,230.335999,767.135986
503.615997,222.528000,763.231995
505.567993,226.432007,757.375977
501.664001,224.479996,757.375977
507.519989,220.576004,757.375977
488.000000,216.671997,753.471985
509.471985,228.384003,753.471985
497.760010,216.671997,759.328003
503.615997,214.720001,753.471985
505.567993,214.720001,763.231995
503.615997,216.671997,755.424011
499.712006,216.671997,753.471985
509.471985,208.863998,753.471985
509.471985,218.623993,743.711975
501.664001,210.815994,749.567993
507.519989,204.960007,747.616028
513.375977,206.912003,747.616028
513.375977,206.912003,747.616028
515.328003,212.768005,743.711975
515.328003,210.815994,737.856018
521.184021,208.863998,745.664001
521.184021,206.912003,749.567993
525.088013,203.007996,741.760010
519.231995,204.960007,741.760010
515.328003,206.912003,743.711975
521.184021,222.528000,741.760010
519.231995,216.671997,732.000000
519.231995,222.528000,737.856018
525.088013,214.720001,739.807983
528.992004,222.528000,747.616028
519.231995,230.335999,743.711975
523.135986,236.192001,737.856018
521.184021,230.335999,737.856018
525.088013,224.479996,732.000000
528.992004,222.528000,743.711975
536.799988,228.384003,743.711975
530.943970,230.335999,737.856018
530.943970,230.335999,747.616028
528.992004,220.576004,741.760010
530.943970,222.528000,743.711975
530.943970,230.335999,741.760010
527.039978,228.384003,743.711975
525.088013,224.479996,735.903992
525.088013,228.384003,737.856018
519.231995,228.384003,735.903992
519.231995,230.335999,733.952026
523.135986,224.479996,730.047974
528.992004,224.479996,730.047974
532.895996,232.287994,728.096008
519.231995,226.432007,739.807983
521.184021,232.287994,732.000000
523.135986,226.432007,726.143982
525.088013,226.432007,730.047974
525.088013,230.335999,728.096008
536.799988,232.287994,724.192017
534.848022,222.528000,722.239990
536.799988,226.432007,724.192017
523.135986,222.528000,718.335999
528.992004,224.479996,728.096008
528.992004,218.623993,718.335999
536.799988,224.479996,716.383972
532.895996,228.384003,722.239990
534.848022,224.479996,718.335999
538.752014,226.432007,714.432007
544.607971,222.528000,716.383972
546.559998,218.623993,718.335999
542.656006,212.768005,718.335999
552.416016,214.720001,716.383972
556.320007,210.815994,720.288025
552.416016,210.815994,722.239990
544.607971,220.576004,728.096008
550.463989,210.815994,724.192017
546.559998,206.912003,716.383972
554.367981,208.863998,722.239990
548.512024,212.768005,720.288025
554.367981,212.768005,722.239990
546.559998,208.863998,724.192017
556.320007,206.912003,728.096008
556.320007,212.768005,722.239990
556.320007,206.912003,722.239990
552.416016,203.007996,726.143982
554.367981,208.863998,720.288025
552.416016,203.007996,728.096008
556.320007,191.296005,718.335999
556.320007,204.960007,728.096008
562.176025,193.248001,722.239990
556.320007,191.296005,724.192017
562.176025,191.296005,724.192017
558.271973,191.296005,718.335999
566.080017,183.488007,710.528015
550.463989,193.248001,722.239990
571.935974,187.391998,712.479980
554.367981,179.584000,716.383972
564.127991,179.584000,724.192017
558.271973,183.488007,716.383972
558.271973,189.343994,720.288025
564.127991,189.343994,714.432007
571.935974,173.727997,706.624023
566.080017,179.584000,710.528015
566.080017,179.584000,712.479980
569.984009,173.727997,710.528015
573.888000,165.919998,716.383972
569.984009,167.871994,710.528015
573.888000,177.632004,724.192017
573.888000,173.727997,720.288025
568.031982,163.968002,722.239990
579.744019,167.871994,714.432007
575.840027,163.968002,714.432007
569.984009,167.871994,716.383972
571.935974,162.016006,712.479980
573.888000,156.160004,714.432007
573.888000,154.207993,714.432007
577.791992,150.304001,716.383972
575.840027,152.255997,706.624023
579.744019,144.447998,710.528015
575.840027,144.447998,718.335999
573.888000,144.447998,720.288025
579.744019,132.735992,710.528015
583.648010,138.591995,724.192017
581.695984,140.544006,714.432007
579.744019,128.832001,716.383972
573.888000,132.735992,714.432007
569.984009,138.591995,710.528015
569.984009,134.688004,710.528015
573.888000,130.783997,710.528015
579.744019,124.928001,718.335999
573.888000,134.688004,714.432007
571.935974,124.928001,712.479980
573.888000,130.783997,708.575989
577.791992,130.783997,706.624023
573.888000,126.879997,706.624023
575.840027,124.928001,710.528015
575.840027,132.735992,708.575989
581.695984,124.928001,708.575989
573.888000,126.879997,698.815979
571.935974,124.928001,706.624023
562.176025,124.928001,702.719971
566.080017,122.975998,712.479980
566.080017,121.024002,710.528015
569.984009,115.167999,694.911987
568.031982,122.975998,698.815979
568.031982,122.975998,694.911987
568.031982,119.071999,692.960022
569.984009,121.024002,694.911987
575.840027,111.264000,691.007996
569.984009,109.311996,694.911987
562.176025,117.120003,696.864014
571.935974,101.503998,696.864014
569.984009,109.311996,696.864014
560.223999,115.167999,685.151978
575.840027,109.311996,689.056030
569.984009,105.407997,689.056030
579.744019,109.311996,681.247986
569.984009,109.311996,683.200012
573.888000,119.071999,683.200012
568.031982,115.167999,675.392029
573.888000,101.503998,679.296021
566.080017,105.407997,675.392029
569.984009,111.264000,677.343994
564.127991,111.264000,675.392029
577.791992,113.216003,671.487976
566.080017,111.264000,675.392029
566.080017,115.167999,665.632019
568.031982,122.975998,665.632019
569.984009,117.120003,671.487976
562.176025,124.928001,667.583984
568.031982,126.879997,675.392029
562.176025,121.024002,667.583984
562.176025,113.216003,663.679993
566.080017,117.120003,661.728027
562.176025,122.975998,661.728027
560.223999,124.928001,659.776001
558.271973,134.688004,655.872009
562.176025,136.639999,651.968018
571.935974,122.975998,655.872009
568.031982,132.735992,651.968018
569.984009,130.783997,657.823975
566.080017,119.071999,653.919983
562.176025,130.783997,648.064026
568.031982,142.496002,657.823975
568.031982,140.544006,663.679993
564.127991,128.832001,651.968018
566.080017,144.447998,650.015991
566.080017,138.591995,646.112000
569.984009,142.496002,648.064026
573.888000,130.783997,650.015991
581.695984,138.591995,653.919983
575.840027,150.304001,655.872009
583.648010,146.399994,646.112000
579.744019,146.399994,644.159973
581.695984,142.496002,648.064026
581.695984,146.399994,644.159973
591.455994,150.304001,648.064026
587.552002,154.207993,648.064026
589.504028,150.304001,640.255981
585.599976,148.352005,653.919983
581.695984,163.968002,659.776001
581.695984,171.776001,661.728027
587.552002,179.584000,651.968018
601.216003,201.056000,655.872009
605.119995,189.343994,644.159973
610.976013,167.871994,648.064026
628.544006,175.679993,651.968018
634.400024,181.535995,651.968018
634.400024,175.679993,650.015991
638.304016,187.391998,650.015991
636.351990,173.727997,648.064026
634.400024,181.535995,642.208008
624.640015,195.199997,650.015991
634.400024,199.104004,646.112000
622.687988,197.151993,650.015991
630.495972,201.056000,653.919983
640.255981,195.199997,642.208008
640.255981,189.343994,642.208008
650.015991,204.960007,642.208008
651.968018,201.056000,644.159973
650.015991,208.863998,650.015991
653.919983,204.960007,644.159973
655.872009,212.768005,642.208008
659.776001,218.623993,651.968018
659.776001,218.623993,650.015991
671.487976,230.335999,648.064026
673.440002,224.479996,648.064026
681.247986,240.095993,644.159973
681.247986,240.095993,650.015991
691.007996,245.951996,653.919983
696.864014,232.287994,659.776001
704.671997,244.000000,651.968018
708.575989,245.951996,665.632019
696.864014,259.615997,659.776001
702.719971,253.759995,657.823975
708.575989,247.904007,657.823975
716.383972,263.519989,655.872009
716.383972,259.615997,663.679993
718.335999,247.904007,671.487976
724.192017,251.807999,669.536011
728.096008,245.951996,663.679993
724.192017,251.807999,671.487976
718.335999,247.904007,669.536011
724.192017,245.951996,673.440002
724.192017,242.048004,665.632019
726.143982,236.192001,659.776001
724.192017,234.240005,669.536011
728.096008,234.240005,665.632019
724.192017,232.287994,663.679993
724.192017,232.287994,665.632019
724.192017,234.240005,669.536011
720.288025,236.192001,663.679993
722.239990,234.240005,667.583984
706.624023,240.095993,669.536011
716.383972,244.000000,673.440002
712.479980,238.143997,657.823975
708.575989,236.192001,661.728027
712.479980,253.759995,655.872009
712.479980,240.095993,653.919983
722.239990,244.000000,657.823975
724.192017,240.095993,663.679993
724.192017,244.000000,650.015991
714.432007,251.807999,657.823975
720.288025,253.759995,655.872009
720.288025,247.904007,653.919983
718.335999,251.807999,655.872009
718.335999,263.519989,655.872009
718.335999,261.567993,651.968018
722.239990,253.759995,665.632019
710.528015,275.231995,646.112000
712.479980,267.424011,646.112000
712.479980,263.519989,650.015991
716.383972,265.471985,644.159973
714.432007,261.567993,642.208008
716.383972,275.231995,636.351990
708.575989,271.328003,628.544006
710.528015,263.519989,644.159973
710.528015,265.471985,648.064026
714.432007,261.567993,636.351990
710.528015,267.424011,632.447998
712.479980,275.231995,638.304016
720.288025,259.615997,628.544006
704.671997,273.279999,628.544006
718.335999,263.519989,624.640015
708.575989,265.471985,624.640015
722.239990,271.328003,628.544006
716.383972,269.376007,628.544006
714.432007,263.519989,630.495972
718.335999,269.376007,620.736023
710.528015,275.231995,624.640015
706.624023,271.328003,618.783997
708.575989,277.183990,620.736023
708.575989,277.183990,620.736023
714.432007,283.040009,616.831970
718.335999,281.088013,614.880005
720.288025,281.088013,610.976013
714.432007,290.847992,618.783997
712.479980,284.992004,618.783997
712.479980,288.895996,620.736023
702.719971,298.656006,610.976013
710.528015,292.799988,610.976013
710.528015,300.608002,603.168030
714.432007,294.752014,605.119995
702.719971,298.656006,610.976013
708.575989,292.799988,605.119995
710.528015,288.895996,612.927979
704.671997,284.992004,605.119995
708.575989,290.847992,605.119995
706.624023,302.559998,610.976013
708.575989,292.799988,607.072021
708.575989,292.799988,605.119995
702.719971,284.992004,603.168030
710.528015,284.992004,597.312012
704.671997,288.895996,597.312012
704.671997,294.752014,599.263977
704.671997,283.040009,599.263977
700.768005,288.895996,603.168030
708.575989,279.135986,601.216003
706.624023,283.040009,589.504028
710.528015,273.279999,597.312012
698.815979,273.279999,597.312012
702.719971,263.519989,597.312012
698.815979,257.664001,597.312012
716.383972,261.567993,599.263977
698.815979,275.231995,593.408020
698.815979,261.567993,595.359985
698.815979,255.712006,589.504028
710.528015,251.807999,595.359985
691.007996,251.807999,599.263977
700.768005,247.904007,593.408020
694.911987,247.904007,599.263977
698.815979,236.192001,587.552002
706.624023,238.143997,603.168030
700.768005,245.951996,591.455994
700.768005,242.048004,587.552002
700.768005,232.287994,585.599976
702.719971,242.048004,597.312012
710.528015,240.095993,591.455994
700.768005,230.335999,585.599976
704.671997,224.479996,593.408020
700.768005,230.335999,603.168030
694.911987,228.384003,595.359985
694.911987,226.432007,585.599976
702.719971,236.192001,601.216003
694.911987,224.479996,593.408020
704.671997,236.192001,593.408020
694.911987,226.432007,591.455994
704.671997,228.384003,595.359985
710.528015,222.528000,589.504028
706.624023,228.384003,593.408020
710.528015,220.576004,595.359985
706.624023,222.528000,593.408020
708.575989,216.671997,587.552002
716.383972,214.720001,587.552002
710.528015,214.720001,593.408020
718.335999,218.623993,597.312012
710.528015,214.720001,589.504028
714.432007,212.768005,595.359985
726.143982,210.815994,599.263977
732.000000,204.960007,591.455994
728.096008,201.056000,589.504028
730.047974,203.007996,597.312012
733.952026,203.007996,591.455994
735.903992,199.104004,597.312012
735.903992,197.151993,597.312012
739.807983,197.151993,597.312012
741.760010,191.296005,603.168030
741.760010,193.248001,610.976013
751.520020,201.056000,610.976013
755.424011,197.151993,603.168030
751.520020,193.248001,601.216003
761.280029,187.391998,597.312012
765.184021,193.248001,612.927979
771.039978,185.440002,612.927979
765.184021,197.151993,614.880005
765.184021,191.296005,597.312012
776.895996,191.296005,618.783997
782.752014,206.912003,624.640015
786.656006,203.007996,618.783997
782.752014,189.343994,622.687988
786.656006,199.104004,622.687988
786.656006,191.296005,618.783997
794.463989,185.440002,624.640015
796.416016,189.343994,616.831970
794.463989,191.296005,626.591980
800.320007,197.151993,630.495972
810.080017,189.343994,622.687988
806.176025,197.151993,624.640015
804.223999,183.488007,622.687988
810.080017,204.960007,632.447998
813.984009,197.151993,638.304016
804.223999,193.248001,638.304016
813.984009,193.248001,632.447998
821.791992,197.151993,634.400024
815.935974,191.296005,628.544006
817.888000,179.584000,632.447998
817.888000,179.584000,630.495972
823.744019,173.727997,626.591980
819.840027,185.440002,626.591980
825.695984,171.776001,630.495972
835.455994,177.632004,632.447998
835.455994,177.632004,622.687988
839.359985,177.632004,628.544006
839.359985,177.632004,628.544006
851.072021,183.488007,638.304016
847.168030,193.248001,630.495972
845.216003,191.296005,632.447998
853.023987,189.343994,634.400024
860.831970,187.391998,636.351990
853.023987,197.151993,640.255981
849.119995,191.296005,644.159973
847.168030,185.440002,650.015991
851.072021,185.440002,648.064026
845.216003,181.535995,651.968018
853.023987,181.535995,653.919983
847.168030,177.632004,636.351990
849.119995,181.535995,646.112000
835.455994,183.488007,640.255981
841.312012,173.727997,640.255981
839.359985,167.871994,636.351990
841.312012,185.440002,636.351990
837.408020,181.535995,636.351990
837.408020,181.535995,634.400024
841.312012,183.488007,634.400024
841.312012,187.391998,634.400024
843.263977,187.391998,636.351990
854.976013,197.151993,642.208008
847.168030,199.104004,634.400024
849.119995,210.815994,630.495972
851.072021,212.768005,642.208008
851.072021,212.768005,636.351990
853.023987,203.007996,638.304016
868.640015,214.720001,638.304016
854.976013,210.815994,632.447998
866.687988,208.863998,648.064026
862.783997,195.199997,644.159973
862.783997,199.104004,642.208008
851.072021,195.199997,646.112000
849.119995,197.151993,648.064026
841.312012,177.632004,648.064026
843.263977,160.063995,650.015991
835.455994,154.207993,644.159973
853.023987,148.352005,640.255981
839.359985,146.399994,648.064026
827.648010,134.688004,644.159973
808.127991,126.879997,651.968018
808.127991,115.167999,651.968018
806.176025,109.311996,655.872009
800.320007,103.456001,655.872009
784.703979,91.744003,650.015991
784.703979,91.744003,650.015991
774.943970,74.176003,650.015991
772.992004,78.080002,644.159973
767.135986,80.031998,644.159973
761.280029,74.176003,640.255981
755.424011,83.935997,636.351990
761.280029,72.223999,636.351990
761.280029,68.320000,628.544006
749.567993,64.416000,630.495972
745.664001,70.272003,632.447998
743.711975,78.080002,630.495972
749.567993,78.080002,622.687988
753.471985,81.984001,624.640015
751.520020,81.984001,630.495972
743.711975,72.223999,622.687988
745.664001,78.080002,620.736023
745.664001,89.792000,614.880005
737.856018,93.695999,614.880005
730.047974,89.792000,610.976013
733.952026,72.223999,614.880005
735.903992,76.127998,616.831970
733.952026,87.839996,620.736023
732.000000,74.176003,609.023987
735.903992,80.031998,614.880005
732.000000,76.127998,614.880005
726.143982,66.367996,612.927979
737.856018,58.560001,603.168030
728.096008,54.655998,599.263977
739.807983,58.560001,614.880005
737.856018,60.512001,605.119995
735.903992,52.703999,601.216003
735.903992,44.896000,603.168030
737.856018,50.751999,603.168030
733.952026,35.136002,603.168030
741.760010,31.232000,601.216003
735.903992,29.280001,603.168030
743.711975,25.375999,603.168030
741.760010,33.183998,597.312012
735.903992,25.375999,603.168030
733.952026,37.088001,603.168030
747.616028,29.280001,597.312012
741.760010,19.520000,599.263977
741.760010,21.472000,597.312012
747.616028,7.808000,599.263977
751.520020,1.952000,591.455994
747.616028,15.616000,593.408020
749.567993,11.712000,589.504028
755.424011,3.904000,587.552002
753.471985,11.712000,581.695984
745.664001,-3.904000,591.455994
739.807983,-7.808000,585.599976
745.664001,-1.952000,583.648010
749.567993,-15.616000,585.599976
755.424011,-1.952000,577.791992
751.520020,-11.712000,589.504028
767.135986,-25.375999,585.599976
753.471985,-27.327999,577.791992
761.280029,-21.472000,585.599976
761.280029,-23.424000,591.455994
761.280029,-25.375999,585.599976
765.184021,-33.183998,587.552002
765.184021,-40.992001,595.359985
771.039978,-40.992001,595.359985
774.943970,-42.944000,603.168030
774.943970,-46.848000,599.263977
776.895996,-46.848000,593.408020
782.752014,-52.703999,603.168030
780.799988,-60.512001,607.072021
786.656006,-68.320000,610.976013
788.607971,-72.223999,609.023987
786.656006,-70.272003,607.072021
784.703979,-72.223999,609.023987
788.607971,-70.272003,601.216003
798.367981,-74.176003,610.976013
810.080017,-80.031998,618.783997
794.463989,-81.984001,618.783997
802.271973,-89.792000,609.023987
810.080017,-93.695999,614.880005
802.271973,-99.552002,618.783997
815.935974,-91.744003,626.591980
821.791992,-91.744003,634.400024
810.080017,-109.311996,628.544006
823.744019,-113.216003,628.544006
827.648010,-111.264000,636.351990
831.552002,-122.975998,628.544006
833.504028,-119.071999,632.447998
849.119995,-115.167999,632.447998
841.312012,-113.216003,632.447998
845.216003,-119.071999,642.208008
856.927979,-130.783997,644.159973
854.976013,-140.544006,644.159973
858.880005,-134.688004,638.304016
854.976013,-130.783997,648.064026
866.687988,-122.975998,650.015991
878.400024,-130.783997,651.968018
882.304016,-138.591995,657.823975
884.255981,-140.544006,665.632019
892.064026,-138.591995,661.728027
892.064026,-138.591995,659.776001
894.015991,-142.496002,659.776001
903.776001,-142.496002,661.728027
907.679993,-148.352005,669.536011
901.823975,-150.304001,669.536011
907.679993,-144.447998,673.440002
911.583984,-150.304001,683.200012
911.583984,-144.447998,689.056030
911.583984,-154.207993,683.200012
927.200012,-150.304001,689.056030
927.200012,-156.160004,687.104004
931.104004,-150.304001,696.864014
933.056030,-148.352005,694.911987
938.911987,-138.591995,694.911987
936.960022,-136.639999,698.815979
936.960022,-138.591995,696.864014
938.911987,-144.447998,698.815979
944.768005,-132.735992,694.911987
940.864014,-121.024002,704.671997
946.719971,-122.975998,712.479980
946.719971,-115.167999,710.528015
940.864014,-107.360001,716.383972
946.719971,-89.792000,712.479980
944.768005,-91.744003,726.143982
942.815979,-81.984001,712.479980
946.719971,-56.608002,706.624023
929.151978,-17.568001,704.671997
936.960022,-7.808000,704.671997
931.104004,0.000000,691.007996
925.247986,19.520000,696.864014
925.247986,21.472000,692.960022
927.200012,35.136002,681.247986
925.247986,42.944000,675.392029
927.200012,48.799999,667.583984
923.296021,56.608002,667.583984
913.536011,64.416000,661.728027
913.536011,68.320000,650.015991
911.583984,83.935997,632.447998
917.440002,83.935997,640.255981
919.392029,89.792000,636.351990
917.440002,95.648003,624.640015
915.487976,97.599998,628.544006
911.583984,101.503998,626.591980
923.296021,101.503998,620.736023
917.440002,103.456001,620.736023
911.583984,89.792000,618.783997
901.823975,91.744003,614.880005
911.583984,95.648003,610.976013
905.728027,95.648003,610.976013
897.919983,99.552002,612.927979
909.632019,97.599998,597.312012
909.632019,78.080002,603.168030
919.392029,70.272003,603.168030
913.536011,66.367996,601.216003
907.679993,80.031998,599.263977
905.728027,76.127998,593.408020
899.872009,64.416000,593.408020
894.015991,44.896000,581.695984
897.919983,37.088001,581.695984
897.919983,46.848000,591.455994
901.823975,39.040001,587.552002
905.728027,35.136002,581.695984
901.823975,21.472000,585.599976
901.823975,33.183998,577.791992
895.968018,29.280001,589.504028
901.823975,25.375999,585.599976
903.776001,31.232000,583.648010
901.823975,27.327999,587.552002
892.064026,33.183998,581.695984
892.064026,33.183998,579.744019
890.112000,37.088001,579.744019
894.015991,33.183998,579.744019
888.159973,35.136002,583.648010
886.208008,40.992001,573.888000
892.064026,27.327999,573.888000
890.112000,40.992001,577.791992
890.112000,39.040001,569.984009
884.255981,40.992001,575.840027
886.208008,40.992001,573.888000
882.304016,42.944000,571.935974
880.351990,35.136002,569.984009
870.591980,37.088001,569.984009
880.351990,31.232000,566.080017
882.304016,37.088001,554.367981
870.591980,40.992001,560.223999
878.400024,42.944000,564.127991
870.591980,37.088001,568.031982
876.447998,23.424000,554.367981
870.591980,17.568001,562.176025
878.400024,29.280001,556.320007
858.880005,29.280001,556.320007
864.736023,31.232000,556.320007
872.544006,40.992001,556.320007
858.880005,29.280001,556.320007
858.880005,19.520000,560.223999
862.783997,7.808000,560.223999
866.687988,-1.952000,552.416016
868.640015,15.616000,558.271973
858.880005,19.520000,538.752014
856.927979,15.616000,542.656006
854.976013,15.616000,544.607971
860.831970,-1.952000,540.703979
851.072021,-1.952000,538.752014
854.976013,7.808000,544.607971
858.880005,13.664000,546.559998
849.119995,11.712000,556.320007
854.976013,0.000000,540.703979
843.263977,-5.856000,530.943970
847.168030,-3.904000,534.848022
854.976013,9.760000,540.703979
851.072021,1.952000,538.752014
845.216003,5.856000,542.656006
851.072021,1.952000,538.752014
854.976013,-1.952000,536.799988
853.023987,0.000000,530.943970
849.119995,7.808000,532.895996
849.119995,7.808000,532.895996
837.408020,11.712000,519.231995
845.216003,3.904000,523.135986
835.455994,3.904000,527.039978
831.552002,9.760000,525.088013
833.504028,17.568001,525.088013
827.648010,25.375999,527.039978
827.648010,15.616000,521.184021
819.840027,17.568001,523.135986
825.695984,13.664000,521.184021
821.791992,9.760000,515.328003
813.984009,11.712000,511.424011
808.127991,17.568001,511.424011
808.127991,11.712000,517.280029
808.127991,11.712000,513.375977
810.080017,17.568001,505.567993
815.935974,7.808000,511.424011
804.223999,17.568001,513.375977
813.984009,17.568001,513.375977
813.984009,17.568001,507.519989
815.935974,19.520000,505.567993
812.031982,19.520000,503.615997
817.888000,21.472000,513.375977
815.935974,15.616000,509.471985
815.935974,19.520000,507.519989
810.080017,23.424000,503.615997
806.176025,19.520000,507.519989
817.888000,29.280001,503.615997
812.031982,40.992001,499.712006
813.984009,31.232000,495.808014
813.984009,39.040001,505.567993
808.127991,35.136002,491.903992
813.984009,40.992001,497.760010
813.984009,52.703999,493.855988
812.031982,35.136002,489.951996
813.984009,39.040001,480.191986
813.984009,40.992001,482.144012
817.888000,46.848000,486.048004
815.935974,42.944000,476.287994
821.791992,44.896000,480.191986
815.935974,44.896000,480.191986
821.791992,46.848000,482.144012
821.791992,46.848000,474.335999
817.888000,54.655998,476.287994
823.744019,48.799999,460.671997
825.695984,39.040001,472.384003
821.791992,48.799999,470.432007
825.695984,48.799999,472.384003
825.695984,50.751999,470.432007
835.455994,58.560001,472.384003
835.455994,39.040001,474.335999
841.312012,46.848000,464.575989
831.552002,42.944000,464.575989
835.455994,64.416000,472.384003
845.216003,56.608002,470.432007
843.263977,54.655998,470.432007
851.072021,39.040001,464.575989
847.168030,50.751999,456.768005
849.119995,54.655998,456.768005
851.072021,52.703999,454.816010
849.119995,46.848000,456.768005
856.927979,42.944000,450.911987
853.023987,42.944000,447.007996
862.783997,48.799999,458.720001
868.640015,50.751999,456.768005
872.544006,52.703999,468.480011
866.687988,52.703999,466.528015
882.304016,48.799999,470.432007
878.400024,46.848000,478.239990
884.255981,40.992001,478.239990
888.159973,54.655998,486.048004
882.304016,46.848000,482.144012
895.968018,50.751999,488.000000
897.919983,42.944000,488.000000
899.872009,46.848000,497.760010
907.679993,54.655998,497.760010
913.536011,42.944000,503.615997
899.872009,48.799999,515.328003
915.487976,44.896000,511.424011
925.247986,44.896000,528.992004
923.296021,46.848000,527.039978
925.247986,46.848000,536.799988
923.296021,46.848000,530.943970
927.200012,52.703999,540.703979
925.247986,54.655998,536.799988
935.007996,56.608002,540.703979
927.200012,56.608002,536.799988
935.007996,62.464001,540.703979
936.960022,58.560001,536.799988
933.056030,68.320000,530.943970
931.104004,66.367996,525.088013
935.007996,66.367996,523.135986
933.056030,64.416000,521.184021
933.056030,58.560001,521.184021
929.151978,76.127998,517.280029
933.056030,70.272003,511.424011
938.911987,70.272003,513.375977
933.056030,70.272003,511.424011
940.864014,68.320000,517.280029
933.056030,48.799999,507.519989
935.007996,48.799999,507.519989
942.815979,56.608002,507.519989
929.151978,54.655998,501.664001
933.056030,54.655998,501.664001
931.104004,56.608002,509.471985
936.960022,48.799999,501.664001
929.151978,46.848000,499.712006
929.151978,54.655998,495.808014
927.200012,52.703999,491.903992
933.056030,58.560001,489.951996
923.296021,35.136002,488.000000
927.200012,42.944000,489.951996
933.056030,48.799999,486.048004
933.056030,39.040001,480.191986
935.007996,48.799999,484.096008
929.151978,48.799999,476.287994
927.200012,42.944000,478.239990
933.056030,40.992001,478.239990
938.911987,44.896000,476.287994
933.056030,50.751999,474.335999
927.200012,58.560001,474.335999
938.911987,54.655998,468.480011
925.247986,46.848000,476.287994
935.007996,54.655998,472.384003
925.247986,37.088001,478.239990
931.104004,60.512001,460.671997
919.392029,56.608002,462.623993
919.392029,50.751999,464.575989
915.487976,56.608002,462.623993
927.200012,60.512001,460.671997
917.440002,56.608002,456.768005
911.583984,60.512001,445.056000
913.536011,66.367996,445.056000
911.583984,68.320000,441.152008
919.392029,72.223999,447.007996
911.583984,58.560001,443.104004
909.632019,60.512001,433.343994
909.632019,54.655998,429.440002
911.583984,37.088001,429.440002
915.487976,35.136002,429.440002
917.440002,39.040001,417.727997
913.536011,25.375999,417.727997
913.536011,7.808000,409.920013
919.392029,5.856000,419.679993
913.536011,-9.760000,423.584015
913.536011,-23.424000,415.776001
909.632019,-23.424000,411.872009
911.583984,-15.616000,406.015991
911.583984,-13.664000,402.112000
901.823975,-5.856000,398.208008
901.823975,-1.952000,404.063995
901.823975,-3.904000,398.208008
897.919983,3.904000,398.208008
899.872009,11.712000,400.160004
901.823975,9.760000,386.496002
901.823975,11.712000,388.447998
905.728027,-3.904000,386.496002
886.208008,-107.360001,396.256012
938.911987,-257.664001,406.015991
876.447998,-263.519989,394.303986
888.159973,128.832001,376.735992
923.296021,347.455994,382.592010
813.984009,406.015991,396.256012
874.495972,269.376007,392.351990
880.351990,27.327999,370.880005
851.072021,74.176003,353.312012
874.495972,329.888000,355.264008
876.447998,347.455994,357.216003
880.351990,101.503998,347.455994
876.447998,5.856000,343.552002
868.640015,156.160004,349.407990
868.640015,294.752014,353.312012
872.544006,242.048004,353.312012
847.168030,103.456001,353.312012
853.023987,46.848000,347.455994
858.880005,119.071999,339.648010
858.880005,169.824005,324.032013
854.976013,144.447998,333.791992
851.072021,62.464001,324.032013
854.976013,15.616000,324.032013
851.072021,37.088001,320.127991
843.263977,54.655998,322.079987
843.263977,56.608002,327.936005
849.119995,13.664000,329.888000
853.023987,-9.760000,318.175995
853.023987,-17.568001,324.032013
853.023987,-9.760000,322.079987
854.976013,5.856000,316.223999
853.023987,1.952000,314.272003
847.168030,-9.760000,308.415985
853.023987,-11.712000,318.175995
853.023987,-3.904000,312.320007
853.023987,11.712000,298.656006
845.216003,13.664000,294.752014
843.263977,27.327999,296.704010
837.408020,42.944000,300.608002
858.880005,40.992001,296.704010
858.880005,39.040001,294.752014
851.072021,66.367996,292.799988
856.927979,64.416000,288.895996
851.072021,64.416000,298.656006
856.927979,74.176003,294.752014
847.168030,83.935997,277.183990
853.023987,81.984001,283.040009
856.927979,87.839996,281.088013
864.736023,80.031998,281.088013
862.783997,78.080002,286.944000
868.640015,78.080002,277.183990
878.400024,64.416000,275.231995
874.495972,76.127998,267.424011
876.447998,58.560001,271.328003
888.159973,64.416000,267.424011
876.447998,58.560001,271.328003
882.304016,58.560001,267.424011
878.400024,46.848000,261.567993
882.304016,40.992001,265.471985
886.208008,44.896000,267.424011
886.208008,48.799999,279.135986
878.400024,44.896000,277.183990
868.640015,31.232000,271.328003
888.159973,31.232000,275.231995
884.255981,33.183998,269.376007
880.351990,29.280001,265.471985
899.872009,25.375999,263.519989
894.015991,15.616000,249.856003
890.112000,21.472000,240.095993
919.392029,35.136002,238.143997
903.776001,35.136002,244.000000
913.536011,33.183998,236.192001
925.247986,40.992001,247.904007
923.296021,40.992001,259.615997
938.911987,42.944000,263.519989
940.864014,40.992001,263.519989
931.104004,50.751999,261.567993
927.200012,37.088001,255.712006
923.296021,39.040001,253.759995
931.104004,44.896000,244.000000
950.624023,40.992001,244.000000
962.335999,31.232000,234.240005
948.671997,29.280001,238.143997
966.239990,35.136002,247.904007
976.000000,42.944000,251.807999
979.903992,37.088001,249.856003
976.000000,44.896000,255.712006
981.856018,25.375999,253.759995
972.096008,17.568001,255.712006
999.424011,33.183998,251.807999
977.952026,17.568001,253.759995
1013.088013,15.616000,247.904007
999.424011,17.568001,253.759995
1011.135986,17.568001,257.664001
1016.992004,1.952000,255.712006
1026.751953,5.856000,253.759995
1040.416016,11.712000,265.471985
1040.416016,9.760000,265.471985
1052.128052,9.760000,267.424011
1056.031982,-7.808000,265.471985
1061.887939,-17.568001,265.471985
1075.552002,-19.520000,281.088013
1067.744019,-21.472000,286.944000
1079.456055,-15.616000,306.463989
1005.280029,206.912003,310.368011
1020.895996,636.351990,329.888000
981.856018,484.096008,335.743988
827.648010,-417.727997,407.967987
1095.072021,-593.408020,513.375977
1153.631958,-150.304001,571.935974
901.823975,199.104004,589.504028
952.575989,210.815994,597.312012
1057.984009,-156.160004,579.744019
1124.352051,-361.119995,552.416016
1163.391968,-148.352005,550.463989
1081.407959,19.520000,538.752014
1089.215942,11.712000,542.656006
1186.816040,-152.255997,544.607971
1188.767944,-261.567993,560.223999
938.911987,-353.312012,609.023987
1516.703979,-119.071999,659.776001
1518.656006,-101.503998,708.575989
1473.760010,13.664000,735.903992
1432.767944,-11.712000,747.616028
1294.176025,-138.591995,745.664001
1239.520020,-179.584000,745.664001
1175.104004,-181.535995,749.567993
1149.728027,-173.727997,761.280029
1161.439941,-195.199997,771.039978
1175.104004,-201.056000,776.895996
1223.904053,-189.343994,776.895996
1208.287964,-199.104004,782.752014
1218.047974,-191.296005,788.607971
1190.719971,-169.824005,796.416016
1173.151978,-124.928001,776.895996
1159.488037,-89.792000,771.039978
1138.015991,-68.320000,767.135986
1163.391968,-54.655998,759.328003
1157.536011,-5.856000,743.711975
1180.959961,35.136002,728.096008
1188.767944,54.655998,722.239990
1192.671997,50.751999,714.432007
1184.864014,95.648003,691.007996
1161.439941,132.735992,671.487976
1151.680054,140.544006,648.064026
1145.823975,107.360001,632.447998
1132.160034,103.456001,610.976013
1145.823975,99.552002,599.263977
1138.015991,76.127998,589.504028
1122.400024,29.280001,573.888000
1100.927979,-5.856000,556.320007
1098.975952,-15.616000,528.992004
1085.312012,-37.088001,489.951996
1063.839966,-74.176003,460.671997
1038.463989,-93.695999,431.391998
1016.992004,-97.599998,415.776001
1020.895996,-107.360001,392.351990
1009.184021,-97.599998,372.832001
1007.231995,-74.176003,347.455994
999.424011,-81.984001,312.320007
999.424011,-81.984001,298.656006
1007.231995,-40.992001,283.040009
989.664001,-17.568001,259.615997
974.047974,-7.808000,247.904007
970.143982,-25.375999,226.432007
952.575989,-3.904000,224.479996
972.096008,35.136002,212.768005
1003.328003,29.280001,199.104004
1056.031982,-31.232000,206.912003
1075.552002,-42.944000,210.815994
1067.744019,37.088001,226.432007
1015.039978,72.223999,230.335999
968.192017,46.848000,220.576004
940.864014,48.799999,208.863998
903.776001,54.655998,189.343994
890.112000,56.608002,179.584000
915.487976,44.896000,179.584000
954.528015,21.472000,181.535995
966.239990,-9.760000,179.584000
991.616028,-7.808000,183.488007
979.903992,-1.952000,191.296005
972.096008,-11.712000,179.584000
942.815979,13.664000,177.632004
938.911987,33.183998,160.063995
935.007996,76.127998,171.776001
909.632019,97.599998,177.632004
927.200012,56.608002,185.440002
931.104004,39.040001,191.296005
933.056030,76.127998,204.960007
936.960022,85.888000,210.815994
929.151978,62.464001,226.432007
909.632019,74.176003,228.384003
905.728027,101.503998,224.479996
892.064026,101.503998,212.768005
897.919983,78.080002,220.576004
888.159973,68.320000,199.104004
880.351990,60.512001,191.296005
882.304016,62.464001,181.535995
872.544006,52.703999,165.919998
868.640015,23.424000,165.919998
872.544006,37.088001,146.399994
862.783997,44.896000,138.591995
655.872009,150.304001,365.023987
767.135986,-9.760000,689.056030
851.072021,-327.936005,757.375977
1061.887939,-91.744003,710.528015
1190.719971,103.456001,759.328003
1128.255981,35.136002,845.216003
1155.583984,144.447998,829.599976
1112.640015,1.952000,741.760010
1136.063965,-206.912003,642.208008
1069.696045,-175.679993,575.840027
1036.511963,52.703999,499.712006
1056.031982,212.768005,386.496002
1046.271973,158.112000,298.656006
1026.751953,87.839996,247.904007
981.856018,185.440002,236.192001
936.960022,224.479996,214.720001
948.671997,162.016006,185.440002
964.288025,111.264000,163.968002
962.335999,173.727997,169.824005
948.671997,294.752014,173.727997
950.624023,269.376007,142.496002
958.432007,197.151993,105.407997
940.864014,224.479996,83.935997
917.440002,271.328003,76.127998
907.679993,247.904007,52.703999
917.440002,72.223999,50.751999
940.864014,-222.528000,74.176003
960.383972,-404.063995,107.360001
966.239990,-435.295990,146.399994
981.856018,-353.312012,173.727997
989.664001,-298.656006,185.440002
995.520020,-204.960007,193.248001
1003.328003,-54.655998,175.679993
979.903992,42.944000,171.776001
979.903992,121.024002,162.016006
970.143982,117.120003,156.160004
970.143982,72.223999,142.496002
976.000000,54.655998,122.975998
972.096008,21.472000,121.024002
989.664001,37.088001,121.024002
983.807983,48.799999,115.167999
983.807983,56.608002,115.167999
985.760010,111.264000,121.024002
964.288025,78.080002,113.216003
972.096008,-87.839996,111.264000
972.096008,-261.567993,121.024002
958.432007,-275.231995,144.447998
960.383972,-87.839996,154.207993
964.288025,195.199997,167.871994
970.143982,443.104004,193.248001
989.664001,478.239990,214.720001
979.903992,314.272003,232.287994
968.192017,29.280001,218.623993
985.760010,-236.192001,203.007996
993.567993,-316.223999,169.824005
989.664001,-203.007996,163.968002
981.856018,15.616000,154.207993
976.000000,197.151993,154.207993
964.288025,236.192001,146.399994
987.711975,117.120003,150.304001
954.528015,-97.599998,162.016006
964.288025,-187.391998,191.296005
964.288025,-99.552002,204.960007
962.335999,58.560001,208.863998
972.096008,163.968002,179.584000
979.903992,181.535995,138.591995
964.288025,124.928001,101.503998
940.864014,35.136002,46.848000
933.056030,-17.568001,19.520000
907.679993,9.760000,-1.952000
901.823975,111.264000,-25.375999
899.872009,220.576004,-46.848000
872.544006,283.040009,-58.560001
858.880005,267.424011,-72.223999
868.640015,171.776001,-101.503998
821.791992,46.848000,-134.688004
808.127991,-50.751999,-171.776001
794.463989,113.216003,-206.912003
774.943970,544.607971,-179.584000
784.703979,724.192017,-124.928001
782.752014,530.943970,-76.127998
829.599976,46.848000,-56.608002
862.783997,-482.144012,-46.848000
884.255981,-808.127991,-54.655998
882.304016,-743.711975,-64.416000
854.976013,-343.552002,-83.935997
819.840027,60.512001,-97.599998
812.031982,177.632004,-111.264000
829.599976,-242.048004,-87.839996
841.312012,-663.679993,-40.992001
827.648010,-564.127991,-11.712000
841.312012,-103.456001,7.808000
854.976013,437.247986,-7.808000
866.687988,853.023987,-40.992001
849.119995,911.583984,-93.695999
829.599976,575.840027,-140.544006
813.984009,60.512001,-208.863998
829.599976,-347.455994,-265.471985
841.312012,-415.776001,-281.088013
825.695984,-115.167999,-253.759995
804.223999,343.552002,-236.192001
815.935974,646.112000,-212.768005
837.408020,651.968018,-206.912003
853.023987,386.496002,-195.199997
847.168030,42.944000,-177.632004
853.023987,-52.703999,-181.535995
862.783997,281.088013,-148.352005
794.463989,599.263977,-78.080002
810.080017,452.864014,-42.944000
821.791992,-99.552002,-13.664000
931.104004,-954.528015,-23.424000
952.575989,-1750.943970,42.944000
958.432007,-1460.095947,105.407997
921.343994,-245.951996,140.544006
958.432007,868.640015,150.304001
985.760010,1249.280029,103.456001
987.711975,1024.800049,48.799999
968.192017,366.976013,1.952000
993.567993,-439.200012,-40.992001
1013.088013,-925.247986,-58.560001
997.471985,-771.039978,-66.367996
1015.039978,-3.904000,-58.560001
1245.375977,1159.488037,-81.984001
1104.832031,2147.199951,29.280001
1048.223999,1936.384033,122.975998
1300.031982,579.744019,31.232000
1329.312012,-1050.176025,-5.856000
1504.991943,-2010.560059,-76.127998
1407.391968,-2067.167969,21.472000
1331.264038,-1235.615967,132.735992
1341.024048,70.272003,230.335999
1067.744019,1007.231995,325.984009
1141.920044,1190.719971,318.175995
1067.744019,745.664001,308.415985
1163.391968,-89.792000,265.471985
1100.927979,-862.783997,253.759995
1229.760010,-1218.047974,197.151993
1147.776001,-1061.887939,173.727997
1134.112061,-458.720001,154.207993
1188.767944,195.199997,121.024002
1225.855957,630.495972,95.648003
1223.904053,829.599976,107.360001
1116.543945,767.135986,195.199997
1087.264038,386.496002,234.240005
1024.800049,-199.104004,257.664001
1079.456055,-683.200012,216.671997
1077.504028,-730.047974,189.343994
1081.407959,-341.600006,169.824005
1136.063965,91.744003,138.591995
1106.784058,421.631989,144.447998
1120.447998,538.752014,121.024002
1116.543945,548.512024,68.320000
1095.072021,507.519989,21.472000
1081.407959,398.208008,-29.280001
1054.079956,491.903992,-68.320000
1143.871948,749.567993,-50.751999
1276.608032,903.776001,3.904000
1196.576050,562.176025,105.407997
1149.728027,-228.384003,165.919998
1134.112061,-837.408020,195.199997
1165.343994,-940.864014,212.768005
1151.680054,-665.632019,197.151993
1018.943970,-160.063995,216.671997
1108.735962,292.799988,173.727997
1132.160034,447.007996,115.167999
1052.128052,234.240005,62.464001
1268.800049,-193.248001,-40.992001
1247.328003,-556.320007,-60.512001
1110.687988,-730.047974,-21.472000
1403.488037,-528.992004,-95.648003
1432.767944,-201.056000,-97.599998
1212.192017,72.223999,-52.703999
1032.608032,220.576004,-25.375999
1391.776001,163.968002,-126.879997
1229.760010,-85.888000,-126.879997
1153.631958,-523.135986,-113.216003
1018.943970,-979.903992,-5.856000
931.104004,-897.919983,64.416000
837.408020,-179.584000,85.888000
792.512024,607.072021,85.888000
911.583984,974.047974,54.655998
915.487976,1130.208008,56.608002
1048.223999,1175.104004,-17.568001
1128.255981,1040.416016,-103.456001
1013.088013,394.303986,-103.456001
1186.816040,-310.368011,-228.384003
1229.760010,-624.640015,-284.992004
1052.128052,-398.208008,-265.471985
798.367981,329.888000,-218.623993
837.408020,1022.848022,-269.376007
837.408020,1292.223999,-349.407990
880.351990,1424.959961,-437.247986
989.664001,1432.767944,-571.935974
897.919983,1424.959961,-605.119995
919.392029,1179.008057,-624.640015
950.624023,312.320007,-648.064026
1079.456055,-774.943970,-659.776001
1112.640015,-1405.439941,-648.064026
1145.823975,-1288.319946,-591.455994
1061.887939,-310.368011,-435.295990
1001.375977,919.392029,-236.192001
1067.744019,1487.423950,-128.832001
1003.328003,1374.208008,-72.223999
940.864014,564.127991,-80.031998
1034.560059,-544.607971,-130.783997
1057.984009,-1335.167969,-195.199997
1046.271973,-1348.832031,-247.904007
1061.887939,-614.880005,-294.752014
1056.031982,370.880005,-333.791992
1054.079956,997.471985,-365.023987
1083.359985,1120.447998,-415.776001
1118.495972,901.823975,-447.007996
1083.359985,351.359985,-484.096008
1175.104004,-232.287994,-593.408020
1186.816040,-601.216003,-646.112000
1151.680054,-691.007996,-605.119995
1149.728027,-284.992004,-491.903992
1147.776001,400.160004,-314.272003
1044.319946,894.015991,-158.112000
1114.592041,1112.640015,-138.591995
1122.400024,1202.432007,-138.591995
1163.391968,1227.807983,-165.919998
1028.703979,1153.631958,-193.248001
1018.943970,460.671997,-259.615997
1124.352051,-464.575989,-361.119995
1221.952026,-1048.223999,-466.528015
1245.375977,-1165.343994,-472.384003
1350.784058,-597.312012,-363.071991
2032.031982,-700.768005,1709.952026
3880.575928,-2324.832031,7380.512207
4647.711914,-1706.047974,7526.912109
3740.031982,-1311.744019,4001.600098
3240.320068,-1530.368042,2053.503906
2976.800049,-1520.608032,2414.624023
3008.031982,-1836.832031,2867.488037
2500.511963,-796.416016,609.023987
1909.056030,97.599998,-185.440002
1879.776001,448.959991,-17.568001
1169.248047,472.384003,-1036.511963
630.495972,130.783997,-2026.176025
255.712006,185.440002,-2535.647949
212.768005,757.375977,-1692.384033
544.607971,1397.631958,-121.024002
589.504028,1741.183960,-5.856000
476.287994,1214.144043,-735.903992
622.687988,425.536011,-1184.864014
743.711975,78.080002,-806.176025
1102.880005,-349.407990,76.127998
1200.479980,-562.176025,165.919998
1233.663940,-83.935997,212.768005
1352.735962,386.496002,488.000000
1286.368042,35.136002,351.359985
1141.920044,-460.671997,-140.544006
981.856018,-376.735992,-651.968018
864.736023,-95.648003,-593.408020
985.760010,156.160004,-160.063995
1120.447998,165.919998,-165.919998
1188.767944,324.032013,-296.704010
1196.576050,562.176025,-212.768005
1173.151978,562.176025,-72.223999
1179.008057,378.687988,19.520000
1202.432007,333.791992,-119.071999
1159.488037,247.904007,-226.432007
1130.208008,187.391998,-204.960007
1130.208008,284.992004,-257.664001
1132.160034,167.871994,-259.615997
1108.735962,64.416000,-284.992004
1089.215942,83.935997,-257.664001
1100.927979,62.464001,-148.352005
1122.400024,66.367996,-132.735992
1141.920044,85.888000,-121.024002
1190.719971,95.648003,-103.456001
1202.432007,107.360001,-101.503998
1227.807983,103.456001,-91.744003
1212.192017,62.464001,-140.544006
1200.479980,27.327999,-179.584000
1175.104004,60.512001,-193.248001
1141.920044,87.839996,-218.623993
1079.456055,103.456001,-238.143997
1048.223999,134.688004,-253.759995
1059.936035,152.255997,-247.904007
1081.407959,167.871994,-204.960007
1126.303955,74.176003,-152.255997
1163.391968,9.760000,-93.695999
1175.104004,-70.272003,-56.608002
1171.199951,-101.503998,-31.232000
1153.631958,-111.264000,-42.944000
1122.400024,-136.639999,-76.127998
1059.936035,-136.639999,-105.407997
1022.848022,-99.552002,-160.063995
950.624023,-31.232000,-255.712006
905.728027,-27.327999,-402.112000
876.447998,-58.560001,-466.528015
895.968018,-87.839996,-407.967987
952.575989,-187.391998,-146.399994
1071.647949,-376.735992,195.199997
1175.104004,-585.599976,447.007996
1229.760010,-786.656006,486.048004
1235.615967,-936.960022,357.216003
1192.671997,-1018.943970,203.007996
1100.927979,-1059.936035,54.655998
1016.992004,-1046.271973,-126.879997
989.664001,-952.575989,-277.183990
993.567993,-790.559998,-325.984009
1026.751953,-530.943970,-271.328003
1063.839966,-224.479996,-185.440002
1093.119995,5.856000,-158.112000
1134.112061,138.591995,-115.167999
1153.631958,177.632004,-113.216003
1147.776001,107.360001,-130.783997
1159.488037,-39.040001,-140.544006
1145.823975,-181.535995,-93.695999
1157.536011,-273.279999,-11.712000
1143.871948,-314.272003,9.760000
1120.447998,-347.455994,-23.424000
1089.215942,-368.928009,-78.080002
1056.031982,-333.791992,-117.120003
1030.656006,-247.904007,-138.591995
1016.992004,-169.824005,-181.535995
991.616028,-101.503998,-212.768005
989.664001,-35.136002,-236.192001
989.664001,37.088001,-232.287994
1001.375977,113.216003,-204.960007
1009.184021,199.104004,-185.440002
1011.135986,259.615997,-181.535995
997.471985,294.752014,-181.535995
1011.135986,298.656006,-199.104004
1005.280029,236.192001,-199.104004
1013.088013,177.632004,-187.391998
1024.800049,119.071999,-181.535995
1020.895996,74.176003,-179.584000
1022.848022,42.944000,-181.535995
1016.992004,31.232000,-197.151993
1003.328003,40.992001,-208.863998
1001.375977,48.799999,-218.623993
983.807983,48.799999,-224.479996
977.952026,42.944000,-242.048004
960.383972,48.799999,-242.048004
958.432007,50.751999,-232.287994
958.432007,56.608002,-247.904007
950.624023,58.560001,-251.807999
954.528015,78.080002,-281.088013
960.383972,81.984001,-286.944000
968.192017,44.896000,-288.895996
995.520020,19.520000,-257.664001
1005.280029,3.904000,-236.192001
1015.039978,0.000000,-224.479996
1026.751953,13.664000,-210.815994
1026.751953,37.088001,-206.912003
1026.751953,35.136002,-195.199997
1016.992004,58.560001,-203.007996
995.520020,56.608002,-226.432007
976.000000,44.896000,-234.240005
983.807983,33.183998,-245.951996
983.807983,21.472000,-247.904007
993.567993,15.616000,-249.856003
993.567993,15.616000,-249.856003
1007.231995,11.712000,-251.807999
1030.656006,5.856000,-236.192001
1046.271973,7.808000,-226.432007
1063.839966,3.904000,-206.912003
1065.791992,11.712000,-206.912003
1063.839966,1.952000,-203.007996
1061.887939,-11.712000,-206.912003
1057.984009,-13.664000,-210.815994
1069.696045,-19.520000,-216.671997
1073.599976,-35.136002,-220.576004
1087.264038,-23.424000,-222.528000
1100.927979,-39.040001,-232.287994
1110.687988,-21.472000,-234.240005
1104.832031,-1.952000,-234.240005
1112.640015,-3.904000,-238.143997
1130.208008,11.712000,-249.856003
1130.208008,9.760000,-257.664001
1141.920044,3.904000,-245.951996
1134.112061,-15.616000,-244.000000
1141.920044,-42.944000,-244.000000
1151.680054,-46.848000,-247.904007
1153.631958,-39.040001,-238.143997
1161.439941,-7.808000,-222.528000
1171.199951,25.375999,-220.576004
1180.959961,46.848000,-212.768005
1196.576050,80.031998,-212.768005
1194.624023,122.975998,-212.768005
1194.624023,144.447998,-226.432007
1198.527954,173.727997,-216.671997
1194.624023,171.776001,-216.671997
1200.479980,191.296005,-210.815994
1208.287964,197.151993,-201.056000
1198.527954,171.776001,-197.151993
1204.384033,173.727997,-185.440002
1202.432007,173.727997,-193.248001
1194.624023,165.919998,-183.488007
1200.479980,154.207993,-171.776001
1206.336060,148.352005,-152.255997
1198.527954,156.160004,-165.919998
1208.287964,163.968002,-173.727997
1208.287964,173.727997,-173.727997
1241.472046,171.776001,-191.296005
1231.712036,203.007996,-179.584000
1221.952026,183.488007,-163.968002
1204.384033,177.632004,-167.871994
1171.199951,183.488007,-189.343994
1151.680054,197.151993,-203.007996
1179.008057,199.104004,-232.287994
1204.384033,165.919998,-244.000000
1206.336060,130.783997,-206.912003
1202.432007,132.735992,-173.727997
1184.864014,130.783997,-179.584000
1182.911987,128.832001,-201.056000
1190.719971,142.496002,-204.960007
1212.192017,115.167999,-208.863998
1214.144043,99.552002,-214.720001
1188.767944,103.456001,-197.151993
1155.583984,113.216003,-224.479996
1153.631958,128.832001,-269.376007
1151.680054,134.688004,-279.135986
1143.871948,117.120003,-261.567993
1190.719971,134.688004,-261.567993
1194.624023,87.839996,-242.048004
1177.056030,95.648003,-197.151993
1145.823975,121.024002,-216.671997
1124.352051,105.407997,-277.183990
1139.968018,74.176003,-279.135986
1159.488037,50.751999,-261.567993
1157.536011,66.367996,-257.664001
1155.583984,46.848000,-255.712006
1139.968018,37.088001,-242.048004
1141.920044,46.848000,-236.192001
1130.208008,74.176003,-261.567993
1139.968018,85.888000,-255.712006
1151.680054,85.888000,-247.904007
1149.728027,81.984001,-263.519989
1128.255981,62.464001,-261.567993
1130.208008,44.896000,-253.759995
1134.112061,29.280001,-249.856003
1138.015991,40.992001,-232.287994
1124.352051,48.799999,-226.432007
1118.495972,68.320000,-242.048004
1102.880005,87.839996,-253.759995
1100.927979,70.272003,-247.904007
1106.784058,72.223999,-255.712006
1110.687988,54.655998,-261.567993
1100.927979,33.183998,-238.143997
1091.167969,29.280001,-236.192001
1081.407959,21.472000,-261.567993
1059.936035,25.375999,-259.615997
1059.936035,42.944000,-255.712006
1059.936035,58.560001,-290.847992
1067.744019,21.472000,-302.559998
1081.407959,11.712000,-261.567993
1057.984009,-1.952000,-208.863998
1040.416016,19.520000,-253.759995
1032.608032,42.944000,-273.279999
1030.656006,23.424000,-273.279999
1052.128052,37.088001,-290.847992
1038.463989,35.136002,-283.040009
993.567993,-15.616000,-296.704010
1020.895996,35.136002,-351.359985
1067.744019,76.127998,-273.279999
1065.791992,15.616000,-195.199997
1048.223999,97.599998,-238.143997
1005.280029,66.367996,-218.623993
1009.184021,-39.040001,-292.799988
1018.943970,93.695999,-361.119995
1001.375977,-1.952000,-240.095993
985.760010,-33.183998,-257.664001
997.471985,50.751999,-327.936005
1040.416016,-15.616000,-286.944000
1050.176025,-58.560001,-284.992004
1093.119995,58.560001,-296.704010
1071.647949,87.839996,-226.432007
999.424011,124.928001,-232.287994
950.624023,154.207993,-339.648010
942.815979,0.000000,-368.928009
956.479980,-78.080002,-310.368011
960.383972,-58.560001,-269.376007
991.616028,-33.183998,-245.951996
1003.328003,42.944000,-228.384003
1003.328003,46.848000,-263.519989
1032.608032,1.952000,-267.424011
993.567993,-23.424000,-253.759995
974.047974,46.848000,-284.992004
1013.088013,95.648003,-267.424011
974.047974,25.375999,-259.615997
958.432007,46.848000,-310.368011
958.432007,-66.367996,-316.223999
1011.135986,-46.848000,-324.032013
1054.079956,-1.952000,-263.519989
901.823975,37.088001,-228.384003
954.528015,267.424011,-316.223999
1159.488037,255.712006,-308.415985
1120.447998,-89.792000,-238.143997
1071.647949,177.632004,-204.960007
958.432007,74.176003,-119.071999
964.288025,66.367996,-283.040009
999.424011,56.608002,-433.343994
948.671997,58.560001,-347.455994
970.143982,-121.024002,-335.743988
1038.463989,-23.424000,-353.312012
1050.176025,68.320000,-146.399994
1044.319946,64.416000,-103.456001
1044.319946,85.888000,-267.424011
1044.319946,54.655998,-269.376007
1016.992004,35.136002,-226.432007
1022.848022,103.456001,-298.656006
1020.895996,68.320000,-341.600006
1020.895996,-54.655998,-314.272003
1038.463989,-3.904000,-271.328003
1040.416016,21.472000,-236.192001
1007.231995,78.080002,-238.143997
987.711975,121.024002,-288.895996
987.711975,85.888000,-320.127991
981.856018,68.320000,-288.895996
1022.848022,33.183998,-277.183990
1016.992004,35.136002,-236.192001
987.711975,-1.952000,-199.104004
1007.231995,-50.751999,-220.576004
1016.992004,17.568001,-232.287994
1016.992004,64.416000,-245.951996
1001.375977,83.935997,-273.279999
977.952026,95.648003,-294.752014
979.903992,78.080002,-292.799988
995.520020,48.799999,-296.704010
1026.751953,25.375999,-263.519989
1040.416016,-1.952000,-226.432007
1054.079956,-29.280001,-218.623993
1054.079956,-23.424000,-230.335999
1061.887939,-3.904000,-236.192001
1048.223999,9.760000,-253.759995
1040.416016,15.616000,-265.471985
1038.463989,11.712000,-277.183990
1052.128052,11.712000,-255.712006
1069.696045,21.472000,-236.192001
1065.791992,19.520000,-210.815994
1054.079956,-5.856000,-222.528000
1056.031982,-17.568001,-230.335999
1057.984009,-13.664000,-240.095993
1057.984009,-25.375999,-232.287994
1044.319946,-31.232000,-222.528000
1052.128052,-39.040001,-220.576004
1071.647949,-50.751999,-234.240005
1087.264038,-31.232000,-226.432007
1073.599976,-33.183998,-203.007996
1063.839966,-27.327999,-203.007996
1054.079956,-39.040001,-222.528000
1061.887939,-35.136002,-238.143997
1059.936035,-37.088001,-236.192001
1061.887939,-52.703999,-244.000000
1063.839966,-74.176003,-230.335999
1059.936035,-62.464001,-226.432007
1056.031982,-46.848000,-232.287994
1046.271973,-44.896000,-236.192001
1044.319946,-48.799999,-236.192001
1050.176025,-60.512001,-232.287994
1059.936035,-50.751999,-224.479996
1054.079956,-52.703999,-218.623993
1050.176025,-48.799999,-224.479996
1050.176025,-54.655998,-228.384003
1059.936035,-58.560001,-242.048004
1061.887939,-58.560001,-230.335999
1054.079956,-50.751999,-232.287994
1061.887939,-54.655998,-240.095993
1069.696045,-60.512001,-238.143997
1073.599976,-58.560001,-236.192001
1059.936035,-48.799999,-224.479996
1030.656006,-29.280001,-238.143997
1018.943970,-21.472000,-251.807999
1020.895996,-27.327999,-271.328003
1022.848022,-13.664000,-267.424011
1030.656006,-23.424000,-249.856003
1036.511963,-33.183998,-230.335999
1044.319946,-25.375999,-222.528000
1036.511963,-23.424000,-216.671997
1036.511963,-15.616000,-232.287994
1030.656006,-11.712000,-238.143997
1032.608032,0.000000,-255.712006
1013.088013,-1.952000,-261.567993
1009.184021,17.568001,-273.279999
1013.088013,3.904000,-269.376007
1011.135986,-7.808000,-255.712006
1020.895996,-11.712000,-247.904007
1026.751953,-23.424000,-242.048004
1022.848022,-23.424000,-244.000000
1015.039978,-5.856000,-244.000000
1024.800049,-11.712000,-259.615997
1016.992004,-9.760000,-255.712006
1018.943970,0.000000,-267.424011
1013.088013,9.760000,-269.376007
1005.280029,-1.952000,-259.615997
1007.231995,-7.808000,-267.424011
1013.088013,-5.856000,-261.567993
1018.943970,-5.856000,-259.615997
1013.088013,5.856000,-255.712006
1009.184021,0.000000,-253.759995
1007.231995,7.808000,-257.664001
1011.135986,13.664000,-247.904007
999.424011,13.664000,-253.759995
999.424011,9.760000,-253.759995
1003.328003,11.712000,-255.712006
999.424011,9.760000,-251.807999
1011.135986,7.808000,-251.807999
1003.328003,7.808000,-247.904007
1009.184021,0.000000,-249.856003
1007.231995,13.664000,-247.904007
1011.135986,17.568001,-253.759995
1003.328003,23.424000,-247.904007
1009.184021,21.472000,-245.951996
1009.184021,11.712000,-251.807999
1003.328003,19.520000,-249.856003
993.567993,15.616000,-255.712006
993.567993,15.616000,-249.856003
995.520020,15.616000,-251.807999
991.616028,21.472000,-249.856003
991.616028,29.280001,-251.807999
989.664001,33.183998,-251.807999
983.807983,27.327999,-257.664001
981.856018,23.424000,-255.712006
983.807983,27.327999,-265.471985
977.952026,29.280001,-263.519989
974.047974,27.327999,-263.519989
979.903992,33.183998,-263.519989
968.192017,37.088001,-259.615997
977.952026,35.136002,-257.664001
972.096008,40.992001,-265.471985
985.760010,42.944000,-259.615997
976.000000,42.944000,-259.615997
972.096008,46.848000,-265.471985
976.000000,48.799999,-269.376007
968.192017,48.799999,-267.424011
972.096008,52.703999,-271.328003
966.239990,54.655998,-271.328003
972.096008,58.560001,-267.424011
977.952026,66.367996,-267.424011
981.856018,66.367996,-271.328003
972.096008,64.416000,-259.615997
974.047974,76.127998,-259.615997
977.952026,76.127998,-259.615997
974.047974,74.176003,-259.615997
974.047974,87.839996,-265.471985
966.239990,85.888000,-265.471985
970.143982,91.744003,-259.615997
976.000000,95.648003,-271.328003
974.047974,89.792000,-273.279999
972.096008,99.552002,-271.328003
968.192017,93.695999,-263.519989
972.096008,93.695999,-255.712006
979.903992,93.695999,-259.615997
974.047974,97.599998,-265.471985
977.952026,105.407997,-271.328003
972.096008,107.360001,-263.519989
979.903992,109.311996,-269.376007
977.952026,93.695999,-273.279999
966.239990,107.360001,-267.424011
976.000000,107.360001,-269.376007
977.952026,105.407997,-269.376007
981.856018,97.599998,-263.519989
972.096008,111.264000,-259.615997
981.856018,109.311996,-269.376007
972.096008,109.311996,-271.328003
979.903992,115.167999,-271.328003
981.856018,115.167999,-263.519989
987.711975,109.311996,-253.759995
979.903992,109.311996,-261.567993
972.096008,119.071999,-265.471985
985.760010,105.407997,-271.328003
979.903992,115.167999,-265.471985
983.807983,117.120003,-261.567993
1005.280029,119.071999,-265.471985
1013.088013,91.744003,-269.376007
1009.184021,64.416000,-277.183990
1007.231995,140.544006,-271.328003
1001.375977,144.447998,-283.040009
962.335999,191.296005,-284.992004
938.911987,173.727997,-269.376007
935.007996,128.832001,-288.895996
950.624023,105.407997,-283.040009
966.239990,95.648003,-240.095993
989.664001,80.031998,-222.528000
987.711975,101.503998,-214.720001
985.760010,107.360001,-224.479996
974.047974,105.407997,-230.335999
962.335999,134.688004,-236.192001
948.671997,150.304001,-251.807999
954.528015,163.968002,-257.664001
960.383972,144.447998,-259.615997
956.479980,111.264000,-259.615997
962.335999,89.792000,-253.759995
977.952026,70.272003,-230.335999
1005.280029,66.367996,-212.768005
1003.328003,83.935997,-214.720001
987.711975,117.120003,-232.287994
981.856018,122.975998,-257.664001
956.479980,128.832001,-281.088013
948.671997,121.024002,-292.799988
946.719971,122.975998,-275.231995
960.383972,101.503998,-265.471985
974.047974,91.744003,-236.192001
972.096008,81.984001,-232.287994
977.952026,76.127998,-232.287994
966.239990,81.984001,-236.192001
960.383972,97.599998,-247.904007
954.528015,111.264000,-257.664001
956.479980,107.360001,-255.712006
944.768005,99.552002,-244.000000
954.528015,91.744003,-240.095993
952.575989,83.935997,-238.143997
950.624023,91.744003,-238.143997
954.528015,83.935997,-236.192001
954.528015,91.744003,-249.856003
950.624023,99.552002,-249.856003
950.624023,101.503998,-253.759995
944.768005,101.503998,-251.807999
944.768005,99.552002,-244.000000
946.719971,85.888000,-253.759995
946.719971,85.888000,-244.000000
944.768005,78.080002,-244.000000
940.864014,70.272003,-240.095993
946.719971,78.080002,-238.143997
948.671997,76.127998,-249.856003
942.815979,72.223999,-249.856003
942.815979,80.031998,-247.904007
938.911987,81.984001,-255.712006
942.815979,74.176003,-245.951996
940.864014,62.464001,-244.000000
935.007996,62.464001,-242.048004
936.960022,66.367996,-244.000000
944.768005,46.848000,-242.048004
942.815979,50.751999,-245.951996
944.768005,56.608002,-240.095993
948.671997,52.703999,-242.048004
944.768005,52.703999,-242.048004
936.960022,58.560001,-240.095993
946.719971,56.608002,-242.048004
940.864014,48.799999,-230.335999
944.768005,46.848000,-240.095993
946.719971,40.992001,-228.384003
950.624023,46.848000,-234.240005
940.864014,40.992001,-234.240005
946.719971,40.992001,-228.384003
946.719971,52.703999,-234.240005
950.624023,52.703999,-230.335999
958.432007,52.703999,-220.576004
958.432007,44.896000,-230.335999
958.432007,50.751999,-224.479996
954.528015,40.992001,-216.671997
962.335999,44.896000,-224.479996
948.671997,39.040001,-226.432007
966.239990,40.992001,-224.479996
962.335999,44.896000,-218.623993
966.239990,44.896000,-222.528000
966.239990,40.992001,-218.623993
962.335999,35.136002,-212.768005
956.479980,31.232000,-216.671997
958.432007,33.183998,-216.671997
960.383972,25.375999,-214.720001
962.335999,19.520000,-214.720001
956.479980,15.616000,-218.623993
964.288025,21.472000,-220.576004
966.239990,21.472000,-216.671997
960.383972,25.375999,-214.720001
958.432007,17.568001,-206.912003
956.479980,19.520000,-214.720001
950.624023,19.520000,-212.768005
950.624023,13.664000,-206.912003
946.719971,9.760000,-204.960007
948.671997,11.712000,-214.720001
948.671997,7.808000,-214.720001
954.528015,5.856000,-214.720001
940.864014,9.760000,-204.960007
940.864014,13.664000,-204.960007
946.719971,11.712000,-208.863998
950.624023,15.616000,-204.960007
940.864014,13.664000,-210.815994
946.719971,3.904000,-214.720001
936.960022,5.856000,-216.671997
935.007996,15.616000,-218.623993
940.864014,9.760000,-228.384003
942.815979,17.568001,-214.720001
933.056030,11.712000,-212.768005
940.864014,7.808000,-210.815994
938.911987,-1.952000,-212.768005
935.007996,1.952000,-216.671997
935.007996,15.616000,-212.768005
940.864014,3.904000,-206.912003
933.056030,3.904000,-208.863998
938.911987,11.712000,-201.056000
935.007996,5.856000,-210.815994
929.151978,17.568001,-210.815994
919.392029,13.664000,-206.912003
931.104004,13.664000,-201.056000
933.056030,11.712000,-212.768005
935.007996,1.952000,-214.720001
935.007996,0.000000,-197.151993
936.960022,0.000000,-203.007996
938.911987,5.856000,-204.960007
931.104004,5.856000,-208.863998
929.151978,7.808000,-210.815994
929.151978,5.856000,-204.960007
935.007996,9.760000,-210.815994
933.056030,11.712000,-203.007996
931.104004,0.000000,-206.912003
927.200012,-1.952000,-193.248001
938.911987,-7.808000,-197.151993
942.815979,0.000000,-203.007996
936.960022,0.000000,-203.007996
942.815979,1.952000,-199.104004
940.864014,1.952000,-201.056000
938.911987,3.904000,-203.007996
935.007996,-1.952000,-203.007996
931.104004,0.000000,-201.056000
933.056030,1.952000,-197.151993
938.911987,5.856000,-197.151993
929.151978,1.952000,-195.199997
935.007996,-3.904000,-197.151993
935.007996,-1.952000,-201.056000
933.056030,-7.808000,-195.199997
933.056030,-3.904000,-197.151993
935.007996,-7.808000,-197.151993
929.151978,1.952000,-193.248001
931.104004,-1.952000,-203.007996
929.151978,-3.904000,-189.343994
929.151978,-7.808000,-191.296005
927.200012,-15.616000,-195.199997
931.104004,-9.760000,-189.343994
936.960022,-11.712000,-197.151993
933.056030,-17.568001,-204.960007
936.960022,-17.568001,-193.248001
938.911987,-5.856000,-189.343994
933.056030,-9.760000,-191.296005
935.007996,-15.616000,-191.296005
927.200012,-11.712000,-191.296005
933.056030,-23.424000,-199.104004
936.960022,-19.520000,-195.199997
933.056030,-29.280001,-195.199997
935.007996,-21.472000,-193.248001
942.815979,-21.472000,-193.248001
931.104004,-27.327999,-193.248001
942.815979,-23.424000,-189.343994
935.007996,-23.424000,-187.391998
933.056030,-27.327999,-189.343994
938.911987,-21.472000,-177.632004
936.960022,-21.472000,-189.343994
933.056030,-23.424000,-187.391998
935.007996,-23.424000,-173.727997
935.007996,-21.472000,-187.391998
938.911987,-17.568001,-183.488007
933.056030,-25.375999,-187.391998
936.960022,-17.568001,-191.296005
938.911987,-37.088001,-183.488007
940.864014,-35.136002,-181.535995
935.007996,-31.232000,-177.632004
933.056030,-19.520000,-183.488007
931.104004,-31.232000,-183.488007
933.056030,-29.280001,-183.488007
935.007996,-25.375999,-181.535995
925.247986,-17.568001,-181.535995
927.200012,-27.327999,-183.488007
931.104004,-27.327999,-181.535995
925.247986,-35.136002,-181.535995
923.296021,-27.327999,-179.584000
923.296021,-29.280001,-179.584000
921.343994,-33.183998,-179.584000
923.296021,-29.280001,-169.824005
921.343994,-31.232000,-169.824005
917.440002,-25.375999,-185.440002
921.343994,-15.616000,-175.679993
915.487976,-27.327999,-177.632004
915.487976,-33.183998,-179.584000
911.583984,-35.136002,-169.824005
919.392029,-21.472000,-175.679993
913.536011,-40.992001,-169.824005
913.536011,-29.280001,-179.584000
917.440002,-35.136002,-177.632004
907.679993,-33.183998,-177.632004
911.583984,-39.040001,-173.727997
905.728027,-33.183998,-175.679993
909.632019,-27.327999,-175.679993
901.823975,-25.375999,-173.727997
905.728027,-39.040001,-173.727997
903.776001,-31.232000,-171.776001
903.776001,-31.232000,-177.632004
911.583984,-35.136002,-173.727997
903.776001,-33.183998,-173.727997
911.583984,-37.088001,-169.824005
903.776001,-33.183998,-169.824005
894.015991,-37.088001,-171.776001
897.919983,-35.136002,-165.919998
901.823975,-37.088001,-179.584000
905.728027,-31.232000,-183.488007
903.776001,-33.183998,-175.679993
894.015991,-44.896000,-163.968002
903.776001,-42.944000,-173.727997
903.776001,-33.183998,-173.727997
899.872009,-27.327999,-167.871994
907.679993,-40.992001,-177.632004
895.968018,-21.472000,-175.679993
899.872009,-21.472000,-167.871994
894.015991,-25.375999,-177.632004
892.064026,-29.280001,-173.727997
903.776001,-31.232000,-175.679993
897.919983,-33.183998,-165.919998
899.872009,-35.136002,-171.776001
884.255981,-19.520000,-177.632004
892.064026,-27.327999,-179.584000
886.208008,-19.520000,-177.632004
882.304016,-17.568001,-173.727997
892.064026,-35.136002,-183.488007
882.304016,-23.424000,-183.488007
880.351990,-23.424000,-171.776001
888.159973,-25.375999,-165.919998
895.968018,-23.424000,-187.391998
890.112000,-17.568001,-179.584000
878.400024,-13.664000,-179.584000
880.351990,-11.712000,-185.440002
886.208008,-9.760000,-179.584000
882.304016,-19.520000,-177.632004
878.400024,-13.664000,-173.727997
882.304016,-11.712000,-185.440002
890.112000,-15.616000,-177.632004
892.064026,-15.616000,-165.919998
886.208008,0.000000,-169.824005
886.208008,-7.808000,-173.727997
882.304016,-7.808000,-169.824005
886.208008,-3.904000,-187.391998
886.208008,-9.760000,-175.679993
884.255981,-9.760000,-169.824005
886.208008,-3.904000,-179.584000
890.112000,-11.712000,-181.535995
886.208008,-13.664000,-165.919998
886.208008,-7.808000,-179.584000
894.015991,-11.712000,-175.679993
895.968018,-19.520000,-177.632004
886.208008,-1.952000,-173.727997
890.112000,-5.856000,-181.535995
882.304016,-7.808000,-169.824005
897.919983,-15.616000,-177.632004
892.064026,-5.856000,-179.584000
886.208008,-3.904000,-179.584000
897.919983,-11.712000,-177.632004
882.304016,-3.904000,-181.535995
895.968018,1.952000,-171.776001
890.112000,-1.952000,-165.919998
886.208008,1.952000,-171.776001
894.015991,-3.904000,-171.776001
890.112000,7.808000,-167.871994
894.015991,-11.712000,-171.776001
894.015991,-7.808000,-167.871994
903.776001,-3.904000,-165.919998
899.872009,9.760000,-179.584000
895.968018,0.000000,-169.824005
895.968018,5.856000,-167.871994
894.015991,3.904000,-162.016006
897.919983,0.000000,-165.919998
892.064026,0.000000,-163.968002
899.872009,-1.952000,-171.776001
903.776001,-7.808000,-173.727997
895.968018,-3.904000,-181.535995
894.015991,-1.952000,-173.727997
899.872009,-5.856000,-173.727997
903.776001,-5.856000,-171.776001
892.064026,-3.904000,-173.727997
899.872009,0.000000,-173.727997
899.872009,0.000000,-175.679993
901.823975,-11.712000,-179.584000
894.015991,0.000000,-171.776001
895.968018,-11.712000,-173.727997
894.015991,-1.952000,-171.776001
894.015991,0.000000,-165.919998
894.015991,1.952000,-175.679993
888.159973,-5.856000,-179.584000
882.304016,1.952000,-173.727997
886.208008,-3.904000,-169.824005
892.064026,-9.760000,-173.727997
895.968018,-5.856000,-167.871994
892.064026,-5.856000,-171.776001
895.968018,-5.856000,-162.016006
890.112000,-3.904000,-167.871994
895.968018,-1.952000,-167.871994
886.208008,-9.760000,-175.679993
890.112000,-5.856000,-162.016006
895.968018,-5.856000,-162.016006
894.015991,-5.856000,-175.679993
892.064026,-7.808000,-167.871994
899.872009,-1.952000,-175.679993
890.112000,1.952000,-171.776001
895.968018,-7.808000,-165.919998
897.919983,-17.568001,-173.727997
899.872009,-11.712000,-175.679993
899.872009,-11.712000,-171.776001
901.823975,-13.664000,-169.824005
899.872009,-21.472000,-160.063995
911.583984,-27.327999,-167.871994
911.583984,-19.520000,-171.776001
911.583984,-7.808000,-175.679993
907.679993,-9.760000,-163.968002
915.487976,-15.616000,-171.776001
909.632019,-17.568001,-171.776001
905.728027,-15.616000,-162.016006
913.536011,-17.568001,-165.919998
911.583984,-21.472000,-167.871994
923.296021,-27.327999,-162.016006
925.247986,-27.327999,-162.016006
913.536011,-25.375999,-154.207993
917.440002,-21.472000,-165.919998
925.247986,-21.472000,-163.968002
925.247986,-23.424000,-154.207993
925.247986,-19.520000,-162.016006
931.104004,-27.327999,-167.871994
933.056030,-27.327999,-156.160004
935.007996,-21.472000,-162.016006
931.104004,-19.520000,-162.016006
942.815979,-15.616000,-156.160004
933.056030,-17.568001,-162.016006
933.056030,-19.520000,-167.871994
935.007996,-19.520000,-167.871994
948.671997,-11.712000,-162.016006
940.864014,-11.712000,-162.016006
950.624023,-19.520000,-163.968002
944.768005,-19.520000,-171.776001
948.671997,-17.568001,-160.063995
948.671997,-11.712000,-163.968002
946.719971,-13.664000,-162.016006
944.768005,-13.664000,-154.207993
948.671997,-17.568001,-158.112000
946.719971,-11.712000,-160.063995
950.624023,-11.712000,-160.063995
946.719971,-11.712000,-156.160004
954.528015,-11.712000,-158.112000
954.528015,-11.712000,-156.160004
958.432007,-17.568001,-158.112000
950.624023,-11.712000,-156.160004
954.528015,-13.664000,-163.968002
948.671997,-5.856000,-156.160004
950.624023,-9.760000,-160.063995
944.768005,-13.664000,-158.112000
956.479980,-15.616000,-158.112000
952.575989,-11.712000,-163.968002
952.575989,-15.616000,-158.112000
954.528015,-15.616000,-160.063995
958.432007,-7.808000,-160.063995
944.768005,-11.712000,-158.112000
946.719971,-3.904000,-160.063995
940.864014,-11.712000,-167.871994
950.624023,-11.712000,-167.871994
952.575989,-7.808000,-158.112000
954.528015,-13.664000,-165.919998
946.719971,-13.664000,-162.016006
940.864014,-5.856000,-167.871994
946.719971,-7.808000,-167.871994
946.719971,-9.760000,-171.776001
936.960022,-3.904000,-171.776001
940.864014,-11.712000,-173.727997
944.768005,-9.760000,-173.727997
942.815979,-7.808000,-181.535995
936.960022,0.000000,-175.679993
942.815979,1.952000,-175.679993
946.719971,3.904000,-173.727997
935.007996,0.000000,-177.632004
942.815979,0.000000,-175.679993
933.056030,-15.616000,-181.535995
931.104004,-5.856000,-173.727997
942.815979,-7.808000,-175.679993
931.104004,0.000000,-177.632004
933.056030,-5.856000,-183.488007
936.960022,-5.856000,-177.632004
938.911987,-7.808000,-183.488007
935.007996,-1.952000,-175.679993
929.151978,1.952000,-171.776001
931.104004,0.000000,-171.776001
927.200012,7.808000,-175.679993
927.200012,7.808000,-171.776001
931.104004,-1.952000,-175.679993
935.007996,0.000000,-171.776001
938.911987,-5.856000,-169.824005
935.007996,3.904000,-167.871994
929.151978,5.856000,-169.824005
931.104004,-1.952000,-177.632004
929.151978,7.808000,-169.824005
935.007996,5.856000,-169.824005
936.960022,3.904000,-169.824005
929.151978,7.808000,-169.824005
944.768005,0.000000,-169.824005
933.056030,-3.904000,-163.968002
936.960022,0.000000,-171.776001
935.007996,5.856000,-179.584000
933.056030,1.952000,-183.488007
936.960022,-7.808000,-169.824005
936.960022,-3.904000,-169.824005
936.960022,0.000000,-163.968002
938.911987,1.952000,-177.632004
938.911987,-7.808000,-160.063995
938.911987,-13.664000,-171.776001
933.056030,-7.808000,-177.632004
936.960022,-5.856000,-175.679993
942.815979,-7.808000,-169.824005
944.768005,-5.856000,-175.679993
944.768005,-7.808000,-173.727997
942.815979,-5.856000,-173.727997
944.768005,-7.808000,-179.584000
944.768005,-7.808000,-171.776001
936.960022,-1.952000,-169.824005
942.815979,-7.808000,-162.016006
940.864014,-3.904000,-162.016006
944.768005,-7.808000,-167.871994
954.528015,-7.808000,-171.776001
944.768005,-9.760000,-171.776001
946.719971,-5.856000,-167.871994
952.575989,-3.904000,-162.016006
946.719971,-5.856000,-167.871994
950.624023,-15.616000,-165.919998
958.432007,-7.808000,-163.968002
954.528015,5.856000,-163.968002
954.528015,5.856000,-165.919998
954.528015,9.760000,-167.871994
954.528015,7.808000,-165.919998
960.383972,-1.952000,-158.112000
958.432007,-7.808000,-160.063995
962.335999,-1.952000,-165.919998
958.432007,-7.808000,-152.255997
962.335999,3.904000,-158.112000
962.335999,5.856000,-165.919998
950.624023,7.808000,-165.919998
962.335999,3.904000,-158.112000
962.335999,-5.856000,-165.919998
962.335999,-5.856000,-165.919998
950.624023,-11.712000,-163.968002
960.383972,-5.856000,-165.919998
960.383972,-9.760000,-163.968002
966.239990,-3.904000,-165.919998
956.479980,-9.760000,-162.016006
958.432007,-7.808000,-165.919998
962.335999,-5.856000,-171.776001
966.239990,-5.856000,-165.919998
966.239990,-11.712000,-165.919998
960.383972,-3.904000,-154.207993
958.432007,-1.952000,-160.063995
966.239990,-9.760000,-167.871994
964.288025,-5.856000,-171.776001
977.952026,-1.952000,-167.871994
958.432007,-5.856000,-163.968002
962.335999,-11.712000,-171.776001
970.143982,-9.760000,-163.968002
970.143982,-13.664000,-167.871994
956.479980,-13.664000,-165.919998
964.288025,-9.760000,-163.968002
960.383972,-3.904000,-165.919998
962.335999,-7.808000,-171.776001
962.335999,-5.856000,-171.776001
962.335999,-15.616000,-162.016006
964.288025,-9.760000,-163.968002
970.143982,-19.520000,-162.016006
962.335999,-15.616000,-169.824005
966.239990,-13.664000,-169.824005
966.239990,-19.520000,-162.016006
974.047974,-15.616000,-169.824005
970.143982,-19.520000,-173.727997
968.192017,-21.472000,-167.871994
974.047974,-15.616000,-162.016006
974.047974,-13.664000,-163.968002
976.000000,-5.856000,-167.871994
974.047974,-7.808000,-175.679993
976.000000,-19.520000,-162.016006
976.000000,-13.664000,-163.968002
972.096008,-5.856000,-162.016006
977.952026,-21.472000,-165.919998
976.000000,-7.808000,-167.871994
974.047974,-15.616000,-162.016006
977.952026,-23.424000,-158.112000
974.047974,-19.520000,-163.968002
981.856018,-11.712000,-158.112000
972.096008,-17.568001,-171.776001
976.000000,-23.424000,-154.207993
977.952026,-5.856000,-169.824005
977.952026,-11.712000,-167.871994
983.807983,-11.712000,-162.016006
977.952026,-1.952000,-158.112000
983.807983,-11.712000,-162.016006
981.856018,-11.712000,-162.016006
981.856018,-11.712000,-167.871994
981.856018,-15.616000,-175.679993
979.903992,-13.664000,-158.112000
974.047974,-13.664000,-158.112000
976.000000,-5.856000,-162.016006
983.807983,-15.616000,-165.919998
985.760010,-17.568001,-163.968002
979.903992,-15.616000,-171.776001
979.903992,-17.568001,-156.160004
979.903992,-19.520000,-163.968002
977.952026,-23.424000,-163.968002
977.952026,-17.568001,-171.776001
976.000000,-25.375999,-163.968002
977.952026,-19.520000,-171.776001
976.000000,-13.664000,-165.919998
981.856018,-13.664000,-167.871994
972.096008,-11.712000,-162.016006
985.760010,-7.808000,-169.824005
981.856018,-15.616000,-171.776001
979.903992,-15.616000,-163.968002
977.952026,-23.424000,-163.968002
976.000000,-17.568001,-160.063995
979.903992,-13.664000,-163.968002
974.047974,-5.856000,-162.016006
981.856018,-15.616000,-171.776001
981.856018,-11.712000,-167.871994
979.903992,-13.664000,-163.968002
993.567993,-13.664000,-165.919998
979.903992,-13.664000,-163.968002
985.760010,-17.568001,-162.016006
974.047974,-15.616000,-158.112000
985.760010,-21.472000,-160.063995
979.903992,-13.664000,-160.063995
979.903992,-9.760000,-167.871994
983.807983,-15.616000,-163.968002
974.047974,-13.664000,-160.063995
985.760010,-5.856000,-160.063995
979.903992,-13.664000,-160.063995
983.807983,-19.520000,-163.968002
991.616028,-9.760000,-162.016006
979.903992,-13.664000,-158.112000
993.567993,-17.568001,-158.112000
989.664001,-9.760000,-162.016006
979.903992,-19.520000,-163.968002
985.760010,-19.520000,-163.968002
987.711975,-13.664000,-163.968002
989.664001,-11.712000,-158.112000
993.567993,-9.760000,-158.112000
989.664001,-11.712000,-167.871994
993.567993,-11.712000,-165.919998
983.807983,-19.520000,-167.871994
983.807983,-15.616000,-160.063995
985.760010,-13.664000,-154.207993
987.711975,-13.664000,-171.776001
989.664001,-23.424000,-167.871994
987.711975,-13.664000,-163.968002
991.616028,-5.856000,-165.919998
983.807983,-13.664000,-179.584000
989.664001,-15.616000,-175.679993
989.664001,-13.664000,-167.871994
987.711975,-23.424000,-163.968002
997.471985,-15.616000,-167.871994
997.471985,-15.616000,-162.016006
993.567993,-15.616000,-162.016006
993.567993,-9.760000,-162.016006
993.567993,-21.472000,-163.968002
983.807983,-9.760000,-163.968002
993.567993,-11.712000,-165.919998
997.471985,-17.568001,-162.016006
985.760010,-13.664000,-160.063995
993.567993,-21.472000,-156.160004
987.711975,-29.280001,-162.016006
991.616028,-17.568001,-167.871994
995.520020,-13.664000,-167.871994
991.616028,-17.568001,-167.871994
997.471985,-21.472000,-169.824005
991.616028,-23.424000,-167.871994
997.471985,-19.520000,-162.016006
1001.375977,-17.568001,-167.871994
987.711975,-27.327999,-158.112000
997.471985,-17.568001,-162.016006
989.664001,-13.664000,-167.871994
979.903992,-13.664000,-165.919998
991.616028,-13.664000,-169.824005
993.567993,-27.327999,-162.016006
987.711975,-21.472000,-150.304001
989.664001,-19.520000,-154.207993
983.807983,-9.760000,-165.919998
993.567993,-15.616000,-167.871994
985.760010,-21.472000,-156.160004
983.807983,-13.664000,-162.016006
985.760010,-21.472000,-156.160004
989.664001,-15.616000,-152.255997
989.664001,-13.664000,-160.063995
989.664001,-13.664000,-156.160004
987.711975,-21.472000,-154.207993
979.903992,-13.664000,-160.063995
979.903992,-9.760000,-169.824005
987.711975,-15.616000,-158.112000
993.567993,-21.472000,-158.112000
987.711975,-17.568001,-160.063995
981.856018,-15.616000,-165.919998
977.952026,-17.568001,-175.679993
981.856018,-17.568001,-171.776001
983.807983,-19.520000,-167.871994
981.856018,-17.568001,-163.968002
985.760010,-17.568001,-160.063995
976.000000,-11.712000,-160.063995
974.047974,-17.568001,-163.968002
976.000000,-19.520000,-163.968002
976.000000,-23.424000,-165.919998
972.096008,-9.760000,-175.679993
983.807983,-21.472000,-171.776001
981.856018,-17.568001,-165.919998
970.143982,-19.520000,-169.824005
976.000000,-19.520000,-163.968002
976.000000,-11.712000,-167.871994
976.000000,-17.568001,-165.919998
977.952026,-23.424000,-171.776001
981.856018,-19.520000,-171.776001
974.047974,-15.616000,-173.727997
981.856018,-11.712000,-167.871994
979.903992,-9.760000,-169.824005
970.143982,-23.424000,-169.824005
977.952026,-11.712000,-167.871994
974.047974,-17.568001,-165.919998
972.096008,-21.472000,-165.919998
979.903992,-17.568001,-171.776001
974.047974,-13.664000,-163.968002
979.903992,-15.616000,-162.016006
981.856018,-1.952000,-167.871994
977.952026,-1.952000,-162.016006
983.807983,-3.904000,-158.112000
977.952026,-9.760000,-165.919998
979.903992,-13.664000,-163.968002
981.856018,-7.808000,-167.871994
976.000000,-9.760000,-167.871994
981.856018,-11.712000,-158.112000
991.616028,-5.856000,-158.112000
976.000000,-17.568001,-160.063995
974.047974,-19.520000,-152.255997
981.856018,-21.472000,-162.016006
983.807983,-13.664000,-158.112000
974.047974,-13.664000,-158.112000
977.952026,-5.856000,-160.063995
979.903992,-7.808000,-169.824005
979.903992,-3.904000,-169.824005
981.856018,-11.712000,-156.160004
972.096008,-11.712000,-158.112000
974.047974,-11.712000,-162.016006
977.952026,-3.904000,-162.016006
964.288025,-7.808000,-171.776001
977.952026,-15.616000,-171.776001
977.952026,-11.712000,-162.016006
974.047974,1.952000,-169.824005
970.143982,-1.952000,-158.112000
976.000000,-13.664000,-163.968002
972.096008,-3.904000,-165.919998
977.952026,1.952000,-171.776001
972.096008,-7.808000,-165.919998
974.047974,-11.712000,-165.919998
972.096008,7.808000,-162.016006
977.952026,-1.952000,-167.871994
974.047974,-7.808000,-173.727997
972.096008,-7.808000,-160.063995
977.952026,-7.808000,-162.016006
979.903992,-3.904000,-154.207993
983.807983,-3.904000,-162.016006
985.760010,3.904000,-158.112000
979.903992,-13.664000,-158.112000
972.096008,-7.808000,-156.160004
976.000000,-1.952000,-156.160004
972.096008,-5.856000,-160.063995
970.143982,-11.712000,-162.016006
976.000000,-11.712000,-163.968002
979.903992,-13.664000,-163.968002
977.952026,-7.808000,-163.968002
976.000000,-11.712000,-163.968002
981.856018,-11.712000,-160.063995
977.952026,-19.520000,-163.968002
985.760010,-15.616000,-160.063995
979.903992,-23.424000,-154.207993
976.000000,-13.664000,-152.255997
981.856018,-11.712000,-162.016006
974.047974,-11.712000,-158.112000
979.903992,-5.856000,-160.063995
985.760010,-1.952000,-163.968002
981.856018,-11.712000,-160.063995
979.903992,-13.664000,-158.112000
974.047974,-13.664000,-160.063995
977.952026,-11.712000,-162.016006
979.903992,-11.712000,-154.207993
981.856018,-11.712000,-162.016006
985.760010,-11.712000,-154.207993
983.807983,-15.616000,-160.063995
974.047974,-17.568001,-152.255997
976.000000,-17.568001,-152.255997
977.952026,-11.712000,-150.304001
981.856018,-1.952000,-162.016006
979.903992,-11.712000,-162.016006
979.903992,-19.520000,-160.063995
979.903992,-13.664000,-156.160004
979.903992,-11.712000,-163.968002
981.856018,-11.712000,-160.063995
972.096008,-11.712000,-158.112000
977.952026,-13.664000,-167.871994
974.047974,-17.568001,-163.968002
979.903992,-11.712000,-160.063995
979.903992,-11.712000,-160.063995
977.952026,-11.712000,-156.160004
983.807983,-11.712000,-162.016006
979.903992,-17.568001,-163.968002
976.000000,-19.520000,-160.063995
979.903992,-23.424000,-163.968002
976.000000,-19.520000,-163.968002
977.952026,-11.712000,-162.016006
977.952026,-23.424000,-160.063995
972.096008,-23.424000,-169.824005
974.047974,-27.327999,-162.016006
983.807983,-23.424000,-171.776001
985.760010,-27.327999,-158.112000
981.856018,-31.232000,-160.063995
977.952026,-31.232000,-160.063995
977.952026,-27.327999,-165.919998
976.000000,-11.712000,-158.112000
976.000000,-23.424000,-162.016006
974.047974,-23.424000,-163.968002
