ACC_X,ACC_Y,ACC_Z
460.671997,544.607971,694.911987
464.575989,534.848022,691.007996
462.623993,530.943970,698.815979
452.864014,532.895996,691.007996
456.768005,530.943970,691.007996
454.816010,532.895996,698.815979
464.575989,536.799988,694.911987
460.671997,534.848022,691.007996
462.623993,540.703979,692.960022
466.528015,530.943970,698.815979
466.528015,536.799988,692.960022
466.528015,532.895996,687.104004
456.768005,534.848022,687.104004
466.528015,532.895996,689.056030
466.528015,532.895996,683.200012
470.432007,532.895996,691.007996
466.528015,532.895996,689.056030
472.384003,536.799988,692.960022
466.528015,540.703979,694.911987
470.432007,542.656006,694.911987
464.575989,534.848022,687.104004
468.480011,540.703979,687.104004
476.287994,534.848022,694.911987
474.335999,536.799988,691.007996
478.239990,530.943970,692.960022
476.287994,530.943970,689.056030
476.287994,530.943970,685.151978
474.335999,530.943970,691.007996
476.287994,532.895996,692.960022
482.144012,536.799988,685.151978
482.144012,530.943970,681.247986
480.191986,528.992004,687.104004
478.239990,519.231995,685.151978
482.144012,519.231995,681.247986
489.951996,523.135986,683.200012
489.951996,519.231995,685.151978
489.951996,525.088013,683.200012
489.951996,523.135986,679.296021
486.048004,517.280029,679.296021
486.048004,517.280029,679.296021
489.951996,527.039978,687.104004
480.191986,523.135986,687.104004
493.855988,515.328003,685.151978
488.000000,517.280029,689.056030
489.951996,521.184021,683.200012
488.000000,517.280029,679.296021
488.000000,511.424011,683.200012
486.048004,511.424011,679.296021
491.903992,513.375977,673.440002
488.000000,515.328003,685.151978
491.903992,505.567993,675.392029
489.951996,511.424011,677.343994
488.000000,503.615997,687.104004
495.808014,515.328003,681.247986
489.951996,503.615997,671.487976
501.664001,513.375977,681.247986
495.808014,507.519989,675.392029
497.760010,503.615997,685.151978
497.760010,511.424011,675.392029
491.903992,505.567993,675.392029
495.808014,505.567993,669.536011
495.808014,507.519989,673.440002
495.808014,501.664001,687.104004
497.760010,509.471985,681.247986
497.760010,503.615997,681.247986
491.903992,503.615997,685.151978
501.664001,495.808014,679.296021
501.664001,499.712006,671.487976
495.808014,503.615997,681.247986
503.615997,503.615997,677.343994
501.664001,495.808014,685.151978
497.760010,493.855988,683.200012
499.712006,489.951996,687.104004
513.375977,486.048004,671.487976
509.471985,497.760010,679.296021
501.664001,489.951996,679.296021
513.375977,491.903992,675.392029
503.615997,488.000000,681.247986
503.615997,493.855988,681.247986
503.615997,488.000000,683.200012
515.328003,493.855988,687.104004
513.375977,499.712006,683.200012
511.424011,489.951996,689.056030
517.280029,489.951996,692.960022
509.471985,488.000000,675.392029
511.424011,486.048004,685.151978
515.328003,489.951996,685.151978
517.280029,480.191986,685.151978
527.039978,495.808014,689.056030
515.328003,488.000000,689.056030
511.424011,489.951996,692.960022
515.328003,488.000000,687.104004
517.280029,486.048004,689.056030
523.135986,495.808014,687.104004
513.375977,491.903992,681.247986
515.328003,499.712006,689.056030
523.135986,495.808014,689.056030
525.088013,497.760010,691.007996
528.992004,497.760010,691.007996
521.184021,507.519989,681.247986
517.280029,499.712006,692.960022
525.088013,505.567993,692.960022
521.184021,503.615997,691.007996
511.424011,513.375977,687.104004
523.135986,509.471985,694.911987
527.039978,517.280029,698.815979
521.184021,509.471985,696.864014
525.088013,515.328003,683.200012
519.231995,507.519989,692.960022
525.088013,525.088013,700.768005
523.135986,517.280029,694.911987
521.184021,515.328003,691.007996
521.184021,511.424011,692.960022
523.135986,511.424011,692.960022
517.280029,509.471985,692.960022
517.280029,519.231995,689.056030
523.135986,517.280029,692.960022
515.328003,521.184021,689.056030
519.231995,517.280029,683.200012
513.375977,527.039978,685.151978
515.328003,527.039978,689.056030
517.280029,517.280029,683.200012
511.424011,515.328003,683.200012
503.615997,527.039978,681.247986
513.375977,523.135986,692.960022
513.375977,527.039978,679.296021
515.328003,532.895996,685.151978
503.615997,519.231995,675.392029
507.519989,521.184021,675.392029
503.615997,530.943970,677.343994
509.471985,528.992004,681.247986
509.471985,519.231995,681.247986
503.615997,525.088013,681.247986
497.760010,527.039978,677.343994
503.615997,525.088013,679.296021
501.664001,523.135986,683.200012
497.760010,528.992004,677.343994
493.855988,527.039978,671.487976
488.000000,523.135986,673.440002
497.760010,534.848022,681.247986
493.855988,528.992004,667.583984
489.951996,540.703979,677.343994
484.096008,530.943970,673.440002
482.144012,544.607971,673.440002
480.191986,538.752014,679.296021
472.384003,544.607971,671.487976
482.144012,532.895996,669.536011
486.048004,542.656006,681.247986
474.335999,538.752014,671.487976
472.384003,534.848022,667.583984
468.480011,536.799988,663.679993
468.480011,544.607971,661.728027
464.575989,548.512024,663.679993
464.575989,540.703979,663.679993
464.575989,548.512024,663.679993
472.384003,548.512024,667.583984
464.575989,538.752014,663.679993
464.575989,544.607971,661.728027
460.671997,540.703979,667.583984
464.575989,544.607971,655.872009
460.671997,552.416016,657.823975
460.671997,540.703979,663.679993
454.816010,548.512024,659.776001
458.720001,544.607971,657.823975
462.623993,548.512024,659.776001
454.816010,550.463989,659.776001
452.864014,548.512024,653.919983
448.959991,536.799988,648.064026
456.768005,546.559998,650.015991
454.816010,544.607971,650.015991
450.911987,540.703979,653.919983
456.768005,546.559998,650.015991
456.768005,538.752014,655.872009
454.816010,548.512024,657.823975
450.911987,542.656006,648.064026
448.959991,546.559998,659.776001
443.104004,534.848022,653.919983
445.056000,540.703979,651.968018
456.768005,536.799988,646.112000
448.959991,540.703979,653.919983
447.007996,538.752014,646.112000
448.959991,525.088013,644.159973
462.623993,530.943970,646.112000
456.768005,536.799988,646.112000
458.720001,540.703979,644.159973
454.816010,540.703979,648.064026
462.623993,534.848022,655.872009
460.671997,536.799988,646.112000
470.432007,534.848022,646.112000
460.671997,538.752014,650.015991
462.623993,532.895996,651.968018
466.528015,538.752014,642.208008
468.480011,534.848022,651.968018
466.528015,534.848022,655.872009
472.384003,534.848022,648.064026
474.335999,536.799988,650.015991
482.144012,536.799988,653.919983
480.191986,536.799988,657.823975
488.000000,538.752014,651.968018
488.000000,532.895996,650.015991
484.096008,542.656006,657.823975
489.951996,540.703979,665.632019
499.712006,536.799988,665.632019
497.760010,532.895996,659.776001
501.664001,534.848022,659.776001
501.664001,536.799988,661.728027
503.615997,536.799988,663.679993
503.615997,534.848022,659.776001
509.471985,536.799988,661.728027
507.519989,536.799988,671.487976
507.519989,528.992004,663.679993
513.375977,528.992004,667.583984
507.519989,536.799988,659.776001
511.424011,532.895996,669.536011
521.184021,515.328003,665.632019
523.135986,513.375977,675.392029
527.039978,523.135986,669.536011
528.992004,523.135986,671.487976
536.799988,521.184021,675.392029
528.992004,521.184021,677.343994
532.895996,519.231995,675.392029
536.799988,528.992004,671.487976
530.943970,523.135986,677.343994
534.848022,519.231995,675.392029
546.559998,525.088013,681.247986
548.512024,511.424011,679.296021
554.367981,517.280029,692.960022
554.367981,513.375977,681.247986
550.463989,511.424011,691.007996
556.320007,515.328003,687.104004
562.176025,521.184021,689.056030
560.223999,519.231995,691.007996
560.223999,513.375977,687.104004
562.176025,511.424011,687.104004
560.223999,509.471985,687.104004
564.127991,505.567993,692.960022
564.127991,501.664001,689.056030
558.271973,505.567993,694.911987
560.223999,497.760010,689.056030
564.127991,501.664001,689.056030
562.176025,503.615997,685.151978
566.080017,493.855988,683.200012
564.127991,489.951996,689.056030
562.176025,489.951996,687.104004
558.271973,499.712006,687.104004
568.031982,501.664001,687.104004
568.031982,497.760010,689.056030
566.080017,503.615997,691.007996
571.935974,505.567993,692.960022
556.320007,501.664001,683.200012
552.416016,505.567993,679.296021
550.463989,484.096008,685.151978
554.367981,489.951996,683.200012
554.367981,493.855988,689.056030
554.367981,495.808014,679.296021
550.463989,489.951996,673.440002
554.367981,491.903992,677.343994
544.607971,488.000000,685.151978
544.607971,484.096008,671.487976
556.320007,488.000000,663.679993
540.703979,489.951996,669.536011
542.656006,486.048004,659.776001
544.607971,478.239990,663.679993
534.848022,484.096008,663.679993
540.703979,484.096008,671.487976
536.799988,480.191986,659.776001
540.703979,476.287994,665.632019
532.895996,486.048004,673.440002
534.848022,486.048004,675.392029
532.895996,476.287994,663.679993
534.848022,476.287994,663.679993
523.135986,476.287994,663.679993
532.895996,480.191986,661.728027
532.895996,480.191986,665.632019
536.799988,474.335999,659.776001
528.992004,486.048004,661.728027
532.895996,480.191986,663.679993
532.895996,476.287994,663.679993
523.135986,478.239990,655.872009
534.848022,476.287994,665.632019
525.088013,470.432007,655.872009
528.992004,472.384003,655.872009
530.943970,466.528015,659.776001
525.088013,468.480011,665.632019
530.943970,468.480011,659.776001
519.231995,474.335999,657.823975
521.184021,476.287994,663.679993
521.184021,472.384003,671.487976
523.135986,468.480011,655.872009
532.895996,480.191986,663.679993
527.039978,472.384003,663.679993
528.992004,474.335999,659.776001
532.895996,468.480011,673.440002
528.992004,480.191986,675.392029
530.943970,478.239990,681.247986
528.992004,466.528015,665.632019
523.135986,474.335999,663.679993
530.943970,460.671997,665.632019
527.039978,454.816010,667.583984
534.848022,456.768005,669.536011
528.992004,456.768005,665.632019
536.799988,468.480011,677.343994
528.992004,466.528015,673.440002
540.703979,452.864014,677.343994
544.607971,460.671997,667.583984
540.703979,462.623993,663.679993
542.656006,458.720001,667.583984
530.943970,456.768005,667.583984
540.703979,454.816010,665.632019
542.656006,464.575989,663.679993
538.752014,460.671997,669.536011
538.752014,464.575989,669.536011
542.656006,454.816010,671.487976
544.607971,458.720001,667.583984
542.656006,458.720001,669.536011
548.512024,458.720001,661.728027
540.703979,450.911987,665.632019
544.607971,452.864014,665.632019
548.512024,454.816010,659.776001
548.512024,458.720001,661.728027
544.607971,462.623993,669.536011
554.367981,458.720001,659.776001
550.463989,456.768005,659.776001
556.320007,448.959991,655.872009
550.463989,450.911987,659.776001
544.607971,456.768005,650.015991
548.512024,454.816010,651.968018
536.799988,454.816010,653.919983
546.559998,456.768005,655.872009
546.559998,462.623993,650.015991
542.656006,454.816010,648.064026
540.703979,468.480011,650.015991
530.943970,462.623993,640.255981
536.799988,454.816010,648.064026
540.703979,460.671997,642.208008
540.703979,466.528015,644.159973
538.752014,472.384003,634.400024
527.039978,464.575989,628.544006
530.943970,456.768005,628.544006
527.039978,478.239990,646.112000
527.039978,476.287994,636.351990
528.992004,466.528015,642.208008
525.088013,466.528015,634.400024
528.992004,468.480011,640.255981
525.088013,470.432007,644.159973
525.088013,468.480011,642.208008
530.943970,482.144012,646.112000
527.039978,470.432007,648.064026
528.992004,470.432007,650.015991
521.184021,470.432007,646.112000
528.992004,464.575989,646.112000
528.992004,474.335999,651.968018
530.943970,470.432007,655.872009
528.992004,474.335999,659.776001
532.895996,460.671997,655.872009
521.184021,468.480011,653.919983
523.135986,460.671997,659.776001
525.088013,474.335999,659.776001
517.280029,464.575989,663.679993
525.088013,474.335999,665.632019
525.088013,472.384003,655.872009
515.328003,470.432007,665.632019
515.328003,468.480011,653.919983
527.039978,462.623993,657.823975
515.328003,468.480011,661.728027
517.280029,468.480011,655.872009
513.375977,468.480011,651.968018
517.280029,480.191986,659.776001
515.328003,474.335999,651.968018
517.280029,478.239990,653.919983
519.231995,466.528015,659.776001
521.184021,470.432007,659.776001
507.519989,468.480011,659.776001
521.184021,466.528015,655.872009
521.184021,470.432007,657.823975
513.375977,466.528015,655.872009
521.184021,460.671997,657.823975
509.471985,462.623993,655.872009
513.375977,474.335999,659.776001
517.280029,466.528015,665.632019
507.519989,460.671997,661.728027
511.424011,458.720001,663.679993
517.280029,456.768005,659.776001
517.280029,468.480011,665.632019
513.375977,460.671997,650.015991
521.184021,466.528015,661.728027
519.231995,470.432007,653.919983
521.184021,468.480011,655.872009
519.231995,466.528015,665.632019
519.231995,464.575989,665.632019
525.088013,462.623993,661.728027
515.328003,460.671997,655.872009
519.231995,466.528015,665.632019
525.088013,462.623993,671.487976
527.039978,456.768005,665.632019
530.943970,458.720001,675.392029
530.943970,466.528015,669.536011
536.799988,452.864014,669.536011
534.848022,448.959991,671.487976
534.848022,454.816010,675.392029
534.848022,454.816010,669.536011
538.752014,456.768005,665.632019
542.656006,456.768005,677.343994
538.752014,448.959991,679.296021
534.848022,450.911987,677.343994
548.512024,447.007996,679.296021
544.607971,437.247986,681.247986
552.416016,441.152008,683.200012
550.463989,447.007996,683.200012
554.367981,441.152008,689.056030
548.512024,448.959991,683.200012
556.320007,452.864014,692.960022
552.416016,445.056000,694.911987
554.367981,439.200012,689.056030
558.271973,441.152008,691.007996
550.463989,445.056000,685.151978
550.463989,443.104004,685.151978
560.223999,441.152008,689.056030
560.223999,450.911987,692.960022
554.367981,445.056000,692.960022
554.367981,448.959991,694.911987
556.320007,450.911987,687.104004
556.320007,441.152008,692.960022
560.223999,439.200012,683.200012
554.367981,441.152008,685.151978
568.031982,439.200012,689.056030
560.223999,435.295990,696.864014
558.271973,435.295990,683.200012
558.271973,437.247986,689.056030
564.127991,437.247986,681.247986
566.080017,439.200012,689.056030
560.223999,445.056000,681.247986
568.031982,441.152008,681.247986
558.271973,447.007996,685.151978
560.223999,447.007996,673.440002
556.320007,447.007996,681.247986
554.367981,435.295990,677.343994
564.127991,439.200012,679.296021
554.367981,439.200012,681.247986
558.271973,439.200012,677.343994
560.223999,441.152008,689.056030
564.127991,439.200012,675.392029
550.463989,447.007996,681.247986
556.320007,447.007996,685.151978
556.320007,447.007996,681.247986
552.416016,437.247986,683.200012
558.271973,452.864014,681.247986
552.416016,437.247986,681.247986
554.367981,441.152008,675.392029
556.320007,441.152008,675.392029
542.656006,443.104004,679.296021
552.416016,433.343994,679.296021
558.271973,447.007996,681.247986
550.463989,450.911987,687.104004
556.320007,448.959991,681.247986
550.463989,450.911987,681.247986
556.320007,447.007996,685.151978
556.320007,452.864014,685.151978
560.223999,452.864014,675.392029
554.367981,452.864014,689.056030
556.320007,456.768005,696.864014
554.367981,454.816010,687.104004
552.416016,448.959991,687.104004
562.176025,452.864014,685.151978
564.127991,462.623993,687.104004
558.271973,460.671997,687.104004
554.367981,462.623993,685.151978
554.367981,470.432007,689.056030
560.223999,466.528015,689.056030
552.416016,464.575989,683.200012
556.320007,466.528015,696.864014
556.320007,472.384003,687.104004
554.367981,470.432007,689.056030
558.271973,470.432007,689.056030
564.127991,464.575989,689.056030
554.367981,464.575989,691.007996
560.223999,468.480011,685.151978
564.127991,470.432007,689.056030
560.223999,476.287994,687.104004
560.223999,474.335999,679.296021
560.223999,470.432007,685.151978
560.223999,474.335999,675.392029
554.367981,470.432007,671.487976
554.367981,472.384003,685.151978
562.176025,474.335999,683.200012
568.031982,474.335999,679.296021
560.223999,472.384003,681.247986
564.127991,470.432007,677.343994
556.320007,472.384003,681.247986
562.176025,476.287994,675.392029
562.176025,478.239990,681.247986
558.271973,482.144012,681.247986
562.176025,468.480011,669.536011
556.320007,478.239990,673.440002
554.367981,486.048004,669.536011
558.271973,480.191986,675.392029
558.271973,480.191986,673.440002
558.271973,486.048004,667.583984
566.080017,480.191986,669.536011
566.080017,480.191986,673.440002
569.984009,488.000000,681.247986
566.080017,480.191986,673.440002
556.320007,482.144012,675.392029
560.223999,484.096008,675.392029
566.080017,476.287994,675.392029
564.127991,489.951996,675.392029
564.127991,488.000000,673.440002
569.984009,486.048004,679.296021
571.935974,489.951996,677.343994
571.935974,484.096008,663.679993
579.744019,493.855988,675.392029
575.840027,489.951996,675.392029
573.888000,488.000000,683.200012
577.791992,484.096008,671.487976
577.791992,495.808014,673.440002
573.888000,499.712006,679.296021
573.888000,499.712006,685.151978
581.695984,497.760010,677.343994
579.744019,497.760010,675.392029
569.984009,501.664001,673.440002
579.744019,495.808014,673.440002
573.888000,501.664001,675.392029
571.935974,503.615997,665.632019
575.840027,501.664001,669.536011
575.840027,507.519989,665.632019
583.648010,503.615997,669.536011
583.648010,503.615997,667.583984
587.552002,515.328003,661.728027
583.648010,511.424011,675.392029
579.744019,521.184021,669.536011
589.504028,511.424011,661.728027
585.599976,509.471985,667.583984
581.695984,515.328003,661.728027
575.840027,511.424011,667.583984
579.744019,515.328003,671.487976
577.791992,515.328003,665.632019
577.791992,532.895996,651.968018
577.791992,530.943970,653.919983
577.791992,519.231995,653.919983
583.648010,521.184021,651.968018
573.888000,523.135986,661.728027
589.504028,528.992004,651.968018
585.599976,525.088013,655.872009
583.648010,521.184021,648.064026
577.791992,519.231995,653.919983
583.648010,525.088013,655.872009
583.648010,525.088013,650.015991
587.552002,525.088013,665.632019
587.552002,525.088013,665.632019
589.504028,534.848022,657.823975
583.648010,525.088013,651.968018
583.648010,523.135986,659.776001
589.504028,528.992004,657.823975
597.312012,534.848022,665.632019
595.359985,523.135986,659.776001
597.312012,530.943970,661.728027
595.359985,530.943970,661.728027
599.263977,527.039978,663.679993
599.263977,523.135986,669.536011
599.263977,532.895996,667.583984
593.408020,528.992004,657.823975
603.168030,527.039978,669.536011
607.072021,530.943970,673.440002
599.263977,527.039978,665.632019
603.168030,523.135986,673.440002
599.263977,532.895996,671.487976
603.168030,528.992004,663.679993
599.263977,536.799988,665.632019
601.216003,532.895996,663.679993
603.168030,532.895996,677.343994
593.408020,530.943970,671.487976
597.312012,532.895996,667.583984
599.263977,527.039978,667.583984
603.168030,523.135986,667.583984
601.216003,528.992004,663.679993
601.216003,521.184021,667.583984
607.072021,525.088013,665.632019
610.976013,528.992004,671.487976
593.408020,523.135986,669.536011
595.359985,519.231995,673.440002
601.216003,521.184021,667.583984
601.216003,521.184021,669.536011
601.216003,521.184021,667.583984
603.168030,515.328003,671.487976
603.168030,517.280029,671.487976
605.119995,513.375977,663.679993
601.216003,521.184021,663.679993
599.263977,521.184021,667.583984
599.263977,517.280029,665.632019
599.263977,515.328003,681.247986
595.359985,507.519989,661.728027
597.312012,511.424011,673.440002
597.312012,513.375977,677.343994
601.216003,509.471985,679.296021
591.455994,513.375977,675.392029
597.312012,511.424011,663.679993
603.168030,509.471985,669.536011
591.455994,511.424011,663.679993
597.312012,505.567993,669.536011
591.455994,497.760010,665.632019
597.312012,507.519989,677.343994
595.359985,501.664001,677.343994
593.408020,497.760010,667.583984
591.455994,493.855988,671.487976
585.599976,501.664001,671.487976
581.695984,489.951996,667.583984
591.455994,486.048004,671.487976
589.504028,488.000000,671.487976
587.552002,497.760010,669.536011
585.599976,482.144012,663.679993
581.695984,493.855988,665.632019
585.599976,484.096008,667.583984
581.695984,488.000000,663.679993
587.552002,476.287994,657.823975
581.695984,482.144012,661.728027
587.552002,480.191986,661.728027
585.599976,486.048004,671.487976
585.599976,480.191986,673.440002
583.648010,478.239990,675.392029
589.504028,480.191986,663.679993
589.504028,474.335999,669.536011
595.359985,478.239990,675.392029
591.455994,476.287994,675.392029
585.599976,474.335999,694.911987
589.504028,474.335999,687.104004
601.216003,474.335999,679.296021
589.504028,476.287994,683.200012
593.408020,468.480011,671.487976
595.359985,472.384003,685.151978
589.504028,486.048004,675.392029
587.552002,478.239990,681.247986
591.455994,472.384003,681.247986
593.408020,472.384003,681.247986
601.216003,472.384003,681.247986
607.072021,466.528015,681.247986
593.408020,466.528015,689.056030
601.216003,474.335999,689.056030
610.976013,478.239990,685.151978
603.168030,466.528015,683.200012
597.312012,466.528015,681.247986
593.408020,470.432007,679.296021
597.312012,468.480011,685.151978
603.168030,464.575989,687.104004
605.119995,474.335999,689.056030
607.072021,460.671997,683.200012
601.216003,476.287994,689.056030
605.119995,478.239990,679.296021
597.312012,474.335999,681.247986
601.216003,474.335999,679.296021
599.263977,476.287994,679.296021
595.359985,474.335999,675.392029
599.263977,472.384003,681.247986
607.072021,460.671997,675.392029
603.168030,466.528015,675.392029
597.312012,474.335999,681.247986
603.168030,466.528015,673.440002
601.216003,464.575989,675.392029
597.312012,468.480011,675.392029
597.312012,464.575989,675.392029
593.408020,468.480011,677.343994
591.455994,468.480011,669.536011
597.312012,468.480011,673.440002
597.312012,470.432007,671.487976
589.504028,474.335999,671.487976
593.408020,476.287994,673.440002
583.648010,474.335999,673.440002
585.599976,470.432007,671.487976
585.599976,468.480011,667.583984
595.359985,468.480011,669.536011
589.504028,482.144012,663.679993
593.408020,470.432007,667.583984
589.504028,476.287994,673.440002
591.455994,484.096008,673.440002
589.504028,474.335999,673.440002
589.504028,470.432007,671.487976
589.504028,470.432007,677.343994
585.599976,476.287994,675.392029
589.504028,474.335999,667.583984
591.455994,476.287994,661.728027
591.455994,480.191986,663.679993
591.455994,468.480011,669.536011
585.599976,480.191986,667.583984
591.455994,474.335999,675.392029
589.504028,470.432007,661.728027
591.455994,468.480011,667.583984
591.455994,480.191986,671.487976
581.695984,480.191986,681.247986
593.408020,480.191986,673.440002
597.312012,472.384003,667.583984
597.312012,478.239990,671.487976
591.455994,468.480011,677.343994
599.263977,478.239990,677.343994
599.263977,482.144012,681.247986
605.119995,472.384003,667.583984
595.359985,466.528015,671.487976
601.216003,476.287994,677.343994
607.072021,468.480011,675.392029
607.072021,468.480011,673.440002
601.216003,474.335999,665.632019
612.927979,468.480011,677.343994
601.216003,474.335999,685.151978
601.216003,474.335999,685.151978
609.023987,478.239990,694.911987
614.880005,472.384003,689.056030
612.927979,462.623993,675.392029
605.119995,460.671997,675.392029
616.831970,460.671997,679.296021
610.976013,474.335999,677.343994
603.168030,460.671997,679.296021
614.880005,476.287994,685.151978
610.976013,468.480011,683.200012
609.023987,470.432007,683.200012
614.880005,472.384003,687.104004
601.216003,474.335999,679.296021
607.072021,468.480011,679.296021
603.168030,468.480011,681.247986
605.119995,470.432007,675.392029
607.072021,474.335999,677.343994
610.976013,470.432007,675.392029
614.880005,468.480011,675.392029
616.831970,474.335999,681.247986
609.023987,466.528015,681.247986
607.072021,464.575989,681.247986
603.168030,468.480011,679.296021
610.976013,474.335999,679.296021
603.168030,462.623993,681.247986
610.976013,470.432007,675.392029
616.831970,470.432007,685.151978
612.927979,470.432007,683.200012
616.831970,460.671997,677.343994
618.783997,452.864014,687.104004
616.831970,466.528015,681.247986
626.591980,470.432007,681.247986
620.736023,448.959991,675.392029
626.591980,452.864014,679.296021
622.687988,458.720001,685.151978
624.640015,462.623993,679.296021
634.400024,462.623993,683.200012
622.687988,464.575989,679.296021
634.400024,464.575989,681.247986
638.304016,458.720001,691.007996
628.544006,452.864014,689.056030
626.591980,458.720001,689.056030
632.447998,454.816010,685.151978
628.544006,462.623993,683.200012
630.495972,462.623993,689.056030
636.351990,460.671997,687.104004
640.255981,454.816010,685.151978
640.255981,456.768005,685.151978
638.304016,462.623993,685.151978
636.351990,458.720001,667.583984
636.351990,462.623993,675.392029
646.112000,464.575989,677.343994
636.351990,452.864014,673.440002
644.159973,454.816010,685.151978
642.208008,448.959991,681.247986
646.112000,460.671997,681.247986
650.015991,462.623993,691.007996
636.351990,454.816010,685.151978
636.351990,454.816010,689.056030
636.351990,454.816010,683.200012
646.112000,452.864014,685.151978
650.015991,452.864014,683.200012
644.159973,454.816010,679.296021
646.112000,445.056000,679.296021
644.159973,443.104004,683.200012
644.159973,454.816010,679.296021
644.159973,456.768005,671.487976
642.208008,448.959991,685.151978
650.015991,445.056000,677.343994
644.159973,447.007996,675.392029
653.919983,445.056000,681.247986
646.112000,443.104004,683.200012
648.064026,452.864014,681.247986
648.064026,450.911987,683.200012
650.015991,450.911987,681.247986
650.015991,450.911987,675.392029
650.015991,452.864014,692.960022
655.872009,445.056000,681.247986
653.919983,447.007996,681.247986
653.919983,447.007996,675.392029
657.823975,456.768005,679.296021
659.776001,445.056000,671.487976
657.823975,439.200012,689.056030
655.872009,448.959991,685.151978
655.872009,450.911987,681.247986
653.919983,447.007996,681.247986
650.015991,448.959991,683.200012
651.968018,450.911987,681.247986
661.728027,452.864014,683.200012
655.872009,454.816010,685.151978
657.823975,452.864014,685.151978
655.872009,452.864014,685.151978
653.919983,452.864014,673.440002
650.015991,462.623993,677.343994
651.968018,452.864014,671.487976
651.968018,450.911987,681.247986
650.015991,447.007996,681.247986
657.823975,458.720001,679.296021
651.968018,460.671997,683.200012
648.064026,462.623993,689.056030
648.064026,458.720001,681.247986
644.159973,458.720001,675.392029
650.015991,462.623993,679.296021
653.919983,466.528015,669.536011
646.112000,468.480011,675.392029
650.015991,462.623993,677.343994
644.159973,458.720001,675.392029
638.304016,456.768005,673.440002
653.919983,468.480011,677.343994
640.255981,466.528015,675.392029
644.159973,460.671997,673.440002
648.064026,458.720001,677.343994
640.255981,466.528015,681.247986
644.159973,464.575989,673.440002
644.159973,456.768005,669.536011
648.064026,464.575989,679.296021
648.064026,472.384003,683.200012
648.064026,460.671997,671.487976
640.255981,464.575989,681.247986
640.255981,464.575989,675.392029
644.159973,468.480011,679.296021
653.919983,462.623993,679.296021
648.064026,470.432007,677.343994
644.159973,464.575989,667.583984
650.015991,468.480011,671.487976
651.968018,462.623993,679.296021
644.159973,472.384003,673.440002
642.208008,456.768005,671.487976
650.015991,462.623993,671.487976
640.255981,464.575989,673.440002
644.159973,460.671997,677.343994
648.064026,460.671997,681.247986
648.064026,458.720001,679.296021
648.064026,460.671997,679.296021
648.064026,464.575989,689.056030
651.968018,458.720001,677.343994
650.015991,452.864014,681.247986
655.872009,468.480011,683.200012
661.728027,468.480011,677.343994
657.823975,462.623993,679.296021
657.823975,466.528015,675.392029
665.632019,464.575989,681.247986
661.728027,470.432007,687.104004
651.968018,460.671997,683.200012
659.776001,468.480011,685.151978
659.776001,458.720001,683.200012
663.679993,454.816010,679.296021
655.872009,458.720001,681.247986
661.728027,458.720001,675.392029
665.632019,445.056000,679.296021
661.728027,441.152008,673.440002
673.440002,454.816010,679.296021
669.536011,454.816010,692.960022
667.583984,450.911987,683.200012
663.679993,448.959991,683.200012
667.583984,452.864014,683.200012
673.440002,443.104004,683.200012
667.583984,445.056000,681.247986
671.487976,464.575989,681.247986
671.487976,454.816010,679.296021
673.440002,443.104004,685.151978
673.440002,447.007996,685.151978
675.392029,447.007996,681.247986
675.392029,447.007996,687.104004
677.343994,452.864014,687.104004
679.296021,458.720001,683.200012
681.247986,441.152008,683.200012
681.247986,450.911987,687.104004
679.296021,443.104004,692.960022
673.440002,441.152008,692.960022
681.247986,437.247986,691.007996
683.200012,429.440002,685.151978
677.343994,437.247986,683.200012
681.247986,452.864014,687.104004
673.440002,445.056000,687.104004
671.487976,447.007996,689.056030
681.247986,450.911987,685.151978
673.440002,445.056000,685.151978
671.487976,443.104004,689.056030
681.247986,447.007996,687.104004
677.343994,450.911987,694.911987
675.392029,448.959991,679.296021
669.536011,437.247986,685.151978
663.679993,448.959991,683.200012
673.440002,441.152008,687.104004
671.487976,437.247986,681.247986
673.440002,443.104004,683.200012
677.343994,441.152008,687.104004
685.151978,439.200012,689.056030
669.536011,447.007996,696.864014
675.392029,447.007996,681.247986
667.583984,437.247986,679.296021
655.872009,447.007996,687.104004
665.632019,443.104004,683.200012
667.583984,447.007996,677.343994
667.583984,437.247986,679.296021
669.536011,439.200012,673.440002
667.583984,445.056000,679.296021
669.536011,437.247986,681.247986
663.679993,441.152008,681.247986
667.583984,448.959991,683.200012
669.536011,435.295990,681.247986
661.728027,443.104004,679.296021
659.776001,441.152008,689.056030
665.632019,435.295990,681.247986
657.823975,439.200012,681.247986
665.632019,441.152008,667.583984
665.632019,447.007996,663.679993
673.440002,445.056000,667.583984
667.583984,447.007996,677.343994
669.536011,433.343994,673.440002
657.823975,450.911987,677.343994
665.632019,441.152008,671.487976
657.823975,445.056000,671.487976
651.968018,454.816010,675.392029
667.583984,447.007996,679.296021
657.823975,441.152008,679.296021
661.728027,447.007996,679.296021
673.440002,443.104004,671.487976
669.536011,441.152008,669.536011
677.343994,445.056000,675.392029
669.536011,462.623993,681.247986
663.679993,447.007996,679.296021
667.583984,445.056000,679.296021
665.632019,441.152008,692.960022
663.679993,441.152008,681.247986
661.728027,450.911987,677.343994
667.583984,443.104004,679.296021
661.728027,447.007996,671.487976
659.776001,445.056000,671.487976
663.679993,433.343994,663.679993
655.872009,429.440002,665.632019
661.728027,437.247986,669.536011
661.728027,433.343994,669.536011
655.872009,429.440002,671.487976
651.968018,425.536011,669.536011
648.064026,437.247986,669.536011
648.064026,425.536011,669.536011
657.823975,439.200012,677.343994
661.728027,439.200012,663.679993
665.632019,439.200012,673.440002
661.728027,443.104004,675.392029
655.872009,427.488007,675.392029
659.776001,437.247986,681.247986
655.872009,437.247986,671.487976
655.872009,431.391998,673.440002
651.968018,439.200012,685.151978
657.823975,441.152008,679.296021
657.823975,441.152008,675.392029
657.823975,433.343994,681.247986
659.776001,435.295990,681.247986
665.632019,433.343994,667.583984
651.968018,435.295990,679.296021
655.872009,439.200012,681.247986
655.872009,427.488007,667.583984
655.872009,421.631989,679.296021
651.968018,429.440002,679.296021
657.823975,427.488007,675.392029
653.919983,433.343994,681.247986
657.823975,433.343994,687.104004
646.112000,421.631989,685.151978
651.968018,431.391998,685.151978
646.112000,429.440002,683.200012
644.159973,421.631989,687.104004
650.015991,423.584015,685.151978
653.919983,421.631989,685.151978
651.968018,435.295990,681.247986
636.351990,429.440002,675.392029
642.208008,437.247986,677.343994
650.015991,431.391998,669.536011
636.351990,433.343994,675.392029
636.351990,423.584015,681.247986
630.495972,423.584015,677.343994
632.447998,421.631989,667.583984
638.304016,419.679993,665.632019
628.544006,413.824005,675.392029
638.304016,417.727997,667.583984
638.304016,413.824005,671.487976
632.447998,415.776001,681.247986
648.064026,406.015991,675.392029
634.400024,400.160004,687.104004
634.400024,404.063995,679.296021
632.447998,406.015991,681.247986
646.112000,417.727997,671.487976
650.015991,411.872009,679.296021
644.159973,419.679993,679.296021
653.919983,411.872009,675.392029
644.159973,409.920013,675.392029
642.208008,419.679993,673.440002
632.447998,419.679993,677.343994
648.064026,419.679993,671.487976
642.208008,415.776001,679.296021
650.015991,407.967987,681.247986
648.064026,409.920013,679.296021
640.255981,419.679993,671.487976
640.255981,409.920013,671.487976
650.015991,406.015991,671.487976
644.159973,411.872009,685.151978
642.208008,409.920013,677.343994
646.112000,423.584015,675.392029
653.919983,417.727997,681.247986
648.064026,423.584015,675.392029
644.159973,409.920013,681.247986
650.015991,423.584015,675.392029
644.159973,421.631989,671.487976
646.112000,417.727997,677.343994
646.112000,431.391998,679.296021
642.208008,419.679993,681.247986
648.064026,423.584015,673.440002
640.255981,425.536011,669.536011
648.064026,425.536011,677.343994
646.112000,425.536011,673.440002
636.351990,425.536011,675.392029
636.351990,425.536011,677.343994
638.304016,411.872009,675.392029
638.304016,423.584015,683.200012
636.351990,423.584015,679.296021
636.351990,417.727997,677.343994
636.351990,413.824005,687.104004
636.351990,421.631989,700.768005
646.112000,415.776001,696.864014
650.015991,406.015991,702.719971
646.112000,415.776001,698.815979
646.112000,423.584015,698.815979
636.351990,417.727997,691.007996
638.304016,413.824005,691.007996
642.208008,423.584015,685.151978
646.112000,427.488007,691.007996
636.351990,437.247986,685.151978
638.304016,425.536011,681.247986
634.400024,433.343994,679.296021
636.351990,439.200012,663.679993
634.400024,431.391998,677.343994
634.400024,413.824005,669.536011
624.640015,406.015991,667.583984
638.304016,413.824005,657.823975
642.208008,437.247986,651.968018
626.591980,427.488007,651.968018
628.544006,411.872009,661.728027
634.400024,407.967987,659.776001
632.447998,417.727997,651.968018
628.544006,433.343994,653.919983
630.495972,433.343994,669.536011
620.736023,437.247986,659.776001
628.544006,445.056000,661.728027
618.783997,448.959991,651.968018
632.447998,450.911987,651.968018
632.447998,450.911987,651.968018
622.687988,458.720001,650.015991
628.544006,464.575989,653.919983
626.591980,470.432007,651.968018
626.591980,464.575989,646.112000
622.687988,466.528015,634.400024
624.640015,460.671997,634.400024
614.880005,454.816010,632.447998
616.831970,445.056000,630.495972
618.783997,450.911987,624.640015
622.687988,439.200012,630.495972
624.640015,435.295990,628.544006
614.880005,433.343994,622.687988
624.640015,429.440002,628.544006
616.831970,429.440002,626.591980
620.736023,429.440002,620.736023
614.880005,443.104004,632.447998
620.736023,437.247986,632.447998
614.880005,443.104004,630.495972
620.736023,435.295990,638.304016
620.736023,429.440002,640.255981
622.687988,435.295990,634.400024
620.736023,437.247986,634.400024
616.831970,437.247986,638.304016
616.831970,429.440002,640.255981
622.687988,441.152008,644.159973
624.640015,445.056000,648.064026
622.687988,441.152008,630.495972
622.687988,454.816010,638.304016
622.687988,435.295990,638.304016
620.736023,439.200012,646.112000
630.495972,437.247986,636.351990
626.591980,425.536011,636.351990
630.495972,429.440002,632.447998
628.544006,437.247986,634.400024
628.544006,439.200012,628.544006
632.447998,443.104004,626.591980
632.447998,435.295990,638.304016
632.447998,429.440002,638.304016
628.544006,439.200012,628.544006
636.351990,439.200012,632.447998
638.304016,441.152008,634.400024
640.255981,433.343994,636.351990
642.208008,435.295990,642.208008
640.255981,433.343994,644.159973
648.064026,433.343994,648.064026
648.064026,439.200012,648.064026
651.968018,443.104004,644.159973
648.064026,439.200012,651.968018
657.823975,443.104004,661.728027
650.015991,445.056000,655.872009
653.919983,443.104004,663.679993
655.872009,447.007996,675.392029
651.968018,435.295990,667.583984
659.776001,447.007996,671.487976
651.968018,443.104004,663.679993
659.776001,443.104004,663.679993
663.679993,435.295990,661.728027
665.632019,441.152008,671.487976
665.632019,441.152008,665.632019
657.823975,427.488007,659.776001
665.632019,435.295990,669.536011
653.919983,435.295990,665.632019
651.968018,429.440002,657.823975
648.064026,431.391998,659.776001
653.919983,429.440002,661.728027
657.823975,439.200012,651.968018
657.823975,429.440002,653.919983
651.968018,431.391998,657.823975
653.919983,431.391998,665.632019
644.159973,429.440002,665.632019
646.112000,427.488007,653.919983
640.255981,445.056000,663.679993
648.064026,435.295990,659.776001
646.112000,423.584015,661.728027
644.159973,435.295990,653.919983
640.255981,439.200012,657.823975
634.400024,431.391998,657.823975
636.351990,433.343994,661.728027
634.400024,427.488007,665.632019
630.495972,429.440002,661.728027
626.591980,431.391998,659.776001
634.400024,431.391998,661.728027
626.591980,425.536011,665.632019
632.447998,421.631989,659.776001
628.544006,427.488007,648.064026
628.544006,431.391998,657.823975
616.831970,429.440002,657.823975
614.880005,425.536011,661.728027
618.783997,425.536011,665.632019
616.831970,433.343994,651.968018
609.023987,421.631989,653.919983
605.119995,423.584015,651.968018
609.023987,417.727997,640.255981
607.072021,421.631989,640.255981
603.168030,421.631989,636.351990
597.312012,417.727997,636.351990
599.263977,419.679993,628.544006
603.168030,425.536011,630.495972
589.504028,427.488007,626.591980
591.455994,427.488007,616.831970
593.408020,429.440002,616.831970
591.455994,415.776001,618.783997
589.504028,411.872009,612.927979
593.408020,406.015991,607.072021
587.552002,411.872009,609.023987
581.695984,404.063995,609.023987
581.695984,404.063995,605.119995
575.840027,407.967987,599.263977
579.744019,407.967987,599.263977
587.552002,404.063995,589.504028
577.791992,402.112000,597.312012
579.744019,398.208008,601.216003
577.791992,404.063995,587.552002
571.935974,386.496002,585.599976
573.888000,394.303986,593.408020
577.791992,394.303986,599.263977
583.648010,400.160004,593.408020
573.888000,394.303986,589.504028
575.840027,404.063995,589.504028
587.552002,390.399994,585.599976
579.744019,386.496002,581.695984
577.791992,386.496002,589.504028
575.840027,384.544006,577.791992
571.935974,380.640015,581.695984
566.080017,378.687988,575.840027
573.888000,376.735992,581.695984
573.888000,376.735992,581.695984
581.695984,370.880005,577.791992
587.552002,372.832001,579.744019
581.695984,366.976013,583.648010
577.791992,361.119995,587.552002
583.648010,335.743988,591.455994
575.840027,343.552002,597.312012
585.599976,327.936005,595.359985
593.408020,318.175995,603.168030
591.455994,322.079987,593.408020
597.312012,318.175995,601.216003
595.359985,318.175995,601.216003
593.408020,322.079987,599.263977
595.359985,316.223999,603.168030
597.312012,322.079987,601.216003
595.359985,322.079987,609.023987
603.168030,314.272003,603.168030
595.359985,325.984009,599.263977
597.312012,327.936005,605.119995
599.263977,335.743988,609.023987
589.504028,333.791992,616.831970
591.455994,329.888000,614.880005
595.359985,337.696014,618.783997
595.359985,345.503998,620.736023
603.168030,337.696014,622.687988
603.168030,331.839996,632.447998
609.023987,335.743988,624.640015
607.072021,335.743988,626.591980
612.927979,331.839996,638.304016
605.119995,337.696014,642.208008
599.263977,341.600006,634.400024
599.263977,337.696014,640.255981
593.408020,335.743988,638.304016
599.263977,325.984009,644.159973
601.216003,327.936005,638.304016
605.119995,327.936005,634.400024
607.072021,327.936005,628.544006
603.168030,337.696014,630.495972
595.359985,333.791992,624.640015
593.408020,327.936005,622.687988
607.072021,324.032013,626.591980
599.263977,329.888000,622.687988
607.072021,327.936005,638.304016
599.263977,324.032013,622.687988
599.263977,318.175995,634.400024
597.312012,322.079987,634.400024
597.312012,316.223999,634.400024
603.168030,322.079987,634.400024
603.168030,316.223999,634.400024
601.216003,316.223999,630.495972
607.072021,320.127991,634.400024
603.168030,320.127991,638.304016
605.119995,316.223999,640.255981
609.023987,320.127991,642.208008
610.976013,318.175995,648.064026
607.072021,316.223999,646.112000
610.976013,329.888000,653.919983
620.736023,316.223999,650.015991
616.831970,308.415985,648.064026
610.976013,298.656006,653.919983
616.831970,304.511993,653.919983
622.687988,310.368011,657.823975
620.736023,302.559998,651.968018
614.880005,310.368011,650.015991
618.783997,294.752014,651.968018
612.927979,292.799988,655.872009
620.736023,314.272003,659.776001
626.591980,304.511993,655.872009
626.591980,302.559998,651.968018
618.783997,296.704010,661.728027
618.783997,306.463989,659.776001
624.640015,302.559998,663.679993
630.495972,298.656006,651.968018
632.447998,292.799988,659.776001
626.591980,308.415985,653.919983
624.640015,302.559998,659.776001
634.400024,300.608002,655.872009
632.447998,314.272003,663.679993
620.736023,298.656006,655.872009
626.591980,302.559998,648.064026
632.447998,290.847992,657.823975
630.495972,304.511993,661.728027
626.591980,306.463989,657.823975
632.447998,304.511993,661.728027
632.447998,306.463989,653.919983
630.495972,296.704010,650.015991
632.447998,302.559998,650.015991
628.544006,310.368011,650.015991
630.495972,288.895996,659.776001
628.544006,300.608002,650.015991
634.400024,294.752014,636.351990
634.400024,281.088013,650.015991
628.544006,290.847992,640.255981
624.640015,284.992004,642.208008
626.591980,283.040009,644.159973
634.400024,281.088013,651.968018
626.591980,283.040009,646.112000
632.447998,286.944000,648.064026
626.591980,281.088013,636.351990
626.591980,290.847992,640.255981
630.495972,279.135986,640.255981
630.495972,298.656006,653.919983
632.447998,283.040009,642.208008
634.400024,286.944000,650.015991
632.447998,284.992004,642.208008
638.304016,284.992004,640.255981
634.400024,284.992004,642.208008
636.351990,283.040009,644.159973
642.208008,290.847992,648.064026
630.495972,277.183990,650.015991
640.255981,275.231995,653.919983
636.351990,281.088013,642.208008
646.112000,279.135986,651.968018
646.112000,277.183990,653.919983
644.159973,271.328003,653.919983
648.064026,279.135986,648.064026
650.015991,286.944000,644.159973
650.015991,275.231995,646.112000
650.015991,284.992004,644.159973
653.919983,277.183990,655.872009
659.776001,279.135986,651.968018
659.776001,277.183990,648.064026
659.776001,279.135986,650.015991
663.679993,279.135986,651.968018
655.872009,277.183990,651.968018
659.776001,281.088013,651.968018
667.583984,286.944000,657.823975
667.583984,283.040009,661.728027
669.536011,281.088013,655.872009
661.728027,277.183990,659.776001
661.728027,294.752014,657.823975
663.679993,292.799988,659.776001
667.583984,292.799988,653.919983
665.632019,296.704010,665.632019
667.583984,284.992004,659.776001
663.679993,290.847992,661.728027
669.536011,284.992004,665.632019
663.679993,288.895996,659.776001
663.679993,281.088013,653.919983
667.583984,292.799988,657.823975
665.632019,296.704010,659.776001
669.536011,294.752014,657.823975
675.392029,294.752014,657.823975
665.632019,298.656006,653.919983
667.583984,298.656006,657.823975
663.679993,298.656006,659.776001
667.583984,292.799988,659.776001
673.440002,288.895996,657.823975
673.440002,292.799988,657.823975
673.440002,298.656006,665.632019
665.632019,294.752014,657.823975
669.536011,292.799988,659.776001
669.536011,304.511993,651.968018
661.728027,298.656006,651.968018
667.583984,298.656006,653.919983
671.487976,310.368011,655.872009
675.392029,300.608002,650.015991
671.487976,312.320007,651.968018
679.296021,304.511993,648.064026
677.343994,304.511993,648.064026
671.487976,306.463989,650.015991
677.343994,312.320007,655.872009
681.247986,316.223999,657.823975
677.343994,314.272003,651.968018
675.392029,316.223999,648.064026
679.296021,308.415985,648.064026
689.056030,304.511993,651.968018
689.056030,314.272003,648.064026
681.247986,322.079987,650.015991
681.247986,322.079987,651.968018
692.960022,320.127991,655.872009
687.104004,320.127991,651.968018
687.104004,324.032013,657.823975
691.007996,331.839996,663.679993
689.056030,329.888000,661.728027
700.768005,329.888000,655.872009
700.768005,333.791992,661.728027
700.768005,337.696014,655.872009
700.768005,331.839996,661.728027
698.815979,333.791992,655.872009
696.864014,327.936005,659.776001
700.768005,329.888000,659.776001
700.768005,327.936005,661.728027
712.479980,333.791992,653.919983
704.671997,333.791992,653.919983
704.671997,333.791992,655.872009
702.719971,331.839996,655.872009
708.575989,337.696014,655.872009
712.479980,331.839996,665.632019
714.432007,333.791992,655.872009
712.479980,337.696014,665.632019
724.192017,333.791992,655.872009
716.383972,327.936005,653.919983
724.192017,331.839996,665.632019
720.288025,327.936005,657.823975
722.239990,324.032013,669.536011
722.239990,333.791992,665.632019
722.239990,327.936005,671.487976
726.143982,339.648010,663.679993
724.192017,333.791992,663.679993
722.239990,325.984009,667.583984
733.952026,327.936005,669.536011
732.000000,327.936005,665.632019
730.047974,333.791992,673.440002
739.807983,329.888000,663.679993
732.000000,335.743988,661.728027
728.096008,316.223999,669.536011
722.239990,325.984009,661.728027
730.047974,333.791992,665.632019
726.143982,333.791992,661.728027
728.096008,327.936005,657.823975
728.096008,320.127991,659.776001
726.143982,333.791992,655.872009
724.192017,324.032013,655.872009
730.047974,324.032013,653.919983
735.903992,324.032013,657.823975
722.239990,325.984009,661.728027
735.903992,327.936005,650.015991
735.903992,322.079987,657.823975
732.000000,331.839996,653.919983
724.192017,325.984009,659.776001
733.952026,325.984009,665.632019
735.903992,322.079987,655.872009
728.096008,335.743988,659.776001
728.096008,341.600006,653.919983
728.096008,333.791992,659.776001
730.047974,327.936005,650.015991
737.856018,322.079987,651.968018
724.192017,327.936005,648.064026
718.335999,327.936005,657.823975
720.288025,329.888000,661.728027
730.047974,322.079987,651.968018
730.047974,318.175995,650.015991
730.047974,324.032013,665.632019
732.000000,325.984009,657.823975
726.143982,325.984009,659.776001
728.096008,325.984009,659.776001
732.000000,327.936005,659.776001
739.807983,322.079987,661.728027
735.903992,324.032013,657.823975
733.952026,324.032013,667.583984
735.903992,327.936005,661.728027
733.952026,327.936005,665.632019
741.760010,318.175995,671.487976
730.047974,337.696014,669.536011
722.239990,329.888000,663.679993
735.903992,325.984009,663.679993
728.096008,320.127991,677.343994
722.239990,325.984009,669.536011
722.239990,316.223999,677.343994
733.952026,316.223999,671.487976
726.143982,325.984009,665.632019
728.096008,320.127991,667.583984
728.096008,316.223999,671.487976
728.096008,316.223999,669.536011
728.096008,320.127991,665.632019
726.143982,316.223999,669.536011
710.528015,312.320007,667.583984
724.192017,308.415985,671.487976
724.192017,322.079987,663.679993
720.288025,322.079987,661.728027
722.239990,322.079987,659.776001
718.335999,308.415985,669.536011
726.143982,314.272003,663.679993
722.239990,325.984009,665.632019
730.047974,316.223999,661.728027
726.143982,316.223999,663.679993
720.288025,320.127991,655.872009
714.432007,325.984009,661.728027
718.335999,324.032013,659.776001
718.335999,324.032013,659.776001
704.671997,329.888000,653.919983
706.624023,329.888000,657.823975
710.528015,333.791992,651.968018
708.575989,327.936005,646.112000
706.624023,331.839996,640.255981
706.624023,339.648010,634.400024
712.479980,333.791992,626.591980
712.479980,333.791992,626.591980
710.528015,345.503998,616.831970
696.864014,335.743988,622.687988
698.815979,339.648010,624.640015
702.719971,339.648010,620.736023
700.768005,337.696014,622.687988
702.719971,335.743988,616.831970
712.479980,327.936005,618.783997
698.815979,333.791992,614.880005
696.864014,335.743988,603.168030
702.719971,335.743988,605.119995
704.671997,331.839996,610.976013
694.911987,345.503998,609.023987
694.911987,329.888000,620.736023
698.815979,331.839996,618.783997
712.479980,325.984009,612.927979
708.575989,341.600006,620.736023
712.479980,327.936005,612.927979
710.528015,329.888000,610.976013
710.528015,341.600006,622.687988
712.479980,327.936005,616.831970
716.383972,329.888000,609.023987
710.528015,316.223999,614.880005
710.528015,333.791992,626.591980
714.432007,322.079987,622.687988
710.528015,333.791992,624.640015
718.335999,327.936005,626.591980
714.432007,320.127991,632.447998
724.192017,324.032013,628.544006
716.383972,324.032013,632.447998
720.288025,324.032013,644.159973
728.096008,324.032013,644.159973
722.239990,316.223999,646.112000
726.143982,322.079987,648.064026
726.143982,318.175995,657.823975
728.096008,318.175995,653.919983
728.096008,318.175995,650.015991
730.047974,312.320007,651.968018
728.096008,312.320007,661.728027
737.856018,312.320007,657.823975
732.000000,312.320007,650.015991
732.000000,318.175995,659.776001
728.096008,312.320007,650.015991
732.000000,314.272003,663.679993
735.903992,325.984009,653.919983
743.711975,316.223999,657.823975
743.711975,322.079987,661.728027
739.807983,318.175995,653.919983
733.952026,320.127991,665.632019
743.711975,322.079987,661.728027
737.856018,314.272003,663.679993
741.760010,314.272003,657.823975
741.760010,318.175995,663.679993
745.664001,325.984009,669.536011
737.856018,318.175995,665.632019
737.856018,320.127991,655.872009
733.952026,322.079987,663.679993
743.711975,314.272003,663.679993
741.760010,314.272003,677.343994
741.760010,320.127991,671.487976
741.760010,318.175995,667.583984
743.711975,320.127991,661.728027
739.807983,322.079987,661.728027
739.807983,318.175995,661.728027
739.807983,322.079987,665.632019
741.760010,322.079987,663.679993
747.616028,318.175995,671.487976
745.664001,324.032013,663.679993
741.760010,324.032013,669.536011
741.760010,318.175995,667.583984
733.952026,322.079987,671.487976
739.807983,329.888000,673.440002
735.903992,312.320007,669.536011
732.000000,325.984009,669.536011
728.096008,325.984009,667.583984
730.047974,316.223999,669.536011
732.000000,327.936005,667.583984
726.143982,316.223999,673.440002
728.096008,316.223999,677.343994
726.143982,329.888000,679.296021
720.288025,314.272003,679.296021
714.432007,312.320007,673.440002
710.528015,314.272003,683.200012
710.528015,314.272003,683.200012
708.575989,314.272003,685.151978
704.671997,320.127991,689.056030
714.432007,320.127991,683.200012
712.479980,325.984009,692.960022
710.528015,304.511993,689.056030
694.911987,308.415985,694.911987
698.815979,316.223999,694.911987
700.768005,312.320007,687.104004
694.911987,314.272003,692.960022
692.960022,318.175995,687.104004
689.056030,314.272003,689.056030
689.056030,318.175995,685.151978
683.200012,324.032013,683.200012
689.056030,316.223999,677.343994
681.247986,322.079987,685.151978
675.392029,327.936005,675.392029
675.392029,333.791992,669.536011
673.440002,327.936005,665.632019
681.247986,331.839996,667.583984
663.679993,339.648010,663.679993
667.583984,337.696014,671.487976
669.536011,324.032013,665.632019
667.583984,335.743988,669.536011
667.583984,337.696014,673.440002
659.776001,337.696014,655.872009
665.632019,329.888000,661.728027
657.823975,325.984009,669.536011
657.823975,335.743988,665.632019
661.728027,331.839996,651.968018
657.823975,341.600006,657.823975
665.632019,335.743988,653.919983
655.872009,335.743988,653.919983
651.968018,345.503998,650.015991
655.872009,339.648010,648.064026
651.968018,339.648010,646.112000
663.679993,337.696014,648.064026
661.728027,343.552002,640.255981
653.919983,343.552002,634.400024
648.064026,341.600006,628.544006
646.112000,343.552002,620.736023
648.064026,361.119995,624.640015
650.015991,359.167999,622.687988
648.064026,353.312012,612.927979
636.351990,361.119995,614.880005
650.015991,357.216003,612.927979
648.064026,361.119995,609.023987
648.064026,359.167999,614.880005
650.015991,359.167999,612.927979
646.112000,351.359985,610.976013
646.112000,355.264008,610.976013
646.112000,357.216003,605.119995
648.064026,351.359985,605.119995
644.159973,347.455994,614.880005
650.015991,347.455994,618.783997
657.823975,345.503998,620.736023
648.064026,339.648010,622.687988
648.064026,339.648010,620.736023
653.919983,343.552002,634.400024
653.919983,347.455994,630.495972
651.968018,339.648010,634.400024
659.776001,349.407990,642.208008
661.728027,339.648010,640.255981
659.776001,353.312012,634.400024
661.728027,351.359985,651.968018
667.583984,343.552002,648.064026
665.632019,349.407990,644.159973
665.632019,351.359985,653.919983
667.583984,351.359985,657.823975
669.536011,355.264008,657.823975
667.583984,351.359985,659.776001
669.536011,353.312012,667.583984
671.487976,355.264008,665.632019
669.536011,359.167999,669.536011
681.247986,363.071991,671.487976
679.296021,353.312012,671.487976
692.960022,359.167999,685.151978
685.151978,353.312012,681.247986
685.151978,351.359985,681.247986
692.960022,357.216003,692.960022
689.056030,345.503998,689.056030
696.864014,347.455994,691.007996
696.864014,355.264008,698.815979
691.007996,355.264008,700.768005
691.007996,355.264008,694.911987
696.864014,363.071991,712.479980
700.768005,357.216003,708.575989
696.864014,359.167999,708.575989
692.960022,355.264008,704.671997
700.768005,361.119995,708.575989
700.768005,363.071991,710.528015
696.864014,363.071991,714.432007
696.864014,361.119995,714.432007
694.911987,363.071991,724.192017
694.911987,357.216003,714.432007
698.815979,361.119995,718.335999
698.815979,357.216003,720.288025
704.671997,370.880005,720.288025
702.719971,357.216003,728.096008
698.815979,370.880005,737.856018
702.719971,357.216003,726.143982
696.864014,359.167999,732.000000
694.911987,365.023987,726.143982
694.911987,361.119995,733.952026
687.104004,366.976013,730.047974
694.911987,361.119995,733.952026
700.768005,353.312012,733.952026
700.768005,357.216003,733.952026
692.960022,368.928009,739.807983
694.911987,365.023987,726.143982
692.960022,363.071991,739.807983
696.864014,363.071991,737.856018
692.960022,368.928009,741.760010
691.007996,359.167999,751.520020
691.007996,359.167999,739.807983
696.864014,361.119995,733.952026
692.960022,368.928009,726.143982
681.247986,363.071991,728.096008
692.960022,365.023987,732.000000
691.007996,359.167999,730.047974
694.911987,365.023987,733.952026
687.104004,365.023987,743.711975
679.296021,370.880005,741.760010
689.056030,365.023987,741.760010
687.104004,359.167999,735.903992
691.007996,365.023987,733.952026
687.104004,368.928009,739.807983
691.007996,363.071991,743.711975
689.056030,372.832001,739.807983
679.296021,368.928009,745.664001
691.007996,366.976013,741.760010
679.296021,366.976013,745.664001
679.296021,366.976013,741.760010
689.056030,365.023987,747.616028
689.056030,370.880005,747.616028
687.104004,366.976013,763.231995
683.200012,365.023987,745.664001
694.911987,355.264008,749.567993
692.960022,363.071991,747.616028
683.200012,365.023987,751.520020
691.007996,365.023987,753.471985
691.007996,361.119995,755.424011
681.247986,355.264008,755.424011
689.056030,365.023987,751.520020
689.056030,365.023987,741.760010
696.864014,363.071991,751.520020
689.056030,357.216003,753.471985
694.911987,359.167999,757.375977
696.864014,361.119995,749.567993
696.864014,359.167999,759.328003
702.719971,359.167999,763.231995
708.575989,365.023987,753.471985
702.719971,359.167999,763.231995
710.528015,366.976013,772.992004
706.624023,361.119995,772.992004
722.239990,363.071991,774.943970
718.335999,357.216003,772.992004
718.335999,353.312012,780.799988
714.432007,353.312012,778.848022
726.143982,349.407990,776.895996
724.192017,351.359985,776.895996
726.143982,355.264008,771.039978
732.000000,349.407990,780.799988
730.047974,343.552002,784.703979
735.903992,339.648010,792.512024
733.952026,343.552002,782.752014
737.856018,333.791992,790.559998
743.711975,337.696014,790.559998
743.711975,331.839996,796.416016
747.616028,341.600006,802.271973
747.616028,343.552002,796.416016
745.664001,343.552002,800.320007
743.711975,347.455994,813.984009
741.760010,343.552002,812.031982
737.856018,347.455994,812.031982
726.143982,349.407990,804.223999
735.903992,357.216003,815.935974
732.000000,359.167999,823.744019
733.952026,359.167999,819.840027
743.711975,349.407990,819.840027
743.711975,351.359985,815.935974
732.000000,359.167999,821.791992
733.952026,357.216003,821.791992
732.000000,361.119995,812.031982
735.903992,363.071991,813.984009
718.335999,366.976013,800.320007
718.335999,372.832001,802.271973
714.432007,368.928009,804.223999
724.192017,357.216003,808.127991
718.335999,357.216003,806.176025
712.479980,365.023987,806.176025
708.575989,355.264008,806.176025
708.575989,355.264008,802.271973
698.815979,353.312012,802.271973
702.719971,353.312012,790.559998
696.864014,363.071991,786.656006
687.104004,357.216003,780.799988
683.200012,355.264008,788.607971
677.343994,359.167999,784.703979
677.343994,351.359985,788.607971
685.151978,353.312012,778.848022
673.440002,355.264008,774.943970
651.968018,365.023987,778.848022
653.919983,351.359985,769.088013
648.064026,345.503998,772.992004
644.159973,349.407990,759.328003
632.447998,355.264008,765.184021
638.304016,357.216003,759.328003
634.400024,347.455994,755.424011
620.736023,349.407990,755.424011
626.591980,343.552002,755.424011
622.687988,347.455994,755.424011
622.687988,357.216003,747.616028
605.119995,349.407990,739.807983
610.976013,357.216003,743.711975
597.312012,357.216003,741.760010
595.359985,366.976013,739.807983
577.791992,361.119995,743.711975
583.648010,345.503998,739.807983
573.888000,286.944000,728.096008
573.888000,290.847992,702.719971
571.935974,439.200012,681.247986
568.031982,538.752014,657.823975
571.935974,489.951996,632.447998
560.223999,404.063995,607.072021
560.223999,458.720001,603.168030
542.656006,534.848022,579.744019
538.752014,497.760010,573.888000
536.799988,443.104004,568.031982
544.607971,470.432007,558.271973
530.943970,515.328003,564.127991
534.848022,478.239990,566.080017
540.703979,400.160004,585.599976
527.039978,374.783997,605.119995
534.848022,400.160004,618.783997
534.848022,384.544006,630.495972
525.088013,329.888000,636.351990
527.039978,302.559998,657.823975
525.088013,312.320007,673.440002
525.088013,320.127991,683.200012
519.231995,290.847992,677.343994
511.424011,271.328003,673.440002
511.424011,290.847992,673.440002
509.471985,284.992004,665.632019
511.424011,275.231995,663.679993
499.712006,267.424011,659.776001
513.375977,281.088013,655.872009
517.280029,286.944000,651.968018
505.567993,263.519989,648.064026
509.471985,275.231995,655.872009
517.280029,261.567993,657.823975
505.567993,251.807999,661.728027
513.375977,265.471985,665.632019
513.375977,255.712006,671.487976
513.375977,249.856003,683.200012
515.328003,247.904007,687.104004
509.471985,265.471985,691.007996
511.424011,261.567993,708.575989
509.471985,283.040009,702.719971
511.424011,288.895996,716.383972
505.567993,312.320007,726.143982
511.424011,324.032013,722.239990
507.519989,345.503998,730.047974
507.519989,357.216003,741.760010
497.760010,351.359985,743.711975
507.519989,363.071991,751.520020
515.328003,361.119995,743.711975
509.471985,363.071991,747.616028
511.424011,355.264008,749.567993
501.664001,324.032013,757.375977
503.615997,316.223999,761.280029
503.615997,312.320007,761.280029
501.664001,304.511993,757.375977
501.664001,286.944000,757.375977
501.664001,284.992004,763.231995
488.000000,263.519989,755.424011
482.144012,267.424011,743.711975
478.239990,267.424011,733.952026
474.335999,269.376007,720.288025
468.480011,279.135986,710.528015
462.623993,283.040009,708.575989
458.720001,294.752014,694.911987
458.720001,288.895996,692.960022
454.816010,296.704010,692.960022
447.007996,300.608002,692.960022
450.911987,310.368011,694.911987
448.959991,316.223999,691.007996
454.816010,310.368011,696.864014
454.816010,316.223999,712.479980
443.104004,298.656006,722.239990
441.152008,318.175995,732.000000
450.911987,306.463989,737.856018
448.959991,300.608002,737.856018
454.816010,286.944000,747.616028
450.911987,277.183990,763.231995
441.152008,284.992004,759.328003
447.007996,283.040009,755.424011
441.152008,284.992004,753.471985
441.152008,279.135986,747.616028
437.247986,288.895996,735.903992
435.295990,284.992004,743.711975
421.631989,294.752014,728.096008
423.584015,292.799988,724.192017
419.679993,300.608002,714.432007
415.776001,318.175995,710.528015
407.967987,304.511993,716.383972
406.015991,304.511993,698.815979
411.872009,298.656006,700.768005
402.112000,298.656006,694.911987
398.208008,286.944000,702.719971
398.208008,294.752014,704.671997
398.208008,298.656006,702.719971
400.160004,294.752014,712.479980
394.303986,281.088013,718.335999
390.399994,283.040009,714.432007
392.351990,288.895996,716.383972
390.399994,283.040009,714.432007
384.544006,281.088013,718.335999
380.640015,283.040009,724.192017
380.640015,281.088013,722.239990
370.880005,308.415985,710.528015
370.880005,308.415985,714.432007
370.880005,306.463989,698.815979
366.976013,306.463989,704.671997
361.119995,316.223999,698.815979
357.216003,318.175995,691.007996
361.119995,318.175995,689.056030
365.023987,314.272003,691.007996
355.264008,316.223999,687.104004
349.407990,312.320007,691.007996
345.503998,316.223999,689.056030
351.359985,310.368011,691.007996
343.552002,310.368011,696.864014
353.312012,304.511993,696.864014
351.359985,304.511993,700.768005
351.359985,302.559998,700.768005
359.167999,314.272003,702.719971
361.119995,296.704010,694.911987
353.312012,298.656006,692.960022
351.359985,308.415985,691.007996
353.312012,329.888000,691.007996
349.407990,316.223999,689.056030
361.119995,314.272003,692.960022
353.312012,333.791992,691.007996
351.359985,339.648010,687.104004
363.071991,322.079987,687.104004
357.216003,341.600006,689.056030
351.359985,339.648010,683.200012
359.167999,335.743988,683.200012
365.023987,337.696014,685.151978
359.167999,341.600006,681.247986
368.928009,331.839996,679.296021
376.735992,333.791992,679.296021
372.832001,345.503998,683.200012
370.880005,339.648010,677.343994
368.928009,333.791992,681.247986
378.687988,335.743988,679.296021
378.687988,333.791992,685.151978
380.640015,343.552002,691.007996
378.687988,355.264008,687.104004
386.496002,349.407990,683.200012
382.592010,349.407990,677.343994
388.447998,349.407990,683.200012
380.640015,359.167999,681.247986
382.592010,361.119995,683.200012
396.256012,368.928009,687.104004
400.160004,370.880005,689.056030
404.063995,370.880005,675.392029
404.063995,374.783997,673.440002
394.303986,382.592010,681.247986
394.303986,374.783997,669.536011
400.160004,378.687988,675.392029
406.015991,370.880005,669.536011
398.208008,380.640015,661.728027
400.160004,376.735992,657.823975
398.208008,370.880005,659.776001
398.208008,368.928009,661.728027
400.160004,378.687988,655.872009
398.208008,370.880005,651.968018
400.160004,380.640015,657.823975
398.208008,380.640015,663.679993
400.160004,374.783997,657.823975
398.208008,370.880005,657.823975
402.112000,382.592010,644.159973
406.015991,380.640015,651.968018
411.872009,382.592010,646.112000
396.256012,386.496002,636.351990
402.112000,392.351990,632.447998
400.160004,386.496002,644.159973
404.063995,400.160004,634.400024
407.967987,411.872009,642.208008
411.872009,400.160004,638.304016
411.872009,392.351990,626.591980
413.824005,392.351990,636.351990
415.776001,388.447998,624.640015
406.015991,380.640015,622.687988
409.920013,390.399994,628.544006
419.679993,404.063995,618.783997
407.967987,400.160004,618.783997
411.872009,392.351990,614.880005
415.776001,396.256012,609.023987
413.824005,396.256012,601.216003
415.776001,382.592010,603.168030
413.824005,394.303986,597.312012
411.872009,400.160004,597.312012
409.920013,402.112000,591.455994
407.967987,396.256012,589.504028
407.967987,400.160004,589.504028
409.920013,398.208008,585.599976
404.063995,396.256012,585.599976
407.967987,400.160004,583.648010
411.872009,390.399994,585.599976
406.015991,394.303986,575.840027
409.920013,396.256012,577.791992
413.824005,396.256012,569.984009
409.920013,392.351990,575.840027
411.872009,394.303986,577.791992
415.776001,390.399994,573.888000
415.776001,388.447998,571.935974
415.776001,386.496002,566.080017
413.824005,392.351990,564.127991
425.536011,380.640015,566.080017
431.391998,388.447998,560.223999
425.536011,390.399994,558.271973
423.584015,396.256012,542.656006
431.391998,390.399994,556.320007
439.200012,388.447998,548.512024
435.295990,392.351990,552.416016
439.200012,382.592010,544.607971
439.200012,382.592010,548.512024
448.959991,390.399994,542.656006
452.864014,390.399994,538.752014
456.768005,392.351990,530.943970
466.528015,384.544006,538.752014
460.671997,392.351990,536.799988
470.432007,392.351990,536.799988
478.239990,382.592010,536.799988
480.191986,390.399994,546.559998
488.000000,392.351990,546.559998
489.951996,378.687988,554.367981
499.712006,390.399994,562.176025
505.567993,388.447998,568.031982
513.375977,386.496002,566.080017
527.039978,390.399994,587.552002
528.992004,378.687988,593.408020
546.559998,388.447998,605.119995
554.367981,392.351990,610.976013
562.176025,390.399994,630.495972
568.031982,396.256012,638.304016
583.648010,398.208008,651.968018
587.552002,394.303986,665.632019
593.408020,404.063995,671.487976
597.312012,407.967987,691.007996
607.072021,402.112000,694.911987
605.119995,398.208008,700.768005
618.783997,396.256012,714.432007
624.640015,398.208008,722.239990
630.495972,404.063995,728.096008
634.400024,394.303986,724.192017
628.544006,406.015991,718.335999
626.591980,392.351990,726.143982
636.351990,390.399994,728.096008
634.400024,398.208008,718.335999
634.400024,376.735992,710.528015
638.304016,390.399994,696.864014
632.447998,392.351990,689.056030
636.351990,388.447998,679.296021
634.400024,396.256012,663.679993
634.400024,390.399994,659.776001
632.447998,394.303986,651.968018
638.304016,390.399994,646.112000
628.544006,388.447998,630.495972
632.447998,384.544006,630.495972
636.351990,386.496002,628.544006
642.208008,374.783997,624.640015
646.112000,378.687988,634.400024
648.064026,372.832001,634.400024
650.015991,368.928009,634.400024
651.968018,368.928009,642.208008
665.632019,365.023987,640.255981
663.679993,370.880005,644.159973
663.679993,363.071991,640.255981
663.679993,361.119995,648.064026
677.343994,368.928009,655.872009
669.536011,359.167999,673.440002
675.392029,368.928009,671.487976
685.151978,365.023987,685.151978
689.056030,359.167999,679.296021
685.151978,365.023987,685.151978
692.960022,366.976013,692.960022
685.151978,359.167999,687.104004
692.960022,359.167999,689.056030
687.104004,359.167999,687.104004
683.200012,349.407990,692.960022
685.151978,357.216003,692.960022
681.247986,347.455994,681.247986
681.247986,343.552002,677.343994
679.296021,337.696014,671.487976
675.392029,337.696014,665.632019
675.392029,329.888000,659.776001
675.392029,331.839996,659.776001
673.440002,324.032013,657.823975
671.487976,331.839996,650.015991
679.296021,320.127991,650.015991
669.536011,314.272003,640.255981
673.440002,314.272003,644.159973
677.343994,302.559998,653.919983
667.583984,312.320007,651.968018
671.487976,308.415985,657.823975
671.487976,300.608002,651.968018
667.583984,310.368011,651.968018
667.583984,306.463989,667.583984
665.632019,302.559998,665.632019
671.487976,304.511993,663.679993
677.343994,306.463989,683.200012
667.583984,286.944000,677.343994
675.392029,286.944000,689.056030
685.151978,284.992004,683.200012
677.343994,273.279999,685.151978
679.296021,277.183990,687.104004
689.056030,283.040009,691.007996
681.247986,267.424011,691.007996
681.247986,259.615997,687.104004
679.296021,253.759995,683.200012
673.440002,251.807999,683.200012
677.343994,255.712006,673.440002
667.583984,242.048004,673.440002
681.247986,242.048004,669.536011
677.343994,236.192001,673.440002
667.583984,240.095993,667.583984
667.583984,226.432007,659.776001
663.679993,228.384003,651.968018
667.583984,228.384003,657.823975
663.679993,214.720001,655.872009
663.679993,214.720001,655.872009
669.536011,208.863998,659.776001
657.823975,203.007996,659.776001
659.776001,201.056000,665.632019
653.919983,193.248001,667.583984
665.632019,195.199997,659.776001
657.823975,183.488007,659.776001
661.728027,179.584000,663.679993
655.872009,179.584000,673.440002
651.968018,181.535995,667.583984
651.968018,181.535995,677.343994
659.776001,175.679993,685.151978
665.632019,167.871994,665.632019
659.776001,163.968002,671.487976
661.728027,167.871994,689.056030
665.632019,163.968002,679.296021
665.632019,158.112000,689.056030
663.679993,156.160004,689.056030
669.536011,152.255997,683.200012
663.679993,148.352005,692.960022
665.632019,144.447998,692.960022
669.536011,154.207993,692.960022
671.487976,150.304001,692.960022
669.536011,144.447998,687.104004
669.536011,132.735992,691.007996
675.392029,142.496002,691.007996
675.392029,126.879997,700.768005
677.343994,126.879997,696.864014
671.487976,130.783997,694.911987
679.296021,128.832001,696.864014
681.247986,128.832001,687.104004
679.296021,130.783997,700.768005
685.151978,121.024002,704.671997
681.247986,113.216003,708.575989
677.343994,111.264000,706.624023
675.392029,103.456001,712.479980
679.296021,107.360001,714.432007
679.296021,101.503998,702.719971
679.296021,105.407997,704.671997
679.296021,95.648003,710.528015
679.296021,89.792000,714.432007
669.536011,91.744003,712.479980
673.440002,91.744003,710.528015
677.343994,78.080002,722.239990
675.392029,78.080002,718.335999
677.343994,87.839996,712.479980
683.200012,85.888000,708.575989
685.151978,78.080002,706.624023
681.247986,81.984001,702.719971
689.056030,80.031998,694.911987
694.911987,85.888000,698.815979
692.960022,91.744003,689.056030
696.864014,81.984001,685.151978
696.864014,78.080002,683.200012
691.007996,87.839996,681.247986
691.007996,91.744003,675.392029
692.960022,89.792000,663.679993
679.296021,99.552002,663.679993
677.343994,93.695999,655.872009
689.056030,95.648003,651.968018
683.200012,97.599998,648.064026
681.247986,93.695999,638.304016
683.200012,107.360001,632.447998
685.151978,117.120003,620.736023
689.056030,121.024002,616.831970
681.247986,121.024002,614.880005
673.440002,122.975998,612.927979
683.200012,132.735992,605.119995
675.392029,124.928001,607.072021
679.296021,136.639999,601.216003
683.200012,130.783997,601.216003
681.247986,126.879997,605.119995
679.296021,126.879997,595.359985
681.247986,132.735992,591.455994
683.200012,119.071999,585.599976
691.007996,119.071999,587.552002
689.056030,132.735992,581.695984
691.007996,132.735992,581.695984
689.056030,128.832001,579.744019
691.007996,138.591995,569.984009
694.911987,142.496002,564.127991
694.911987,148.352005,569.984009
696.864014,154.207993,560.223999
700.768005,144.447998,560.223999
702.719971,146.399994,548.512024
700.768005,158.112000,550.463989
710.528015,162.016006,550.463989
716.383972,167.871994,550.463989
710.528015,167.871994,550.463989
710.528015,173.727997,546.559998
720.288025,163.968002,538.752014
714.432007,167.871994,542.656006
722.239990,177.632004,548.512024
730.047974,179.584000,536.799988
716.383972,177.632004,540.703979
732.000000,179.584000,548.512024
733.952026,193.248001,542.656006
743.711975,185.440002,552.416016
741.760010,201.056000,550.463989
757.375977,204.960007,554.367981
759.328003,216.671997,558.271973
763.231995,224.479996,571.935974
765.184021,228.384003,575.840027
772.992004,226.432007,579.744019
772.992004,240.095993,577.791992
780.799988,238.143997,583.648010
780.799988,245.951996,599.263977
788.607971,253.759995,601.216003
792.512024,255.712006,610.976013
806.176025,244.000000,607.072021
798.367981,242.048004,599.263977
802.271973,263.519989,609.023987
808.127991,255.712006,610.976013
817.888000,242.048004,610.976013
812.031982,251.807999,612.927979
815.935974,236.192001,607.072021
806.176025,244.000000,603.168030
817.888000,236.192001,595.359985
812.031982,230.335999,595.359985
810.080017,230.335999,587.552002
812.031982,232.287994,587.552002
808.127991,240.095993,585.599976
804.223999,240.095993,587.552002
819.840027,230.335999,585.599976
808.127991,240.095993,585.599976
819.840027,230.335999,589.504028
831.552002,232.287994,585.599976
819.840027,236.192001,585.599976
817.888000,242.048004,599.263977
821.791992,247.904007,599.263977
829.599976,251.807999,607.072021
833.504028,259.615997,603.168030
837.408020,255.712006,607.072021
835.455994,244.000000,616.831970
835.455994,251.807999,622.687988
835.455994,249.856003,634.400024
843.263977,253.759995,620.736023
835.455994,249.856003,636.351990
839.359985,255.712006,642.208008
835.455994,242.048004,646.112000
841.312012,245.951996,646.112000
841.312012,249.856003,634.400024
837.408020,247.904007,640.255981
843.263977,247.904007,634.400024
843.263977,251.807999,636.351990
837.408020,244.000000,634.400024
835.455994,251.807999,628.544006
837.408020,240.095993,620.736023
837.408020,242.048004,618.783997
835.455994,240.095993,614.880005
831.552002,236.192001,616.831970
827.648010,232.287994,614.880005
835.455994,232.287994,610.976013
821.791992,222.528000,603.168030
823.744019,228.384003,603.168030
821.791992,222.528000,607.072021
815.935974,228.384003,597.312012
817.888000,218.623993,595.359985
825.695984,212.768005,599.263977
812.031982,214.720001,601.216003
817.888000,220.576004,605.119995
806.176025,206.912003,603.168030
810.080017,220.576004,593.408020
804.223999,214.720001,595.359985
808.127991,216.671997,585.599976
796.416016,212.768005,593.408020
794.463989,206.912003,591.455994
784.703979,212.768005,589.504028
780.799988,206.912003,583.648010
780.799988,203.007996,579.744019
784.703979,199.104004,579.744019
776.895996,191.296005,566.080017
767.135986,181.535995,564.127991
763.231995,181.535995,562.176025
763.231995,175.679993,560.223999
751.520020,183.488007,560.223999
753.471985,179.584000,552.416016
747.616028,165.919998,556.320007
739.807983,163.968002,542.656006
737.856018,163.968002,542.656006
726.143982,158.112000,548.512024
724.192017,162.016006,552.416016
714.432007,175.679993,544.607971
724.192017,179.584000,538.752014
722.239990,175.679993,538.752014
712.479980,169.824005,536.799988
710.528015,167.871994,536.799988
700.768005,173.727997,542.656006
700.768005,171.776001,538.752014
708.575989,162.016006,538.752014
702.719971,163.968002,540.703979
704.671997,163.968002,530.943970
698.815979,167.871994,540.703979
700.768005,169.824005,534.848022
696.864014,163.968002,538.752014
694.911987,162.016006,528.992004
687.104004,162.016006,523.135986
692.960022,165.919998,528.992004
683.200012,158.112000,523.135986
673.440002,158.112000,519.231995
675.392029,163.968002,521.184021
677.343994,154.207993,527.039978
669.536011,156.160004,519.231995
681.247986,144.447998,521.184021
667.583984,146.399994,517.280029
673.440002,144.447998,515.328003
673.440002,126.879997,517.280029
669.536011,138.591995,513.375977
671.487976,128.832001,503.615997
673.440002,124.928001,509.471985
677.343994,124.928001,495.808014
679.296021,122.975998,501.664001
679.296021,126.879997,501.664001
681.247986,124.928001,503.615997
671.487976,122.975998,488.000000
675.392029,119.071999,482.144012
675.392029,121.024002,486.048004
663.679993,119.071999,482.144012
677.343994,119.071999,488.000000
677.343994,130.783997,476.287994
683.200012,126.879997,474.335999
683.200012,113.216003,476.287994
685.151978,109.311996,466.528015
681.247986,115.167999,462.623993
689.056030,119.071999,460.671997
685.151978,103.456001,462.623993
683.200012,111.264000,454.816010
691.007996,103.456001,454.816010
698.815979,105.407997,448.959991
698.815979,99.552002,458.720001
716.383972,99.552002,454.816010
712.479980,93.695999,447.007996
712.479980,107.360001,447.007996
708.575989,97.599998,447.007996
712.479980,89.792000,450.911987
710.528015,91.744003,441.152008
716.383972,91.744003,447.007996
720.288025,97.599998,439.200012
730.047974,99.552002,433.343994
728.096008,107.360001,427.488007
732.000000,105.407997,439.200012
730.047974,99.552002,435.295990
732.000000,101.503998,429.440002
743.711975,101.503998,437.247986
730.047974,107.360001,435.295990
743.711975,101.503998,435.295990
755.424011,107.360001,431.391998
751.520020,101.503998,437.247986
747.616028,107.360001,443.104004
751.520020,105.407997,450.911987
749.567993,111.264000,447.007996
757.375977,111.264000,458.720001
761.280029,105.407997,460.671997
776.895996,107.360001,476.287994
778.848022,119.071999,480.191986
782.752014,117.120003,491.903992
782.752014,117.120003,501.664001
790.559998,122.975998,525.088013
800.320007,130.783997,521.184021
792.512024,132.735992,530.943970
796.416016,126.879997,534.848022
792.512024,134.688004,548.512024
802.271973,138.591995,538.752014
790.559998,138.591995,550.463989
794.463989,136.639999,552.416016
788.607971,144.447998,544.607971
794.463989,148.352005,544.607971
788.607971,156.160004,534.848022
784.703979,162.016006,528.992004
780.799988,169.824005,528.992004
776.895996,177.632004,521.184021
774.943970,187.391998,507.519989
774.943970,191.296005,493.855988
774.943970,177.632004,491.903992
761.280029,181.535995,489.951996
741.760010,181.535995,472.384003
751.520020,189.343994,470.432007
739.807983,173.727997,468.480011
743.711975,163.968002,466.528015
732.000000,154.207993,460.671997
716.383972,160.063995,462.623993
720.288025,144.447998,456.768005
722.239990,134.688004,456.768005
743.711975,144.447998,447.007996
724.192017,138.591995,441.152008
724.192017,117.120003,448.959991
735.903992,121.024002,445.056000
728.096008,128.832001,452.864014
728.096008,134.688004,441.152008
726.143982,142.496002,437.247986
726.143982,144.447998,433.343994
720.288025,148.352005,435.295990
720.288025,148.352005,433.343994
720.288025,140.544006,429.440002
720.288025,148.352005,433.343994
710.528015,154.207993,435.295990
720.288025,152.255997,433.343994
720.288025,148.352005,435.295990
716.383972,146.399994,437.247986
728.096008,146.399994,447.007996
726.143982,146.399994,445.056000
732.000000,144.447998,439.200012
733.952026,152.255997,437.247986
735.903992,144.447998,441.152008
730.047974,138.591995,447.007996
726.143982,154.207993,448.959991
728.096008,160.063995,448.959991
728.096008,148.352005,456.768005
722.239990,148.352005,460.671997
728.096008,144.447998,464.575989
726.143982,142.496002,470.432007
728.096008,128.832001,478.239990
720.288025,126.879997,472.384003
718.335999,132.735992,472.384003
722.239990,117.120003,468.480011
726.143982,117.120003,474.335999
724.192017,97.599998,468.480011
724.192017,101.503998,470.432007
722.239990,103.456001,470.432007
722.239990,97.599998,472.384003
720.288025,89.792000,466.528015
712.479980,89.792000,466.528015
708.575989,81.984001,462.623993
702.719971,89.792000,464.575989
700.768005,93.695999,462.623993
702.719971,95.648003,460.671997
696.864014,85.888000,452.864014
694.911987,101.503998,458.720001
691.007996,115.167999,447.007996
694.911987,107.360001,441.152008
696.864014,103.456001,447.007996
694.911987,105.407997,433.343994
687.104004,109.311996,431.391998
691.007996,109.311996,427.488007
698.815979,126.879997,423.584015
696.864014,122.975998,425.536011
712.479980,109.311996,413.824005
698.815979,117.120003,411.872009
700.768005,117.120003,407.967987
704.671997,124.928001,404.063995
700.768005,134.688004,396.256012
702.719971,126.879997,400.160004
712.479980,126.879997,394.303986
712.479980,122.975998,386.496002
712.479980,124.928001,384.544006
720.288025,126.879997,372.832001
726.143982,122.975998,355.264008
730.047974,122.975998,361.119995
751.520020,111.264000,353.312012
759.328003,109.311996,345.503998
759.328003,109.311996,333.791992
761.280029,119.071999,331.839996
772.992004,122.975998,333.791992
774.943970,117.120003,322.079987
776.895996,109.311996,316.223999
780.799988,105.407997,308.415985
794.463989,107.360001,314.272003
794.463989,87.839996,304.511993
796.416016,99.552002,302.559998
806.176025,93.695999,302.559998
817.888000,95.648003,300.608002
815.935974,85.888000,302.559998
819.840027,85.888000,298.656006
823.744019,85.888000,288.895996
831.552002,80.031998,283.040009
839.359985,81.984001,292.799988
845.216003,83.935997,284.992004
843.263977,89.792000,290.847992
849.119995,78.080002,288.895996
849.119995,62.464001,304.511993
853.023987,60.512001,312.320007
868.640015,62.464001,322.079987
876.447998,66.367996,318.175995
890.112000,64.416000,329.888000
903.776001,74.176003,329.888000
919.392029,48.799999,331.839996
931.104004,46.848000,349.407990
936.960022,56.608002,359.167999
940.864014,54.655998,372.832001
956.479980,52.703999,392.351990
972.096008,35.136002,396.256012
1001.375977,31.232000,396.256012
1015.039978,50.751999,406.015991
1020.895996,44.896000,421.631989
1022.848022,37.088001,431.391998
1032.608032,15.616000,433.343994
1050.176025,17.568001,433.343994
1065.791992,40.992001,452.864014
1077.504028,39.040001,460.671997
1079.456055,17.568001,470.432007
1091.167969,21.472000,460.671997
1081.407959,21.472000,474.335999
1083.359985,21.472000,460.671997
1079.456055,21.472000,466.528015
1079.456055,17.568001,452.864014
1075.552002,27.327999,466.528015
1073.599976,44.896000,460.671997
1075.552002,54.655998,452.864014
1067.744019,97.599998,454.816010
1067.744019,126.879997,447.007996
1071.647949,167.871994,450.911987
1067.744019,204.960007,437.247986
1028.703979,242.048004,431.391998
1054.079956,279.135986,441.152008
1036.511963,277.183990,450.911987
1061.887939,273.279999,460.671997
1065.791992,290.847992,466.528015
1077.504028,294.752014,480.191986
1091.167969,273.279999,495.808014
1106.784058,249.856003,507.519989
1116.543945,261.567993,517.280029
1116.543945,265.471985,521.184021
1122.400024,251.807999,536.799988
1124.352051,218.623993,534.848022
1124.352051,185.440002,560.223999
1169.248047,193.248001,583.648010
1126.303955,220.576004,591.455994
1114.592041,238.143997,583.648010
1104.832031,173.727997,571.935974
1083.359985,83.935997,542.656006
1036.511963,66.367996,540.703979
1009.184021,134.688004,546.559998
964.288025,169.824005,521.184021
1009.184021,382.592010,499.712006
997.471985,550.463989,507.519989
1005.280029,316.223999,499.712006
1038.463989,165.919998,468.480011
1081.407959,398.208008,448.959991
1083.359985,482.144012,445.056000
1075.552002,273.279999,445.056000
1077.504028,206.912003,435.295990
1077.504028,386.496002,433.343994
1050.176025,429.440002,411.872009
1028.703979,333.791992,400.160004
1001.375977,339.648010,374.783997
993.567993,419.679993,349.407990
981.856018,429.440002,335.743988
964.288025,392.351990,308.415985
950.624023,374.783997,298.656006
966.239990,386.496002,275.231995
960.383972,398.208008,265.471985
962.335999,382.592010,247.904007
950.624023,353.312012,228.384003
946.719971,329.888000,218.623993
946.719971,327.936005,201.056000
931.104004,337.696014,181.535995
929.151978,314.272003,175.679993
935.007996,281.088013,162.016006
938.911987,281.088013,150.304001
921.343994,263.519989,138.591995
911.583984,253.759995,117.120003
911.583984,242.048004,101.503998
935.007996,245.951996,89.792000
936.960022,245.951996,81.984001
905.728027,267.424011,66.367996
886.208008,329.888000,48.799999
872.544006,376.735992,39.040001
872.544006,413.824005,40.992001
874.495972,448.959991,23.424000
876.447998,447.007996,11.712000
874.495972,411.872009,-1.952000
886.208008,382.592010,-15.616000
878.400024,396.256012,-21.472000
886.208008,400.160004,-33.183998
890.112000,402.112000,-39.040001
886.208008,407.967987,-46.848000
895.968018,400.160004,-58.560001
888.159973,380.640015,-70.272003
890.112000,384.544006,-78.080002
892.064026,398.208008,-78.080002
894.015991,386.496002,-76.127998
884.255981,376.735992,-83.935997
897.919983,378.687988,-64.416000
907.679993,370.880005,-74.176003
911.583984,335.743988,-83.935997
921.343994,310.368011,-85.888000
921.343994,288.895996,-91.744003
935.007996,240.095993,-107.360001
942.815979,238.143997,-99.552002
946.719971,275.231995,-105.407997
917.440002,292.799988,-107.360001
929.151978,363.071991,-95.648003
921.343994,382.592010,-103.456001
935.007996,337.696014,-97.599998
944.768005,283.040009,-89.792000
972.096008,249.856003,-80.031998
981.856018,265.471985,-72.223999
1003.328003,310.368011,-64.416000
1015.039978,327.936005,-54.655998
1020.895996,343.552002,-25.375999
983.807983,357.216003,-29.280001
1050.176025,374.783997,-25.375999
1013.088013,355.264008,-31.232000
1048.223999,345.503998,-19.520000
1048.223999,370.880005,-13.664000
1009.184021,370.880005,-1.952000
1061.887939,349.407990,7.808000
1026.751953,339.648010,13.664000
1093.119995,325.984009,1.952000
1081.407959,306.463989,15.616000
1089.215942,296.704010,25.375999
1100.927979,298.656006,35.136002
1120.447998,312.320007,58.560001
1118.495972,322.079987,89.792000
1097.024048,320.127991,109.311996
1091.167969,343.552002,124.928001
1118.495972,366.976013,150.304001
1056.031982,394.303986,162.016006
1114.592041,378.687988,165.919998
813.984009,62.464001,181.535995
862.783997,-204.960007,277.183990
1038.463989,199.104004,365.023987
1145.823975,117.120003,406.015991
919.392029,-458.720001,384.544006
1069.696045,-402.112000,359.167999
1149.728027,81.984001,325.984009
995.520020,226.432007,300.608002
1091.167969,-152.255997,288.895996
1173.151978,-554.367981,275.231995
1239.520020,-261.567993,263.519989
1231.712036,177.632004,249.856003
1143.871948,-15.616000,222.528000
1241.472046,-392.351990,204.960007
1268.800049,-347.455994,193.248001
1303.936035,3.904000,193.248001
1255.135986,0.000000,206.912003
1300.031982,-253.759995,236.192001
1319.552002,-199.104004,253.759995
1327.359985,93.695999,271.328003
1307.839966,199.104004,277.183990
1327.359985,140.544006,308.415985
1325.407959,191.296005,341.600006
1303.936035,341.600006,368.928009
1337.119995,452.864014,394.303986
1327.359985,478.239990,419.679993
1307.839966,478.239990,445.056000
1317.599976,509.471985,445.056000
1305.887939,544.607971,447.007996
1346.880005,562.176025,456.768005
1288.319946,503.615997,472.384003
1350.784058,452.864014,489.951996
1327.359985,407.967987,513.375977
1335.167969,396.256012,525.088013
1364.447998,345.503998,536.799988
1380.063965,218.623993,538.752014
1378.112061,150.304001,521.184021
1403.488037,148.352005,501.664001
1288.319946,117.120003,519.231995
1629.920044,72.223999,597.312012
1657.248047,220.576004,685.151978
1801.696045,204.960007,769.088013
1719.712036,181.535995,823.744019
1547.936035,261.567993,849.119995
1421.056030,357.216003,843.263977
1319.552002,345.503998,870.591980
1300.031982,314.272003,868.640015
1339.072021,392.351990,882.304016
1407.391968,509.471985,901.823975
1270.751953,566.080017,999.424011
950.624023,667.583984,1600.640015
1581.119995,607.072021,1811.456055
1436.671997,308.415985,1805.599976
1524.511963,152.255997,1647.488037
1741.183960,544.607971,1428.864014
1788.031982,497.760010,1220.000000
1825.119995,380.640015,1130.208008
1770.463989,419.679993,1143.871948
1694.336060,183.488007,1132.160034
1635.776001,81.984001,1020.895996
1610.400024,263.519989,839.359985
1598.687988,81.984001,671.487976
1555.744019,-115.167999,548.512024
1510.848022,25.375999,480.191986
1458.144043,5.856000,439.200012
1397.631958,-185.440002,382.592010
1368.352051,-124.928001,365.023987
1331.264038,-29.280001,345.503998
1311.744019,-99.552002,339.648010
1305.887939,-89.792000,337.696014
1278.560059,42.944000,331.839996
1286.368042,107.360001,327.936005
1274.656006,140.544006,327.936005
1280.511963,238.143997,327.936005
1284.416016,341.600006,324.032013
1290.271973,386.496002,322.079987
1300.031982,413.824005,314.272003
1301.984009,478.239990,302.559998
1305.887939,499.712006,294.752014
1296.128052,489.951996,284.992004
1288.319946,488.000000,279.135986
1274.656006,464.575989,283.040009
1251.232056,409.920013,281.088013
1239.520020,359.167999,279.135986
1212.192017,318.175995,263.519989
1186.816040,290.847992,245.951996
1186.816040,306.463989,218.623993
1175.104004,249.856003,175.679993
1194.624023,185.440002,126.879997
1173.151978,128.832001,103.456001
1128.255981,162.016006,138.591995
1085.312012,179.584000,152.255997
1098.975952,183.488007,136.639999
1122.400024,244.000000,158.112000
1136.063965,302.559998,169.824005
1122.400024,357.216003,171.776001
1122.400024,378.687988,173.727997
1124.352051,316.223999,146.399994
1122.400024,277.183990,111.264000
1108.735962,216.671997,91.744003
1112.640015,97.599998,87.839996
1085.312012,-48.799999,93.695999
1083.359985,-97.599998,111.264000
1077.504028,31.232000,105.407997
1063.839966,185.440002,119.071999
1075.552002,267.424011,115.167999
1059.936035,273.279999,97.599998
1044.319946,247.904007,80.031998
1040.416016,206.912003,62.464001
1028.703979,177.632004,46.848000
1020.895996,187.391998,27.327999
1003.328003,220.576004,19.520000
999.424011,263.519989,-5.856000
993.567993,298.656006,-13.664000
968.192017,320.127991,-29.280001
966.239990,320.127991,-42.944000
960.383972,325.984009,-44.896000
954.528015,306.463989,-52.703999
958.432007,316.223999,-66.367996
952.575989,324.032013,-80.031998
936.960022,349.407990,-87.839996
923.296021,333.791992,-111.264000
927.200012,288.895996,-122.975998
948.671997,257.664001,-140.544006
948.671997,236.192001,-148.352005
927.200012,226.432007,-134.688004
909.632019,253.759995,-136.639999
901.823975,337.696014,-146.399994
886.208008,382.592010,-160.063995
901.823975,431.391998,-175.679993
880.351990,448.959991,-199.104004
858.880005,392.351990,-222.528000
876.447998,-3.904000,-226.432007
884.255981,-491.903992,-171.776001
888.159973,-542.656006,-101.503998
886.208008,-142.496002,-39.040001
886.208008,460.671997,-3.904000
911.583984,866.687988,15.616000
923.296021,946.719971,19.520000
950.624023,843.263977,9.760000
933.056030,630.495972,-13.664000
942.815979,363.071991,-17.568001
940.864014,146.399994,-29.280001
952.575989,66.367996,-39.040001
946.719971,183.488007,-9.760000
956.479980,409.920013,-1.952000
974.047974,589.504028,-9.760000
968.192017,648.064026,-37.088001
952.575989,560.223999,-89.792000
946.719971,359.167999,-134.688004
940.864014,140.544006,-185.440002
915.487976,19.520000,-247.904007
895.968018,11.712000,-279.135986
899.872009,56.608002,-314.272003
897.919983,121.024002,-339.648010
878.400024,138.591995,-366.976013
888.159973,99.552002,-404.063995
905.728027,406.015991,-421.631989
880.351990,1036.511963,-349.407990
874.495972,1202.432007,-273.279999
890.112000,813.984009,-199.104004
892.064026,183.488007,-148.352005
993.567993,-413.824005,-134.688004
1102.880005,-616.831970,-124.928001
1241.472046,-513.375977,-72.223999
1214.144043,-247.904007,72.223999
1186.816040,281.088013,222.528000
1173.151978,720.288025,343.552002
1198.527954,874.495972,368.928009
1249.280029,1022.848022,339.648010
1241.472046,1216.095947,275.231995
1182.911987,1311.744019,247.904007
1136.063965,864.736023,236.192001
1141.920044,-156.160004,224.479996
1184.864014,-1104.832031,195.199997
1200.479980,-1346.880005,171.776001
1186.816040,-681.247986,162.016006
1192.671997,320.127991,177.632004
1202.432007,977.952026,191.296005
1229.760010,1048.223999,197.151993
1264.895996,724.192017,199.104004
1266.848022,335.743988,218.623993
1264.895996,-29.280001,245.951996
1227.807983,-230.335999,318.175995
1192.671997,-263.519989,341.600006
1204.384033,-228.384003,335.743988
1247.328003,-124.928001,337.696014
1292.223999,31.232000,349.407990
1303.936035,25.375999,374.783997
1307.839966,-173.727997,400.160004
1288.319946,-263.519989,431.391998
1284.416016,-27.327999,435.295990
1286.368042,290.847992,415.776001
1280.511963,445.056000,394.303986
1274.656006,302.559998,372.832001
1290.271973,66.367996,331.839996
1286.368042,-97.599998,296.704010
1272.703979,-107.360001,277.183990
1272.703979,3.904000,240.095993
1272.703979,144.447998,224.479996
1255.135986,228.384003,216.671997
1235.615967,232.287994,203.007996
1212.192017,201.056000,160.063995
1208.287964,232.287994,134.688004
1171.199951,306.463989,117.120003
1141.920044,413.824005,115.167999
1139.968018,622.687988,152.255997
1114.592041,708.575989,193.248001
1118.495972,509.471985,214.720001
1149.728027,105.407997,230.335999
1163.391968,-292.799988,230.335999
1165.343994,-452.864014,208.863998
1130.208008,-308.415985,162.016006
1102.880005,33.183998,121.024002
1079.456055,312.320007,113.216003
1083.359985,314.272003,109.311996
1085.312012,111.264000,93.695999
1112.640015,-160.063995,93.695999
1112.640015,-400.160004,99.552002
1071.647949,-421.631989,87.839996
1044.319946,-132.735992,60.512001
1020.895996,212.768005,40.992001
981.856018,521.184021,13.664000
987.711975,646.112000,-21.472000
1007.231995,550.463989,-66.367996
997.471985,398.208008,-101.503998
987.711975,204.960007,-142.496002
966.239990,101.503998,-165.919998
938.911987,50.751999,-162.016006
923.296021,68.320000,-183.488007
903.776001,142.496002,-201.056000
921.343994,228.384003,-220.576004
923.296021,242.048004,-242.048004
925.247986,187.391998,-267.424011
921.343994,111.264000,-296.704010
894.015991,35.136002,-316.223999
905.728027,-105.407997,-324.032013
866.687988,-232.287994,-277.183990
827.648010,-212.768005,-173.727997
817.888000,23.424000,-40.992001
862.783997,357.216003,76.127998
1013.088013,216.671997,415.776001
2199.904053,-2406.815918,4116.768066
3164.191895,-3337.919922,7466.399902
3330.112061,-997.471985,5489.023926
2769.887939,-993.567993,1959.807983
1934.432007,70.272003,21.472000
1378.112061,244.000000,-31.232000
987.711975,-1493.280029,255.712006
802.271973,179.584000,-154.207993
724.192017,407.967987,-601.216003
702.719971,263.519989,-895.968018
577.791992,927.200012,-790.559998
454.816010,737.856018,-462.623993
427.488007,1007.231995,-646.112000
509.471985,1317.599976,-827.648010
689.056030,1100.927979,-468.480011
866.687988,503.615997,-87.839996
1016.992004,-286.944000,50.751999
1034.560059,-569.984009,-7.808000
915.487976,-493.855988,-101.503998
833.504028,-640.255981,97.599998
892.064026,-722.239990,181.535995
952.575989,-456.768005,80.031998
962.335999,-277.183990,72.223999
909.632019,17.568001,-48.799999
837.408020,281.088013,-203.007996
778.848022,386.496002,-345.503998
712.479980,486.048004,-511.424011
673.440002,521.184021,-530.943970
708.575989,571.935974,-460.671997
771.039978,626.591980,-325.984009
876.447998,609.023987,-162.016006
907.679993,525.088013,-85.888000
907.679993,386.496002,-35.136002
915.487976,271.328003,-21.472000
936.960022,181.535995,-17.568001
944.768005,113.216003,7.808000
950.624023,93.695999,-7.808000
935.007996,128.832001,-46.848000
919.392029,222.528000,-80.031998
895.968018,357.216003,-99.552002
864.736023,415.776001,-140.544006
839.359985,509.471985,-163.968002
823.744019,573.888000,-175.679993
833.504028,630.495972,-154.207993
872.544006,653.919983,-121.024002
899.872009,642.208008,-74.176003
927.200012,542.656006,-3.904000
956.479980,448.959991,60.512001
979.903992,335.743988,68.320000
977.952026,236.192001,37.088001
948.671997,158.112000,-54.655998
927.200012,93.695999,-109.311996
899.872009,68.320000,-124.928001
899.872009,44.896000,-111.264000
903.776001,50.751999,-124.928001
915.487976,81.984001,-144.447998
921.343994,107.360001,-130.783997
923.296021,146.399994,-132.735992
917.440002,165.919998,-111.264000
911.583984,179.584000,-105.407997
919.392029,230.335999,-107.360001
935.007996,240.095993,-95.648003
942.815979,199.104004,-78.080002
946.719971,169.824005,-50.751999
952.575989,154.207993,-25.375999
958.432007,119.071999,-27.327999
940.864014,111.264000,-23.424000
940.864014,105.407997,-27.327999
936.960022,78.080002,-50.751999
942.815979,44.896000,-52.703999
931.104004,40.992001,-70.272003
921.343994,76.127998,-95.648003
919.392029,103.456001,-103.456001
921.343994,103.456001,-113.216003
915.487976,113.216003,-121.024002
919.392029,138.591995,-126.879997
911.583984,136.639999,-117.120003
917.440002,109.311996,-103.456001
935.007996,105.407997,-97.599998
968.192017,121.024002,-89.792000
1011.135986,156.160004,-81.984001
1208.287964,296.704010,-132.735992
1344.927979,427.488007,-160.063995
1346.880005,507.519989,-119.071999
1220.000000,511.424011,-27.327999
1104.832031,458.720001,39.040001
1036.511963,458.720001,7.808000
981.856018,464.575989,-52.703999
933.056030,406.015991,-87.839996
897.919983,322.079987,-103.456001
936.960022,255.712006,-101.503998
1015.039978,240.095993,-58.560001
1073.599976,203.007996,11.712000
1100.927979,193.248001,60.512001
1134.112061,269.376007,44.896000
1128.255981,353.312012,25.375999
1104.832031,435.295990,-1.952000
1030.656006,515.328003,-39.040001
1013.088013,585.599976,-80.031998
1034.560059,603.168030,-78.080002
1020.895996,538.752014,-21.472000
1032.608032,474.335999,3.904000
1036.511963,417.727997,7.808000
1040.416016,388.447998,-17.568001
1050.176025,384.544006,-50.751999
1030.656006,359.167999,-40.992001
1040.416016,329.888000,-42.944000
1022.848022,337.696014,-56.608002
1015.039978,341.600006,-56.608002
1011.135986,320.127991,-56.608002
997.471985,304.511993,-46.848000
1015.039978,318.175995,-48.799999
1003.328003,337.696014,-54.655998
1028.703979,335.743988,-64.416000
1013.088013,316.223999,-50.751999
1016.992004,304.511993,-52.703999
1011.135986,296.704010,-58.560001
1007.231995,284.992004,-74.176003
1007.231995,286.944000,-78.080002
1013.088013,271.328003,-81.984001
1015.039978,259.615997,-83.935997
1005.280029,275.231995,-83.935997
1013.088013,283.040009,-72.223999
1020.895996,255.712006,-44.896000
1022.848022,240.095993,-46.848000
1018.943970,269.376007,-62.464001
1036.511963,304.511993,-81.984001
1020.895996,269.376007,-62.464001
1044.319946,279.135986,-44.896000
1040.416016,292.799988,-52.703999
1042.368042,298.656006,-39.040001
1052.128052,283.040009,-44.896000
1046.271973,240.095993,-40.992001
1050.176025,249.856003,-60.512001
1050.176025,251.807999,-76.127998
1048.223999,242.048004,-54.655998
1059.936035,224.479996,-52.703999
1048.223999,203.007996,-50.751999
1052.128052,193.248001,-50.751999
1044.319946,179.584000,-54.655998
1057.984009,169.824005,-50.751999
1063.839966,130.783997,-37.088001
1048.223999,107.360001,-40.992001
1036.511963,97.599998,-39.040001
1022.848022,119.071999,-56.608002
1036.511963,134.688004,-74.176003
1038.463989,140.544006,-70.272003
1054.079956,158.112000,-52.703999
1042.368042,148.352005,-40.992001
1046.271973,162.016006,-37.088001
1044.319946,165.919998,-37.088001
1056.031982,163.968002,-42.944000
1056.031982,158.112000,-37.088001
1052.128052,152.255997,-33.183998
1048.223999,152.255997,-58.560001
1036.511963,138.591995,-60.512001
1044.319946,122.975998,-52.703999
1048.223999,109.311996,-48.799999
1059.936035,89.792000,-52.703999
1067.744019,111.264000,-40.992001
1075.552002,117.120003,-25.375999
1073.599976,134.688004,-29.280001
1075.552002,146.399994,-15.616000
1077.504028,160.063995,-23.424000
1077.504028,160.063995,-19.520000
1079.456055,156.160004,-15.616000
1069.696045,156.160004,-29.280001
1077.504028,148.352005,-23.424000
1073.599976,121.024002,-17.568001
1081.407959,107.360001,-31.232000
1075.552002,121.024002,-25.375999
1093.119995,121.024002,-11.712000
1108.735962,132.735992,3.904000
1110.687988,138.591995,3.904000
1108.735962,148.352005,5.856000
1118.495972,167.871994,0.000000
1102.880005,167.871994,1.952000
1089.215942,154.207993,-11.712000
1081.407959,148.352005,-17.568001
1087.264038,144.447998,-15.616000
1095.072021,130.783997,-13.664000
1106.784058,121.024002,-7.808000
1110.687988,97.599998,7.808000
1104.832031,105.407997,1.952000
1104.832031,93.695999,1.952000
1102.880005,85.888000,-11.712000
1104.832031,74.176003,-5.856000
1095.072021,68.320000,-15.616000
1087.264038,60.512001,-21.472000
1079.456055,40.992001,-29.280001
1083.359985,37.088001,-23.424000
1087.264038,31.232000,-27.327999
1095.072021,39.040001,-21.472000
1095.072021,50.751999,-15.616000
1097.024048,60.512001,-1.952000
1097.024048,56.608002,-1.952000
1087.264038,68.320000,-13.664000
1085.312012,78.080002,-13.664000
1085.312012,78.080002,-25.375999
1085.312012,74.176003,-25.375999
1093.119995,78.080002,-25.375999
1091.167969,72.223999,-23.424000
1097.024048,70.272003,-21.472000
1097.024048,74.176003,-17.568001
1095.072021,72.223999,-23.424000
1102.880005,76.127998,-23.424000
1095.072021,66.367996,-39.040001
1095.072021,78.080002,-39.040001
1091.167969,78.080002,-35.136002
1083.359985,78.080002,-40.992001
1075.552002,70.272003,-50.751999
1081.407959,68.320000,-46.848000
1077.504028,66.367996,-54.655998
1075.552002,64.416000,-48.799999
1081.407959,52.703999,-52.703999
1075.552002,33.183998,-52.703999
1073.599976,48.799999,-60.512001
1077.504028,52.703999,-70.272003
1069.696045,52.703999,-68.320000
1065.791992,46.848000,-81.984001
1063.839966,46.848000,-80.031998
1067.744019,46.848000,-80.031998
1057.984009,44.896000,-85.888000
1063.839966,42.944000,-81.984001
1067.744019,48.799999,-89.792000
1061.887939,44.896000,-87.839996
1067.744019,35.136002,-89.792000
1063.839966,27.327999,-87.839996
1073.599976,37.088001,-95.648003
1063.839966,29.280001,-89.792000
1059.936035,42.944000,-93.695999
1067.744019,44.896000,-91.744003
1059.936035,42.944000,-91.744003
1057.984009,56.608002,-93.695999
1067.744019,48.799999,-91.744003
1071.647949,52.703999,-95.648003
1061.887939,58.560001,-91.744003
1071.647949,52.703999,-89.792000
1059.936035,52.703999,-93.695999
1059.936035,60.512001,-89.792000
1059.936035,52.703999,-95.648003
1052.128052,54.655998,-93.695999
1063.839966,54.655998,-101.503998
1042.368042,37.088001,-101.503998
1061.887939,52.703999,-99.552002
1061.887939,64.416000,-99.552002
1057.984009,72.223999,-91.744003
1057.984009,72.223999,-93.695999
1063.839966,80.031998,-97.599998
1050.176025,70.272003,-105.407997
1057.984009,80.031998,-117.120003
1048.223999,80.031998,-115.167999
1054.079956,66.367996,-113.216003
1054.079956,80.031998,-113.216003
1054.079956,72.223999,-117.120003
1050.176025,81.984001,-111.264000
1059.936035,74.176003,-119.071999
1057.984009,87.839996,-109.311996
1056.031982,99.552002,-107.360001
1054.079956,99.552002,-119.071999
1057.984009,89.792000,-126.879997
1046.271973,99.552002,-115.167999
1038.463989,105.407997,-121.024002
1036.511963,101.503998,-122.975998
1042.368042,101.503998,-124.928001
1050.176025,93.695999,-122.975998
1046.271973,97.599998,-115.167999
1048.223999,107.360001,-124.928001
1052.128052,95.648003,-122.975998
1038.463989,101.503998,-126.879997
1052.128052,115.167999,-121.024002
1046.271973,115.167999,-126.879997
1056.031982,109.311996,-124.928001
1050.176025,109.311996,-124.928001
1042.368042,113.216003,-128.832001
1044.319946,113.216003,-128.832001
1056.031982,115.167999,-136.639999
1054.079956,115.167999,-128.832001
1048.223999,111.264000,-126.879997
1050.176025,103.456001,-130.783997
1052.128052,119.071999,-128.832001
1052.128052,121.024002,-128.832001
1046.271973,126.879997,-130.783997
1052.128052,132.735992,-117.120003
1056.031982,124.928001,-134.688004
1048.223999,132.735992,-126.879997
1059.936035,136.639999,-130.783997
1050.176025,140.544006,-136.639999
1056.031982,146.399994,-130.783997
1054.079956,142.496002,-138.591995
1063.839966,142.496002,-136.639999
1059.936035,152.255997,-140.544006
1057.984009,154.207993,-134.688004
1059.936035,156.160004,-136.639999
1056.031982,154.207993,-140.544006
1057.984009,162.016006,-142.496002
1059.936035,156.160004,-144.447998
1061.887939,148.352005,-144.447998
1057.984009,154.207993,-142.496002
1056.031982,160.063995,-150.304001
1054.079956,162.016006,-138.591995
1057.984009,163.968002,-148.352005
1065.791992,165.919998,-148.352005
1063.839966,173.727997,-150.304001
1067.744019,169.824005,-154.207993
1065.791992,173.727997,-150.304001
1075.552002,175.679993,-150.304001
1061.887939,171.776001,-154.207993
1059.936035,171.776001,-156.160004
1065.791992,175.679993,-156.160004
1071.647949,181.535995,-150.304001
1075.552002,185.440002,-156.160004
1071.647949,187.391998,-150.304001
1075.552002,183.488007,-156.160004
1073.599976,183.488007,-150.304001
1075.552002,187.391998,-150.304001
1079.456055,185.440002,-146.399994
1073.599976,195.199997,-160.063995
1081.407959,193.248001,-158.112000
1077.504028,199.104004,-146.399994
1081.407959,195.199997,-156.160004
1077.504028,204.960007,-148.352005
1093.119995,208.863998,-152.255997
1089.215942,197.151993,-148.352005
1085.312012,204.960007,-148.352005
1100.927979,208.863998,-148.352005
1097.024048,203.007996,-152.255997
1097.024048,204.960007,-150.304001
1100.927979,208.863998,-148.352005
1097.024048,210.815994,-152.255997
1100.927979,220.576004,-148.352005
1098.975952,214.720001,-142.496002
1102.880005,216.671997,-148.352005
1089.215942,218.623993,-140.544006
1091.167969,206.912003,-146.399994
1093.119995,214.720001,-144.447998
1098.975952,216.671997,-142.496002
1100.927979,214.720001,-138.591995
1097.024048,222.528000,-134.688004
1102.880005,222.528000,-134.688004
1098.975952,214.720001,-136.639999
1093.119995,224.479996,-132.735992
1098.975952,216.671997,-140.544006
1098.975952,216.671997,-134.688004
1097.024048,210.815994,-140.544006
1097.024048,220.576004,-140.544006
1098.975952,216.671997,-134.688004
1095.072021,222.528000,-134.688004
1098.975952,222.528000,-144.447998
1091.167969,222.528000,-136.639999
1089.215942,218.623993,-126.879997
1085.312012,218.623993,-140.544006
1079.456055,232.287994,-136.639999
1075.552002,236.192001,-128.832001
1073.599976,224.479996,-122.975998
1075.552002,238.143997,-128.832001
1073.599976,230.335999,-132.735992
1079.456055,226.432007,-134.688004
1077.504028,232.287994,-128.832001
1071.647949,230.335999,-132.735992
1063.839966,228.384003,-140.544006
1071.647949,232.287994,-142.496002
1057.984009,226.432007,-142.496002
1057.984009,236.192001,-140.544006
1063.839966,244.000000,-140.544006
1054.079956,244.000000,-140.544006
1046.271973,228.384003,-140.544006
1054.079956,226.432007,-138.591995
1056.031982,228.384003,-126.879997
1056.031982,222.528000,-126.879997
1056.031982,232.287994,-132.735992
1052.128052,232.287994,-138.591995
1048.223999,230.335999,-132.735992
1042.368042,224.479996,-134.688004
1042.368042,230.335999,-132.735992
1030.656006,224.479996,-134.688004
1030.656006,210.815994,-136.639999
1040.416016,222.528000,-140.544006
1040.416016,224.479996,-130.783997
1038.463989,210.815994,-138.591995
1042.368042,208.863998,-136.639999
1030.656006,212.768005,-132.735992
1032.608032,204.960007,-140.544006
1026.751953,214.720001,-132.735992
1028.703979,212.768005,-132.735992
1026.751953,210.815994,-128.832001
1026.751953,199.104004,-136.639999
1024.800049,201.056000,-130.783997
1028.703979,201.056000,-136.639999
1026.751953,187.391998,-142.496002
1024.800049,187.391998,-140.544006
1022.848022,197.151993,-136.639999
1020.895996,197.151993,-138.591995
1026.751953,201.056000,-130.783997
1032.608032,208.863998,-132.735992
1030.656006,204.960007,-134.688004
1028.703979,201.056000,-136.639999
1032.608032,197.151993,-138.591995
1028.703979,193.248001,-150.304001
1024.800049,183.488007,-138.591995
1022.848022,187.391998,-128.832001
1024.800049,191.296005,-128.832001
1024.800049,187.391998,-140.544006
1026.751953,195.199997,-136.639999
1030.656006,199.104004,-134.688004
1028.703979,187.391998,-134.688004
1007.231995,193.248001,-134.688004
1016.992004,189.343994,-138.591995
1015.039978,181.535995,-130.783997
1028.703979,189.343994,-132.735992
1024.800049,191.296005,-128.832001
1022.848022,193.248001,-130.783997
1016.992004,187.391998,-134.688004
1018.943970,193.248001,-134.688004
1024.800049,181.535995,-140.544006
1016.992004,181.535995,-142.496002
1011.135986,177.632004,-142.496002
1011.135986,173.727997,-134.688004
1009.184021,175.679993,-132.735992
1016.992004,173.727997,-132.735992
1018.943970,173.727997,-134.688004
1013.088013,167.871994,-134.688004
1005.280029,171.776001,-138.591995
1016.992004,177.632004,-142.496002
1013.088013,163.968002,-140.544006
1013.088013,156.160004,-136.639999
1013.088013,165.919998,-140.544006
1018.943970,154.207993,-140.544006
1026.751953,154.207993,-134.688004
1016.992004,150.304001,-134.688004
1011.135986,142.496002,-134.688004
1007.231995,150.304001,-130.783997
1009.184021,138.591995,-140.544006
1015.039978,144.447998,-128.832001
1011.135986,142.496002,-132.735992
1013.088013,142.496002,-126.879997
1011.135986,136.639999,-126.879997
1009.184021,122.975998,-128.832001
1024.800049,128.832001,-124.928001
1015.039978,121.024002,-124.928001
1009.184021,128.832001,-121.024002
1007.231995,130.783997,-121.024002
1018.943970,134.688004,-124.928001
1011.135986,124.928001,-122.975998
1016.992004,113.216003,-132.735992
1009.184021,121.024002,-119.071999
1011.135986,124.928001,-117.120003
1013.088013,117.120003,-119.071999
1015.039978,115.167999,-130.783997
1011.135986,113.216003,-121.024002
1011.135986,115.167999,-121.024002
1009.184021,117.120003,-128.832001
1005.280029,117.120003,-117.120003
1009.184021,113.216003,-124.928001
1005.280029,115.167999,-119.071999
1005.280029,111.264000,-122.975998
1005.280029,111.264000,-121.024002
999.424011,113.216003,-121.024002
1009.184021,113.216003,-126.879997
1005.280029,103.456001,-126.879997
1009.184021,105.407997,-134.688004
1003.328003,107.360001,-134.688004
989.664001,107.360001,-130.783997
989.664001,109.311996,-117.120003
1001.375977,117.120003,-126.879997
1003.328003,115.167999,-126.879997
991.616028,115.167999,-122.975998
993.567993,103.456001,-117.120003
997.471985,101.503998,-124.928001
991.616028,115.167999,-122.975998
991.616028,111.264000,-136.639999
987.711975,107.360001,-128.832001
991.616028,97.599998,-121.024002
997.471985,95.648003,-128.832001
997.471985,107.360001,-124.928001
1003.328003,91.744003,-124.928001
997.471985,89.792000,-115.167999
999.424011,107.360001,-124.928001
999.424011,105.407997,-121.024002
991.616028,105.407997,-119.071999
999.424011,103.456001,-121.024002
991.616028,99.552002,-113.216003
995.520020,107.360001,-113.216003
1001.375977,103.456001,-111.264000
995.520020,93.695999,-111.264000
1009.184021,93.695999,-105.407997
1013.088013,93.695999,-105.407997
999.424011,99.552002,-101.503998
999.424011,107.360001,-99.552002
999.424011,109.311996,-113.216003
1003.328003,105.407997,-107.360001
997.471985,109.311996,-105.407997
997.471985,105.407997,-99.552002
1005.280029,111.264000,-95.648003
999.424011,107.360001,-105.407997
1001.375977,107.360001,-93.695999
1001.375977,105.407997,-101.503998
999.424011,97.599998,-95.648003
997.471985,103.456001,-95.648003
995.520020,105.407997,-105.407997
983.807983,111.264000,-117.120003
993.567993,111.264000,-115.167999
991.616028,107.360001,-113.216003
985.760010,115.167999,-113.216003
979.903992,115.167999,-113.216003
981.856018,115.167999,-113.216003
981.856018,109.311996,-109.311996
987.711975,109.311996,-119.071999
979.903992,115.167999,-117.120003
974.047974,117.120003,-111.264000
981.856018,117.120003,-113.216003
976.000000,115.167999,-119.071999
968.192017,119.071999,-115.167999
968.192017,124.928001,-111.264000
977.952026,115.167999,-111.264000
977.952026,121.024002,-117.120003
972.096008,117.120003,-119.071999
972.096008,122.975998,-128.832001
970.143982,121.024002,-122.975998
966.239990,119.071999,-121.024002
952.575989,122.975998,-128.832001
956.479980,122.975998,-115.167999
972.096008,130.783997,-117.120003
962.335999,122.975998,-113.216003
962.335999,124.928001,-111.264000
964.288025,130.783997,-107.360001
960.383972,130.783997,-113.216003
968.192017,122.975998,-115.167999
974.047974,126.879997,-111.264000
962.335999,124.928001,-111.264000
960.383972,113.216003,-111.264000
954.528015,126.879997,-111.264000
966.239990,130.783997,-109.311996
960.383972,132.735992,-117.120003
964.288025,124.928001,-115.167999
968.192017,134.688004,-105.407997
964.288025,130.783997,-105.407997
966.239990,124.928001,-109.311996
966.239990,130.783997,-121.024002
966.239990,124.928001,-109.311996
960.383972,130.783997,-107.360001
960.383972,132.735992,-111.264000
962.335999,128.832001,-119.071999
964.288025,136.639999,-107.360001
970.143982,132.735992,-113.216003
960.383972,130.783997,-117.120003
964.288025,128.832001,-119.071999
956.479980,130.783997,-111.264000
958.432007,132.735992,-119.071999
962.335999,140.544006,-124.928001
960.383972,130.783997,-115.167999
966.239990,132.735992,-117.120003
954.528015,146.399994,-119.071999
956.479980,140.544006,-119.071999
954.528015,138.591995,-119.071999
948.671997,134.688004,-111.264000
948.671997,128.832001,-119.071999
956.479980,144.447998,-122.975998
950.624023,140.544006,-115.167999
956.479980,142.496002,-121.024002
952.575989,142.496002,-117.120003
946.719971,150.304001,-117.120003
940.864014,150.304001,-124.928001
944.768005,154.207993,-119.071999
940.864014,152.255997,-121.024002
948.671997,158.112000,-119.071999
946.719971,144.447998,-119.071999
944.768005,142.496002,-122.975998
950.624023,136.639999,-119.071999
950.624023,146.399994,-117.120003
950.624023,146.399994,-113.216003
940.864014,160.063995,-115.167999
938.911987,150.304001,-119.071999
946.719971,144.447998,-124.928001
942.815979,142.496002,-122.975998
942.815979,146.399994,-119.071999
938.911987,150.304001,-124.928001
940.864014,154.207993,-119.071999
946.719971,146.399994,-117.120003
944.768005,148.352005,-117.120003
944.768005,148.352005,-111.264000
942.815979,148.352005,-111.264000
950.624023,152.255997,-117.120003
944.768005,148.352005,-117.120003
944.768005,146.399994,-115.167999
942.815979,146.399994,-111.264000
944.768005,144.447998,-99.552002
948.671997,138.591995,-111.264000
942.815979,146.399994,-117.120003
946.719971,144.447998,-105.407997
944.768005,146.399994,-111.264000
942.815979,152.255997,-107.360001
952.575989,142.496002,-111.264000
954.528015,140.544006,-105.407997
946.719971,140.544006,-109.311996
944.768005,144.447998,-101.503998
946.719971,150.304001,-105.407997
950.624023,144.447998,-95.648003
946.719971,138.591995,-109.311996
948.671997,146.399994,-105.407997
952.575989,150.304001,-105.407997
950.624023,140.544006,-103.456001
954.528015,140.544006,-109.311996
956.479980,146.399994,-107.360001
948.671997,136.639999,-97.599998
954.528015,138.591995,-101.503998
946.719971,146.399994,-101.503998
952.575989,136.639999,-95.648003
940.864014,146.399994,-109.311996
948.671997,138.591995,-103.456001
944.768005,142.496002,-103.456001
954.528015,148.352005,-113.216003
948.671997,148.352005,-105.407997
948.671997,146.399994,-107.360001
952.575989,136.639999,-107.360001
942.815979,142.496002,-95.648003
944.768005,138.591995,-101.503998
950.624023,138.591995,-101.503998
944.768005,140.544006,-105.407997
954.528015,134.688004,-113.216003
950.624023,128.832001,-103.456001
950.624023,130.783997,-105.407997
952.575989,138.591995,-101.503998
954.528015,138.591995,-105.407997
954.528015,128.832001,-107.360001
956.479980,124.928001,-101.503998
952.575989,124.928001,-99.552002
964.288025,119.071999,-101.503998
952.575989,119.071999,-87.839996
954.528015,121.024002,-105.407997
952.575989,117.120003,-91.744003
956.479980,117.120003,-105.407997
952.575989,117.120003,-97.599998
960.383972,119.071999,-91.744003
962.335999,115.167999,-93.695999
958.432007,111.264000,-85.888000
962.335999,107.360001,-93.695999
958.432007,101.503998,-85.888000
960.383972,115.167999,-83.935997
952.575989,107.360001,-89.792000
950.624023,115.167999,-85.888000
956.479980,99.552002,-83.935997
952.575989,93.695999,-87.839996
962.335999,97.599998,-93.695999
962.335999,101.503998,-87.839996
952.575989,93.695999,-91.744003
958.432007,93.695999,-93.695999
964.288025,101.503998,-87.839996
952.575989,95.648003,-93.695999
956.479980,105.407997,-97.599998
950.624023,101.503998,-95.648003
948.671997,103.456001,-95.648003
952.575989,107.360001,-99.552002
950.624023,101.503998,-91.744003
952.575989,93.695999,-95.648003
960.383972,95.648003,-89.792000
958.432007,89.792000,-95.648003
958.432007,83.935997,-95.648003
958.432007,83.935997,-91.744003
950.624023,89.792000,-87.839996
960.383972,91.744003,-91.744003
958.432007,91.744003,-99.552002
962.335999,97.599998,-93.695999
960.383972,91.744003,-89.792000
964.288025,93.695999,-89.792000
960.383972,87.839996,-87.839996
966.239990,93.695999,-81.984001
968.192017,87.839996,-78.080002
966.239990,95.648003,-93.695999
968.192017,93.695999,-78.080002
962.335999,93.695999,-81.984001
970.143982,95.648003,-89.792000
958.432007,99.552002,-80.031998
962.335999,97.599998,-68.320000
960.383972,95.648003,-70.272003
962.335999,87.839996,-85.888000
960.383972,87.839996,-85.888000
974.047974,95.648003,-85.888000
958.432007,99.552002,-74.176003
966.239990,91.744003,-81.984001
956.479980,97.599998,-78.080002
960.383972,95.648003,-72.223999
958.432007,105.407997,-89.792000
958.432007,111.264000,-78.080002
960.383972,105.407997,-80.031998
958.432007,107.360001,-76.127998
950.624023,97.599998,-76.127998
950.624023,97.599998,-89.792000
944.768005,97.599998,-80.031998
942.815979,105.407997,-87.839996
950.624023,111.264000,-91.744003
954.528015,99.552002,-91.744003
946.719971,103.456001,-83.935997
944.768005,103.456001,-81.984001
936.960022,91.744003,-85.888000
935.007996,93.695999,-83.935997
933.056030,93.695999,-81.984001
940.864014,93.695999,-89.792000
936.960022,89.792000,-81.984001
942.815979,105.407997,-91.744003
936.960022,103.456001,-93.695999
940.864014,97.599998,-81.984001
938.911987,97.599998,-83.935997
935.007996,101.503998,-83.935997
935.007996,93.695999,-78.080002
936.960022,87.839996,-83.935997
940.864014,97.599998,-81.984001
942.815979,99.552002,-89.792000
933.056030,99.552002,-80.031998
948.671997,101.503998,-78.080002
948.671997,101.503998,-70.272003
948.671997,107.360001,-66.367996
948.671997,101.503998,-72.223999
944.768005,105.407997,-64.416000
954.528015,103.456001,-68.320000
948.671997,101.503998,-60.512001
940.864014,97.599998,-68.320000
944.768005,111.264000,-58.560001
946.719971,113.216003,-66.367996
944.768005,111.264000,-60.512001
950.624023,115.167999,-60.512001
938.911987,115.167999,-60.512001
944.768005,111.264000,-64.416000
950.624023,119.071999,-68.320000
942.815979,109.311996,-62.464001
935.007996,107.360001,-68.320000
935.007996,95.648003,-70.272003
942.815979,99.552002,-70.272003
944.768005,103.456001,-64.416000
950.624023,109.311996,-72.223999
942.815979,103.456001,-74.176003
942.815979,107.360001,-72.223999
938.911987,107.360001,-83.935997
929.151978,101.503998,-87.839996
935.007996,111.264000,-80.031998
944.768005,101.503998,-89.792000
938.911987,107.360001,-76.127998
946.719971,101.503998,-78.080002
944.768005,115.167999,-81.984001
944.768005,105.407997,-89.792000
938.911987,111.264000,-83.935997
938.911987,115.167999,-81.984001
940.864014,111.264000,-76.127998
944.768005,113.216003,-78.080002
944.768005,103.456001,-76.127998
936.960022,111.264000,-66.367996
942.815979,101.503998,-60.512001
944.768005,111.264000,-72.223999
946.719971,109.311996,-68.320000
936.960022,119.071999,-68.320000
942.815979,115.167999,-68.320000
935.007996,109.311996,-68.320000
940.864014,115.167999,-66.367996
946.719971,119.071999,-60.512001
933.056030,117.120003,-60.512001
935.007996,121.024002,-64.416000
938.911987,117.120003,-68.320000
935.007996,119.071999,-72.223999
940.864014,122.975998,-74.176003
933.056030,117.120003,-66.367996
933.056030,122.975998,-68.320000
933.056030,121.024002,-60.512001
940.864014,122.975998,-74.176003
942.815979,124.928001,-78.080002
940.864014,117.120003,-72.223999
923.296021,119.071999,-81.984001
925.247986,117.120003,-83.935997
931.104004,113.216003,-83.935997
931.104004,119.071999,-81.984001
929.151978,105.407997,-87.839996
925.247986,121.024002,-81.984001
923.296021,117.120003,-81.984001
911.583984,121.024002,-87.839996
909.632019,126.879997,-83.935997
921.343994,122.975998,-93.695999
923.296021,119.071999,-89.792000
917.440002,122.975998,-85.888000
927.200012,122.975998,-85.888000
927.200012,126.879997,-91.744003
927.200012,121.024002,-87.839996
923.296021,126.879997,-83.935997
919.392029,119.071999,-85.888000
923.296021,117.120003,-85.888000
923.296021,128.832001,-93.695999
917.440002,126.879997,-93.695999
927.200012,130.783997,-76.127998
933.056030,130.783997,-85.888000
925.247986,130.783997,-78.080002
931.104004,122.975998,-81.984001
929.151978,130.783997,-80.031998
