ACC_X,ACC_Y,ACC_Z
530.943970,484.096008,687.104004
536.799988,484.096008,687.104004
532.895996,491.903992,683.200012
534.848022,488.000000,685.151978
527.039978,484.096008,687.104004
532.895996,491.903992,692.960022
532.895996,486.048004,691.007996
528.992004,493.855988,691.007996
532.895996,484.096008,700.768005
538.752014,486.048004,691.007996
527.039978,484.096008,685.151978
536.799988,484.096008,683.200012
534.848022,484.096008,683.200012
528.992004,482.144012,692.960022
540.703979,486.048004,687.104004
540.703979,493.855988,692.960022
540.703979,488.000000,692.960022
540.703979,488.000000,692.960022
534.848022,488.000000,687.104004
536.799988,486.048004,679.296021
532.895996,489.951996,689.056030
534.848022,488.000000,685.151978
540.703979,493.855988,681.247986
536.799988,495.808014,687.104004
534.848022,491.903992,681.247986
544.607971,491.903992,681.247986
534.848022,491.903992,687.104004
538.752014,486.048004,685.151978
546.559998,493.855988,687.104004
544.607971,488.000000,687.104004
540.703979,486.048004,694.911987
550.463989,488.000000,696.864014
546.559998,493.855988,692.960022
556.320007,488.000000,700.768005
554.367981,491.903992,700.768005
550.463989,484.096008,687.104004
548.512024,488.000000,696.864014
550.463989,501.664001,694.911987
552.416016,497.760010,692.960022
550.463989,495.808014,692.960022
556.320007,499.712006,691.007996
552.416016,501.664001,691.007996
552.416016,495.808014,687.104004
554.367981,501.664001,689.056030
556.320007,503.615997,687.104004
556.320007,501.664001,691.007996
554.367981,503.615997,694.911987
554.367981,493.855988,683.200012
556.320007,489.951996,687.104004
558.271973,491.903992,683.200012
560.223999,488.000000,689.056030
558.271973,495.808014,679.296021
560.223999,495.808014,687.104004
564.127991,499.712006,692.960022
562.176025,497.760010,691.007996
554.367981,501.664001,689.056030
556.320007,495.808014,702.719971
552.416016,515.328003,698.815979
564.127991,507.519989,708.575989
564.127991,505.567993,702.719971
568.031982,513.375977,708.575989
560.223999,511.424011,698.815979
566.080017,505.567993,698.815979
560.223999,517.280029,700.768005
564.127991,517.280029,698.815979
568.031982,501.664001,694.911987
560.223999,499.712006,696.864014
552.416016,513.375977,694.911987
554.367981,505.567993,694.911987
546.559998,503.615997,696.864014
564.127991,503.615997,700.768005
550.463989,501.664001,692.960022
560.223999,497.760010,700.768005
550.463989,501.664001,698.815979
552.416016,495.808014,698.815979
554.367981,511.424011,694.911987
556.320007,507.519989,685.151978
552.416016,486.048004,692.960022
546.559998,507.519989,706.624023
546.559998,511.424011,700.768005
542.656006,503.615997,702.719971
550.463989,505.567993,710.528015
556.320007,503.615997,706.624023
552.416016,505.567993,704.671997
548.512024,497.760010,706.624023
538.752014,501.664001,696.864014
546.559998,505.567993,687.104004
550.463989,503.615997,692.960022
548.512024,493.855988,700.768005
540.703979,503.615997,700.768005
544.607971,491.903992,687.104004
544.607971,499.712006,687.104004
542.656006,495.808014,694.911987
538.752014,503.615997,698.815979
532.895996,505.567993,694.911987
536.799988,493.855988,691.007996
538.752014,501.664001,700.768005
534.848022,505.567993,706.624023
534.848022,507.519989,702.719971
528.992004,497.760010,700.768005
525.088013,503.615997,706.624023
530.943970,491.903992,700.768005
530.943970,495.808014,698.815979
536.799988,489.951996,702.719971
532.895996,488.000000,704.671997
528.992004,493.855988,700.768005
523.135986,489.951996,708.575989
530.943970,484.096008,706.624023
528.992004,491.903992,694.911987
519.231995,491.903992,700.768005
527.039978,488.000000,691.007996
523.135986,488.000000,694.911987
523.135986,486.048004,694.911987
525.088013,488.000000,696.864014
523.135986,491.903992,691.007996
530.943970,489.951996,685.151978
525.088013,497.760010,698.815979
519.231995,497.760010,691.007996
525.088013,488.000000,696.864014
527.039978,495.808014,710.528015
525.088013,488.000000,700.768005
523.135986,489.951996,708.575989
532.895996,480.191986,694.911987
525.088013,491.903992,702.719971
525.088013,493.855988,708.575989
527.039978,480.191986,694.911987
525.088013,480.191986,694.911987
527.039978,486.048004,698.815979
523.135986,486.048004,694.911987
527.039978,480.191986,694.911987
523.135986,486.048004,700.768005
527.039978,488.000000,698.815979
534.848022,482.144012,694.911987
532.895996,482.144012,698.815979
530.943970,488.000000,708.575989
534.848022,488.000000,694.911987
540.703979,493.855988,712.479980
536.799988,486.048004,702.719971
538.752014,480.191986,710.528015
536.799988,491.903992,706.624023
540.703979,472.384003,708.575989
548.512024,482.144012,716.383972
546.559998,491.903992,714.432007
538.752014,480.191986,714.432007
550.463989,474.335999,722.239990
542.656006,474.335999,714.432007
556.320007,482.144012,718.335999
554.367981,476.287994,718.335999
560.223999,470.432007,716.383972
560.223999,476.287994,714.432007
568.031982,474.335999,718.335999
564.127991,460.671997,714.432007
558.271973,470.432007,710.528015
556.320007,478.239990,712.479980
562.176025,484.096008,714.432007
560.223999,484.096008,716.383972
558.271973,468.480011,728.096008
560.223999,482.144012,724.192017
568.031982,486.048004,728.096008
558.271973,474.335999,726.143982
564.127991,474.335999,724.192017
575.840027,472.384003,728.096008
571.935974,466.528015,714.432007
573.888000,470.432007,724.192017
579.744019,470.432007,726.143982
577.791992,478.239990,726.143982
581.695984,470.432007,730.047974
589.504028,456.768005,735.903992
585.599976,468.480011,741.760010
587.552002,468.480011,733.952026
579.744019,454.816010,741.760010
575.840027,468.480011,735.903992
577.791992,472.384003,735.903992
587.552002,466.528015,733.952026
583.648010,474.335999,726.143982
583.648010,464.575989,722.239990
587.552002,464.575989,732.000000
583.648010,474.335999,724.192017
581.695984,468.480011,722.239990
591.455994,470.432007,724.192017
587.552002,464.575989,722.239990
589.504028,464.575989,714.432007
583.648010,468.480011,724.192017
587.552002,466.528015,722.239990
581.695984,464.575989,730.047974
587.552002,466.528015,722.239990
585.599976,470.432007,728.096008
591.455994,476.287994,726.143982
589.504028,476.287994,726.143982
587.552002,474.335999,728.096008
593.408020,474.335999,732.000000
595.359985,480.191986,726.143982
593.408020,472.384003,724.192017
599.263977,488.000000,722.239990
591.455994,482.144012,724.192017
589.504028,489.951996,720.288025
583.648010,486.048004,718.335999
593.408020,482.144012,718.335999
587.552002,476.287994,712.479980
581.695984,474.335999,710.528015
585.599976,470.432007,722.239990
587.552002,472.384003,716.383972
587.552002,484.096008,718.335999
583.648010,484.096008,710.528015
581.695984,484.096008,712.479980
587.552002,480.191986,716.383972
585.599976,482.144012,724.192017
585.599976,488.000000,722.239990
595.359985,486.048004,724.192017
585.599976,489.951996,720.288025
581.695984,489.951996,716.383972
583.648010,488.000000,726.143982
587.552002,488.000000,722.239990
585.599976,491.903992,720.288025
595.359985,489.951996,710.528015
585.599976,489.951996,720.288025
593.408020,484.096008,716.383972
589.504028,501.664001,712.479980
585.599976,495.808014,714.432007
583.648010,497.760010,704.671997
585.599976,497.760010,710.528015
587.552002,499.712006,702.719971
581.695984,489.951996,712.479980
581.695984,489.951996,714.432007
585.599976,503.615997,708.575989
581.695984,501.664001,706.624023
581.695984,501.664001,712.479980
591.455994,503.615997,720.288025
587.552002,491.903992,708.575989
587.552002,501.664001,716.383972
595.359985,501.664001,710.528015
591.455994,501.664001,720.288025
597.312012,493.855988,722.239990
593.408020,495.808014,722.239990
593.408020,497.760010,722.239990
593.408020,488.000000,728.096008
605.119995,495.808014,726.143982
595.359985,482.144012,722.239990
599.263977,488.000000,718.335999
599.263977,495.808014,724.192017
593.408020,484.096008,724.192017
591.455994,488.000000,724.192017
597.312012,491.903992,728.096008
605.119995,491.903992,733.952026
601.216003,489.951996,730.047974
601.216003,501.664001,726.143982
601.216003,495.808014,726.143982
605.119995,488.000000,720.288025
603.168030,491.903992,724.192017
609.023987,493.855988,726.143982
607.072021,484.096008,724.192017
605.119995,491.903992,718.335999
601.216003,493.855988,726.143982
599.263977,489.951996,726.143982
605.119995,491.903992,724.192017
601.216003,488.000000,720.288025
603.168030,488.000000,718.335999
603.168030,484.096008,728.096008
597.312012,489.951996,722.239990
595.359985,491.903992,728.096008
607.072021,476.287994,714.432007
607.072021,484.096008,728.096008
609.023987,493.855988,724.192017
603.168030,486.048004,716.383972
599.263977,476.287994,718.335999
599.263977,488.000000,720.288025
593.408020,489.951996,714.432007
599.263977,484.096008,724.192017
593.408020,480.191986,720.288025
595.359985,484.096008,728.096008
595.359985,486.048004,726.143982
593.408020,491.903992,728.096008
589.504028,480.191986,732.000000
605.119995,478.239990,726.143982
599.263977,482.144012,726.143982
601.216003,470.432007,735.903992
607.072021,472.384003,722.239990
601.216003,482.144012,724.192017
589.504028,482.144012,724.192017
589.504028,486.048004,726.143982
585.599976,480.191986,732.000000
597.312012,476.287994,722.239990
597.312012,478.239990,730.047974
595.359985,478.239990,730.047974
589.504028,480.191986,724.192017
597.312012,472.384003,732.000000
591.455994,476.287994,716.383972
599.263977,476.287994,722.239990
589.504028,476.287994,718.335999
587.552002,474.335999,728.096008
591.455994,482.144012,732.000000
585.599976,466.528015,726.143982
583.648010,472.384003,732.000000
595.359985,474.335999,726.143982
587.552002,462.623993,728.096008
591.455994,468.480011,728.096008
587.552002,478.239990,724.192017
589.504028,488.000000,722.239990
581.695984,484.096008,724.192017
577.791992,478.239990,720.288025
575.840027,474.335999,718.335999
587.552002,476.287994,718.335999
569.984009,486.048004,720.288025
568.031982,484.096008,712.479980
564.127991,482.144012,708.575989
562.176025,482.144012,712.479980
571.935974,484.096008,700.768005
566.080017,474.335999,694.911987
564.127991,480.191986,700.768005
569.984009,486.048004,712.479980
577.791992,486.048004,708.575989
569.984009,482.144012,710.528015
566.080017,472.384003,710.528015
579.744019,480.191986,718.335999
583.648010,482.144012,726.143982
577.791992,476.287994,728.096008
573.888000,472.384003,722.239990
587.552002,482.144012,724.192017
577.791992,486.048004,724.192017
589.504028,472.384003,724.192017
587.552002,472.384003,739.807983
585.599976,474.335999,735.903992
589.504028,482.144012,733.952026
591.455994,478.239990,735.903992
583.648010,482.144012,728.096008
589.504028,480.191986,730.047974
583.648010,476.287994,737.856018
585.599976,486.048004,726.143982
581.695984,480.191986,722.239990
587.552002,488.000000,732.000000
581.695984,480.191986,722.239990
585.599976,474.335999,726.143982
583.648010,468.480011,718.335999
587.552002,472.384003,722.239990
581.695984,476.287994,726.143982
581.695984,464.575989,730.047974
585.599976,480.191986,733.952026
581.695984,480.191986,733.952026
585.599976,478.239990,726.143982
585.599976,474.335999,732.000000
585.599976,474.335999,726.143982
589.504028,464.575989,728.096008
591.455994,464.575989,728.096008
607.072021,458.720001,726.143982
599.263977,452.864014,718.335999
591.455994,466.528015,730.047974
587.552002,470.432007,720.288025
591.455994,470.432007,724.192017
575.840027,468.480011,720.288025
577.791992,476.287994,737.856018
579.744019,470.432007,741.760010
587.552002,472.384003,745.664001
587.552002,474.335999,747.616028
585.599976,464.575989,753.471985
583.648010,466.528015,753.471985
587.552002,470.432007,741.760010
581.695984,480.191986,739.807983
569.984009,476.287994,733.952026
562.176025,478.239990,716.383972
562.176025,488.000000,714.432007
558.271973,491.903992,720.288025
552.416016,493.855988,696.864014
548.512024,488.000000,696.864014
542.656006,488.000000,692.960022
542.656006,497.760010,700.768005
532.895996,489.951996,718.335999
530.943970,493.855988,741.760010
540.703979,486.048004,763.231995
562.176025,480.191986,778.848022
564.127991,468.480011,786.656006
548.512024,468.480011,790.559998
538.752014,470.432007,769.088013
540.703979,476.287994,757.375977
536.799988,474.335999,741.760010
530.943970,464.575989,726.143982
528.992004,468.480011,720.288025
530.943970,470.432007,698.815979
519.231995,460.671997,691.007996
513.375977,464.575989,679.296021
509.471985,476.287994,665.632019
505.567993,478.239990,657.823975
505.567993,476.287994,659.776001
509.471985,491.903992,644.159973
495.808014,501.664001,644.159973
499.712006,480.191986,636.351990
499.712006,486.048004,646.112000
497.760010,484.096008,644.159973
505.567993,472.384003,651.968018
497.760010,474.335999,657.823975
493.855988,472.384003,650.015991
493.855988,470.432007,651.968018
489.951996,468.480011,655.872009
497.760010,472.384003,653.919983
499.712006,456.768005,657.823975
505.567993,452.864014,665.632019
509.471985,452.864014,669.536011
503.615997,452.864014,677.343994
491.903992,443.104004,673.440002
495.808014,452.864014,681.247986
503.615997,458.720001,677.343994
509.471985,454.816010,681.247986
507.519989,456.768005,673.440002
507.519989,443.104004,679.296021
503.615997,454.816010,675.392029
499.712006,454.816010,679.296021
507.519989,464.575989,675.392029
515.328003,454.816010,673.440002
513.375977,460.671997,671.487976
507.519989,448.959991,691.007996
505.567993,447.007996,685.151978
511.424011,452.864014,683.200012
511.424011,448.959991,689.056030
513.375977,443.104004,687.104004
509.471985,448.959991,700.768005
521.184021,445.056000,691.007996
527.039978,447.007996,696.864014
515.328003,433.343994,704.671997
521.184021,433.343994,708.575989
517.280029,433.343994,712.479980
515.328003,441.152008,716.383972
521.184021,439.200012,716.383972
530.943970,437.247986,722.239990
534.848022,441.152008,720.288025
530.943970,435.295990,722.239990
530.943970,437.247986,722.239990
530.943970,429.440002,728.096008
538.752014,441.152008,724.192017
544.607971,437.247986,724.192017
530.943970,433.343994,726.143982
532.895996,429.440002,739.807983
540.703979,435.295990,743.711975
534.848022,429.440002,739.807983
536.799988,427.488007,735.903992
544.607971,431.391998,737.856018
548.512024,423.584015,747.616028
538.752014,425.536011,741.760010
542.656006,437.247986,741.760010
544.607971,425.536011,743.711975
530.943970,433.343994,759.328003
534.848022,425.536011,747.616028
538.752014,419.679993,745.664001
544.607971,425.536011,749.567993
550.463989,417.727997,751.520020
534.848022,423.584015,749.567993
540.703979,419.679993,751.520020
542.656006,423.584015,745.664001
538.752014,415.776001,761.280029
540.703979,415.776001,759.328003
536.799988,419.679993,749.567993
538.752014,415.776001,749.567993
546.559998,413.824005,753.471985
540.703979,419.679993,761.280029
540.703979,415.776001,759.328003
538.752014,407.967987,759.328003
536.799988,413.824005,747.616028
530.943970,415.776001,751.520020
519.231995,425.536011,759.328003
491.903992,429.440002,757.375977
480.191986,421.631989,757.375977
464.575989,417.727997,751.520020
464.575989,450.911987,741.760010
474.335999,439.200012,735.903992
495.808014,421.631989,718.335999
523.135986,421.631989,722.239990
532.895996,417.727997,724.192017
540.703979,409.920013,722.239990
532.895996,394.303986,716.383972
521.184021,394.303986,712.479980
519.231995,402.112000,708.575989
517.280029,396.256012,706.624023
536.799988,388.447998,706.624023
544.607971,390.399994,691.007996
542.656006,396.256012,687.104004
546.559998,396.256012,692.960022
548.512024,394.303986,689.056030
542.656006,398.208008,685.151978
548.512024,392.351990,685.151978
548.512024,388.447998,689.056030
548.512024,396.256012,692.960022
540.703979,400.160004,681.247986
532.895996,400.160004,687.104004
517.280029,406.015991,694.911987
517.280029,402.112000,694.911987
511.424011,417.727997,696.864014
519.231995,429.440002,706.624023
515.328003,415.776001,724.192017
511.424011,411.872009,722.239990
515.328003,417.727997,720.288025
513.375977,413.824005,728.096008
513.375977,421.631989,728.096008
505.567993,425.536011,732.000000
517.280029,415.776001,728.096008
509.471985,415.776001,739.807983
517.280029,411.872009,751.520020
513.375977,400.160004,749.567993
515.328003,400.160004,747.616028
521.184021,398.208008,745.664001
513.375977,394.303986,743.711975
517.280029,380.640015,745.664001
511.424011,394.303986,743.711975
515.328003,382.592010,741.760010
511.424011,384.544006,747.616028
523.135986,392.351990,732.000000
515.328003,386.496002,732.000000
517.280029,382.592010,739.807983
511.424011,404.063995,730.047974
517.280029,394.303986,728.096008
509.471985,404.063995,722.239990
509.471985,411.872009,735.903992
505.567993,409.920013,724.192017
505.567993,411.872009,720.288025
511.424011,411.872009,722.239990
507.519989,413.824005,724.192017
509.471985,406.015991,716.383972
515.328003,407.967987,720.288025
507.519989,406.015991,716.383972
517.280029,398.208008,718.335999
513.375977,402.112000,724.192017
509.471985,407.967987,726.143982
517.280029,392.351990,720.288025
515.328003,390.399994,728.096008
507.519989,407.967987,732.000000
505.567993,398.208008,735.903992
503.615997,380.640015,733.952026
501.664001,402.112000,730.047974
511.424011,392.351990,735.903992
499.712006,392.351990,716.383972
499.712006,400.160004,720.288025
491.903992,394.303986,714.432007
509.471985,386.496002,708.575989
507.519989,406.015991,712.479980
505.567993,404.063995,708.575989
511.424011,396.256012,704.671997
507.519989,402.112000,700.768005
509.471985,402.112000,694.911987
507.519989,404.063995,698.815979
499.712006,402.112000,698.815979
511.424011,407.967987,698.815979
507.519989,400.160004,694.911987
513.375977,396.256012,696.864014
513.375977,402.112000,702.719971
509.471985,394.303986,694.911987
509.471985,398.208008,696.864014
513.375977,402.112000,704.671997
511.424011,398.208008,700.768005
517.280029,402.112000,698.815979
515.328003,390.399994,702.719971
521.184021,386.496002,708.575989
521.184021,400.160004,708.575989
517.280029,400.160004,698.815979
507.519989,388.447998,702.719971
521.184021,394.303986,706.624023
527.039978,392.351990,698.815979
523.135986,392.351990,694.911987
527.039978,400.160004,700.768005
525.088013,404.063995,696.864014
528.992004,404.063995,698.815979
536.799988,402.112000,694.911987
527.039978,404.063995,698.815979
525.088013,400.160004,708.575989
527.039978,406.015991,708.575989
534.848022,400.160004,710.528015
527.039978,406.015991,702.719971
530.943970,409.920013,712.479980
540.703979,406.015991,716.383972
532.895996,409.920013,712.479980
538.752014,411.872009,710.528015
538.752014,406.015991,710.528015
544.607971,400.160004,718.335999
540.703979,404.063995,718.335999
552.416016,407.967987,720.288025
548.512024,402.112000,724.192017
536.799988,407.967987,726.143982
546.559998,400.160004,722.239990
542.656006,400.160004,724.192017
546.559998,407.967987,722.239990
550.463989,409.920013,726.143982
546.559998,415.776001,726.143982
548.512024,409.920013,724.192017
542.656006,413.824005,726.143982
546.559998,421.631989,728.096008
542.656006,423.584015,722.239990
544.607971,415.776001,728.096008
546.559998,421.631989,722.239990
556.320007,425.536011,733.952026
548.512024,435.295990,737.856018
544.607971,421.631989,728.096008
550.463989,439.200012,730.047974
542.656006,431.391998,726.143982
542.656006,429.440002,726.143982
542.656006,433.343994,732.000000
548.512024,427.488007,735.903992
538.752014,429.440002,733.952026
550.463989,427.488007,737.856018
544.607971,425.536011,743.711975
548.512024,435.295990,733.952026
542.656006,431.391998,730.047974
546.559998,427.488007,741.760010
546.559998,433.343994,749.567993
542.656006,443.104004,733.952026
538.752014,429.440002,726.143982
552.416016,447.007996,739.807983
546.559998,439.200012,741.760010
540.703979,435.295990,737.856018
540.703979,441.152008,739.807983
536.799988,447.007996,733.952026
536.799988,439.200012,737.856018
544.607971,441.152008,730.047974
538.752014,443.104004,739.807983
534.848022,441.152008,733.952026
534.848022,447.007996,728.096008
527.039978,437.247986,732.000000
536.799988,439.200012,730.047974
530.943970,433.343994,728.096008
532.895996,447.007996,722.239990
527.039978,441.152008,724.192017
521.184021,437.247986,724.192017
521.184021,448.959991,718.335999
528.992004,439.200012,714.432007
530.943970,443.104004,716.383972
523.135986,452.864014,724.192017
521.184021,445.056000,722.239990
525.088013,443.104004,732.000000
525.088013,452.864014,724.192017
523.135986,445.056000,712.479980
527.039978,445.056000,724.192017
519.231995,458.720001,724.192017
511.424011,448.959991,712.479980
513.375977,443.104004,712.479980
515.328003,450.911987,706.624023
513.375977,441.152008,708.575989
517.280029,437.247986,700.768005
507.519989,439.200012,700.768005
521.184021,443.104004,704.671997
519.231995,437.247986,700.768005
517.280029,443.104004,710.528015
507.519989,445.056000,710.528015
515.328003,437.247986,712.479980
507.519989,443.104004,710.528015
513.375977,445.056000,708.575989
511.424011,443.104004,712.479980
513.375977,450.911987,710.528015
511.424011,445.056000,710.528015
509.471985,435.295990,712.479980
511.424011,448.959991,710.528015
530.943970,441.152008,702.719971
511.424011,445.056000,702.719971
503.615997,450.911987,700.768005
509.471985,448.959991,700.768005
511.424011,443.104004,702.719971
513.375977,452.864014,696.864014
503.615997,450.911987,700.768005
503.615997,441.152008,696.864014
505.567993,450.911987,689.056030
511.424011,437.247986,689.056030
503.615997,435.295990,683.200012
503.615997,450.911987,694.911987
497.760010,447.007996,692.960022
501.664001,429.440002,689.056030
499.712006,433.343994,681.247986
503.615997,433.343994,689.056030
499.712006,433.343994,683.200012
507.519989,435.295990,675.392029
509.471985,431.391998,681.247986
501.664001,429.440002,679.296021
495.808014,433.343994,683.200012
503.615997,429.440002,679.296021
499.712006,433.343994,685.151978
505.567993,437.247986,685.151978
503.615997,437.247986,683.200012
505.567993,425.536011,687.104004
507.519989,429.440002,700.768005
509.471985,425.536011,692.960022
513.375977,421.631989,696.864014
509.471985,417.727997,700.768005
509.471985,421.631989,704.671997
515.328003,415.776001,704.671997
521.184021,406.015991,712.479980
515.328003,421.631989,708.575989
511.424011,417.727997,710.528015
528.992004,415.776001,710.528015
519.231995,423.584015,708.575989
519.231995,417.727997,712.479980
519.231995,409.920013,712.479980
521.184021,415.776001,702.719971
519.231995,415.776001,708.575989
525.088013,407.967987,710.528015
523.135986,411.872009,698.815979
515.328003,409.920013,708.575989
525.088013,407.967987,696.864014
517.280029,417.727997,708.575989
517.280029,406.015991,702.719971
521.184021,407.967987,702.719971
525.088013,413.824005,706.624023
517.280029,411.872009,710.528015
525.088013,406.015991,704.671997
527.039978,407.967987,710.528015
519.231995,409.920013,712.479980
530.943970,407.967987,716.383972
521.184021,398.208008,712.479980
525.088013,396.256012,716.383972
519.231995,386.496002,712.479980
528.992004,390.399994,716.383972
525.088013,398.208008,710.528015
523.135986,390.399994,706.624023
534.848022,398.208008,712.479980
530.943970,398.208008,714.432007
534.848022,404.063995,724.192017
536.799988,402.112000,702.719971
536.799988,406.015991,714.432007
530.943970,407.967987,712.479980
527.039978,409.920013,710.528015
536.799988,406.015991,714.432007
521.184021,415.776001,720.288025
515.328003,409.920013,710.528015
527.039978,409.920013,718.335999
527.039978,407.967987,718.335999
530.943970,411.872009,716.383972
521.184021,400.160004,710.528015
530.943970,406.015991,710.528015
527.039978,398.208008,714.432007
523.135986,402.112000,716.383972
527.039978,398.208008,712.479980
523.135986,396.256012,710.528015
527.039978,396.256012,710.528015
527.039978,402.112000,710.528015
519.231995,394.303986,710.528015
528.992004,402.112000,710.528015
532.895996,409.920013,702.719971
527.039978,402.112000,716.383972
528.992004,415.776001,716.383972
525.088013,409.920013,714.432007
525.088013,402.112000,720.288025
521.184021,409.920013,708.575989
536.799988,411.872009,710.528015
534.848022,400.160004,716.383972
527.039978,396.256012,714.432007
527.039978,396.256012,710.528015
521.184021,400.160004,716.383972
519.231995,392.351990,710.528015
534.848022,392.351990,712.479980
528.992004,388.447998,704.671997
525.088013,378.687988,691.007996
523.135986,372.832001,696.864014
519.231995,382.592010,708.575989
528.992004,374.783997,700.768005
532.895996,366.976013,708.575989
530.943970,366.976013,700.768005
525.088013,374.783997,710.528015
532.895996,370.880005,710.528015
528.992004,376.735992,712.479980
525.088013,384.544006,724.192017
527.039978,374.783997,722.239990
527.039978,388.447998,724.192017
523.135986,376.735992,710.528015
528.992004,365.023987,708.575989
540.703979,366.976013,706.624023
530.943970,365.023987,702.719971
540.703979,353.312012,704.671997
542.656006,368.928009,712.479980
540.703979,366.976013,706.624023
538.752014,357.216003,716.383972
542.656006,363.071991,728.096008
540.703979,380.640015,724.192017
540.703979,365.023987,728.096008
538.752014,370.880005,726.143982
532.895996,361.119995,724.192017
534.848022,359.167999,716.383972
534.848022,363.071991,712.479980
530.943970,361.119995,712.479980
538.752014,359.167999,698.815979
542.656006,365.023987,704.671997
542.656006,361.119995,712.479980
536.799988,359.167999,716.383972
544.607971,372.832001,714.432007
534.848022,355.264008,722.239990
538.752014,361.119995,720.288025
540.703979,363.071991,724.192017
534.848022,357.216003,733.952026
527.039978,349.407990,728.096008
530.943970,357.216003,724.192017
536.799988,347.455994,720.288025
540.703979,337.696014,706.624023
536.799988,351.359985,708.575989
528.992004,343.552002,708.575989
530.943970,343.552002,708.575989
519.231995,353.312012,704.671997
515.328003,337.696014,698.815979
521.184021,347.455994,683.200012
517.280029,347.455994,704.671997
507.519989,333.791992,698.815979
517.280029,339.648010,696.864014
521.184021,347.455994,702.719971
511.424011,327.936005,694.911987
515.328003,324.032013,696.864014
507.519989,339.648010,700.768005
519.231995,337.696014,696.864014
499.712006,322.079987,683.200012
501.664001,345.503998,679.296021
503.615997,335.743988,685.151978
497.760010,327.936005,683.200012
513.375977,341.600006,681.247986
509.471985,339.648010,681.247986
509.471985,341.600006,681.247986
499.712006,325.984009,675.392029
501.664001,333.791992,671.487976
501.664001,329.888000,675.392029
495.808014,331.839996,671.487976
497.760010,331.839996,667.583984
505.567993,339.648010,663.679993
497.760010,331.839996,659.776001
495.808014,325.984009,655.872009
495.808014,331.839996,669.536011
493.855988,331.839996,673.440002
501.664001,322.079987,665.632019
507.519989,324.032013,679.296021
507.519989,324.032013,683.200012
501.664001,314.272003,685.151978
495.808014,314.272003,683.200012
497.760010,318.175995,692.960022
511.424011,312.320007,683.200012
515.328003,308.415985,687.104004
503.615997,298.656006,692.960022
511.424011,300.608002,689.056030
523.135986,306.463989,696.864014
511.424011,306.463989,694.911987
519.231995,298.656006,696.864014
519.231995,310.368011,704.671997
521.184021,300.608002,694.911987
515.328003,298.656006,700.768005
505.567993,302.559998,706.624023
507.519989,304.511993,698.815979
507.519989,302.559998,698.815979
517.280029,300.608002,702.719971
513.375977,292.799988,691.007996
505.567993,288.895996,689.056030
501.664001,298.656006,681.247986
505.567993,286.944000,671.487976
499.712006,290.847992,683.200012
497.760010,288.895996,663.679993
497.760010,281.088013,659.776001
497.760010,281.088013,665.632019
493.855988,273.279999,663.679993
493.855988,281.088013,665.632019
497.760010,279.135986,659.776001
499.712006,269.376007,659.776001
499.712006,263.519989,653.919983
501.664001,269.376007,657.823975
497.760010,261.567993,659.776001
505.567993,249.856003,657.823975
503.615997,259.615997,665.632019
515.328003,251.807999,677.343994
525.088013,245.951996,673.440002
527.039978,238.143997,669.536011
515.328003,244.000000,675.392029
530.943970,244.000000,667.583984
528.992004,255.712006,675.392029
528.992004,253.759995,681.247986
532.895996,245.951996,685.151978
534.848022,249.856003,689.056030
538.752014,255.712006,683.200012
540.703979,247.904007,685.151978
544.607971,238.143997,681.247986
552.416016,245.951996,679.296021
538.752014,257.664001,685.151978
538.752014,244.000000,685.151978
546.559998,251.807999,691.007996
534.848022,251.807999,691.007996
548.512024,251.807999,683.200012
560.223999,259.615997,692.960022
554.367981,240.095993,683.200012
564.127991,244.000000,691.007996
554.367981,240.095993,687.104004
560.223999,236.192001,698.815979
558.271973,224.479996,696.864014
562.176025,244.000000,696.864014
564.127991,226.432007,704.671997
568.031982,234.240005,700.768005
560.223999,218.623993,696.864014
558.271973,214.720001,702.719971
566.080017,204.960007,698.815979
568.031982,212.768005,694.911987
566.080017,216.671997,692.960022
569.984009,224.479996,689.056030
566.080017,214.720001,689.056030
562.176025,220.576004,685.151978
566.080017,212.768005,679.296021
566.080017,214.720001,679.296021
575.840027,218.623993,675.392029
573.888000,222.528000,677.343994
566.080017,224.479996,681.247986
573.888000,220.576004,673.440002
581.695984,228.384003,683.200012
587.552002,220.576004,683.200012
589.504028,216.671997,689.056030
587.552002,222.528000,683.200012
585.599976,218.623993,691.007996
597.312012,222.528000,696.864014
591.455994,226.432007,692.960022
607.072021,224.479996,691.007996
597.312012,244.000000,692.960022
610.976013,240.095993,694.911987
595.359985,238.143997,696.864014
603.168030,232.287994,696.864014
605.119995,242.048004,692.960022
603.168030,236.192001,692.960022
610.976013,230.335999,679.296021
610.976013,230.335999,679.296021
610.976013,242.048004,692.960022
597.312012,236.192001,685.151978
607.072021,255.712006,687.104004
605.119995,251.807999,694.911987
614.880005,245.951996,691.007996
605.119995,255.712006,689.056030
605.119995,261.567993,691.007996
609.023987,261.567993,694.911987
605.119995,259.615997,689.056030
622.687988,265.471985,687.104004
616.831970,263.519989,685.151978
620.736023,257.664001,694.911987
618.783997,267.424011,689.056030
616.831970,267.424011,687.104004
609.023987,259.615997,689.056030
605.119995,255.712006,683.200012
612.927979,249.856003,689.056030
610.976013,249.856003,681.247986
616.831970,251.807999,685.151978
612.927979,255.712006,685.151978
609.023987,245.951996,683.200012
612.927979,263.519989,681.247986
605.119995,251.807999,673.440002
605.119995,257.664001,685.151978
610.976013,267.424011,683.200012
607.072021,251.807999,671.487976
610.976013,257.664001,679.296021
610.976013,257.664001,671.487976
603.168030,257.664001,671.487976
601.216003,251.807999,663.679993
603.168030,259.615997,659.776001
605.119995,244.000000,663.679993
603.168030,247.904007,663.679993
601.216003,245.951996,663.679993
595.359985,238.143997,665.632019
597.312012,240.095993,661.728027
597.312012,244.000000,653.919983
597.312012,234.240005,648.064026
603.168030,232.287994,648.064026
599.263977,234.240005,644.159973
591.455994,240.095993,648.064026
593.408020,238.143997,638.304016
607.072021,242.048004,644.159973
593.408020,238.143997,638.304016
597.312012,234.240005,640.255981
597.312012,232.287994,646.112000
601.216003,247.904007,632.447998
601.216003,234.240005,630.495972
607.072021,240.095993,634.400024
603.168030,238.143997,630.495972
607.072021,232.287994,628.544006
607.072021,234.240005,628.544006
614.880005,240.095993,620.736023
610.976013,232.287994,624.640015
618.783997,230.335999,624.640015
618.783997,240.095993,620.736023
601.216003,236.192001,626.591980
622.687988,245.951996,616.831970
622.687988,238.143997,609.023987
624.640015,234.240005,612.927979
626.591980,244.000000,626.591980
638.304016,244.000000,624.640015
636.351990,236.192001,622.687988
636.351990,251.807999,632.447998
646.112000,247.904007,620.736023
648.064026,257.664001,632.447998
648.064026,255.712006,632.447998
650.015991,263.519989,632.447998
653.919983,275.231995,638.304016
640.255981,286.944000,640.255981
648.064026,271.328003,646.112000
655.872009,271.328003,636.351990
669.536011,271.328003,630.495972
681.247986,259.615997,624.640015
685.151978,263.519989,620.736023
687.104004,251.807999,624.640015
683.200012,253.759995,630.495972
687.104004,259.615997,630.495972
691.007996,261.567993,638.304016
692.960022,269.376007,634.400024
685.151978,279.135986,634.400024
692.960022,283.040009,632.447998
691.007996,286.944000,630.495972
702.719971,292.799988,640.255981
708.575989,288.895996,632.447998
706.624023,281.088013,636.351990
716.383972,281.088013,634.400024
708.575989,294.752014,628.544006
714.432007,292.799988,638.304016
724.192017,300.608002,640.255981
706.624023,312.320007,638.304016
722.239990,306.463989,630.495972
706.624023,308.415985,632.447998
706.624023,310.368011,632.447998
718.335999,312.320007,628.544006
722.239990,316.223999,634.400024
726.143982,310.368011,618.783997
739.807983,312.320007,624.640015
737.856018,306.463989,632.447998
739.807983,302.559998,634.400024
741.760010,314.272003,616.831970
737.856018,316.223999,622.687988
741.760010,314.272003,626.591980
751.520020,322.079987,624.640015
747.616028,316.223999,630.495972
761.280029,318.175995,628.544006
755.424011,339.648010,632.447998
759.328003,339.648010,636.351990
759.328003,327.936005,638.304016
761.280029,341.600006,640.255981
771.039978,333.791992,648.064026
772.992004,324.032013,644.159973
774.943970,335.743988,646.112000
772.992004,327.936005,640.255981
778.848022,331.839996,634.400024
780.799988,327.936005,642.208008
784.703979,318.175995,630.495972
772.992004,327.936005,630.495972
784.703979,329.888000,636.351990
761.280029,322.079987,646.112000
774.943970,337.696014,646.112000
769.088013,337.696014,642.208008
778.848022,322.079987,638.304016
786.656006,331.839996,646.112000
780.799988,335.743988,646.112000
769.088013,322.079987,650.015991
780.799988,329.888000,648.064026
782.752014,335.743988,648.064026
776.895996,320.127991,657.823975
790.559998,337.696014,651.968018
778.848022,339.648010,651.968018
774.943970,320.127991,650.015991
780.799988,329.888000,646.112000
786.656006,322.079987,657.823975
784.703979,314.272003,646.112000
776.895996,316.223999,646.112000
774.943970,318.175995,644.159973
772.992004,302.559998,651.968018
767.135986,312.320007,644.159973
774.943970,320.127991,648.064026
771.039978,304.511993,653.919983
771.039978,298.656006,644.159973
771.039978,318.175995,644.159973
761.280029,302.559998,646.112000
761.280029,300.608002,648.064026
761.280029,300.608002,653.919983
759.328003,294.752014,646.112000
763.231995,286.944000,644.159973
755.424011,294.752014,650.015991
749.567993,296.704010,638.304016
749.567993,290.847992,644.159973
751.520020,290.847992,630.495972
753.471985,273.279999,630.495972
749.567993,271.328003,632.447998
749.567993,283.040009,638.304016
757.375977,265.471985,642.208008
751.520020,263.519989,638.304016
753.471985,265.471985,653.919983
743.711975,253.759995,644.159973
739.807983,244.000000,650.015991
747.616028,251.807999,651.968018
741.760010,255.712006,644.159973
735.903992,240.095993,644.159973
737.856018,238.143997,646.112000
745.664001,244.000000,653.919983
743.711975,232.287994,644.159973
741.760010,238.143997,632.447998
735.903992,230.335999,640.255981
745.664001,210.815994,638.304016
728.096008,228.384003,646.112000
749.567993,212.768005,632.447998
735.903992,191.296005,634.400024
730.047974,210.815994,636.351990
735.903992,208.863998,636.351990
743.711975,195.199997,650.015991
743.711975,208.863998,650.015991
743.711975,203.007996,650.015991
739.807983,189.343994,646.112000
737.856018,199.104004,648.064026
743.711975,191.296005,650.015991
741.760010,183.488007,640.255981
747.616028,187.391998,638.304016
745.664001,195.199997,636.351990
737.856018,181.535995,634.400024
735.903992,191.296005,636.351990
751.520020,181.535995,628.544006
751.520020,177.632004,626.591980
747.616028,175.679993,634.400024
735.903992,185.440002,636.351990
732.000000,175.679993,636.351990
745.664001,181.535995,636.351990
741.760010,183.488007,620.736023
739.807983,175.679993,622.687988
739.807983,177.632004,620.736023
741.760010,181.535995,620.736023
732.000000,179.584000,618.783997
747.616028,183.488007,616.831970
747.616028,189.343994,609.023987
747.616028,185.440002,607.072021
743.711975,185.440002,603.168030
730.047974,189.343994,609.023987
741.760010,193.248001,603.168030
733.952026,183.488007,597.312012
728.096008,187.391998,591.455994
735.903992,189.343994,605.119995
745.664001,191.296005,601.216003
739.807983,171.776001,603.168030
732.000000,191.296005,610.976013
732.000000,199.104004,609.023987
726.143982,193.248001,597.312012
747.616028,193.248001,603.168030
743.711975,214.720001,609.023987
741.760010,212.768005,599.263977
749.567993,210.815994,601.216003
737.856018,214.720001,610.976013
747.616028,216.671997,614.880005
743.711975,216.671997,610.976013
749.567993,220.576004,620.736023
739.807983,220.576004,609.023987
751.520020,224.479996,605.119995
741.760010,218.623993,593.408020
745.664001,216.671997,603.168030
757.375977,218.623993,597.312012
755.424011,216.671997,603.168030
747.616028,224.479996,597.312012
745.664001,214.720001,595.359985
751.520020,228.384003,603.168030
759.328003,232.287994,609.023987
755.424011,216.671997,603.168030
753.471985,228.384003,597.312012
755.424011,236.192001,591.455994
763.231995,226.432007,597.312012
753.471985,226.432007,605.119995
755.424011,238.143997,609.023987
759.328003,242.048004,599.263977
767.135986,234.240005,607.072021
763.231995,240.095993,607.072021
774.943970,245.951996,607.072021
761.280029,242.048004,610.976013
776.895996,236.192001,607.072021
771.039978,255.712006,605.119995
771.039978,240.095993,616.831970
786.656006,244.000000,614.880005
776.895996,245.951996,614.880005
780.799988,245.951996,612.927979
774.943970,247.904007,601.216003
769.088013,245.951996,607.072021
776.895996,234.240005,618.783997
778.848022,249.856003,607.072021
769.088013,253.759995,618.783997
778.848022,247.904007,609.023987
780.799988,249.856003,614.880005
790.559998,253.759995,605.119995
772.992004,257.664001,610.976013
774.943970,257.664001,605.119995
784.703979,261.567993,610.976013
780.799988,265.471985,603.168030
788.607971,253.759995,601.216003
786.656006,263.519989,614.880005
778.848022,259.615997,612.927979
780.799988,255.712006,605.119995
778.848022,259.615997,618.783997
772.992004,257.664001,610.976013
780.799988,249.856003,609.023987
784.703979,253.759995,603.168030
774.943970,249.856003,605.119995
784.703979,244.000000,607.072021
786.656006,247.904007,605.119995
790.559998,238.143997,610.976013
786.656006,242.048004,610.976013
790.559998,242.048004,622.687988
788.607971,236.192001,622.687988
798.367981,236.192001,626.591980
806.176025,244.000000,634.400024
796.416016,238.143997,632.447998
792.512024,245.951996,638.304016
806.176025,242.048004,636.351990
792.512024,240.095993,638.304016
802.271973,247.904007,634.400024
806.176025,238.143997,646.112000
810.080017,230.335999,642.208008
808.127991,236.192001,640.255981
804.223999,226.432007,642.208008
808.127991,230.335999,636.351990
800.320007,236.192001,636.351990
804.223999,218.623993,632.447998
796.416016,218.623993,642.208008
794.463989,218.623993,638.304016
782.752014,218.623993,642.208008
778.848022,218.623993,634.400024
786.656006,214.720001,628.544006
776.895996,224.479996,624.640015
776.895996,208.863998,616.831970
772.992004,214.720001,622.687988
771.039978,216.671997,620.736023
774.943970,201.056000,622.687988
767.135986,197.151993,616.831970
769.088013,204.960007,624.640015
763.231995,206.912003,612.927979
761.280029,206.912003,618.783997
763.231995,204.960007,620.736023
757.375977,199.104004,626.591980
763.231995,187.391998,622.687988
759.328003,191.296005,634.400024
761.280029,197.151993,616.831970
759.328003,193.248001,612.927979
753.471985,193.248001,622.687988
755.424011,197.151993,616.831970
749.567993,201.056000,622.687988
743.711975,195.199997,610.976013
739.807983,187.391998,618.783997
737.856018,189.343994,616.831970
730.047974,185.440002,599.263977
733.952026,191.296005,607.072021
749.567993,175.679993,601.216003
737.856018,181.535995,603.168030
730.047974,173.727997,597.312012
735.903992,177.632004,595.359985
732.000000,169.824005,603.168030
735.903992,189.343994,599.263977
730.047974,181.535995,610.976013
730.047974,175.679993,605.119995
730.047974,183.488007,601.216003
739.807983,189.343994,603.168030
739.807983,171.776001,609.023987
732.000000,165.919998,605.119995
733.952026,173.727997,612.927979
728.096008,171.776001,607.072021
739.807983,163.968002,609.023987
747.616028,173.727997,610.976013
733.952026,167.871994,607.072021
737.856018,175.679993,607.072021
724.192017,167.871994,607.072021
728.096008,160.063995,603.168030
730.047974,165.919998,607.072021
732.000000,167.871994,603.168030
728.096008,160.063995,605.119995
718.335999,156.160004,607.072021
728.096008,160.063995,609.023987
730.047974,158.112000,607.072021
730.047974,146.399994,603.168030
726.143982,160.063995,605.119995
722.239990,165.919998,610.976013
724.192017,150.304001,609.023987
728.096008,158.112000,607.072021
710.528015,167.871994,605.119995
722.239990,146.399994,609.023987
712.479980,152.255997,603.168030
712.479980,167.871994,607.072021
708.575989,154.207993,599.263977
704.671997,154.207993,597.312012
710.528015,158.112000,591.455994
710.528015,142.496002,579.744019
710.528015,146.399994,585.599976
702.719971,154.207993,581.695984
694.911987,142.496002,579.744019
694.911987,136.639999,583.648010
702.719971,154.207993,583.648010
696.864014,140.544006,575.840027
698.815979,138.591995,587.552002
696.864014,136.639999,575.840027
687.104004,140.544006,560.223999
694.911987,138.591995,571.935974
696.864014,134.688004,566.080017
689.056030,132.735992,568.031982
704.671997,132.735992,556.320007
694.911987,134.688004,556.320007
698.815979,138.591995,558.271973
698.815979,142.496002,550.463989
692.960022,136.639999,548.512024
696.864014,138.591995,542.656006
694.911987,146.399994,548.512024
700.768005,146.399994,548.512024
700.768005,154.207993,536.799988
696.864014,138.591995,544.607971
704.671997,152.255997,542.656006
700.768005,146.399994,538.752014
698.815979,154.207993,538.752014
706.624023,158.112000,536.799988
716.383972,150.304001,540.703979
704.671997,162.016006,540.703979
710.528015,163.968002,538.752014
714.432007,169.824005,536.799988
710.528015,173.727997,544.607971
722.239990,173.727997,540.703979
718.335999,169.824005,538.752014
732.000000,177.632004,540.703979
724.192017,185.440002,546.559998
735.903992,177.632004,556.320007
733.952026,181.535995,560.223999
739.807983,185.440002,558.271973
735.903992,179.584000,568.031982
737.856018,183.488007,571.935974
751.520020,189.343994,571.935974
743.711975,187.391998,583.648010
751.520020,179.584000,573.888000
761.280029,177.632004,573.888000
759.328003,181.535995,581.695984
761.280029,183.488007,575.840027
765.184021,179.584000,585.599976
755.424011,187.391998,575.840027
755.424011,187.391998,571.935974
757.375977,189.343994,575.840027
759.328003,197.151993,571.935974
757.375977,177.632004,568.031982
767.135986,193.248001,554.367981
759.328003,187.391998,568.031982
765.184021,175.679993,568.031982
774.943970,177.632004,562.176025
772.992004,189.343994,554.367981
786.656006,175.679993,558.271973
782.752014,177.632004,566.080017
790.559998,181.535995,568.031982
794.463989,189.343994,573.888000
788.607971,183.488007,575.840027
806.176025,181.535995,583.648010
802.271973,183.488007,591.455994
808.127991,175.679993,597.312012
815.935974,175.679993,610.976013
821.791992,171.776001,607.072021
835.455994,173.727997,601.216003
831.552002,165.919998,599.263977
845.216003,169.824005,607.072021
845.216003,169.824005,607.072021
853.023987,160.063995,610.976013
853.023987,165.919998,614.880005
856.927979,177.632004,603.168030
853.023987,163.968002,605.119995
856.927979,171.776001,609.023987
853.023987,171.776001,609.023987
854.976013,177.632004,612.927979
860.831970,173.727997,616.831970
856.927979,181.535995,610.976013
864.736023,173.727997,618.783997
866.687988,167.871994,605.119995
866.687988,163.968002,599.263977
862.783997,167.871994,603.168030
858.880005,167.871994,607.072021
864.736023,165.919998,610.976013
854.976013,169.824005,620.736023
860.831970,165.919998,612.927979
854.976013,162.016006,612.927979
853.023987,162.016006,616.831970
849.119995,165.919998,618.783997
843.263977,162.016006,614.880005
849.119995,160.063995,610.976013
847.168030,158.112000,614.880005
835.455994,156.160004,597.312012
847.168030,163.968002,595.359985
835.455994,165.919998,599.263977
833.504028,169.824005,601.216003
825.695984,173.727997,595.359985
831.552002,169.824005,593.408020
835.455994,171.776001,589.504028
829.599976,165.919998,587.552002
819.840027,175.679993,595.359985
810.080017,171.776001,593.408020
808.127991,181.535995,581.695984
810.080017,171.776001,581.695984
808.127991,165.919998,591.455994
810.080017,171.776001,577.791992
798.367981,169.824005,575.840027
800.320007,167.871994,566.080017
792.512024,162.016006,562.176025
788.607971,148.352005,568.031982
792.512024,162.016006,562.176025
792.512024,162.016006,554.367981
784.703979,156.160004,550.463989
786.656006,154.207993,546.559998
790.559998,156.160004,548.512024
778.848022,148.352005,546.559998
782.752014,150.304001,550.463989
772.992004,154.207993,540.703979
786.656006,146.399994,556.320007
780.799988,150.304001,542.656006
782.752014,158.112000,560.223999
780.799988,160.063995,556.320007
784.703979,142.496002,568.031982
790.559998,148.352005,573.888000
786.656006,152.255997,569.984009
786.656006,146.399994,579.744019
786.656006,142.496002,585.599976
792.512024,148.352005,573.888000
794.463989,140.544006,579.744019
796.416016,142.496002,583.648010
794.463989,158.112000,573.888000
792.512024,152.255997,579.744019
786.656006,158.112000,575.840027
786.656006,148.352005,581.695984
782.752014,144.447998,579.744019
772.992004,142.496002,568.031982
774.943970,144.447998,566.080017
780.799988,150.304001,566.080017
782.752014,154.207993,560.223999
776.895996,140.544006,552.416016
778.848022,144.447998,548.512024
771.039978,150.304001,554.367981
767.135986,136.639999,554.367981
765.184021,138.591995,554.367981
769.088013,138.591995,568.031982
769.088013,136.639999,564.127991
771.039978,138.591995,568.031982
765.184021,136.639999,560.223999
772.992004,121.024002,554.367981
776.895996,126.879997,558.271973
778.848022,134.688004,562.176025
772.992004,128.832001,556.320007
771.039978,130.783997,564.127991
771.039978,124.928001,556.320007
774.943970,122.975998,552.416016
772.992004,126.879997,554.367981
771.039978,128.832001,554.367981
765.184021,122.975998,556.320007
771.039978,124.928001,550.463989
772.992004,132.735992,544.607971
774.943970,128.832001,542.656006
765.184021,121.024002,540.703979
757.375977,122.975998,538.752014
771.039978,121.024002,534.848022
771.039978,119.071999,528.992004
774.943970,128.832001,536.799988
757.375977,130.783997,523.135986
763.231995,132.735992,521.184021
765.184021,130.783997,515.328003
759.328003,126.879997,521.184021
769.088013,126.879997,525.088013
767.135986,122.975998,511.424011
778.848022,121.024002,523.135986
774.943970,122.975998,513.375977
772.992004,130.783997,513.375977
778.848022,126.879997,503.615997
776.895996,122.975998,513.375977
782.752014,124.928001,507.519989
784.703979,136.639999,507.519989
796.416016,130.783997,501.664001
800.320007,130.783997,501.664001
796.416016,138.591995,513.375977
800.320007,150.304001,511.424011
800.320007,144.447998,509.471985
819.840027,146.399994,511.424011
819.840027,152.255997,513.375977
817.888000,140.544006,530.943970
827.648010,156.160004,536.799988
839.359985,160.063995,523.135986
837.408020,160.063995,525.088013
849.119995,160.063995,528.992004
849.119995,160.063995,527.039978
851.072021,163.968002,528.992004
851.072021,162.016006,532.895996
864.736023,162.016006,530.943970
868.640015,160.063995,527.039978
866.687988,158.112000,532.895996
870.591980,165.919998,538.752014
872.544006,162.016006,538.752014
884.255981,165.919998,534.848022
884.255981,163.968002,548.512024
899.872009,156.160004,544.607971
899.872009,156.160004,542.656006
899.872009,165.919998,550.463989
911.583984,163.968002,534.848022
907.679993,177.632004,554.367981
915.487976,171.776001,540.703979
915.487976,163.968002,552.416016
913.536011,177.632004,548.512024
913.536011,179.584000,548.512024
921.343994,189.343994,554.367981
929.151978,179.584000,552.416016
917.440002,181.535995,548.512024
921.343994,189.343994,538.752014
929.151978,185.440002,548.512024
929.151978,185.440002,542.656006
936.960022,177.632004,542.656006
933.056030,181.535995,544.607971
931.104004,175.679993,540.703979
931.104004,185.440002,534.848022
927.200012,183.488007,534.848022
917.440002,193.248001,528.992004
925.247986,187.391998,532.895996
925.247986,191.296005,530.943970
929.151978,189.343994,523.135986
927.200012,195.199997,511.424011
917.440002,199.104004,523.135986
927.200012,206.912003,527.039978
931.104004,201.056000,525.088013
933.056030,206.912003,517.280029
935.007996,210.815994,515.328003
931.104004,212.768005,517.280029
929.151978,214.720001,517.280029
925.247986,214.720001,523.135986
929.151978,224.479996,511.424011
929.151978,230.335999,507.519989
938.911987,224.479996,511.424011
929.151978,230.335999,517.280029
921.343994,226.432007,511.424011
921.343994,228.384003,511.424011
925.247986,238.143997,513.375977
925.247986,218.623993,509.471985
935.007996,203.007996,503.615997
933.056030,210.815994,501.664001
936.960022,210.815994,513.375977
933.056030,203.007996,499.712006
935.007996,206.912003,507.519989
931.104004,216.671997,503.615997
933.056030,214.720001,509.471985
936.960022,222.528000,505.567993
927.200012,236.192001,505.567993
917.440002,220.576004,505.567993
929.151978,226.432007,507.519989
927.200012,232.287994,509.471985
940.864014,234.240005,509.471985
933.056030,236.192001,507.519989
927.200012,236.192001,505.567993
925.247986,216.671997,509.471985
925.247986,244.000000,523.135986
925.247986,226.432007,503.615997
919.392029,224.479996,511.424011
927.200012,236.192001,507.519989
917.440002,220.576004,511.424011
917.440002,212.768005,505.567993
919.392029,222.528000,503.615997
909.632019,218.623993,495.808014
919.392029,210.815994,513.375977
917.440002,208.863998,507.519989
921.343994,228.384003,503.615997
915.487976,218.623993,501.664001
913.536011,218.623993,503.615997
913.536011,236.192001,503.615997
917.440002,232.287994,503.615997
919.392029,240.095993,503.615997
909.632019,238.143997,507.519989
915.487976,234.240005,509.471985
919.392029,234.240005,503.615997
913.536011,240.095993,507.519989
911.583984,236.192001,495.808014
911.583984,236.192001,501.664001
913.536011,236.192001,503.615997
907.679993,226.432007,507.519989
901.823975,232.287994,507.519989
899.872009,224.479996,513.375977
897.919983,230.335999,507.519989
907.679993,226.432007,505.567993
895.968018,232.287994,486.048004
899.872009,232.287994,488.000000
894.015991,226.432007,493.855988
892.064026,236.192001,489.951996
884.255981,230.335999,484.096008
890.112000,230.335999,489.951996
890.112000,228.384003,484.096008
888.159973,232.287994,486.048004
892.064026,234.240005,486.048004
890.112000,234.240005,482.144012
884.255981,228.384003,480.191986
878.400024,234.240005,478.239990
882.304016,216.671997,488.000000
882.304016,218.623993,489.951996
882.304016,208.863998,480.191986
886.208008,210.815994,486.048004
880.351990,212.768005,484.096008
872.544006,206.912003,478.239990
870.591980,199.104004,476.287994
876.447998,197.151993,472.384003
868.640015,185.440002,472.384003
876.447998,191.296005,478.239990
870.591980,195.199997,474.335999
862.783997,199.104004,472.384003
864.736023,197.151993,478.239990
872.544006,199.104004,476.287994
866.687988,201.056000,482.144012
858.880005,206.912003,474.335999
849.119995,193.248001,460.671997
845.216003,199.104004,452.864014
854.976013,197.151993,452.864014
849.119995,189.343994,462.623993
854.976013,177.632004,448.959991
853.023987,177.632004,441.152008
851.072021,177.632004,445.056000
851.072021,187.391998,445.056000
845.216003,185.440002,439.200012
839.359985,175.679993,445.056000
847.168030,197.151993,450.911987
843.263977,197.151993,443.104004
849.119995,189.343994,437.247986
837.408020,191.296005,443.104004
841.312012,193.248001,437.247986
841.312012,191.296005,435.295990
845.216003,187.391998,437.247986
839.359985,189.343994,439.200012
849.119995,197.151993,443.104004
841.312012,204.960007,425.536011
829.599976,203.007996,425.536011
833.504028,195.199997,425.536011
827.648010,204.960007,423.584015
823.744019,210.815994,425.536011
827.648010,195.199997,417.727997
825.695984,203.007996,427.488007
825.695984,212.768005,425.536011
819.840027,201.056000,415.776001
821.791992,203.007996,415.776001
821.791992,197.151993,409.920013
827.648010,218.623993,411.872009
817.888000,210.815994,413.824005
804.223999,214.720001,409.920013
812.031982,220.576004,419.679993
819.840027,214.720001,411.872009
810.080017,226.432007,404.063995
806.176025,220.576004,402.112000
813.984009,220.576004,402.112000
810.080017,220.576004,402.112000
808.127991,216.671997,402.112000
808.127991,226.432007,394.303986
813.984009,236.192001,392.351990
808.127991,228.384003,388.447998
815.935974,230.335999,388.447998
806.176025,232.287994,400.160004
804.223999,226.432007,382.592010
794.463989,230.335999,396.256012
802.271973,228.384003,384.544006
802.271973,232.287994,384.544006
790.559998,228.384003,390.399994
786.656006,232.287994,380.640015
784.703979,228.384003,378.687988
794.463989,232.287994,378.687988
794.463989,236.192001,372.832001
792.512024,236.192001,366.976013
786.656006,232.287994,376.735992
794.463989,238.143997,380.640015
786.656006,224.479996,366.976013
788.607971,236.192001,370.880005
794.463989,226.432007,372.832001
788.607971,226.432007,370.880005
790.559998,218.623993,368.928009
786.656006,230.335999,370.880005
788.607971,226.432007,378.687988
780.799988,224.479996,378.687988
786.656006,216.671997,392.351990
780.799988,218.623993,384.544006
780.799988,220.576004,382.592010
782.752014,212.768005,380.640015
786.656006,216.671997,384.544006
786.656006,214.720001,386.496002
786.656006,214.720001,382.592010
782.752014,203.007996,370.880005
772.992004,206.912003,378.687988
784.703979,214.720001,372.832001
788.607971,201.056000,370.880005
786.656006,201.056000,363.071991
792.512024,193.248001,366.976013
782.752014,189.343994,365.023987
786.656006,197.151993,368.928009
788.607971,179.584000,368.928009
780.799988,175.679993,365.023987
790.559998,175.679993,372.832001
784.703979,175.679993,368.928009
788.607971,167.871994,366.976013
790.559998,163.968002,363.071991
798.367981,169.824005,370.880005
790.559998,158.112000,365.023987
790.559998,156.160004,368.928009
802.271973,146.399994,365.023987
794.463989,148.352005,366.976013
806.176025,154.207993,361.119995
808.127991,144.447998,365.023987
806.176025,142.496002,363.071991
802.271973,136.639999,361.119995
798.367981,138.591995,355.264008
796.416016,130.783997,355.264008
806.176025,132.735992,363.071991
810.080017,124.928001,365.023987
813.984009,126.879997,366.976013
812.031982,109.311996,368.928009
804.223999,117.120003,372.832001
815.935974,119.071999,368.928009
821.791992,115.167999,376.735992
819.840027,115.167999,382.592010
821.791992,113.216003,380.640015
821.791992,121.024002,382.592010
823.744019,117.120003,368.928009
835.455994,115.167999,376.735992
827.648010,119.071999,366.976013
829.599976,119.071999,363.071991
819.840027,121.024002,363.071991
819.840027,122.975998,368.928009
817.888000,111.264000,365.023987
819.840027,109.311996,357.216003
821.791992,109.311996,353.312012
821.791992,103.456001,353.312012
815.935974,105.407997,361.119995
827.648010,101.503998,361.119995
823.744019,99.552002,366.976013
833.504028,85.888000,366.976013
841.312012,91.744003,368.928009
839.359985,89.792000,366.976013
835.455994,89.792000,378.687988
847.168030,74.176003,380.640015
853.023987,78.080002,384.544006
841.312012,72.223999,380.640015
853.023987,66.367996,396.256012
849.119995,68.320000,398.208008
854.976013,70.272003,398.208008
858.880005,66.367996,398.208008
860.831970,60.512001,407.967987
862.783997,52.703999,415.776001
860.831970,56.608002,415.776001
870.591980,50.751999,415.776001
872.544006,39.040001,425.536011
876.447998,40.992001,429.440002
880.351990,40.992001,427.488007
866.687988,33.183998,435.295990
874.495972,37.088001,435.295990
878.400024,27.327999,435.295990
882.304016,27.327999,431.391998
870.591980,37.088001,443.104004
868.640015,35.136002,431.391998
878.400024,31.232000,439.200012
880.351990,31.232000,439.200012
878.400024,29.280001,439.200012
878.400024,27.327999,435.295990
876.447998,33.183998,431.391998
870.591980,33.183998,435.295990
882.304016,27.327999,443.104004
866.687988,33.183998,443.104004
876.447998,35.136002,443.104004
868.640015,40.992001,443.104004
872.544006,31.232000,454.816010
882.304016,23.424000,447.007996
872.544006,33.183998,462.623993
870.591980,29.280001,458.720001
872.544006,29.280001,458.720001
880.351990,37.088001,462.623993
874.495972,33.183998,462.623993
874.495972,33.183998,466.528015
866.687988,33.183998,460.671997
868.640015,31.232000,462.623993
868.640015,31.232000,458.720001
866.687988,37.088001,454.816010
868.640015,25.375999,447.007996
872.544006,33.183998,452.864014
876.447998,29.280001,447.007996
876.447998,29.280001,437.247986
866.687988,23.424000,427.488007
860.831970,25.375999,421.631989
866.687988,27.327999,417.727997
853.023987,40.992001,409.920013
843.263977,39.040001,402.112000
845.216003,39.040001,406.015991
837.408020,33.183998,400.160004
835.455994,31.232000,396.256012
827.648010,39.040001,392.351990
837.408020,23.424000,382.592010
833.504028,25.375999,378.687988
823.744019,33.183998,380.640015
823.744019,27.327999,380.640015
827.648010,19.520000,372.832001
827.648010,21.472000,368.928009
833.504028,21.472000,366.976013
833.504028,21.472000,370.880005
823.744019,21.472000,359.167999
823.744019,15.616000,359.167999
831.552002,27.327999,355.264008
825.695984,35.136002,357.216003
819.840027,23.424000,355.264008
817.888000,19.520000,353.312012
817.888000,23.424000,349.407990
817.888000,35.136002,351.359985
823.744019,25.375999,339.648010
815.935974,33.183998,335.743988
827.648010,29.280001,327.936005
829.599976,27.327999,331.839996
829.599976,27.327999,327.936005
819.840027,23.424000,329.888000
831.552002,27.327999,329.888000
829.599976,31.232000,327.936005
829.599976,27.327999,325.984009
825.695984,29.280001,337.696014
829.599976,33.183998,329.888000
825.695984,27.327999,325.984009
825.695984,35.136002,318.175995
825.695984,35.136002,324.032013
819.840027,29.280001,318.175995
821.791992,31.232000,312.320007
817.888000,37.088001,312.320007
823.744019,29.280001,306.463989
827.648010,29.280001,306.463989
833.504028,27.327999,304.511993
829.599976,31.232000,304.511993
819.840027,31.232000,308.415985
817.888000,31.232000,302.559998
819.840027,31.232000,306.463989
821.791992,44.896000,304.511993
819.840027,39.040001,304.511993
829.599976,40.992001,306.463989
823.744019,33.183998,302.559998
833.504028,35.136002,314.272003
829.599976,29.280001,294.752014
835.455994,23.424000,310.368011
831.552002,40.992001,312.320007
833.504028,25.375999,310.368011
831.552002,31.232000,316.223999
835.455994,27.327999,302.559998
835.455994,23.424000,308.415985
841.312012,23.424000,316.223999
845.216003,29.280001,312.320007
835.455994,25.375999,316.223999
847.168030,25.375999,306.463989
843.263977,33.183998,306.463989
847.168030,21.472000,316.223999
847.168030,25.375999,318.175995
856.927979,11.712000,316.223999
854.976013,17.568001,316.223999
856.927979,15.616000,304.511993
868.640015,15.616000,312.320007
862.783997,15.616000,314.272003
868.640015,3.904000,306.463989
862.783997,15.616000,300.608002
868.640015,13.664000,308.415985
864.736023,7.808000,300.608002
868.640015,5.856000,300.608002
878.400024,3.904000,312.320007
882.304016,5.856000,314.272003
884.255981,0.000000,318.175995
892.064026,-1.952000,325.984009
886.208008,-1.952000,320.127991
899.872009,-5.856000,322.079987
901.823975,-19.520000,331.839996
905.728027,-11.712000,325.984009
911.583984,-17.568001,341.600006
909.632019,-25.375999,331.839996
913.536011,-23.424000,345.503998
909.632019,-27.327999,347.455994
921.343994,-21.472000,345.503998
925.247986,-29.280001,355.264008
927.200012,-31.232000,343.552002
931.104004,-31.232000,353.312012
931.104004,-27.327999,343.552002
935.007996,-33.183998,353.312012
931.104004,-27.327999,341.600006
935.007996,-29.280001,343.552002
938.911987,-31.232000,343.552002
948.671997,-44.896000,345.503998
936.960022,-35.136002,349.407990
946.719971,-29.280001,349.407990
942.815979,-39.040001,353.312012
948.671997,-39.040001,357.216003
954.528015,-39.040001,361.119995
956.479980,-35.136002,361.119995
966.239990,-29.280001,368.928009
944.768005,-44.896000,366.976013
952.575989,-42.944000,368.928009
954.528015,-33.183998,370.880005
952.575989,-42.944000,370.880005
960.383972,-40.992001,376.735992
964.288025,-44.896000,384.544006
970.143982,-48.799999,390.399994
958.432007,-40.992001,392.351990
964.288025,-33.183998,388.447998
974.047974,-40.992001,386.496002
981.856018,-48.799999,396.256012
983.807983,-44.896000,390.399994
979.903992,-44.896000,396.256012
976.000000,-48.799999,398.208008
976.000000,-46.848000,394.303986
974.047974,-62.464001,378.687988
972.096008,-62.464001,374.783997
976.000000,-54.655998,366.976013
977.952026,-44.896000,363.071991
970.143982,-60.512001,359.167999
960.383972,-50.751999,351.359985
968.192017,-60.512001,343.552002
974.047974,-68.320000,331.839996
966.239990,-58.560001,335.743988
972.096008,-56.608002,345.503998
960.383972,-60.512001,335.743988
970.143982,-68.320000,337.696014
974.047974,-48.799999,335.743988
972.096008,-58.560001,327.936005
968.192017,-64.416000,327.936005
983.807983,-54.655998,318.175995
977.952026,-48.799999,308.415985
979.903992,-42.944000,306.463989
987.711975,-44.896000,314.272003
991.616028,-44.896000,320.127991
991.616028,-46.848000,314.272003
991.616028,-40.992001,310.368011
993.567993,-40.992001,312.320007
989.664001,-37.088001,308.415985
983.807983,-40.992001,308.415985
993.567993,-25.375999,296.704010
983.807983,-17.568001,292.799988
997.471985,-33.183998,294.752014
999.424011,-23.424000,296.704010
1007.231995,-7.808000,298.656006
1007.231995,-3.904000,288.895996
1007.231995,5.856000,288.895996
1007.231995,11.712000,284.992004
1009.184021,11.712000,283.040009
1005.280029,17.568001,283.040009
1005.280029,21.472000,281.088013
1020.895996,27.327999,281.088013
1028.703979,15.616000,273.279999
1032.608032,27.327999,277.183990
954.528015,-103.456001,341.600006
972.096008,-83.935997,499.712006
970.143982,181.535995,603.168030
1063.839966,163.968002,597.312012
1134.112061,160.063995,538.752014
1184.864014,197.151993,525.088013
1190.719971,152.255997,546.559998
1167.296021,185.440002,554.367981
1163.391968,203.007996,527.039978
1159.488037,95.648003,484.096008
1192.671997,42.944000,419.679993
1214.144043,60.512001,363.071991
1200.479980,13.664000,329.888000
1167.296021,-35.136002,324.032013
1132.160034,-5.856000,329.888000
1089.215942,-27.327999,331.839996
1065.791992,-50.751999,347.455994
1071.647949,-40.992001,343.552002
1100.927979,-25.375999,325.984009
1147.776001,-17.568001,312.320007
1136.063965,-23.424000,314.272003
1118.495972,-81.984001,343.552002
1106.784058,-160.063995,361.119995
1122.400024,-119.071999,329.888000
1083.359985,-101.503998,324.032013
1073.599976,-185.440002,329.888000
1071.647949,-191.296005,325.984009
1079.456055,-95.648003,304.511993
1083.359985,-37.088001,290.847992
1065.791992,-58.560001,296.704010
1063.839966,-78.080002,302.559998
1067.744019,-42.944000,292.799988
1059.936035,31.232000,275.231995
1030.656006,50.751999,259.615997
1007.231995,35.136002,259.615997
977.952026,58.560001,253.759995
974.047974,152.255997,238.143997
979.903992,212.768005,208.863998
977.952026,181.535995,208.863998
985.760010,128.832001,204.960007
999.424011,93.695999,199.104004
1007.231995,89.792000,204.960007
1009.184021,64.416000,208.863998
1016.992004,35.136002,218.623993
1007.231995,19.520000,210.815994
1011.135986,15.616000,208.863998
1022.848022,5.856000,216.671997
1015.039978,-15.616000,210.815994
1020.895996,-39.040001,204.960007
1026.751953,-44.896000,199.104004
1042.368042,-17.568001,189.343994
1026.751953,7.808000,187.391998
1026.751953,17.568001,201.056000
1028.703979,39.040001,199.104004
1018.943970,64.416000,206.912003
1036.511963,103.456001,208.863998
1046.271973,124.928001,206.912003
1040.416016,72.223999,216.671997
1044.319946,7.808000,232.287994
1054.079956,9.760000,224.479996
1050.176025,17.568001,210.815994
1065.791992,-11.712000,208.863998
1065.791992,-37.088001,189.343994
1079.456055,-50.751999,189.343994
1089.215942,-33.183998,173.727997
1087.264038,15.616000,175.679993
1108.735962,-1.952000,177.632004
1116.543945,-46.848000,183.488007
1134.112061,-68.320000,185.440002
1138.015991,-48.799999,187.391998
1116.543945,-5.856000,195.199997
1108.735962,9.760000,193.248001
1093.119995,17.568001,197.151993
1087.264038,37.088001,203.007996
1085.312012,42.944000,193.248001
1091.167969,11.712000,208.863998
1087.264038,-21.472000,214.720001
1075.552002,-70.272003,218.623993
1087.264038,-39.040001,226.432007
1098.975952,13.664000,240.095993
1067.744019,52.703999,253.759995
1059.936035,54.655998,259.615997
1065.791992,37.088001,269.376007
1063.839966,48.799999,277.183990
1056.031982,50.751999,292.799988
1044.319946,46.848000,296.704010
1040.416016,76.127998,310.368011
1044.319946,105.407997,306.463989
1036.511963,165.919998,310.368011
1048.223999,203.007996,318.175995
1050.176025,167.871994,325.984009
1046.271973,156.160004,335.743988
1061.887939,386.496002,347.455994
1030.656006,493.855988,386.496002
1018.943970,283.040009,441.152008
1009.184021,48.799999,488.000000
1040.416016,72.223999,472.384003
1079.456055,122.975998,441.152008
1087.264038,7.808000,437.247986
1102.880005,-95.648003,437.247986
1114.592041,-72.223999,409.920013
1118.495972,-17.568001,382.592010
1046.271973,46.848000,396.256012
1063.839966,140.544006,488.000000
1073.599976,357.216003,585.599976
1097.024048,573.888000,661.728027
1102.880005,628.544006,685.151978
1132.160034,478.239990,624.640015
1143.871948,144.447998,552.416016
1163.391968,-13.664000,499.712006
1163.391968,25.375999,460.671997
1165.343994,162.016006,429.440002
1163.391968,238.143997,390.399994
1151.680054,220.576004,380.640015
1143.871948,138.591995,376.735992
1126.303955,48.799999,349.407990
1126.303955,-17.568001,349.407990
1112.640015,-56.608002,331.839996
1095.072021,-80.031998,320.127991
1089.215942,-60.512001,296.704010
1073.599976,-66.367996,288.895996
1083.359985,-93.695999,288.895996
1069.696045,-113.216003,279.135986
1079.456055,-105.407997,284.992004
1083.359985,-83.935997,279.135986
1077.504028,-66.367996,279.135986
1091.167969,-48.799999,275.231995
1079.456055,-48.799999,277.183990
1069.696045,-39.040001,263.519989
1071.647949,-21.472000,253.759995
1054.079956,1.952000,245.951996
1038.463989,11.712000,222.528000
1032.608032,27.327999,210.815994
1011.135986,62.464001,199.104004
1024.800049,85.888000,181.535995
1013.088013,97.599998,169.824005
995.520020,81.984001,158.112000
991.616028,50.751999,148.352005
997.471985,35.136002,130.783997
985.760010,37.088001,128.832001
977.952026,76.127998,119.071999
983.807983,80.031998,113.216003
979.903992,39.040001,99.552002
966.239990,-11.712000,80.031998
964.288025,-19.520000,68.320000
956.479980,11.712000,62.464001
946.719971,39.040001,56.608002
940.864014,66.367996,46.848000
938.911987,56.608002,25.375999
921.343994,37.088001,1.952000
923.296021,19.520000,-25.375999
907.679993,40.992001,-60.512001
884.255981,72.223999,-95.648003
868.640015,115.167999,-134.688004
860.831970,124.928001,-158.112000
845.216003,101.503998,-173.727997
853.023987,93.695999,-193.248001
860.831970,87.839996,-197.151993
872.544006,95.648003,-183.488007
915.487976,107.360001,-187.391998
960.383972,93.695999,-181.535995
979.903992,70.272003,-179.584000
954.528015,13.664000,-171.776001
981.856018,-48.799999,-169.824005
972.096008,-62.464001,-169.824005
977.952026,-64.416000,-169.824005
954.528015,-29.280001,-173.727997
968.192017,37.088001,-167.871994
972.096008,58.560001,-167.871994
989.664001,148.352005,-160.063995
1013.088013,341.600006,-113.216003
1011.135986,482.144012,-60.512001
987.711975,470.432007,-5.856000
1022.848022,247.904007,21.472000
1075.552002,-97.599998,5.856000
1077.504028,-384.544006,-31.232000
1061.887939,-497.760010,-50.751999
1095.072021,-552.416016,-48.799999
1050.176025,-493.855988,-7.808000
1046.271973,-224.479996,56.608002
1003.328003,201.056000,95.648003
1044.319946,558.271973,95.648003
1087.264038,648.064026,87.839996
1038.463989,528.992004,74.176003
1030.656006,290.847992,44.896000
1136.063965,99.552002,-13.664000
1032.608032,83.935997,-25.375999
1120.447998,271.328003,-93.695999
1138.015991,466.528015,-140.544006
1153.631958,575.840027,-183.488007
1241.472046,448.959991,-212.768005
1151.680054,171.776001,-193.248001
1145.823975,-136.639999,-181.535995
1034.560059,-353.312012,-130.783997
1085.312012,-327.936005,-99.552002
1024.800049,-39.040001,-58.560001
1089.215942,341.600006,-3.904000
981.856018,564.127991,91.744003
921.343994,474.335999,173.727997
956.479980,128.832001,195.199997
981.856018,-294.752014,167.871994
1069.696045,-628.544006,154.207993
974.047974,-802.271973,163.968002
956.479980,-468.480011,146.399994
813.984009,140.544006,148.352005
771.039978,772.992004,111.264000
966.239990,1253.183960,37.088001
876.447998,1241.472046,64.416000
1079.456055,903.776001,-17.568001
1157.536011,409.920013,-74.176003
1141.920044,-50.751999,-70.272003
1233.663940,-253.759995,-97.599998
1190.719971,-130.783997,-97.599998
1136.063965,220.576004,-76.127998
1124.352051,579.744019,-76.127998
1118.495972,679.296021,-81.984001
1155.583984,468.480011,-101.503998
1040.416016,-72.223999,-48.799999
1018.943970,-593.408020,72.223999
874.495972,-638.304016,224.479996
897.919983,-103.456001,288.895996
936.960022,581.695984,310.368011
987.711975,1001.375977,257.664001
1077.504028,985.760010,167.871994
1097.024048,583.648010,97.599998
1167.296021,-23.424000,39.040001
1231.712036,-478.239990,21.472000
1100.927979,-525.088013,115.167999
1097.024048,-113.216003,158.112000
1139.968018,365.023987,142.496002
1118.495972,653.919983,97.599998
1114.592041,769.088013,33.183998
1159.488037,704.671997,-25.375999
1145.823975,603.168030,-29.280001
1151.680054,706.624023,-9.760000
1134.112061,894.015991,46.848000
1093.119995,802.271973,130.783997
1022.848022,281.088013,247.904007
1022.848022,-388.447998,320.127991
1044.319946,-806.176025,359.167999
1061.887939,-716.383972,376.735992
1073.599976,-269.376007,345.503998
1106.784058,222.528000,253.759995
1130.208008,493.855988,177.632004
1169.248047,322.079987,85.888000
1214.144043,-74.176003,25.375999
1179.008057,-398.208008,9.760000
1216.095947,-476.287994,-19.520000
1169.248047,-279.135986,-19.520000
1157.536011,40.992001,-33.183998
1136.063965,288.895996,-23.424000
1151.680054,337.696014,-31.232000
1175.104004,203.007996,-17.568001
1188.767944,44.896000,-3.904000
1204.384033,-42.944000,23.424000
1179.008057,15.616000,33.183998
1182.911987,93.695999,40.992001
1188.767944,247.904007,42.944000
1225.855957,345.503998,66.367996
1184.864014,310.368011,124.928001
1155.583984,253.759995,162.016006
1112.640015,259.615997,208.863998
1139.968018,390.399994,222.528000
1182.911987,548.512024,203.007996
1223.904053,663.679993,148.352005
1218.047974,612.927979,97.599998
1179.008057,331.839996,68.320000
1153.631958,-33.183998,37.088001
1149.728027,-269.376007,29.280001
1145.823975,-296.704010,-1.952000
1145.823975,-158.112000,-21.472000
1194.624023,31.232000,-70.272003
1143.871948,156.160004,-40.992001
1159.488037,144.447998,-62.464001
1206.336060,-35.136002,-74.176003
1059.936035,-240.095993,-39.040001
1028.703979,-277.183990,-21.472000
989.664001,-130.783997,-7.808000
1046.271973,99.552002,-15.616000
1089.215942,263.519989,-29.280001
1081.407959,310.368011,-37.088001
1026.751953,216.671997,-44.896000
1077.504028,89.792000,-72.223999
1153.631958,29.280001,-93.695999
1153.631958,19.520000,-93.695999
1151.680054,48.799999,-87.839996
1134.112061,105.407997,-89.792000
1112.640015,154.207993,-62.464001
1087.264038,191.296005,-52.703999
1098.975952,208.863998,-50.751999
1087.264038,173.727997,-40.992001
1112.640015,142.496002,-35.136002
1128.255981,128.832001,-44.896000
1141.920044,48.799999,-62.464001
1102.880005,-72.223999,-60.512001
1048.223999,-97.599998,-29.280001
1026.751953,58.560001,1.952000
1015.039978,306.463989,31.232000
1034.560059,431.391998,50.751999
1073.599976,322.079987,76.127998
1020.895996,0.000000,111.264000
1052.128052,-314.272003,99.552002
1061.887939,-415.776001,95.648003
1102.880005,-296.704010,74.176003
1083.359985,-35.136002,68.320000
1087.264038,165.919998,60.512001
1106.784058,220.576004,27.327999
1124.352051,99.552002,15.616000
1136.063965,-76.127998,5.856000
1130.208008,-197.151993,0.000000
1145.823975,-234.240005,9.760000
1141.920044,-122.975998,27.327999
1079.456055,-27.327999,42.944000
1061.887939,107.360001,39.040001
1030.656006,226.432007,27.327999
1044.319946,214.720001,0.000000
1048.223999,89.792000,-9.760000
1057.984009,-64.416000,-66.367996
1057.984009,-185.440002,-109.311996
1063.839966,-228.384003,-152.255997
983.807983,-222.528000,-154.207993
942.815979,-142.496002,-169.824005
876.447998,-60.512001,-181.535995
862.783997,-81.984001,-187.391998
864.736023,-97.599998,-146.399994
829.599976,-11.712000,-78.080002
829.599976,115.167999,-15.616000
854.976013,288.895996,40.992001
880.351990,441.152008,66.367996
899.872009,318.175995,68.320000
913.536011,1.952000,17.568001
940.864014,-320.127991,-29.280001
927.200012,-486.048004,-50.751999
931.104004,-431.391998,-91.744003
931.104004,-265.471985,-122.975998
917.440002,-31.232000,-136.639999
931.104004,119.071999,-156.160004
915.487976,60.512001,-195.199997
895.968018,-111.264000,-214.720001
868.640015,-294.752014,-234.240005
890.112000,-386.496002,-251.807999
876.447998,-322.079987,-265.471985
849.119995,-134.688004,-279.135986
843.263977,44.896000,-316.223999
794.463989,109.311996,-359.167999
927.200012,247.904007,-431.391998
974.047974,302.559998,-368.928009
1087.264038,189.343994,-306.463989
1089.215942,42.944000,-210.815994
1026.751953,-76.127998,-83.935997
1034.560059,-275.231995,25.375999
1032.608032,-363.071991,126.879997
1059.936035,-208.863998,212.768005
1050.176025,1.952000,288.895996
1065.791992,121.024002,407.967987
1184.864014,1.952000,698.815979
1563.552002,-394.303986,1415.199951
2110.112061,-1011.135986,2730.847900
2607.872070,-1327.359985,3728.320068
2639.104004,-1266.848022,3480.416016
2416.575928,-1001.375977,2211.615967
2127.679932,-425.536011,991.616028
1920.767944,-368.928009,394.303986
1678.719971,-148.352005,167.871994
1329.312012,337.696014,-5.856000
983.807983,525.088013,-201.056000
708.575989,1056.031982,-540.703979
536.799988,1059.936035,-895.968018
460.671997,868.640015,-1077.504028
519.231995,675.392029,-995.520020
655.872009,458.720001,-698.815979
804.223999,136.639999,-445.056000
892.064026,-244.000000,-361.119995
936.960022,-601.216003,-361.119995
972.096008,-800.320007,-300.608002
1040.416016,-771.039978,-162.016006
1083.359985,-691.007996,-54.655998
1046.271973,-482.144012,-107.360001
968.192017,-181.535995,-226.432007
919.392029,113.216003,-343.552002
874.495972,366.976013,-384.544006
856.927979,503.615997,-357.216003
874.495972,566.080017,-304.511993
913.536011,569.984009,-236.192001
976.000000,515.328003,-162.016006
1030.656006,427.488007,-126.879997
1073.599976,288.895996,-115.167999
1106.784058,144.447998,-124.928001
1122.400024,31.232000,-124.928001
1147.776001,3.904000,-130.783997
1177.056030,-7.808000,-140.544006
1132.160034,23.424000,-138.591995
1118.495972,78.080002,-163.968002
1100.927979,23.424000,-206.912003
1079.456055,-29.280001,-238.143997
1054.079956,-76.127998,-253.759995
1042.368042,-136.639999,-257.664001
991.616028,-146.399994,-255.712006
938.911987,-70.272003,-273.279999
923.296021,107.360001,-253.759995
989.664001,222.528000,-226.432007
1056.031982,201.056000,-197.151993
1071.647949,117.120003,-181.535995
1100.927979,60.512001,-171.776001
1110.687988,-1.952000,-154.207993
1116.543945,52.703999,-162.016006
1061.887939,48.799999,-189.343994
1063.839966,35.136002,-242.048004
1059.936035,80.031998,-275.231995
1118.495972,93.695999,-300.608002
1089.215942,70.272003,-294.752014
1085.312012,89.792000,-284.992004
1056.031982,81.984001,-257.664001
1054.079956,80.031998,-224.479996
1091.167969,95.648003,-201.056000
1104.832031,66.367996,-183.488007
1136.063965,29.280001,-216.671997
1134.112061,62.464001,-242.048004
1202.432007,115.167999,-267.424011
1171.199951,29.280001,-286.944000
1155.583984,-7.808000,-288.895996
1108.735962,101.503998,-244.000000
1071.647949,85.888000,-203.007996
1077.504028,150.304001,-224.479996
1095.072021,197.151993,-255.712006
1098.975952,89.792000,-271.328003
1098.975952,70.272003,-253.759995
1136.063965,97.599998,-253.759995
1091.167969,31.232000,-263.519989
1091.167969,42.944000,-279.135986
1126.303955,44.896000,-261.567993
1157.536011,31.232000,-240.095993
1147.776001,146.399994,-212.768005
1130.208008,214.720001,-247.904007
1126.303955,220.576004,-271.328003
1155.583984,199.104004,-257.664001
1136.063965,107.360001,-201.056000
1104.832031,64.416000,-165.919998
1069.696045,66.367996,-191.296005
1061.887939,78.080002,-273.279999
1069.696045,117.120003,-314.272003
1042.368042,56.608002,-306.463989
1093.119995,48.799999,-277.183990
1089.215942,0.000000,-222.528000
1050.176025,40.992001,-230.335999
1044.319946,160.063995,-273.279999
1122.400024,130.783997,-251.807999
1177.056030,54.655998,-255.712006
1188.767944,60.512001,-208.863998
1171.199951,64.416000,-142.496002
1116.543945,80.031998,-119.071999
1089.215942,152.255997,-148.352005
1097.024048,138.591995,-210.815994
1046.271973,62.464001,-292.799988
993.567993,81.984001,-331.839996
1024.800049,39.040001,-304.511993
1028.703979,-31.232000,-251.807999
1194.624023,-64.416000,-265.471985
1071.647949,-62.464001,-238.143997
1102.880005,-11.712000,-171.776001
1126.303955,80.031998,-199.104004
1235.615967,279.135986,-357.216003
1247.328003,206.912003,-322.079987
1259.040039,85.888000,-204.960007
1177.056030,249.856003,-169.824005
1255.135986,456.768005,-185.440002
1313.696045,300.608002,-154.207993
1268.800049,175.679993,-89.792000
1169.248047,261.567993,-1.952000
1116.543945,263.519989,-19.520000
1054.079956,175.679993,-154.207993
1011.135986,171.776001,-263.519989
1028.703979,56.608002,-261.567993
1026.751953,-119.071999,-234.240005
960.383972,-81.984001,-140.544006
1011.135986,-113.216003,-81.984001
968.192017,-179.584000,-91.744003
1034.560059,-203.007996,-113.216003
1134.112061,-501.664001,-81.984001
1083.359985,-349.407990,-40.992001
946.719971,-245.951996,-101.503998
909.632019,-327.936005,-310.368011
1009.184021,-290.847992,-396.256012
1038.463989,-482.144012,-281.088013
956.479980,-247.904007,-222.528000
905.728027,-208.863998,-199.104004
923.296021,-140.544006,-296.704010
911.583984,115.167999,-437.247986
1044.319946,27.327999,-411.872009
989.664001,-64.416000,-238.143997
1126.303955,244.000000,-232.287994
1011.135986,-17.568001,-366.976013
987.711975,44.896000,-406.015991
936.960022,7.808000,-226.432007
954.528015,138.591995,-208.863998
1048.223999,-35.136002,-415.776001
1095.072021,-81.984001,-370.880005
933.056030,308.415985,-206.912003
935.007996,249.856003,-232.287994
1030.656006,294.752014,-363.071991
1030.656006,290.847992,-306.463989
1098.975952,577.791992,-281.088013
1095.072021,554.367981,-234.240005
1104.832031,554.367981,-201.056000
1095.072021,527.039978,-193.248001
1116.543945,454.816010,-197.151993
1130.208008,400.160004,-189.343994
1163.391968,327.936005,-169.824005
1122.400024,281.088013,-152.255997
1114.592041,302.559998,-163.968002
1059.936035,286.944000,-179.584000
1036.511963,335.743988,-175.679993
1009.184021,423.584015,-162.016006
1063.839966,488.000000,-138.591995
1089.215942,474.335999,-74.176003
1180.959961,429.440002,-19.520000
1159.488037,273.279999,17.568001
1139.968018,126.879997,-42.944000
1097.024048,-27.327999,-162.016006
1054.079956,-91.744003,-259.615997
1038.463989,-130.783997,-310.368011
1057.984009,-99.552002,-310.368011
1054.079956,-85.888000,-263.519989
1071.647949,-9.760000,-201.056000
1073.599976,56.608002,-130.783997
1098.975952,138.591995,-93.695999
1118.495972,210.815994,-66.367996
1141.920044,240.095993,-58.560001
1149.728027,277.183990,-58.560001
1155.583984,257.664001,-76.127998
1122.400024,228.384003,-107.360001
1112.640015,197.151993,-142.496002
1110.687988,150.304001,-156.160004
1108.735962,95.648003,-171.776001
1104.832031,103.456001,-169.824005
1114.592041,132.735992,-173.727997
1089.215942,160.063995,-189.343994
1085.312012,195.199997,-212.768005
1097.024048,195.199997,-226.432007
1104.832031,156.160004,-220.576004
1130.208008,111.264000,-199.104004
1089.215942,93.695999,-185.440002
1063.839966,117.120003,-195.199997
1059.936035,140.544006,-214.720001
1059.936035,99.552002,-238.143997
1079.456055,107.360001,-240.095993
1112.640015,64.416000,-269.376007
1104.832031,181.535995,-283.040009
1081.407959,238.143997,-228.384003
1013.088013,169.824005,-162.016006
1018.943970,392.351990,-220.576004
1028.703979,203.007996,-238.143997
1102.880005,42.944000,-245.951996
1100.927979,-25.375999,-218.623993
1046.271973,31.232000,-206.912003
972.096008,42.944000,-271.328003
1093.119995,113.216003,-343.552002
1104.832031,214.720001,-298.656006
1100.927979,216.671997,-199.104004
1059.936035,226.432007,-175.679993
1067.744019,201.056000,-167.871994
1079.456055,214.720001,-183.488007
1075.552002,103.456001,-210.815994
1061.887939,89.792000,-230.335999
1038.463989,-17.568001,-234.240005
1052.128052,87.839996,-265.471985
1052.128052,134.688004,-271.328003
1028.703979,167.871994,-230.335999
1046.271973,136.639999,-195.199997
1073.599976,204.960007,-193.248001
1093.119995,179.584000,-193.248001
1079.456055,109.311996,-203.007996
1059.936035,56.608002,-224.479996
1028.703979,27.327999,-240.095993
1052.128052,54.655998,-245.951996
1048.223999,81.984001,-230.335999
1036.511963,97.599998,-234.240005
1040.416016,78.080002,-247.904007
1057.984009,66.367996,-242.048004
1063.839966,64.416000,-214.720001
1077.504028,64.416000,-210.815994
1073.599976,39.040001,-226.432007
1071.647949,52.703999,-232.287994
1059.936035,42.944000,-232.287994
1056.031982,56.608002,-238.143997
1050.176025,64.416000,-249.856003
1046.271973,48.799999,-259.615997
1042.368042,46.848000,-265.471985
1056.031982,50.751999,-257.664001
1046.271973,27.327999,-228.384003
1036.511963,27.327999,-226.432007
1028.703979,66.367996,-240.095993
1024.800049,54.655998,-245.951996
1032.608032,42.944000,-251.807999
1026.751953,37.088001,-261.567993
1030.656006,48.799999,-251.807999
1040.416016,54.655998,-249.856003
1044.319946,33.183998,-247.904007
1038.463989,17.568001,-257.664001
1044.319946,33.183998,-255.712006
1024.800049,52.703999,-255.712006
1024.800049,62.464001,-277.183990
1036.511963,46.848000,-286.944000
1036.511963,52.703999,-290.847992
1034.560059,31.232000,-284.992004
1040.416016,54.655998,-275.231995
1030.656006,37.088001,-269.376007
1018.943970,54.655998,-284.992004
1022.848022,56.608002,-304.511993
1003.328003,68.320000,-314.272003
1005.280029,81.984001,-322.079987
1022.848022,87.839996,-308.415985
1042.368042,58.560001,-296.704010
1069.696045,40.992001,-283.040009
1081.407959,25.375999,-257.664001
1079.456055,29.280001,-244.000000
1059.936035,58.560001,-244.000000
1040.416016,74.176003,-267.424011
1026.751953,72.223999,-314.272003
1022.848022,74.176003,-324.032013
1040.416016,46.848000,-324.032013
1052.128052,31.232000,-316.223999
1065.791992,23.424000,-277.183990
1073.599976,27.327999,-249.856003
1087.264038,52.703999,-244.000000
1102.880005,64.416000,-251.807999
1102.880005,68.320000,-251.807999
1097.024048,97.599998,-251.807999
1087.264038,101.503998,-253.759995
1081.407959,97.599998,-261.567993
1085.312012,66.367996,-261.567993
1083.359985,52.703999,-251.807999
1087.264038,46.848000,-244.000000
1089.215942,60.512001,-228.384003
1089.215942,78.080002,-242.048004
1083.359985,87.839996,-249.856003
1083.359985,83.935997,-249.856003
1085.312012,95.648003,-255.712006
1083.359985,91.744003,-244.000000
1089.215942,80.031998,-228.384003
1089.215942,70.272003,-238.143997
1077.504028,60.512001,-249.856003
1073.599976,60.512001,-251.807999
1073.599976,76.127998,-259.615997
1057.984009,87.839996,-265.471985
1056.031982,85.888000,-269.376007
1071.647949,76.127998,-257.664001
1073.599976,68.320000,-249.856003
1065.791992,60.512001,-245.951996
1059.936035,66.367996,-244.000000
1059.936035,54.655998,-259.615997
1042.368042,40.992001,-263.519989
1061.887939,97.599998,-273.279999
1028.703979,25.375999,-267.424011
1044.319946,107.360001,-288.895996
1061.887939,-56.608002,-275.231995
1081.407959,68.320000,-265.471985
1028.703979,76.127998,-218.623993
964.288025,101.503998,-218.623993
997.471985,85.888000,-292.799988
1022.848022,21.472000,-331.839996
1036.511963,-23.424000,-312.320007
1032.608032,7.808000,-275.231995
995.520020,21.472000,-245.951996
1026.751953,60.512001,-236.192001
1013.088013,48.799999,-232.287994
1038.463989,107.360001,-247.904007
1005.280029,64.416000,-251.807999
1024.800049,107.360001,-273.279999
1050.176025,-58.560001,-296.704010
1083.359985,-11.712000,-265.471985
1028.703979,-27.327999,-185.440002
968.192017,115.167999,-201.056000
968.192017,136.639999,-273.279999
981.856018,40.992001,-312.320007
995.520020,44.896000,-314.272003
983.807983,23.424000,-286.944000
1018.943970,1.952000,-249.856003
1046.271973,31.232000,-226.432007
1040.416016,60.512001,-206.912003
1013.088013,50.751999,-210.815994
1032.608032,76.127998,-228.384003
1018.943970,48.799999,-242.048004
1016.992004,121.024002,-255.712006
1003.328003,68.320000,-281.088013
993.567993,31.232000,-249.856003
1024.800049,29.280001,-230.335999
1052.128052,11.712000,-212.768005
1085.312012,-23.424000,-224.479996
1059.936035,97.599998,-206.912003
1011.135986,115.167999,-187.391998
1015.039978,150.304001,-240.095993
1007.231995,93.695999,-269.376007
997.471985,72.223999,-277.183990
993.567993,7.808000,-261.567993
1032.608032,-5.856000,-244.000000
1044.319946,-37.088001,-216.671997
1036.511963,9.760000,-201.056000
1018.943970,58.560001,-226.432007
1001.375977,107.360001,-240.095993
1007.231995,109.311996,-253.759995
1013.088013,85.888000,-249.856003
1048.223999,54.655998,-253.759995
1065.791992,-83.935997,-242.048004
1063.839966,-19.520000,-177.632004
1015.039978,13.664000,-156.160004
991.616028,54.655998,-214.720001
981.856018,46.848000,-283.040009
970.143982,68.320000,-300.608002
981.856018,23.424000,-281.088013
1011.135986,27.327999,-257.664001
1032.608032,-31.232000,-224.479996
1050.176025,-27.327999,-193.248001
1063.839966,-25.375999,-171.776001
1056.031982,15.616000,-175.679993
1022.848022,46.848000,-195.199997
1007.231995,50.751999,-247.904007
1003.328003,23.424000,-290.847992
997.471985,17.568001,-265.471985
989.664001,19.520000,-216.671997
989.664001,23.424000,-216.671997
1007.231995,42.944000,-216.671997
1020.895996,29.280001,-212.768005
1046.271973,3.904000,-206.912003
1061.887939,-13.664000,-206.912003
1044.319946,1.952000,-201.056000
1018.943970,37.088001,-206.912003
1013.088013,25.375999,-230.335999
1016.992004,33.183998,-236.192001
1011.135986,25.375999,-212.768005
1018.943970,1.952000,-226.432007
1022.848022,-29.280001,-253.759995
1022.848022,-15.616000,-234.240005
999.424011,-3.904000,-203.007996
997.471985,44.896000,-210.815994
983.807983,68.320000,-242.048004
966.239990,52.703999,-247.904007
997.471985,27.327999,-249.856003
1028.703979,39.040001,-220.576004
1034.560059,1.952000,-183.488007
1059.936035,5.856000,-167.871994
1050.176025,1.952000,-152.255997
1042.368042,21.472000,-158.112000
1030.656006,17.568001,-193.248001
1024.800049,39.040001,-218.623993
1007.231995,66.367996,-232.287994
977.952026,85.888000,-226.432007
979.903992,173.727997,-236.192001
1042.368042,117.120003,-218.623993
1112.640015,-83.935997,-195.199997
1093.119995,-25.375999,-156.160004
1020.895996,58.560001,-128.832001
977.952026,-52.703999,-173.727997
1005.280029,1.952000,-273.279999
997.471985,74.176003,-253.759995
970.143982,-29.280001,-234.240005
995.520020,13.664000,-286.944000
985.760010,27.327999,-228.384003
991.616028,25.375999,-193.248001
1026.751953,-3.904000,-189.343994
1020.895996,15.616000,-195.199997
999.424011,-19.520000,-193.248001
991.616028,-9.760000,-224.479996
987.711975,-11.712000,-249.856003
964.288025,21.472000,-249.856003
956.479980,39.040001,-232.287994
968.192017,35.136002,-232.287994
976.000000,-3.904000,-236.192001
995.520020,-7.808000,-212.768005
1003.328003,5.856000,-181.535995
983.807983,25.375999,-175.679993
979.903992,54.655998,-201.056000
976.000000,56.608002,-210.815994
987.711975,31.232000,-216.671997
993.567993,-3.904000,-214.720001
991.616028,-39.040001,-185.440002
985.760010,-13.664000,-187.391998
968.192017,13.664000,-185.440002
968.192017,31.232000,-185.440002
976.000000,25.375999,-206.912003
989.664001,13.664000,-206.912003
983.807983,13.664000,-203.007996
989.664001,31.232000,-195.199997
972.096008,52.703999,-185.440002
987.711975,44.896000,-199.104004
995.520020,7.808000,-193.248001
995.520020,-7.808000,-189.343994
985.760010,3.904000,-173.727997
979.903992,19.520000,-193.248001
964.288025,19.520000,-201.056000
974.047974,21.472000,-210.815994
972.096008,-11.712000,-208.863998
989.664001,-27.327999,-197.151993
974.047974,-23.424000,-185.440002
974.047974,5.856000,-185.440002
977.952026,-13.664000,-199.104004
981.856018,-11.712000,-218.623993
968.192017,-19.520000,-218.623993
964.288025,0.000000,-210.815994
977.952026,-3.904000,-199.104004
989.664001,7.808000,-199.104004
981.856018,-13.664000,-191.296005
981.856018,-21.472000,-183.488007
977.952026,-21.472000,-177.632004
979.903992,-31.232000,-195.199997
979.903992,-21.472000,-197.151993
972.096008,0.000000,-201.056000
970.143982,1.952000,-197.151993
976.000000,5.856000,-195.199997
981.856018,-11.712000,-193.248001
983.807983,-9.760000,-195.199997
979.903992,-11.712000,-185.440002
976.000000,1.952000,-179.584000
989.664001,-17.568001,-185.440002
985.760010,-23.424000,-185.440002
985.760010,-11.712000,-183.488007
972.096008,-25.375999,-181.535995
981.856018,-25.375999,-185.440002
976.000000,-17.568001,-189.343994
976.000000,-3.904000,-181.535995
983.807983,-5.856000,-187.391998
970.143982,-1.952000,-195.199997
970.143982,0.000000,-191.296005
964.288025,1.952000,-193.248001
960.383972,-9.760000,-203.007996
966.239990,-7.808000,-197.151993
960.383972,1.952000,-185.440002
964.288025,-3.904000,-191.296005
960.383972,-11.712000,-193.248001
956.479980,0.000000,-204.960007
958.432007,17.568001,-206.912003
944.768005,7.808000,-214.720001
946.719971,-1.952000,-226.432007
948.671997,9.760000,-232.287994
940.864014,17.568001,-236.192001
940.864014,-1.952000,-224.479996
954.528015,-7.808000,-224.479996
960.383972,1.952000,-216.671997
956.479980,3.904000,-220.576004
944.768005,-5.856000,-240.095993
946.719971,-5.856000,-249.856003
950.624023,5.856000,-251.807999
935.007996,13.664000,-247.904007
942.815979,9.760000,-247.904007
954.528015,7.808000,-247.904007
954.528015,3.904000,-255.712006
954.528015,13.664000,-245.951996
954.528015,5.856000,-247.904007
950.624023,13.664000,-259.615997
952.575989,7.808000,-257.664001
956.479980,15.616000,-249.856003
958.432007,19.520000,-245.951996
962.335999,25.375999,-236.192001
962.335999,19.520000,-236.192001
977.952026,25.375999,-244.000000
966.239990,19.520000,-240.095993
968.192017,19.520000,-245.951996
968.192017,21.472000,-242.048004
964.288025,29.280001,-257.664001
966.239990,37.088001,-245.951996
962.335999,50.751999,-238.143997
972.096008,44.896000,-238.143997
976.000000,40.992001,-236.192001
970.143982,44.896000,-232.287994
966.239990,48.799999,-240.095993
966.239990,42.944000,-242.048004
962.335999,29.280001,-240.095993
962.335999,46.848000,-249.856003
964.288025,46.848000,-244.000000
962.335999,60.512001,-238.143997
964.288025,42.944000,-242.048004
966.239990,44.896000,-249.856003
962.335999,52.703999,-244.000000
958.432007,52.703999,-245.951996
952.575989,48.799999,-244.000000
950.624023,56.608002,-244.000000
948.671997,48.799999,-247.904007
940.864014,56.608002,-249.856003
950.624023,50.751999,-249.856003
944.768005,50.751999,-247.904007
940.864014,58.560001,-247.904007
950.624023,60.512001,-249.856003
952.575989,60.512001,-249.856003
952.575989,50.751999,-249.856003
948.671997,50.751999,-244.000000
950.624023,50.751999,-244.000000
944.768005,54.655998,-236.192001
946.719971,58.560001,-244.000000
942.815979,64.416000,-230.335999
944.768005,52.703999,-238.143997
936.960022,54.655998,-232.287994
944.768005,58.560001,-242.048004
944.768005,66.367996,-230.335999
944.768005,60.512001,-232.287994
950.624023,72.223999,-226.432007
946.719971,60.512001,-220.576004
948.671997,68.320000,-226.432007
952.575989,58.560001,-220.576004
958.432007,64.416000,-214.720001
950.624023,66.367996,-210.815994
950.624023,62.464001,-218.623993
948.671997,68.320000,-214.720001
958.432007,66.367996,-216.671997
944.768005,70.272003,-220.576004
956.479980,68.320000,-220.576004
948.671997,76.127998,-216.671997
942.815979,80.031998,-212.768005
948.671997,68.320000,-216.671997
948.671997,62.464001,-218.623993
950.624023,72.223999,-214.720001
948.671997,80.031998,-220.576004
944.768005,74.176003,-214.720001
952.575989,80.031998,-228.384003
936.960022,64.416000,-222.528000
935.007996,64.416000,-224.479996
936.960022,66.367996,-212.768005
946.719971,72.223999,-214.720001
942.815979,68.320000,-208.863998
946.719971,62.464001,-216.671997
936.960022,74.176003,-230.335999
935.007996,70.272003,-226.432007
942.815979,76.127998,-224.479996
948.671997,70.272003,-226.432007
942.815979,74.176003,-216.671997
942.815979,78.080002,-218.623993
942.815979,68.320000,-216.671997
942.815979,72.223999,-224.479996
938.911987,74.176003,-230.335999
940.864014,64.416000,-228.384003
944.768005,70.272003,-226.432007
954.528015,76.127998,-226.432007
954.528015,68.320000,-228.384003
958.432007,62.464001,-224.479996
954.528015,68.320000,-220.576004
954.528015,72.223999,-220.576004
948.671997,74.176003,-226.432007
956.479980,74.176003,-226.432007
950.624023,70.272003,-220.576004
950.624023,80.031998,-222.528000
962.335999,72.223999,-220.576004
966.239990,68.320000,-203.007996
974.047974,87.839996,-204.960007
972.096008,81.984001,-212.768005
956.479980,78.080002,-216.671997
962.335999,66.367996,-212.768005
964.288025,78.080002,-214.720001
974.047974,76.127998,-212.768005
972.096008,76.127998,-208.863998
968.192017,70.272003,-212.768005
964.288025,66.367996,-214.720001
970.143982,83.935997,-214.720001
974.047974,74.176003,-216.671997
974.047974,74.176003,-218.623993
970.143982,76.127998,-204.960007
977.952026,66.367996,-204.960007
972.096008,78.080002,-208.863998
972.096008,70.272003,-210.815994
979.903992,64.416000,-206.912003
976.000000,64.416000,-204.960007
979.903992,66.367996,-206.912003
977.952026,72.223999,-197.151993
983.807983,76.127998,-206.912003
981.856018,64.416000,-206.912003
979.903992,56.608002,-201.056000
987.711975,66.367996,-199.104004
987.711975,68.320000,-195.199997
977.952026,64.416000,-203.007996
993.567993,62.464001,-197.151993
979.903992,56.608002,-201.056000
991.616028,68.320000,-199.104004
981.856018,60.512001,-187.391998
989.664001,62.464001,-189.343994
989.664001,60.512001,-191.296005
985.760010,60.512001,-199.104004
991.616028,58.560001,-189.343994
995.520020,44.896000,-191.296005
991.616028,60.512001,-191.296005
991.616028,56.608002,-183.488007
985.760010,50.751999,-173.727997
979.903992,48.799999,-185.440002
981.856018,56.608002,-187.391998
983.807983,52.703999,-177.632004
972.096008,50.751999,-181.535995
979.903992,52.703999,-175.679993
977.952026,52.703999,-169.824005
989.664001,50.751999,-179.584000
983.807983,48.799999,-173.727997
987.711975,58.560001,-167.871994
991.616028,37.088001,-175.679993
977.952026,27.327999,-175.679993
977.952026,40.992001,-173.727997
976.000000,42.944000,-183.488007
977.952026,39.040001,-177.632004
972.096008,33.183998,-177.632004
974.047974,33.183998,-179.584000
974.047974,27.327999,-169.824005
966.239990,19.520000,-177.632004
962.335999,27.327999,-173.727997
962.335999,37.088001,-175.679993
958.432007,40.992001,-185.440002
962.335999,35.136002,-181.535995
958.432007,29.280001,-193.248001
950.624023,31.232000,-191.296005
952.575989,25.375999,-193.248001
948.671997,25.375999,-201.056000
942.815979,25.375999,-201.056000
935.007996,19.520000,-197.151993
948.671997,17.568001,-197.151993
940.864014,15.616000,-203.007996
929.151978,11.712000,-204.960007
938.911987,13.664000,-218.623993
935.007996,5.856000,-208.863998
935.007996,17.568001,-204.960007
933.056030,9.760000,-210.815994
931.104004,15.616000,-224.479996
923.296021,5.856000,-214.720001
925.247986,3.904000,-218.623993
919.392029,-3.904000,-212.768005
917.440002,1.952000,-201.056000
917.440002,-3.904000,-208.863998
923.296021,3.904000,-204.960007
927.200012,5.856000,-204.960007
921.343994,5.856000,-210.815994
915.487976,3.904000,-206.912003
931.104004,0.000000,-203.007996
933.056030,0.000000,-203.007996
927.200012,-11.712000,-201.056000
923.296021,1.952000,-199.104004
923.296021,-3.904000,-206.912003
913.536011,-5.856000,-212.768005
923.296021,-1.952000,-199.104004
923.296021,9.760000,-199.104004
917.440002,-3.904000,-201.056000
907.679993,-1.952000,-203.007996
919.392029,13.664000,-210.815994
911.583984,7.808000,-222.528000
909.632019,-3.904000,-216.671997
911.583984,5.856000,-216.671997
917.440002,0.000000,-212.768005
913.536011,13.664000,-216.671997
919.392029,17.568001,-226.432007
923.296021,7.808000,-222.528000
917.440002,9.760000,-220.576004
919.392029,-1.952000,-224.479996
923.296021,-5.856000,-224.479996
919.392029,5.856000,-226.432007
915.487976,-1.952000,-224.479996
919.392029,0.000000,-230.335999
919.392029,-3.904000,-222.528000
917.440002,5.856000,-228.384003
923.296021,3.904000,-230.335999
927.200012,-3.904000,-220.576004
921.343994,-5.856000,-218.623993
929.151978,-5.856000,-222.528000
935.007996,-9.760000,-212.768005
938.911987,-11.712000,-212.768005
942.815979,-3.904000,-214.720001
942.815979,1.952000,-204.960007
935.007996,3.904000,-193.248001
935.007996,-7.808000,-197.151993
942.815979,-11.712000,-203.007996
944.768005,-13.664000,-197.151993
944.768005,-7.808000,-199.104004
950.624023,-5.856000,-191.296005
952.575989,-13.664000,-181.535995
962.335999,-1.952000,-177.632004
962.335999,-11.712000,-175.679993
960.383972,-1.952000,-171.776001
958.432007,0.000000,-162.016006
962.335999,0.000000,-165.919998
962.335999,0.000000,-175.679993
962.335999,-1.952000,-171.776001
954.528015,0.000000,-177.632004
954.528015,0.000000,-169.824005
966.239990,-1.952000,-171.776001
954.528015,3.904000,-169.824005
962.335999,0.000000,-169.824005
962.335999,-3.904000,-171.776001
952.575989,1.952000,-160.063995
960.383972,-5.856000,-165.919998
966.239990,-3.904000,-183.488007
940.864014,-7.808000,-185.440002
954.528015,1.952000,-173.727997
952.575989,-11.712000,-179.584000
962.335999,-1.952000,-171.776001
962.335999,-5.856000,-175.679993
954.528015,3.904000,-171.776001
952.575989,-15.616000,-177.632004
948.671997,-11.712000,-185.440002
950.624023,-5.856000,-181.535995
940.864014,-1.952000,-187.391998
940.864014,-9.760000,-189.343994
944.768005,-11.712000,-181.535995
950.624023,-15.616000,-171.776001
948.671997,-5.856000,-173.727997
946.719971,0.000000,-167.871994
942.815979,-9.760000,-175.679993
944.768005,1.952000,-179.584000
944.768005,7.808000,-187.391998
931.104004,17.568001,-175.679993
942.815979,-7.808000,-183.488007
933.056030,-27.327999,-181.535995
940.864014,-23.424000,-171.776001
931.104004,-23.424000,-162.016006
938.911987,-27.327999,-173.727997
946.719971,-27.327999,-177.632004
940.864014,-21.472000,-175.679993
933.056030,-11.712000,-179.584000
936.960022,-11.712000,-177.632004
929.151978,-17.568001,-197.151993
935.007996,-15.616000,-181.535995
933.056030,-1.952000,-175.679993
935.007996,-1.952000,-171.776001
935.007996,-5.856000,-177.632004
940.864014,-1.952000,-185.440002
935.007996,0.000000,-175.679993
936.960022,3.904000,-167.871994
931.104004,-1.952000,-179.584000
935.007996,0.000000,-173.727997
938.911987,5.856000,-169.824005
942.815979,-7.808000,-173.727997
944.768005,-3.904000,-169.824005
944.768005,-7.808000,-169.824005
936.960022,-9.760000,-167.871994
944.768005,-11.712000,-165.919998
940.864014,-5.856000,-167.871994
940.864014,1.952000,-165.919998
944.768005,1.952000,-167.871994
936.960022,5.856000,-171.776001
938.911987,-11.712000,-165.919998
935.007996,-11.712000,-171.776001
946.719971,-3.904000,-158.112000
948.671997,-1.952000,-167.871994
940.864014,0.000000,-160.063995
946.719971,1.952000,-167.871994
944.768005,-5.856000,-160.063995
940.864014,-5.856000,-156.160004
940.864014,-7.808000,-156.160004
940.864014,-1.952000,-150.304001
950.624023,0.000000,-156.160004
933.056030,-7.808000,-158.112000
944.768005,-15.616000,-158.112000
942.815979,-19.520000,-160.063995
946.719971,-11.712000,-158.112000
954.528015,-19.520000,-160.063995
948.671997,-13.664000,-163.968002
944.768005,-9.760000,-167.871994
944.768005,-15.616000,-163.968002
944.768005,-23.424000,-158.112000
942.815979,-19.520000,-154.207993
946.719971,-15.616000,-146.399994
940.864014,-21.472000,-148.352005
942.815979,-15.616000,-144.447998
944.768005,-7.808000,-148.352005
936.960022,-23.424000,-158.112000
938.911987,-25.375999,-156.160004
946.719971,-13.664000,-163.968002
940.864014,-17.568001,-152.255997
950.624023,-13.664000,-152.255997
948.671997,-13.664000,-158.112000
938.911987,-19.520000,-148.352005
935.007996,-21.472000,-160.063995
940.864014,-9.760000,-156.160004
935.007996,-19.520000,-160.063995
942.815979,-17.568001,-148.352005
936.960022,-21.472000,-165.919998
942.815979,-19.520000,-163.968002
938.911987,-5.856000,-163.968002
931.104004,-23.424000,-158.112000
935.007996,-27.327999,-158.112000
936.960022,-25.375999,-165.919998
936.960022,-25.375999,-165.919998
933.056030,-9.760000,-154.207993
938.911987,-21.472000,-160.063995
935.007996,-21.472000,-160.063995
927.200012,-35.136002,-167.871994
927.200012,-25.375999,-167.871994
933.056030,-23.424000,-171.776001
931.104004,-19.520000,-158.112000
942.815979,-17.568001,-163.968002
936.960022,-27.327999,-156.160004
933.056030,-23.424000,-150.304001
933.056030,-29.280001,-163.968002
929.151978,-29.280001,-165.919998
935.007996,-21.472000,-167.871994
935.007996,-19.520000,-167.871994
929.151978,-29.280001,-165.919998
931.104004,-27.327999,-167.871994
931.104004,-35.136002,-183.488007
931.104004,-29.280001,-177.632004
927.200012,-25.375999,-167.871994
925.247986,-27.327999,-169.824005
923.296021,-21.472000,-165.919998
927.200012,-21.472000,-167.871994
927.200012,-23.424000,-173.727997
919.392029,-27.327999,-173.727997
927.200012,-23.424000,-175.679993
921.343994,-19.520000,-175.679993
923.296021,-27.327999,-187.391998
917.440002,-27.327999,-179.584000
911.583984,-35.136002,-181.535995
917.440002,-33.183998,-173.727997
919.392029,-35.136002,-175.679993
921.343994,-39.040001,-185.440002
903.776001,-31.232000,-173.727997
913.536011,-50.751999,-177.632004
903.776001,-46.848000,-189.343994
905.728027,-42.944000,-191.296005
899.872009,-27.327999,-193.248001
897.919983,-21.472000,-193.248001
890.112000,-31.232000,-201.056000
897.919983,-44.896000,-206.912003
911.583984,-35.136002,-204.960007
911.583984,-40.992001,-204.960007
905.728027,-31.232000,-204.960007
905.728027,-42.944000,-203.007996
913.536011,-39.040001,-201.056000
907.679993,-27.327999,-208.863998
903.776001,-42.944000,-204.960007
919.392029,-42.944000,-204.960007
911.583984,-33.183998,-210.815994
917.440002,-29.280001,-218.623993
913.536011,-25.375999,-216.671997
913.536011,-25.375999,-214.720001
917.440002,-37.088001,-212.768005
929.151978,-39.040001,-216.671997
921.343994,-33.183998,-222.528000
919.392029,-21.472000,-208.863998
925.247986,-27.327999,-212.768005
917.440002,-33.183998,-212.768005
927.200012,-35.136002,-216.671997
921.343994,-33.183998,-222.528000
931.104004,-31.232000,-214.720001
925.247986,-9.760000,-208.863998
933.056030,-25.375999,-210.815994
933.056030,-25.375999,-208.863998
931.104004,-17.568001,-212.768005
933.056030,-19.520000,-203.007996
933.056030,-13.664000,-206.912003
942.815979,-9.760000,-201.056000
940.864014,-1.952000,-195.199997
938.911987,-13.664000,-193.248001
950.624023,-19.520000,-203.007996
944.768005,-15.616000,-189.343994
948.671997,5.856000,-183.488007
950.624023,-5.856000,-179.584000
948.671997,-15.616000,-183.488007
964.288025,-17.568001,-181.535995
960.383972,-15.616000,-181.535995
954.528015,-3.904000,-177.632004
948.671997,-11.712000,-187.391998
960.383972,-9.760000,-185.440002
952.575989,3.904000,-185.440002
952.575989,1.952000,-183.488007
960.383972,-9.760000,-183.488007
962.335999,-11.712000,-173.727997
956.479980,-3.904000,-171.776001
958.432007,0.000000,-175.679993
954.528015,-3.904000,-177.632004
956.479980,-7.808000,-179.584000
954.528015,-3.904000,-193.248001
952.575989,9.760000,-189.343994
954.528015,19.520000,-177.632004
952.575989,9.760000,-177.632004
962.335999,7.808000,-167.871994
972.096008,17.568001,-154.207993
968.192017,19.520000,-152.255997
977.952026,7.808000,-152.255997
962.335999,15.616000,-158.112000
960.383972,9.760000,-173.727997
956.479980,-5.856000,-175.679993
956.479980,-9.760000,-169.824005
956.479980,-3.904000,-175.679993
966.239990,-5.856000,-165.919998
960.383972,5.856000,-148.352005
956.479980,13.664000,-154.207993
968.192017,3.904000,-162.016006
948.671997,5.856000,-163.968002
960.383972,-3.904000,-154.207993
958.432007,5.856000,-167.871994
958.432007,7.808000,-171.776001
950.624023,-1.952000,-162.016006
962.335999,-1.952000,-175.679993
954.528015,-5.856000,-165.919998
952.575989,1.952000,-167.871994
950.624023,-11.712000,-160.063995
950.624023,3.904000,-169.824005
946.719971,15.616000,-169.824005
944.768005,13.664000,-171.776001
944.768005,19.520000,-183.488007
950.624023,19.520000,-181.535995
942.815979,29.280001,-171.776001
944.768005,9.760000,-163.968002
952.575989,15.616000,-171.776001
952.575989,21.472000,-163.968002
956.479980,19.520000,-173.727997
938.911987,21.472000,-167.871994
948.671997,23.424000,-162.016006
958.432007,13.664000,-169.824005
948.671997,31.232000,-167.871994
954.528015,29.280001,-173.727997
962.335999,21.472000,-162.016006
956.479980,11.712000,-160.063995
956.479980,15.616000,-162.016006
966.239990,0.000000,-175.679993
954.528015,27.327999,-158.112000
960.383972,33.183998,-163.968002
966.239990,25.375999,-171.776001
958.432007,25.375999,-177.632004
948.671997,37.088001,-154.207993
952.575989,13.664000,-177.632004
946.719971,1.952000,-179.584000
946.719971,-1.952000,-177.632004
954.528015,-17.568001,-191.296005
962.335999,7.808000,-173.727997
940.864014,11.712000,-179.584000
940.864014,-3.904000,-187.391998
944.768005,0.000000,-181.535995
952.575989,13.664000,-183.488007
948.671997,11.712000,-177.632004
962.335999,11.712000,-154.207993
960.383972,-5.856000,-181.535995
964.288025,15.616000,-187.391998
950.624023,42.944000,-169.824005
958.432007,48.799999,-181.535995
954.528015,19.520000,-162.016006
974.047974,15.616000,-169.824005
964.288025,19.520000,-162.016006
962.335999,13.664000,-160.063995
970.143982,15.616000,-167.871994
972.096008,15.616000,-165.919998
972.096008,37.088001,-160.063995
972.096008,25.375999,-162.016006
964.288025,27.327999,-163.968002
981.856018,39.040001,-150.304001
989.664001,60.512001,-136.639999
985.760010,50.751999,-140.544006
972.096008,37.088001,-136.639999
952.575989,33.183998,-154.207993
962.335999,11.712000,-173.727997
962.335999,1.952000,-183.488007
958.432007,13.664000,-169.824005
952.575989,23.424000,-158.112000
954.528015,31.232000,-146.399994
964.288025,15.616000,-156.160004
962.335999,21.472000,-158.112000
958.432007,33.183998,-156.160004
962.335999,31.232000,-160.063995
964.288025,19.520000,-173.727997
948.671997,35.136002,-162.016006
940.864014,21.472000,-158.112000
946.719971,7.808000,-171.776001
938.911987,-1.952000,-189.343994
936.960022,13.664000,-177.632004
936.960022,1.952000,-158.112000
936.960022,-13.664000,-175.679993
952.575989,1.952000,-197.151993
944.768005,37.088001,-171.776001
954.528015,35.136002,-156.160004
950.624023,21.472000,-148.352005
958.432007,17.568001,-140.544006
958.432007,21.472000,-140.544006
958.432007,5.856000,-146.399994
942.815979,13.664000,-163.968002
938.911987,17.568001,-179.584000
923.296021,15.616000,-173.727997
931.104004,17.568001,-179.584000
917.440002,-19.520000,-189.343994
936.960022,-29.280001,-185.440002
935.007996,-19.520000,-185.440002
942.815979,1.952000,-148.352005
938.911987,-13.664000,-142.496002
954.528015,-19.520000,-158.112000
938.911987,1.952000,-167.871994
946.719971,11.712000,-162.016006
925.247986,-9.760000,-163.968002
923.296021,-13.664000,-179.584000
927.200012,-29.280001,-189.343994
913.536011,-21.472000,-191.296005
909.632019,-25.375999,-181.535995
917.440002,-11.712000,-185.440002
921.343994,25.375999,-173.727997
929.151978,52.703999,-163.968002
940.864014,37.088001,-169.824005
933.056030,25.375999,-158.112000
929.151978,13.664000,-160.063995
944.768005,0.000000,-173.727997
925.247986,-11.712000,-171.776001
909.632019,-27.327999,-167.871994
915.487976,-58.560001,-177.632004
913.536011,-68.320000,-197.151993
911.583984,-33.183998,-201.056000
905.728027,-35.136002,-183.488007
909.632019,-25.375999,-181.535995
925.247986,-27.327999,-193.248001
921.343994,-31.232000,-179.584000
927.200012,-42.944000,-150.304001
935.007996,-54.655998,-158.112000
942.815979,-42.944000,-167.871994
942.815979,-21.472000,-163.968002
921.343994,-33.183998,-167.871994
929.151978,-31.232000,-175.679993
929.151978,-17.568001,-193.248001
938.911987,-3.904000,-187.391998
936.960022,1.952000,-158.112000
952.575989,-5.856000,-175.679993
954.528015,-17.568001,-150.304001
948.671997,-40.992001,-142.496002
942.815979,-87.839996,-171.776001
931.104004,-83.935997,-187.391998
915.487976,-93.695999,-185.440002
931.104004,-93.695999,-204.960007
927.200012,-64.416000,-193.248001
935.007996,-19.520000,-191.296005
938.911987,-37.088001,-183.488007
954.528015,-25.375999,-173.727997
974.047974,-27.327999,-150.304001
981.856018,-33.183998,-134.688004
989.664001,-52.703999,-124.928001
985.760010,-64.416000,-140.544006
979.903992,-66.367996,-156.160004
979.903992,-66.367996,-162.016006
977.952026,-39.040001,-165.919998
970.143982,-25.375999,-177.632004
966.239990,-31.232000,-154.207993
979.903992,-72.223999,-156.160004
1001.375977,-44.896000,-154.207993
993.567993,-7.808000,-138.591995
993.567993,-19.520000,-111.264000
995.520020,-62.464001,-124.928001
1001.375977,-48.799999,-148.352005
997.471985,-33.183998,-171.776001
993.567993,-39.040001,-156.160004
985.760010,-17.568001,-111.264000
999.424011,-66.367996,-154.207993
1007.231995,-62.464001,-179.584000
981.856018,-17.568001,-142.496002
979.903992,-5.856000,-142.496002
1009.184021,-40.992001,-146.399994
1007.231995,19.520000,-160.063995
999.424011,7.808000,-163.968002
997.471985,11.712000,-126.879997
991.616028,-31.232000,-124.928001
1011.135986,-81.984001,-169.824005
1007.231995,-91.744003,-179.584000
968.192017,-50.751999,-152.255997
970.143982,-74.176003,-152.255997
995.520020,-81.984001,-152.255997
1009.184021,-60.512001,-158.112000
997.471985,-21.472000,-160.063995
991.616028,-25.375999,-132.735992
997.471985,-37.088001,-101.503998
1024.800049,-64.416000,-121.024002
1028.703979,-35.136002,-150.304001
999.424011,21.472000,-144.447998
993.567993,42.944000,-107.360001
1020.895996,7.808000,-128.832001
1016.992004,9.760000,-165.919998
993.567993,9.760000,-150.304001
997.471985,29.280001,-122.975998
1007.231995,-11.712000,-130.783997
1032.608032,-9.760000,-140.544006
1028.703979,-13.664000,-193.248001
972.096008,54.655998,-126.879997
956.479980,-68.320000,-105.407997
999.424011,-181.535995,-193.248001
997.471985,-115.167999,-193.248001
964.288025,-7.808000,-148.352005
966.239990,-52.703999,-117.120003
999.424011,-64.416000,-117.120003
1018.943970,-66.367996,-175.679993
1005.280029,37.088001,-179.584000
981.856018,40.992001,-81.984001
1001.375977,5.856000,-103.456001
1020.895996,-5.856000,-134.688004
1005.280029,-1.952000,-160.063995
972.096008,48.799999,-203.007996
948.671997,39.040001,-195.199997
964.288025,3.904000,-220.576004
964.288025,-68.320000,-228.384003
979.903992,-21.472000,-201.056000
974.047974,-58.560001,-150.304001
1016.992004,-66.367996,-134.688004
1032.608032,-64.416000,-83.935997
1046.271973,31.232000,-62.464001
1052.128052,1.952000,-89.792000
1032.608032,31.232000,-111.264000
1007.231995,64.416000,-154.207993
1013.088013,85.888000,-165.919998
1001.375977,60.512001,-158.112000
1022.848022,27.327999,-185.440002
1009.184021,89.792000,-167.871994
974.047974,89.792000,-117.120003
993.567993,-17.568001,-132.735992
1013.088013,-93.695999,-177.632004
987.711975,15.616000,-158.112000
974.047974,-7.808000,-146.399994
956.479980,-48.799999,-117.120003
983.807983,-134.688004,-169.824005
1007.231995,-39.040001,-189.343994
999.424011,52.703999,-179.584000
948.671997,15.616000,-119.071999
962.335999,-21.472000,-150.304001
972.096008,-13.664000,-210.815994
970.143982,72.223999,-183.488007
962.335999,-27.327999,-152.255997
948.671997,-52.703999,-152.255997
936.960022,-48.799999,-142.496002
960.383972,-33.183998,-150.304001
977.952026,-48.799999,-130.783997
995.520020,40.992001,-148.352005
976.000000,107.360001,-203.007996
948.671997,121.024002,-152.255997
936.960022,0.000000,-122.975998
952.575989,-124.928001,-156.160004
979.903992,-35.136002,-224.479996
976.000000,66.367996,-226.432007
942.815979,42.944000,-146.399994
940.864014,-58.560001,-130.783997
952.575989,-1.952000,-199.104004
946.719971,103.456001,-173.727997
950.624023,33.183998,-95.648003
989.664001,-48.799999,-113.216003
1020.895996,-58.560001,-138.591995
1018.943970,103.456001,-201.056000
968.192017,130.783997,-169.824005
921.343994,-1.952000,-130.783997
940.864014,-31.232000,-179.584000
944.768005,29.280001,-177.632004
968.192017,37.088001,-179.584000
993.567993,-85.888000,-208.863998
944.768005,-78.080002,-119.071999
935.007996,-17.568001,-117.120003
966.239990,50.751999,-162.016006
970.143982,35.136002,-163.968002
970.143982,-25.375999,-191.296005
966.239990,35.136002,-181.535995
936.960022,-5.856000,-160.063995
921.343994,-58.560001,-171.776001
929.151978,-150.304001,-228.384003
913.536011,-148.352005,-187.391998
913.536011,-60.512001,-148.352005
944.768005,-89.792000,-169.824005
972.096008,-13.664000,-214.720001
940.864014,-9.760000,-230.335999
913.536011,-13.664000,-175.679993
925.247986,-40.992001,-183.488007
962.335999,-21.472000,-257.664001
954.528015,68.320000,-201.056000
950.624023,48.799999,-177.632004
944.768005,-44.896000,-163.968002
942.815979,-40.992001,-146.399994
970.143982,56.608002,-230.335999
950.624023,39.040001,-214.720001
913.536011,-58.560001,-204.960007
915.487976,-187.391998,-148.352005
925.247986,-27.327999,-142.496002
974.047974,40.992001,-183.488007
977.952026,27.327999,-183.488007
976.000000,-25.375999,-158.112000
948.671997,37.088001,-140.544006
952.575989,103.456001,-201.056000
960.383972,62.464001,-191.296005
948.671997,50.751999,-150.304001
958.432007,15.616000,-204.960007
946.719971,1.952000,-228.384003
921.343994,-13.664000,-181.535995
938.911987,-54.655998,-212.768005
940.864014,-19.520000,-220.576004
944.768005,-17.568001,-185.440002
964.288025,44.896000,-160.063995
977.952026,54.655998,-152.255997
981.856018,99.552002,-140.544006
1007.231995,68.320000,-160.063995
977.952026,62.464001,-171.776001
966.239990,11.712000,-140.544006
976.000000,-3.904000,-163.968002
991.616028,17.568001,-169.824005
993.567993,97.599998,-152.255997
979.903992,91.744003,-181.535995
977.952026,35.136002,-220.576004
962.335999,-11.712000,-247.904007
958.432007,21.472000,-195.199997
972.096008,35.136002,-152.255997
999.424011,-3.904000,-130.783997
1009.184021,-62.464001,-126.879997
1032.608032,0.000000,-138.591995
1046.271973,44.896000,-191.296005
1020.895996,60.512001,-236.192001
995.520020,46.848000,-183.488007
940.864014,-29.280001,-40.992001
878.400024,-27.327999,154.207993
874.495972,-290.847992,825.695984
1102.880005,-704.671997,1442.527954
1221.952026,-1024.800049,1344.927979
1331.264038,-1221.952026,1067.744019
1259.040039,-1383.968018,952.575989
1124.352051,-1278.560059,858.880005
989.664001,-1042.368042,568.031982
911.583984,-365.023987,-46.848000
964.288025,298.656006,-763.231995
972.096008,691.007996,-1190.719971
997.471985,683.200012,-1423.008057
903.776001,663.679993,-1518.656006
634.400024,905.728027,-44.896000
-21.472000,482.144012,2170.624023
585.599976,1645.536011,687.104004
1561.599976,2106.208008,-247.904007
1741.183960,1077.504028,366.976013
1549.887939,283.040009,964.288025
1452.287964,-322.079987,-470.432007
1237.567993,376.735992,-1653.343994
1065.791992,427.488007,-1106.784058
626.591980,-380.640015,-1840.735962
620.736023,-577.791992,-1928.576050
203.007996,-1210.239990,-74.176003
409.920013,-888.159973,-158.112000
683.200012,-759.328003,-648.064026
497.760010,-788.607971,-310.368011
698.815979,-452.864014,-29.280001
909.632019,-847.168030,-169.824005
1059.936035,-163.968002,-1159.488037
780.799988,70.272003,-1739.232056
415.776001,234.240005,-1612.352051
324.032013,91.744003,-1399.583984
476.287994,-17.568001,-1171.199951
710.528015,466.528015,-784.703979
1009.184021,156.160004,-345.503998
1141.920044,-87.839996,40.992001
1188.767944,-142.496002,310.368011
1163.391968,-80.031998,503.615997
1192.671997,-3.904000,597.312012
1196.576050,-64.416000,620.736023
1260.991943,-72.223999,562.176025
1360.543945,-158.112000,429.440002
1413.248047,44.896000,310.368011
1419.104004,83.935997,238.143997
1342.975952,-11.712000,203.007996
1268.800049,111.264000,208.863998
1188.767944,214.720001,162.016006
1120.447998,353.312012,76.127998
1108.735962,327.936005,-46.848000
1104.832031,308.415985,-162.016006
1054.079956,361.119995,-242.048004
968.192017,376.735992,-275.231995
938.911987,372.832001,-298.656006
970.143982,160.063995,-331.839996
1011.135986,85.888000,-333.791992
1018.943970,46.848000,-288.895996
1009.184021,-27.327999,-179.584000
1038.463989,-150.304001,-146.399994
1057.984009,-281.088013,-111.264000
1089.215942,-132.735992,-72.223999
1136.063965,-156.160004,-48.799999
1122.400024,-150.304001,-23.424000
1081.407959,-85.888000,0.000000
1061.887939,-11.712000,-17.568001
1077.504028,97.599998,-44.896000
1073.599976,103.456001,-85.888000
1077.504028,154.207993,-124.928001
1057.984009,201.056000,-150.304001
1028.703979,251.807999,-165.919998
1007.231995,277.183990,-175.679993
999.424011,222.528000,-181.535995
1005.280029,191.296005,-189.343994
1016.992004,162.016006,-187.391998
1028.703979,101.503998,-167.871994
1024.800049,13.664000,-144.447998
1024.800049,-58.560001,-119.071999
1032.608032,-81.984001,-121.024002
1044.319946,-97.599998,-111.264000
1052.128052,-126.879997,-105.407997
1054.079956,-148.352005,-105.407997
1046.271973,-91.744003,-119.071999
1022.848022,-52.703999,-128.832001
1022.848022,9.760000,-128.832001
1030.656006,39.040001,-148.352005
1026.751953,87.839996,-162.016006
1016.992004,160.063995,-165.919998
1016.992004,179.584000,-171.776001
1022.848022,189.343994,-158.112000
1036.511963,171.776001,-169.824005
1044.319946,173.727997,-154.207993
1042.368042,162.016006,-144.447998
1034.560059,87.839996,-132.735992
1052.128052,46.848000,-124.928001
1050.176025,-3.904000,-124.928001
1046.271973,-9.760000,-122.975998
1056.031982,-42.944000,-128.832001
1048.223999,-83.935997,-128.832001
1034.560059,-78.080002,-134.688004
1028.703979,-66.367996,-148.352005
1018.943970,-46.848000,-162.016006
1028.703979,-31.232000,-165.919998
1016.992004,0.000000,-173.727997
1009.184021,35.136002,-187.391998
1003.328003,70.272003,-179.584000
1009.184021,80.031998,-173.727997
