ACC_X,ACC_Y,ACC_Z
528.992004,488.000000,739.807983
523.135986,493.855988,733.952026
540.703979,489.951996,733.952026
536.799988,486.048004,733.952026
530.943970,489.951996,735.903992
528.992004,493.855988,728.096008
527.039978,491.903992,728.096008
527.039978,486.048004,730.047974
523.135986,493.855988,722.239990
527.039978,493.855988,720.288025
515.328003,488.000000,718.335999
519.231995,489.951996,726.143982
525.088013,495.808014,720.288025
515.328003,489.951996,710.528015
515.328003,497.760010,712.479980
517.280029,489.951996,724.192017
513.375977,493.855988,716.383972
521.184021,501.664001,720.288025
519.231995,499.712006,722.239990
515.328003,488.000000,718.335999
511.424011,486.048004,722.239990
519.231995,486.048004,720.288025
521.184021,486.048004,724.192017
528.992004,480.191986,716.383972
525.088013,484.096008,718.335999
523.135986,493.855988,728.096008
527.039978,493.855988,722.239990
532.895996,488.000000,724.192017
530.943970,493.855988,728.096008
528.992004,488.000000,722.239990
528.992004,491.903992,720.288025
534.848022,495.808014,720.288025
530.943970,491.903992,728.096008
532.895996,484.096008,732.000000
534.848022,491.903992,728.096008
536.799988,497.760010,732.000000
534.848022,493.855988,733.952026
538.752014,489.951996,726.143982
532.895996,482.144012,726.143982
546.559998,497.760010,724.192017
534.848022,484.096008,728.096008
532.895996,480.191986,728.096008
540.703979,482.144012,724.192017
540.703979,493.855988,716.383972
540.703979,488.000000,718.335999
540.703979,486.048004,720.288025
544.607971,472.384003,724.192017
542.656006,480.191986,722.239990
544.607971,488.000000,714.432007
548.512024,486.048004,720.288025
542.656006,484.096008,728.096008
542.656006,484.096008,720.288025
540.703979,488.000000,724.192017
552.416016,484.096008,728.096008
554.367981,482.144012,728.096008
568.031982,488.000000,728.096008
554.367981,489.951996,722.239990
550.463989,486.048004,710.528015
556.320007,484.096008,724.192017
552.416016,493.855988,728.096008
558.271973,497.760010,732.000000
558.271973,499.712006,728.096008
569.984009,501.664001,724.192017
571.935974,499.712006,726.143982
569.984009,493.855988,728.096008
569.984009,491.903992,728.096008
577.791992,482.144012,728.096008
581.695984,488.000000,733.952026
591.455994,491.903992,730.047974
591.455994,486.048004,733.952026
589.504028,482.144012,724.192017
599.263977,488.000000,735.903992
603.168030,493.855988,743.711975
593.408020,484.096008,743.711975
605.119995,491.903992,730.047974
614.880005,489.951996,747.616028
609.023987,488.000000,743.711975
612.927979,484.096008,747.616028
609.023987,493.855988,749.567993
620.736023,488.000000,753.471985
630.495972,488.000000,759.328003
626.591980,480.191986,757.375977
626.591980,482.144012,755.424011
626.591980,466.528015,753.471985
632.447998,476.287994,751.520020
632.447998,464.575989,757.375977
636.351990,458.720001,757.375977
636.351990,462.623993,755.424011
638.304016,462.623993,757.375977
632.447998,460.671997,765.184021
634.400024,450.911987,759.328003
628.544006,450.911987,759.328003
632.447998,450.911987,759.328003
642.208008,456.768005,771.039978
636.351990,445.056000,771.039978
636.351990,443.104004,771.039978
646.112000,445.056000,771.039978
642.208008,454.816010,771.039978
634.400024,448.959991,765.184021
630.495972,447.007996,753.471985
634.400024,439.200012,757.375977
636.351990,450.911987,753.471985
636.351990,441.152008,767.135986
634.400024,443.104004,769.088013
630.495972,445.056000,769.088013
630.495972,433.343994,771.039978
636.351990,441.152008,757.375977
628.544006,447.007996,763.231995
634.400024,437.247986,749.567993
626.591980,443.104004,767.135986
630.495972,429.440002,757.375977
630.495972,439.200012,755.424011
618.783997,447.007996,755.424011
616.831970,454.816010,763.231995
614.880005,448.959991,759.328003
618.783997,429.440002,761.280029
612.927979,433.343994,763.231995
618.783997,433.343994,759.328003
612.927979,439.200012,761.280029
610.976013,421.631989,753.471985
614.880005,441.152008,745.664001
607.072021,435.295990,755.424011
597.312012,435.295990,751.520020
589.504028,423.584015,761.280029
601.216003,435.295990,749.567993
595.359985,433.343994,747.616028
591.455994,421.631989,751.520020
595.359985,423.584015,757.375977
589.504028,429.440002,755.424011
595.359985,433.343994,769.088013
587.552002,437.247986,765.184021
591.455994,435.295990,765.184021
595.359985,427.488007,778.848022
593.408020,443.104004,778.848022
583.648010,427.488007,778.848022
579.744019,431.391998,778.848022
581.695984,437.247986,771.039978
581.695984,439.200012,780.799988
575.840027,435.295990,778.848022
575.840027,431.391998,782.752014
569.984009,429.440002,778.848022
571.935974,437.247986,774.943970
571.935974,425.536011,776.895996
558.271973,423.584015,767.135986
560.223999,429.440002,767.135986
552.416016,425.536011,767.135986
546.559998,431.391998,769.088013
548.512024,433.343994,769.088013
550.463989,437.247986,771.039978
542.656006,429.440002,769.088013
538.752014,433.343994,774.943970
532.895996,439.200012,763.231995
530.943970,439.200012,767.135986
536.799988,431.391998,767.135986
532.895996,429.440002,769.088013
532.895996,441.152008,759.328003
523.135986,437.247986,755.424011
527.039978,437.247986,759.328003
517.280029,435.295990,761.280029
511.424011,439.200012,757.375977
509.471985,441.152008,759.328003
509.471985,447.007996,763.231995
503.615997,441.152008,761.280029
507.519989,443.104004,753.471985
499.712006,429.440002,759.328003
499.712006,433.343994,757.375977
489.951996,439.200012,751.520020
505.567993,441.152008,749.567993
493.855988,450.911987,755.424011
497.760010,452.864014,755.424011
491.903992,448.959991,757.375977
497.760010,441.152008,755.424011
493.855988,443.104004,753.471985
495.808014,454.816010,757.375977
484.096008,450.911987,763.231995
491.903992,454.816010,757.375977
493.855988,447.007996,755.424011
482.144012,462.623993,749.567993
478.239990,466.528015,755.424011
478.239990,454.816010,755.424011
474.335999,456.768005,753.471985
470.432007,460.671997,743.711975
474.335999,454.816010,751.520020
472.384003,452.864014,735.903992
468.480011,458.720001,743.711975
466.528015,464.575989,732.000000
472.384003,454.816010,726.143982
468.480011,456.768005,728.096008
460.671997,450.911987,726.143982
462.623993,456.768005,722.239990
460.671997,460.671997,722.239990
464.575989,454.816010,726.143982
460.671997,448.959991,724.192017
470.432007,456.768005,726.143982
460.671997,470.432007,722.239990
454.816010,458.720001,724.192017
466.528015,456.768005,730.047974
466.528015,466.528015,720.288025
466.528015,460.671997,722.239990
460.671997,466.528015,728.096008
456.768005,464.575989,724.192017
458.720001,468.480011,718.335999
462.623993,474.335999,722.239990
460.671997,470.432007,720.288025
460.671997,464.575989,720.288025
462.623993,468.480011,730.047974
460.671997,472.384003,714.432007
462.623993,472.384003,724.192017
466.528015,458.720001,716.383972
470.432007,470.432007,710.528015
464.575989,476.287994,718.335999
462.623993,472.384003,714.432007
470.432007,462.623993,720.288025
478.239990,468.480011,712.479980
474.335999,474.335999,714.432007
476.287994,468.480011,716.383972
470.432007,464.575989,718.335999
464.575989,458.720001,714.432007
472.384003,470.432007,720.288025
470.432007,470.432007,708.575989
460.671997,468.480011,702.719971
462.623993,462.623993,708.575989
466.528015,470.432007,710.528015
468.480011,460.671997,692.960022
464.575989,468.480011,696.864014
466.528015,468.480011,698.815979
456.768005,478.239990,692.960022
466.528015,462.623993,696.864014
466.528015,462.623993,698.815979
460.671997,454.816010,694.911987
466.528015,447.007996,702.719971
478.239990,452.864014,694.911987
470.432007,443.104004,700.768005
478.239990,450.911987,700.768005
486.048004,439.200012,694.911987
464.575989,448.959991,706.624023
486.048004,447.007996,706.624023
480.191986,443.104004,708.575989
476.287994,437.247986,710.528015
484.096008,437.247986,706.624023
486.048004,448.959991,710.528015
493.855988,447.007996,718.335999
486.048004,443.104004,708.575989
489.951996,458.720001,714.432007
488.000000,462.623993,718.335999
493.855988,450.911987,716.383972
501.664001,445.056000,720.288025
497.760010,443.104004,724.192017
497.760010,443.104004,726.143982
501.664001,443.104004,724.192017
497.760010,431.391998,728.096008
499.712006,437.247986,732.000000
509.471985,439.200012,728.096008
503.615997,443.104004,737.856018
499.712006,435.295990,730.047974
509.471985,433.343994,726.143982
507.519989,429.440002,743.711975
511.424011,443.104004,739.807983
509.471985,431.391998,737.856018
515.328003,433.343994,741.760010
511.424011,437.247986,735.903992
509.471985,437.247986,743.711975
515.328003,435.295990,737.856018
511.424011,443.104004,747.616028
513.375977,443.104004,743.711975
525.088013,441.152008,747.616028
513.375977,450.911987,745.664001
519.231995,441.152008,737.856018
517.280029,445.056000,741.760010
515.328003,435.295990,743.711975
511.424011,439.200012,737.856018
501.664001,443.104004,735.903992
505.567993,441.152008,743.711975
499.712006,437.247986,739.807983
509.471985,439.200012,732.000000
507.519989,433.343994,726.143982
505.567993,433.343994,730.047974
505.567993,431.391998,724.192017
499.712006,433.343994,726.143982
493.855988,431.391998,726.143982
489.951996,433.343994,718.335999
489.951996,441.152008,722.239990
489.951996,450.911987,728.096008
488.000000,456.768005,722.239990
493.855988,452.864014,718.335999
482.144012,452.864014,724.192017
486.048004,462.623993,724.192017
472.384003,462.623993,730.047974
488.000000,462.623993,733.952026
476.287994,458.720001,732.000000
486.048004,470.432007,726.143982
486.048004,468.480011,728.096008
480.191986,478.239990,722.239990
478.239990,476.287994,720.288025
476.287994,470.432007,728.096008
466.528015,484.096008,724.192017
470.432007,478.239990,726.143982
466.528015,476.287994,724.192017
468.480011,472.384003,716.383972
456.768005,484.096008,718.335999
462.623993,478.239990,712.479980
460.671997,480.191986,712.479980
454.816010,472.384003,712.479980
447.007996,484.096008,722.239990
454.816010,486.048004,716.383972
445.056000,480.191986,712.479980
441.152008,493.855988,712.479980
439.200012,484.096008,706.624023
447.007996,488.000000,706.624023
443.104004,489.951996,706.624023
431.391998,488.000000,702.719971
439.200012,488.000000,706.624023
441.152008,484.096008,700.768005
443.104004,493.855988,700.768005
435.295990,488.000000,696.864014
431.391998,495.808014,702.719971
425.536011,501.664001,694.911987
437.247986,488.000000,696.864014
425.536011,495.808014,691.007996
429.440002,495.808014,700.768005
429.440002,493.855988,689.056030
427.488007,497.760010,692.960022
421.631989,495.808014,687.104004
423.584015,495.808014,694.911987
421.631989,491.903992,692.960022
419.679993,497.760010,687.104004
409.920013,495.808014,683.200012
415.776001,499.712006,683.200012
413.824005,505.567993,687.104004
417.727997,501.664001,692.960022
415.776001,505.567993,689.056030
407.967987,501.664001,685.151978
411.872009,503.615997,683.200012
407.967987,509.471985,689.056030
409.920013,501.664001,683.200012
419.679993,497.760010,681.247986
409.920013,495.808014,681.247986
409.920013,501.664001,679.296021
417.727997,499.712006,683.200012
411.872009,505.567993,681.247986
406.015991,501.664001,685.151978
415.776001,488.000000,681.247986
407.967987,503.615997,679.296021
409.920013,507.519989,677.343994
415.776001,505.567993,679.296021
409.920013,507.519989,677.343994
409.920013,499.712006,681.247986
419.679993,499.712006,685.151978
409.920013,497.760010,685.151978
415.776001,491.903992,681.247986
407.967987,497.760010,679.296021
419.679993,505.567993,677.343994
409.920013,491.903992,679.296021
413.824005,499.712006,692.960022
413.824005,513.375977,685.151978
415.776001,507.519989,696.864014
413.824005,495.808014,687.104004
419.679993,499.712006,696.864014
421.631989,501.664001,696.864014
417.727997,489.951996,694.911987
431.391998,491.903992,702.719971
419.679993,489.951996,698.815979
425.536011,495.808014,698.815979
425.536011,495.808014,708.575989
423.584015,495.808014,698.815979
427.488007,501.664001,714.432007
431.391998,503.615997,714.432007
429.440002,495.808014,722.239990
427.488007,499.712006,714.432007
433.343994,497.760010,720.288025
425.536011,489.951996,724.192017
429.440002,505.567993,724.192017
439.200012,489.951996,720.288025
439.200012,489.951996,724.192017
441.152008,495.808014,710.528015
447.007996,488.000000,712.479980
450.911987,489.951996,714.432007
454.816010,503.615997,718.335999
447.007996,491.903992,716.383972
448.959991,493.855988,716.383972
448.959991,480.191986,720.288025
448.959991,495.808014,732.000000
454.816010,495.808014,726.143982
456.768005,489.951996,730.047974
462.623993,493.855988,728.096008
456.768005,495.808014,735.903992
460.671997,505.567993,726.143982
464.575989,513.375977,735.903992
458.720001,509.471985,726.143982
458.720001,519.231995,726.143982
462.623993,519.231995,739.807983
456.768005,509.471985,735.903992
462.623993,519.231995,732.000000
470.432007,513.375977,724.192017
462.623993,515.328003,714.432007
458.720001,517.280029,724.192017
454.816010,503.615997,712.479980
460.671997,517.280029,716.383972
450.911987,511.424011,710.528015
456.768005,513.375977,712.479980
450.911987,515.328003,698.815979
454.816010,515.328003,704.671997
454.816010,511.424011,702.719971
450.911987,513.375977,702.719971
448.959991,509.471985,700.768005
447.007996,507.519989,700.768005
445.056000,509.471985,692.960022
450.911987,515.328003,704.671997
450.911987,521.184021,691.007996
443.104004,519.231995,696.864014
433.343994,517.280029,704.671997
437.247986,521.184021,698.815979
433.343994,517.280029,694.911987
437.247986,527.039978,694.911987
439.200012,519.231995,691.007996
437.247986,515.328003,687.104004
429.440002,519.231995,696.864014
427.488007,519.231995,687.104004
425.536011,515.328003,685.151978
421.631989,519.231995,685.151978
419.679993,519.231995,683.200012
419.679993,519.231995,681.247986
419.679993,511.424011,677.343994
419.679993,513.375977,671.487976
415.776001,515.328003,681.247986
413.824005,511.424011,679.296021
413.824005,507.519989,665.632019
407.967987,509.471985,681.247986
409.920013,501.664001,685.151978
409.920013,511.424011,671.487976
409.920013,505.567993,667.583984
407.967987,505.567993,669.536011
402.112000,497.760010,671.487976
407.967987,501.664001,677.343994
413.824005,501.664001,673.440002
409.920013,495.808014,683.200012
415.776001,499.712006,689.056030
415.776001,495.808014,681.247986
409.920013,491.903992,679.296021
407.967987,501.664001,691.007996
407.967987,495.808014,689.056030
409.920013,489.951996,679.296021
411.872009,480.191986,679.296021
411.872009,478.239990,681.247986
413.824005,476.287994,681.247986
409.920013,474.335999,689.056030
415.776001,472.384003,696.864014
409.920013,470.432007,689.056030
425.536011,468.480011,691.007996
421.631989,468.480011,687.104004
415.776001,460.671997,692.960022
419.679993,448.959991,691.007996
417.727997,452.864014,692.960022
421.631989,447.007996,696.864014
429.440002,454.816010,694.911987
417.727997,452.864014,687.104004
435.295990,445.056000,689.056030
433.343994,443.104004,698.815979
433.343994,448.959991,694.911987
429.440002,450.911987,694.911987
433.343994,454.816010,694.911987
439.200012,443.104004,694.911987
433.343994,450.911987,694.911987
450.911987,454.816010,687.104004
439.200012,456.768005,694.911987
443.104004,450.911987,692.960022
445.056000,452.864014,691.007996
445.056000,447.007996,691.007996
448.959991,441.152008,698.815979
454.816010,439.200012,700.768005
454.816010,439.200012,694.911987
454.816010,433.343994,700.768005
448.959991,421.631989,708.575989
462.623993,429.440002,700.768005
452.864014,433.343994,700.768005
450.911987,437.247986,712.479980
458.720001,429.440002,716.383972
448.959991,433.343994,706.624023
460.671997,435.295990,716.383972
460.671997,427.488007,708.575989
464.575989,431.391998,720.288025
470.432007,429.440002,710.528015
478.239990,429.440002,716.383972
472.384003,429.440002,718.335999
478.239990,435.295990,718.335999
484.096008,431.391998,718.335999
478.239990,437.247986,718.335999
478.239990,437.247986,718.335999
468.480011,431.391998,728.096008
476.287994,421.631989,708.575989
478.239990,423.584015,718.335999
489.951996,429.440002,714.432007
476.287994,417.727997,722.239990
491.903992,419.679993,728.096008
484.096008,413.824005,735.903992
489.951996,417.727997,726.143982
482.144012,421.631989,737.856018
497.760010,413.824005,737.856018
486.048004,413.824005,743.711975
491.903992,423.584015,730.047974
486.048004,417.727997,735.903992
497.760010,415.776001,737.856018
488.000000,417.727997,747.616028
503.615997,421.631989,759.328003
503.615997,423.584015,747.616028
509.471985,415.776001,745.664001
511.424011,425.536011,741.760010
517.280029,435.295990,743.711975
511.424011,431.391998,743.711975
513.375977,433.343994,743.711975
519.231995,425.536011,743.711975
521.184021,441.152008,751.520020
517.280029,443.104004,745.664001
521.184021,429.440002,751.520020
523.135986,429.440002,751.520020
519.231995,443.104004,751.520020
527.039978,427.488007,745.664001
528.992004,433.343994,751.520020
536.799988,421.631989,745.664001
536.799988,443.104004,749.567993
532.895996,433.343994,753.471985
536.799988,427.488007,751.520020
542.656006,425.536011,745.664001
534.848022,439.200012,743.711975
536.799988,443.104004,747.616028
544.607971,443.104004,745.664001
544.607971,437.247986,743.711975
548.512024,439.200012,757.375977
552.416016,454.816010,749.567993
544.607971,447.007996,741.760010
552.416016,452.864014,753.471985
550.463989,456.768005,759.328003
552.416016,452.864014,759.328003
554.367981,441.152008,751.520020
560.223999,448.959991,755.424011
560.223999,466.528015,743.711975
571.935974,466.528015,749.567993
571.935974,460.671997,749.567993
564.127991,460.671997,747.616028
566.080017,464.575989,749.567993
573.888000,474.335999,741.760010
564.127991,470.432007,751.520020
571.935974,478.239990,771.039978
564.127991,470.432007,761.280029
564.127991,478.239990,765.184021
568.031982,474.335999,745.664001
573.888000,476.287994,745.664001
562.176025,478.239990,749.567993
583.648010,497.760010,755.424011
577.791992,497.760010,743.711975
573.888000,486.048004,755.424011
581.695984,480.191986,751.520020
575.840027,491.903992,755.424011
577.791992,489.951996,749.567993
585.599976,484.096008,759.328003
589.504028,488.000000,759.328003
589.504028,493.855988,767.135986
587.552002,488.000000,763.231995
593.408020,480.191986,755.424011
581.695984,497.760010,759.328003
579.744019,491.903992,763.231995
589.504028,488.000000,769.088013
595.359985,497.760010,772.992004
601.216003,503.615997,757.375977
593.408020,499.712006,765.184021
599.263977,499.712006,763.231995
593.408020,495.808014,763.231995
610.976013,513.375977,759.328003
601.216003,521.184021,765.184021
597.312012,515.328003,765.184021
603.168030,515.328003,765.184021
607.072021,515.328003,765.184021
605.119995,517.280029,774.943970
601.216003,525.088013,769.088013
603.168030,519.231995,774.943970
601.216003,513.375977,772.992004
599.263977,523.135986,767.135986
597.312012,521.184021,767.135986
595.359985,521.184021,765.184021
603.168030,528.992004,769.088013
603.168030,528.992004,778.848022
599.263977,532.895996,767.135986
599.263977,525.088013,761.280029
589.504028,525.088013,753.471985
585.599976,532.895996,759.328003
587.552002,534.848022,759.328003
577.791992,530.943970,747.616028
577.791992,530.943970,749.567993
579.744019,542.656006,747.616028
581.695984,548.512024,741.760010
579.744019,536.799988,741.760010
585.599976,532.895996,733.952026
575.840027,534.848022,735.903992
579.744019,536.799988,751.520020
568.031982,542.656006,741.760010
571.935974,540.703979,739.807983
573.888000,532.895996,737.856018
577.791992,534.848022,741.760010
569.984009,542.656006,741.760010
575.840027,538.752014,743.711975
569.984009,538.752014,745.664001
564.127991,544.607971,733.952026
562.176025,542.656006,726.143982
556.320007,546.559998,745.664001
560.223999,554.367981,741.760010
554.367981,548.512024,730.047974
554.367981,550.463989,728.096008
552.416016,538.752014,728.096008
558.271973,538.752014,726.143982
546.559998,540.703979,728.096008
544.607971,554.367981,733.952026
536.799988,548.512024,739.807983
546.559998,552.416016,733.952026
528.992004,548.512024,732.000000
536.799988,550.463989,733.952026
536.799988,556.320007,737.856018
536.799988,554.367981,732.000000
528.992004,562.176025,739.807983
527.039978,558.271973,741.760010
528.992004,556.320007,741.760010
523.135986,548.512024,739.807983
527.039978,556.320007,739.807983
523.135986,554.367981,739.807983
521.184021,550.463989,732.000000
507.519989,548.512024,739.807983
521.184021,552.416016,739.807983
509.471985,550.463989,743.711975
503.615997,560.223999,741.760010
515.328003,552.416016,735.903992
511.424011,554.367981,732.000000
497.760010,556.320007,735.903992
495.808014,552.416016,741.760010
497.760010,556.320007,739.807983
488.000000,548.512024,737.856018
497.760010,556.320007,728.096008
493.855988,546.559998,735.903992
497.760010,544.607971,735.903992
489.951996,534.848022,728.096008
489.951996,542.656006,726.143982
488.000000,540.703979,718.335999
464.575989,540.703979,724.192017
462.623993,525.088013,733.952026
413.824005,536.799988,726.143982
462.623993,528.992004,732.000000
468.480011,484.096008,706.624023
495.808014,460.671997,696.864014
495.808014,462.623993,696.864014
478.239990,454.816010,710.528015
482.144012,482.144012,720.288025
466.528015,493.855988,728.096008
464.575989,478.239990,732.000000
474.335999,491.903992,730.047974
460.671997,552.416016,751.520020
443.104004,581.695984,759.328003
443.104004,554.367981,751.520020
462.623993,542.656006,737.856018
476.287994,591.455994,724.192017
505.567993,605.119995,708.575989
499.712006,569.984009,716.383972
493.855988,573.888000,710.528015
484.096008,607.072021,716.383972
480.191986,595.359985,720.288025
478.239990,550.463989,726.143982
478.239990,552.416016,728.096008
462.623993,560.223999,732.000000
470.432007,532.895996,726.143982
462.623993,491.903992,728.096008
464.575989,478.239990,718.335999
474.335999,474.335999,710.528015
468.480011,460.671997,700.768005
482.144012,431.391998,700.768005
484.096008,419.679993,696.864014
476.287994,425.536011,681.247986
464.575989,466.528015,689.056030
452.864014,458.720001,691.007996
454.816010,460.671997,694.911987
447.007996,488.000000,689.056030
445.056000,513.375977,679.296021
443.104004,517.280029,679.296021
437.247986,519.231995,679.296021
441.152008,530.943970,675.392029
443.104004,546.559998,681.247986
464.575989,544.607971,683.200012
460.671997,540.703979,689.056030
456.768005,542.656006,694.911987
460.671997,542.656006,702.719971
462.623993,515.328003,712.479980
458.720001,521.184021,710.528015
462.623993,513.375977,720.288025
448.959991,493.855988,726.143982
466.528015,480.191986,726.143982
466.528015,474.335999,724.192017
462.623993,464.575989,720.288025
468.480011,452.864014,712.479980
460.671997,450.911987,694.911987
466.528015,448.959991,687.104004
456.768005,450.911987,692.960022
466.528015,472.384003,691.007996
462.623993,480.191986,692.960022
456.768005,478.239990,681.247986
462.623993,484.096008,689.056030
468.480011,501.664001,694.911987
464.575989,505.567993,694.911987
474.335999,501.664001,698.815979
482.144012,511.424011,704.671997
480.191986,517.280029,722.239990
497.760010,517.280029,726.143982
489.951996,511.424011,733.952026
493.855988,509.471985,749.567993
505.567993,517.280029,749.567993
501.664001,509.471985,757.375977
505.567993,495.808014,755.424011
507.519989,489.951996,757.375977
517.280029,493.855988,757.375977
511.424011,489.951996,765.184021
509.471985,476.287994,751.520020
509.471985,460.671997,737.856018
505.567993,470.432007,737.856018
505.567993,474.335999,733.952026
503.615997,478.239990,724.192017
501.664001,466.528015,706.624023
505.567993,460.671997,702.719971
497.760010,468.480011,696.864014
501.664001,474.335999,700.768005
488.000000,468.480011,702.719971
503.615997,468.480011,698.815979
495.808014,472.384003,700.768005
505.567993,480.191986,706.624023
503.615997,474.335999,698.815979
507.519989,482.144012,708.575989
505.567993,486.048004,716.383972
509.471985,493.855988,718.335999
517.280029,478.239990,718.335999
507.519989,474.335999,722.239990
507.519989,476.287994,720.288025
517.280029,474.335999,722.239990
503.615997,482.144012,728.096008
501.664001,464.575989,722.239990
499.712006,464.575989,724.192017
493.855988,472.384003,712.479980
491.903992,476.287994,698.815979
495.808014,468.480011,696.864014
497.760010,452.864014,687.104004
484.096008,464.575989,689.056030
486.048004,456.768005,685.151978
478.239990,452.864014,667.583984
480.191986,445.056000,675.392029
491.903992,450.911987,683.200012
493.855988,445.056000,681.247986
491.903992,448.959991,685.151978
491.903992,447.007996,692.960022
495.808014,448.959991,712.479980
499.712006,452.864014,712.479980
495.808014,441.152008,720.288025
505.567993,452.864014,726.143982
499.712006,448.959991,726.143982
507.519989,462.623993,735.903992
501.664001,466.528015,737.856018
501.664001,460.671997,735.903992
493.855988,466.528015,735.903992
501.664001,464.575989,730.047974
501.664001,468.480011,732.000000
505.567993,462.623993,722.239990
501.664001,466.528015,722.239990
501.664001,470.432007,710.528015
491.903992,462.623993,716.383972
501.664001,437.247986,720.288025
501.664001,447.007996,702.719971
497.760010,447.007996,694.911987
493.855988,437.247986,702.719971
499.712006,441.152008,706.624023
499.712006,437.247986,702.719971
509.471985,423.584015,710.528015
497.760010,423.584015,702.719971
511.424011,425.536011,708.575989
505.567993,421.631989,718.335999
513.375977,423.584015,718.335999
519.231995,423.584015,722.239990
515.328003,435.295990,720.288025
505.567993,431.391998,732.000000
517.280029,427.488007,732.000000
517.280029,431.391998,733.952026
511.424011,439.200012,730.047974
525.088013,431.391998,733.952026
513.375977,421.631989,728.096008
517.280029,435.295990,735.903992
511.424011,431.391998,732.000000
519.231995,433.343994,733.952026
515.328003,421.631989,728.096008
513.375977,421.631989,728.096008
509.471985,431.391998,724.192017
509.471985,419.679993,728.096008
517.280029,398.208008,718.335999
503.615997,404.063995,710.528015
511.424011,402.112000,718.335999
515.328003,402.112000,722.239990
509.471985,388.447998,728.096008
511.424011,392.351990,724.192017
511.424011,394.303986,718.335999
507.519989,396.256012,722.239990
505.567993,392.351990,733.952026
509.471985,386.496002,739.807983
505.567993,406.015991,739.807983
507.519989,392.351990,739.807983
509.471985,382.592010,730.047974
507.519989,392.351990,739.807983
513.375977,394.303986,743.711975
511.424011,396.256012,737.856018
513.375977,388.447998,732.000000
499.712006,382.592010,726.143982
501.664001,390.399994,733.952026
499.712006,394.303986,733.952026
489.951996,384.544006,737.856018
489.951996,370.880005,741.760010
491.903992,365.023987,739.807983
495.808014,366.976013,728.096008
489.951996,380.640015,722.239990
493.855988,355.264008,720.288025
484.096008,361.119995,724.192017
488.000000,361.119995,714.432007
480.191986,370.880005,718.335999
478.239990,363.071991,714.432007
476.287994,349.407990,708.575989
470.432007,359.167999,702.719971
466.528015,368.928009,710.528015
470.432007,355.264008,704.671997
472.384003,355.264008,704.671997
468.480011,366.976013,708.575989
464.575989,365.023987,708.575989
466.528015,361.119995,698.815979
468.480011,361.119995,696.864014
464.575989,361.119995,698.815979
460.671997,361.119995,704.671997
466.528015,361.119995,696.864014
466.528015,351.359985,706.624023
464.575989,355.264008,696.864014
458.720001,353.312012,702.719971
462.623993,351.359985,694.911987
456.768005,345.503998,694.911987
466.528015,351.359985,692.960022
470.432007,353.312012,691.007996
462.623993,363.071991,691.007996
462.623993,357.216003,683.200012
458.720001,347.455994,689.056030
464.575989,355.264008,683.200012
458.720001,370.880005,685.151978
466.528015,359.167999,689.056030
454.816010,359.167999,685.151978
474.335999,363.071991,671.487976
476.287994,370.880005,673.440002
484.096008,357.216003,671.487976
478.239990,357.216003,671.487976
474.335999,366.976013,673.440002
470.432007,376.735992,685.151978
482.144012,374.783997,675.392029
478.239990,363.071991,681.247986
489.951996,372.832001,685.151978
484.096008,370.880005,685.151978
493.855988,355.264008,691.007996
491.903992,361.119995,694.911987
499.712006,363.071991,691.007996
501.664001,372.832001,689.056030
505.567993,363.071991,700.768005
495.808014,355.264008,691.007996
503.615997,357.216003,692.960022
499.712006,372.832001,691.007996
503.615997,366.976013,687.104004
507.519989,355.264008,683.200012
509.471985,363.071991,692.960022
507.519989,380.640015,685.151978
513.375977,376.735992,692.960022
509.471985,366.976013,692.960022
521.184021,361.119995,683.200012
523.135986,366.976013,689.056030
536.799988,388.447998,683.200012
523.135986,380.640015,694.911987
532.895996,366.976013,689.056030
538.752014,380.640015,683.200012
544.607971,378.687988,692.960022
538.752014,372.832001,687.104004
542.656006,372.832001,692.960022
544.607971,376.735992,696.864014
556.320007,378.687988,687.104004
556.320007,366.976013,696.864014
564.127991,370.880005,683.200012
554.367981,376.735992,685.151978
558.271973,390.399994,681.247986
556.320007,382.592010,687.104004
564.127991,378.687988,685.151978
571.935974,372.832001,681.247986
568.031982,388.447998,677.343994
571.935974,388.447998,679.296021
566.080017,376.735992,687.104004
581.695984,374.783997,687.104004
581.695984,390.399994,683.200012
587.552002,388.447998,683.200012
577.791992,372.832001,689.056030
581.695984,380.640015,696.864014
587.552002,386.496002,694.911987
589.504028,380.640015,694.911987
597.312012,382.592010,704.671997
614.880005,386.496002,696.864014
603.168030,390.399994,700.768005
603.168030,388.447998,696.864014
607.072021,382.592010,706.624023
603.168030,390.399994,702.719971
610.976013,394.303986,704.671997
618.783997,406.015991,708.575989
605.119995,404.063995,696.864014
601.216003,404.063995,706.624023
605.119995,411.872009,706.624023
612.927979,404.063995,708.575989
609.023987,411.872009,706.624023
618.783997,394.303986,700.768005
616.831970,407.967987,702.719971
620.736023,415.776001,710.528015
616.831970,402.112000,710.528015
616.831970,398.208008,710.528015
614.880005,402.112000,712.479980
622.687988,407.967987,728.096008
624.640015,406.015991,728.096008
626.591980,411.872009,726.143982
638.304016,394.303986,724.192017
634.400024,388.447998,728.096008
648.064026,390.399994,720.288025
634.400024,394.303986,718.335999
636.351990,396.256012,730.047974
630.495972,384.544006,726.143982
634.400024,398.208008,722.239990
632.447998,404.063995,726.143982
616.831970,390.399994,726.143982
626.591980,392.351990,728.096008
616.831970,404.063995,716.383972
630.495972,411.872009,710.528015
622.687988,384.544006,702.719971
624.640015,376.735992,694.911987
628.544006,396.256012,704.671997
605.119995,388.447998,708.575989
612.927979,380.640015,694.911987
610.976013,384.544006,696.864014
607.072021,388.447998,696.864014
603.168030,392.351990,694.911987
614.880005,388.447998,698.815979
610.976013,378.687988,706.624023
612.927979,386.496002,704.671997
609.023987,378.687988,714.432007
610.976013,380.640015,710.528015
603.168030,384.544006,708.575989
626.591980,376.735992,708.575989
607.072021,370.880005,712.479980
624.640015,386.496002,724.192017
597.312012,380.640015,706.624023
612.927979,378.687988,710.528015
601.216003,378.687988,712.479980
609.023987,388.447998,704.671997
607.072021,390.399994,700.768005
601.216003,392.351990,691.007996
609.023987,394.303986,694.911987
597.312012,390.399994,691.007996
597.312012,378.687988,689.056030
603.168030,384.544006,691.007996
597.312012,366.976013,681.247986
603.168030,374.783997,687.104004
599.263977,370.880005,694.911987
595.359985,388.447998,694.911987
599.263977,372.832001,696.864014
597.312012,359.167999,696.864014
601.216003,376.735992,694.911987
603.168030,351.359985,700.768005
599.263977,363.071991,702.719971
605.119995,363.071991,710.528015
607.072021,366.976013,704.671997
605.119995,372.832001,710.528015
607.072021,363.071991,714.432007
607.072021,368.928009,712.479980
607.072021,382.592010,700.768005
601.216003,376.735992,704.671997
601.216003,376.735992,700.768005
607.072021,372.832001,692.960022
603.168030,372.832001,685.151978
605.119995,370.880005,692.960022
601.216003,376.735992,694.911987
599.263977,368.928009,694.911987
607.072021,359.167999,698.815979
607.072021,365.023987,692.960022
605.119995,361.119995,691.007996
610.976013,349.407990,679.296021
605.119995,347.455994,696.864014
609.023987,347.455994,696.864014
609.023987,339.648010,692.960022
616.831970,349.407990,694.911987
620.736023,349.407990,700.768005
616.831970,353.312012,704.671997
614.880005,351.359985,698.815979
612.927979,341.600006,700.768005
624.640015,341.600006,702.719971
616.831970,345.503998,708.575989
624.640015,349.407990,710.528015
624.640015,347.455994,704.671997
628.544006,357.216003,704.671997
630.495972,353.312012,706.624023
630.495972,357.216003,702.719971
622.687988,363.071991,696.864014
616.831970,376.735992,710.528015
610.976013,370.880005,702.719971
614.880005,376.735992,710.528015
630.495972,366.976013,694.911987
634.400024,363.071991,692.960022
632.447998,337.696014,692.960022
628.544006,341.600006,689.056030
626.591980,347.455994,691.007996
626.591980,337.696014,691.007996
630.495972,329.888000,689.056030
634.400024,329.888000,683.200012
614.880005,345.503998,679.296021
609.023987,345.503998,679.296021
614.880005,333.791992,683.200012
607.072021,343.552002,685.151978
622.687988,347.455994,681.247986
620.736023,341.600006,667.583984
616.831970,339.648010,679.296021
616.831970,349.407990,669.536011
607.072021,359.167999,677.343994
605.119995,365.023987,675.392029
601.216003,361.119995,679.296021
601.216003,366.976013,673.440002
609.023987,370.880005,681.247986
607.072021,380.640015,675.392029
603.168030,374.783997,681.247986
601.216003,376.735992,673.440002
599.263977,376.735992,663.679993
599.263977,384.544006,677.343994
597.312012,374.783997,681.247986
601.216003,370.880005,661.728027
597.312012,366.976013,679.296021
603.168030,365.023987,663.679993
593.408020,370.880005,663.679993
595.359985,366.976013,659.776001
591.455994,370.880005,651.968018
587.552002,365.023987,651.968018
581.695984,374.783997,648.064026
591.455994,366.976013,648.064026
591.455994,384.544006,650.015991
591.455994,378.687988,646.112000
597.312012,378.687988,646.112000
593.408020,384.544006,646.112000
585.599976,392.351990,636.351990
589.504028,394.303986,638.304016
597.312012,396.256012,648.064026
593.408020,400.160004,646.112000
595.359985,390.399994,648.064026
597.312012,394.303986,650.015991
595.359985,402.112000,653.919983
603.168030,398.208008,651.968018
605.119995,394.303986,655.872009
618.783997,386.496002,653.919983
616.831970,388.447998,657.823975
626.591980,372.832001,655.872009
620.736023,370.880005,655.872009
622.687988,376.735992,665.632019
628.544006,376.735992,659.776001
632.447998,370.880005,663.679993
628.544006,359.167999,657.823975
646.112000,378.687988,648.064026
628.544006,370.880005,653.919983
640.255981,378.687988,665.632019
646.112000,376.735992,657.823975
646.112000,376.735992,653.919983
657.823975,378.687988,659.776001
651.968018,378.687988,661.728027
657.823975,374.783997,661.728027
655.872009,372.832001,661.728027
653.919983,374.783997,667.583984
655.872009,376.735992,669.536011
653.919983,378.687988,675.392029
648.064026,372.832001,679.296021
665.632019,384.544006,679.296021
667.583984,374.783997,683.200012
671.487976,368.928009,679.296021
669.536011,361.119995,689.056030
673.440002,361.119995,683.200012
675.392029,370.880005,687.104004
677.343994,363.071991,685.151978
671.487976,345.503998,691.007996
673.440002,361.119995,689.056030
661.728027,353.312012,675.392029
663.679993,355.264008,689.056030
659.776001,355.264008,673.440002
657.823975,347.455994,677.343994
659.776001,357.216003,667.583984
653.919983,349.407990,665.632019
650.015991,351.359985,661.728027
651.968018,355.264008,663.679993
646.112000,339.648010,657.823975
650.015991,361.119995,663.679993
657.823975,355.264008,663.679993
665.632019,357.216003,667.583984
653.919983,353.312012,673.440002
650.015991,357.216003,675.392029
653.919983,347.455994,681.247986
646.112000,341.600006,689.056030
648.064026,339.648010,679.296021
655.872009,351.359985,679.296021
653.919983,345.503998,677.343994
646.112000,341.600006,681.247986
648.064026,345.503998,679.296021
648.064026,339.648010,675.392029
646.112000,345.503998,677.343994
644.159973,339.648010,673.440002
636.351990,345.503998,669.536011
632.447998,345.503998,675.392029
632.447998,337.696014,663.679993
632.447998,337.696014,661.728027
636.351990,339.648010,663.679993
628.544006,343.552002,657.823975
630.495972,335.743988,665.632019
626.591980,331.839996,663.679993
624.640015,335.743988,667.583984
622.687988,331.839996,671.487976
632.447998,339.648010,667.583984
626.591980,335.743988,671.487976
630.495972,339.648010,673.440002
630.495972,341.600006,663.679993
636.351990,335.743988,675.392029
630.495972,345.503998,675.392029
624.640015,339.648010,681.247986
640.255981,337.696014,685.151978
628.544006,341.600006,681.247986
634.400024,331.839996,681.247986
628.544006,341.600006,679.296021
632.447998,333.791992,671.487976
624.640015,341.600006,675.392029
626.591980,331.839996,681.247986
624.640015,345.503998,681.247986
630.495972,337.696014,671.487976
624.640015,343.552002,665.632019
634.400024,337.696014,675.392029
634.400024,345.503998,675.392029
632.447998,339.648010,675.392029
624.640015,341.600006,671.487976
628.544006,337.696014,675.392029
618.783997,343.552002,677.343994
616.831970,339.648010,671.487976
612.927979,331.839996,677.343994
616.831970,345.503998,677.343994
616.831970,339.648010,677.343994
620.736023,335.743988,677.343994
622.687988,341.600006,677.343994
622.687988,329.888000,677.343994
622.687988,337.696014,669.536011
622.687988,337.696014,671.487976
612.927979,337.696014,677.343994
609.023987,343.552002,661.728027
603.168030,345.503998,663.679993
605.119995,339.648010,663.679993
593.408020,343.552002,669.536011
599.263977,347.455994,653.919983
601.216003,345.503998,661.728027
605.119995,343.552002,653.919983
599.263977,341.600006,659.776001
601.216003,337.696014,651.968018
593.408020,339.648010,661.728027
599.263977,349.407990,657.823975
591.455994,339.648010,653.919983
595.359985,343.552002,651.968018
585.599976,339.648010,657.823975
593.408020,339.648010,653.919983
589.504028,331.839996,651.968018
595.359985,345.503998,651.968018
589.504028,341.600006,648.064026
599.263977,349.407990,657.823975
603.168030,341.600006,653.919983
599.263977,324.032013,650.015991
593.408020,327.936005,653.919983
603.168030,331.839996,650.015991
593.408020,335.743988,661.728027
599.263977,339.648010,663.679993
599.263977,345.503998,661.728027
595.359985,335.743988,661.728027
593.408020,333.791992,659.776001
595.359985,329.888000,663.679993
607.072021,333.791992,663.679993
618.783997,324.032013,663.679993
618.783997,310.368011,671.487976
626.591980,314.272003,677.343994
632.447998,320.127991,679.296021
634.400024,304.511993,675.392029
634.400024,306.463989,681.247986
628.544006,306.463989,681.247986
634.400024,310.368011,681.247986
630.495972,314.272003,675.392029
628.544006,302.559998,689.056030
634.400024,304.511993,692.960022
634.400024,312.320007,692.960022
640.255981,304.511993,685.151978
644.159973,294.752014,683.200012
642.208008,302.559998,685.151978
646.112000,300.608002,683.200012
634.400024,300.608002,683.200012
632.447998,298.656006,679.296021
636.351990,300.608002,687.104004
655.872009,302.559998,687.104004
673.440002,306.463989,675.392029
681.247986,298.656006,671.487976
687.104004,296.704010,681.247986
691.007996,283.040009,679.296021
691.007996,292.799988,696.864014
689.056030,286.944000,700.768005
687.104004,281.088013,700.768005
683.200012,286.944000,698.815979
687.104004,290.847992,692.960022
687.104004,283.040009,704.671997
689.056030,292.799988,694.911987
698.815979,288.895996,691.007996
696.864014,290.847992,696.864014
691.007996,281.088013,696.864014
698.815979,284.992004,706.624023
694.911987,283.040009,700.768005
685.151978,281.088013,696.864014
687.104004,288.895996,700.768005
694.911987,273.279999,694.911987
689.056030,284.992004,698.815979
689.056030,286.944000,700.768005
679.296021,279.135986,691.007996
685.151978,286.944000,702.719971
687.104004,273.279999,706.624023
692.960022,283.040009,700.768005
692.960022,284.992004,694.911987
685.151978,294.752014,694.911987
692.960022,283.040009,694.911987
696.864014,284.992004,702.719971
689.056030,283.040009,702.719971
700.768005,294.752014,702.719971
696.864014,288.895996,698.815979
687.104004,281.088013,696.864014
692.960022,290.847992,692.960022
696.864014,284.992004,691.007996
702.719971,292.799988,691.007996
749.567993,284.992004,694.911987
712.479980,275.231995,696.864014
780.799988,253.759995,700.768005
767.135986,263.519989,722.239990
751.520020,277.183990,747.616028
685.151978,304.511993,780.799988
673.440002,296.704010,806.176025
689.056030,310.368011,800.320007
683.200012,300.608002,772.992004
694.911987,261.567993,745.664001
745.664001,232.287994,732.000000
724.192017,183.488007,728.096008
739.807983,181.535995,728.096008
706.624023,191.296005,733.952026
710.528015,226.432007,732.000000
696.864014,259.615997,726.143982
696.864014,294.752014,722.239990
683.200012,310.368011,706.624023
681.247986,324.032013,716.383972
763.231995,351.359985,706.624023
749.567993,341.600006,700.768005
642.208008,284.992004,700.768005
732.000000,314.272003,704.671997
665.632019,300.608002,708.575989
728.096008,343.552002,718.335999
716.383972,333.791992,741.760010
751.520020,312.320007,743.711975
745.664001,257.664001,747.616028
735.903992,230.335999,749.567993
710.528015,234.240005,755.424011
728.096008,255.712006,737.856018
712.479980,261.567993,749.567993
726.143982,283.040009,757.375977
724.192017,277.183990,757.375977
757.375977,271.328003,761.280029
757.375977,271.328003,757.375977
751.520020,265.471985,771.039978
733.952026,290.847992,772.992004
726.143982,300.608002,776.895996
726.143982,298.656006,776.895996
722.239990,283.040009,771.039978
728.096008,261.567993,755.424011
718.335999,261.567993,757.375977
720.288025,251.807999,745.664001
710.528015,263.519989,749.567993
726.143982,257.664001,741.760010
724.192017,255.712006,753.471985
730.047974,251.807999,753.471985
732.000000,240.095993,749.567993
735.903992,224.479996,751.520020
739.807983,220.576004,753.471985
741.760010,228.384003,757.375977
759.328003,238.143997,767.135986
763.231995,240.095993,767.135986
751.520020,230.335999,771.039978
739.807983,249.856003,778.848022
730.047974,277.183990,774.943970
728.096008,279.135986,778.848022
722.239990,283.040009,765.184021
714.432007,286.944000,761.280029
724.192017,283.040009,761.280029
718.335999,286.944000,757.375977
728.096008,283.040009,757.375977
730.047974,283.040009,757.375977
735.903992,273.279999,757.375977
739.807983,273.279999,753.471985
743.711975,267.424011,749.567993
751.520020,261.567993,757.375977
745.664001,249.856003,743.711975
737.856018,261.567993,749.567993
735.903992,263.519989,745.664001
733.952026,249.856003,749.567993
735.903992,245.951996,755.424011
732.000000,247.904007,749.567993
724.192017,236.192001,751.520020
730.047974,244.000000,755.424011
722.239990,247.904007,749.567993
720.288025,247.904007,743.711975
710.528015,242.048004,751.520020
714.432007,247.904007,751.520020
710.528015,253.759995,747.616028
706.624023,259.615997,745.664001
698.815979,257.664001,745.664001
712.479980,265.471985,743.711975
706.624023,261.567993,747.616028
706.624023,259.615997,741.760010
708.575989,249.856003,741.760010
708.575989,261.567993,737.856018
704.671997,271.328003,759.328003
698.815979,261.567993,751.520020
704.671997,249.856003,747.616028
708.575989,253.759995,739.807983
700.768005,259.615997,733.952026
704.671997,255.712006,741.760010
696.864014,259.615997,737.856018
700.768005,249.856003,743.711975
692.960022,249.856003,741.760010
687.104004,259.615997,747.616028
683.200012,251.807999,745.664001
677.343994,251.807999,745.664001
687.104004,253.759995,743.711975
685.151978,253.759995,743.711975
685.151978,249.856003,732.000000
685.151978,247.904007,728.096008
677.343994,257.664001,728.096008
665.632019,253.759995,733.952026
669.536011,251.807999,726.143982
667.583984,251.807999,726.143982
661.728027,245.951996,724.192017
665.632019,259.615997,720.288025
661.728027,267.424011,716.383972
661.728027,257.664001,710.528015
661.728027,261.567993,718.335999
661.728027,261.567993,714.432007
661.728027,255.712006,710.528015
650.015991,253.759995,710.528015
651.968018,255.712006,704.671997
642.208008,244.000000,702.719971
653.919983,249.856003,702.719971
640.255981,253.759995,691.007996
632.447998,255.712006,691.007996
632.447998,249.856003,689.056030
636.351990,253.759995,689.056030
636.351990,261.567993,691.007996
632.447998,255.712006,689.056030
638.304016,249.856003,683.200012
642.208008,247.904007,673.440002
632.447998,255.712006,677.343994
634.400024,253.759995,677.343994
630.495972,245.951996,669.536011
624.640015,247.904007,665.632019
636.351990,253.759995,665.632019
634.400024,247.904007,655.872009
628.544006,242.048004,657.823975
620.736023,240.095993,650.015991
616.831970,240.095993,646.112000
620.736023,245.951996,646.112000
632.447998,236.192001,640.255981
634.400024,222.528000,646.112000
630.495972,214.720001,644.159973
638.304016,220.576004,636.351990
636.351990,222.528000,636.351990
644.159973,228.384003,630.495972
644.159973,214.720001,624.640015
640.255981,212.768005,622.687988
628.544006,206.912003,622.687988
632.447998,201.056000,616.831970
636.351990,197.151993,628.544006
636.351990,201.056000,628.544006
644.159973,203.007996,624.640015
646.112000,191.296005,628.544006
648.064026,189.343994,626.591980
661.728027,185.440002,626.591980
669.536011,177.632004,630.495972
667.583984,160.063995,640.255981
673.440002,142.496002,646.112000
675.392029,132.735992,648.064026
683.200012,132.735992,644.159973
685.151978,132.735992,650.015991
677.343994,130.783997,650.015991
683.200012,132.735992,644.159973
681.247986,142.496002,650.015991
681.247986,150.304001,640.255981
696.864014,162.016006,651.968018
696.864014,163.968002,648.064026
698.815979,173.727997,648.064026
691.007996,179.584000,655.872009
698.815979,181.535995,651.968018
700.768005,201.056000,659.776001
694.911987,214.720001,659.776001
702.719971,228.384003,667.583984
706.624023,230.335999,681.247986
708.575989,255.712006,685.151978
698.815979,255.712006,687.104004
710.528015,261.567993,692.960022
712.479980,281.088013,702.719971
720.288025,286.944000,702.719971
718.335999,296.704010,716.383972
732.000000,306.463989,714.432007
737.856018,306.463989,728.096008
730.047974,320.127991,733.952026
728.096008,300.608002,747.616028
732.000000,284.992004,753.471985
730.047974,259.615997,749.567993
730.047974,240.095993,757.375977
730.047974,220.576004,757.375977
718.335999,204.960007,757.375977
732.000000,191.296005,763.231995
730.047974,185.440002,755.424011
730.047974,197.151993,761.280029
728.096008,212.768005,755.424011
733.952026,238.143997,759.328003
726.143982,269.376007,759.328003
722.239990,281.088013,769.088013
726.143982,298.656006,776.895996
730.047974,290.847992,782.752014
730.047974,265.471985,786.656006
724.192017,283.040009,784.703979
716.383972,331.839996,788.607971
712.479980,368.928009,788.607971
712.479980,380.640015,784.703979
706.624023,368.928009,786.656006
710.528015,392.351990,786.656006
712.479980,388.447998,774.943970
714.432007,372.832001,774.943970
708.575989,368.928009,778.848022
712.479980,359.167999,774.943970
702.719971,343.552002,765.184021
694.911987,335.743988,767.135986
691.007996,320.127991,755.424011
689.056030,306.463989,751.520020
683.200012,283.040009,751.520020
679.296021,277.183990,747.616028
671.487976,269.376007,739.807983
669.536011,257.664001,732.000000
665.632019,240.095993,730.047974
650.015991,247.904007,728.096008
648.064026,245.951996,712.479980
640.255981,249.856003,708.575989
642.208008,275.231995,708.575989
644.159973,279.135986,706.624023
653.919983,294.752014,706.624023
642.208008,310.368011,700.768005
644.159973,329.888000,694.911987
642.208008,333.791992,698.815979
638.304016,341.600006,696.864014
616.831970,341.600006,702.719971
612.927979,339.648010,691.007996
603.168030,329.888000,685.151978
618.783997,314.272003,687.104004
618.783997,306.463989,685.151978
607.072021,294.752014,677.343994
603.168030,286.944000,671.487976
603.168030,288.895996,669.536011
601.216003,284.992004,673.440002
597.312012,296.704010,671.487976
597.312012,306.463989,675.392029
587.552002,306.463989,669.536011
585.599976,300.608002,667.583984
581.695984,310.368011,677.343994
577.791992,314.272003,669.536011
581.695984,304.511993,659.776001
579.744019,296.704010,659.776001
587.552002,314.272003,659.776001
569.984009,306.463989,661.728027
585.599976,312.320007,659.776001
566.080017,306.463989,655.872009
550.463989,310.368011,659.776001
556.320007,308.415985,650.015991
550.463989,300.608002,648.064026
556.320007,296.704010,646.112000
550.463989,283.040009,644.159973
554.367981,253.759995,632.447998
569.984009,197.151993,622.687988
577.791992,185.440002,624.640015
569.984009,216.671997,605.119995
554.367981,257.664001,616.831970
550.463989,304.511993,618.783997
540.703979,312.320007,610.976013
552.416016,325.984009,609.023987
546.559998,333.791992,603.168030
546.559998,345.503998,601.216003
550.463989,347.455994,607.072021
554.367981,345.503998,601.216003
562.176025,320.127991,593.408020
562.176025,300.608002,601.216003
569.984009,275.231995,601.216003
579.744019,273.279999,610.976013
583.648010,267.424011,610.976013
587.552002,259.615997,618.783997
581.695984,257.664001,618.783997
581.695984,265.471985,626.591980
575.840027,263.519989,634.400024
573.888000,251.807999,632.447998
573.888000,244.000000,624.640015
587.552002,245.951996,628.544006
575.840027,240.095993,632.447998
581.695984,218.623993,636.351990
581.695984,216.671997,632.447998
593.408020,214.720001,632.447998
587.552002,218.623993,634.400024
585.599976,218.623993,632.447998
579.744019,218.623993,634.400024
585.599976,222.528000,626.591980
581.695984,218.623993,628.544006
575.840027,220.576004,620.736023
575.840027,236.192001,616.831970
579.744019,232.287994,618.783997
571.935974,226.432007,618.783997
560.223999,230.335999,618.783997
579.744019,253.759995,610.976013
562.176025,255.712006,607.072021
579.744019,253.759995,607.072021
579.744019,253.759995,605.119995
569.984009,253.759995,607.072021
569.984009,253.759995,607.072021
568.031982,249.856003,609.023987
569.984009,251.807999,614.880005
569.984009,247.904007,610.976013
569.984009,253.759995,612.927979
575.840027,244.000000,618.783997
585.599976,240.095993,620.736023
566.080017,206.912003,620.736023
579.744019,199.104004,620.736023
585.599976,181.535995,620.736023
593.408020,140.544006,607.072021
587.552002,130.783997,609.023987
585.599976,177.632004,610.976013
577.791992,224.479996,624.640015
575.840027,263.519989,622.687988
583.648010,247.904007,618.783997
591.455994,226.432007,618.783997
595.359985,210.815994,616.831970
587.552002,212.768005,597.312012
587.552002,224.479996,601.216003
579.744019,224.479996,609.023987
577.791992,216.671997,593.408020
566.080017,228.384003,610.976013
573.888000,230.335999,603.168030
569.984009,245.951996,601.216003
562.176025,236.192001,605.119995
573.888000,240.095993,601.216003
577.791992,236.192001,601.216003
575.840027,251.807999,601.216003
575.840027,251.807999,605.119995
575.840027,249.856003,599.263977
579.744019,234.240005,599.263977
583.648010,230.335999,607.072021
571.935974,234.240005,605.119995
577.791992,232.287994,605.119995
575.840027,234.240005,614.880005
577.791992,220.576004,609.023987
569.984009,216.671997,607.072021
573.888000,214.720001,618.783997
575.840027,222.528000,614.880005
568.031982,222.528000,620.736023
575.840027,220.576004,609.023987
569.984009,218.623993,609.023987
569.984009,199.104004,620.736023
579.744019,216.671997,620.736023
583.648010,216.671997,618.783997
579.744019,204.960007,622.687988
587.552002,199.104004,622.687988
583.648010,203.007996,626.591980
585.599976,204.960007,632.447998
587.552002,197.151993,630.495972
583.648010,203.007996,640.255981
583.648010,193.248001,632.447998
585.599976,167.871994,638.304016
591.455994,167.871994,636.351990
585.599976,156.160004,634.400024
589.504028,173.727997,644.159973
595.359985,177.632004,651.968018
597.312012,177.632004,665.632019
597.312012,165.919998,659.776001
609.023987,169.824005,659.776001
610.976013,162.016006,671.487976
605.119995,160.063995,667.583984
610.976013,156.160004,677.343994
599.263977,148.352005,675.392029
599.263977,142.496002,679.296021
601.216003,146.399994,675.392029
599.263977,138.591995,675.392029
610.976013,134.688004,681.247986
614.880005,134.688004,679.296021
618.783997,146.399994,679.296021
616.831970,148.352005,681.247986
612.927979,150.304001,689.056030
618.783997,140.544006,692.960022
610.976013,136.639999,687.104004
609.023987,142.496002,692.960022
607.072021,138.591995,691.007996
589.504028,126.879997,689.056030
603.168030,130.783997,692.960022
599.263977,122.975998,691.007996
605.119995,113.216003,685.151978
601.216003,130.783997,689.056030
605.119995,138.591995,679.296021
595.359985,150.304001,677.343994
595.359985,158.112000,683.200012
595.359985,158.112000,679.296021
597.312012,148.352005,675.392029
597.312012,136.639999,677.343994
601.216003,121.024002,667.583984
589.504028,142.496002,667.583984
591.455994,144.447998,667.583984
589.504028,152.255997,671.487976
595.359985,148.352005,677.343994
579.744019,150.304001,659.776001
595.359985,152.255997,657.823975
581.695984,160.063995,655.872009
587.552002,160.063995,653.919983
585.599976,152.255997,653.919983
587.552002,156.160004,638.304016
575.840027,162.016006,642.208008
585.599976,160.063995,646.112000
587.552002,163.968002,642.208008
595.359985,162.016006,632.447998
593.408020,162.016006,640.255981
595.359985,156.160004,630.495972
605.119995,144.447998,630.495972
612.927979,144.447998,636.351990
609.023987,150.304001,638.304016
610.976013,154.207993,632.447998
605.119995,162.016006,626.591980
618.783997,146.399994,630.495972
620.736023,140.544006,624.640015
624.640015,148.352005,628.544006
632.447998,150.304001,630.495972
630.495972,146.399994,624.640015
640.255981,152.255997,618.783997
634.400024,152.255997,612.927979
632.447998,162.016006,620.736023
634.400024,154.207993,610.976013
640.255981,148.352005,612.927979
636.351990,154.207993,612.927979
638.304016,156.160004,616.831970
646.112000,158.112000,614.880005
634.400024,150.304001,610.976013
634.400024,148.352005,605.119995
632.447998,165.919998,607.072021
640.255981,169.824005,603.168030
638.304016,156.160004,599.263977
630.495972,158.112000,601.216003
638.304016,167.871994,605.119995
634.400024,154.207993,599.263977
632.447998,163.968002,597.312012
636.351990,162.016006,595.359985
636.351990,163.968002,591.455994
632.447998,167.871994,593.408020
646.112000,175.679993,587.552002
636.351990,163.968002,585.599976
642.208008,156.160004,593.408020
638.304016,152.255997,593.408020
642.208008,163.968002,603.168030
646.112000,165.919998,599.263977
638.304016,162.016006,593.408020
624.640015,171.776001,589.504028
610.976013,183.488007,599.263977
609.023987,179.584000,595.359985
599.263977,167.871994,589.504028
589.504028,175.679993,593.408020
591.455994,177.632004,585.599976
577.791992,167.871994,579.744019
579.744019,173.727997,583.648010
566.080017,169.824005,571.935974
568.031982,169.824005,585.599976
566.080017,167.871994,571.935974
573.888000,177.632004,575.840027
568.031982,183.488007,575.840027
568.031982,189.343994,568.031982
558.271973,189.343994,564.127991
568.031982,203.007996,552.416016
564.127991,251.807999,536.799988
558.271973,275.231995,523.135986
571.935974,244.000000,521.184021
569.984009,191.296005,528.992004
562.176025,201.056000,527.039978
544.607971,226.432007,528.992004
548.512024,242.048004,511.424011
556.320007,228.384003,507.519989
556.320007,228.384003,501.664001
558.271973,236.192001,513.375977
538.752014,234.240005,519.231995
538.752014,214.720001,517.280029
542.656006,206.912003,523.135986
538.752014,220.576004,507.519989
548.512024,214.720001,519.231995
552.416016,206.912003,525.088013
560.223999,193.248001,528.992004
552.416016,181.535995,532.895996
550.463989,171.776001,536.799988
550.463989,189.343994,536.799988
542.656006,183.488007,538.752014
550.463989,179.584000,540.703979
550.463989,171.776001,530.943970
542.656006,175.679993,530.943970
552.416016,185.440002,527.039978
546.559998,181.535995,525.088013
546.559998,183.488007,523.135986
556.320007,181.535995,513.375977
558.271973,189.343994,503.615997
546.559998,193.248001,497.760010
564.127991,189.343994,491.903992
571.935974,185.440002,505.567993
564.127991,177.632004,495.808014
564.127991,189.343994,491.903992
571.935974,183.488007,493.855988
583.648010,181.535995,493.855988
585.599976,181.535995,489.951996
585.599976,177.632004,497.760010
597.312012,165.919998,507.519989
610.976013,156.160004,503.615997
610.976013,150.304001,505.567993
622.687988,138.591995,505.567993
636.351990,138.591995,521.184021
636.351990,122.975998,530.943970
638.304016,107.360001,544.607971
642.208008,87.839996,550.463989
653.919983,74.176003,569.984009
665.632019,72.223999,571.935974
679.296021,70.272003,569.984009
679.296021,68.320000,569.984009
685.151978,60.512001,571.935974
692.960022,56.608002,577.791992
704.671997,50.751999,571.935974
714.432007,44.896000,587.552002
720.288025,35.136002,575.840027
732.000000,39.040001,577.791992
751.520020,42.944000,581.695984
755.424011,46.848000,591.455994
757.375977,37.088001,583.648010
755.424011,40.992001,587.552002
761.280029,39.040001,583.648010
765.184021,40.992001,603.168030
772.992004,37.088001,599.263977
771.039978,40.992001,603.168030
778.848022,60.512001,603.168030
767.135986,70.272003,616.831970
772.992004,83.935997,616.831970
774.943970,93.695999,636.351990
782.752014,109.311996,642.208008
790.559998,132.735992,650.015991
788.607971,152.255997,650.015991
794.463989,163.968002,661.728027
786.656006,185.440002,677.343994
800.320007,189.343994,675.392029
806.176025,203.007996,687.104004
802.271973,208.863998,691.007996
804.223999,214.720001,691.007996
806.176025,218.623993,696.864014
813.984009,218.623993,694.911987
810.080017,216.671997,700.768005
810.080017,210.815994,692.960022
804.223999,220.576004,691.007996
821.791992,216.671997,687.104004
812.031982,197.151993,689.056030
810.080017,203.007996,687.104004
808.127991,199.104004,667.583984
810.080017,193.248001,669.536011
804.223999,177.632004,648.064026
796.416016,179.584000,642.208008
806.176025,173.727997,628.544006
813.984009,171.776001,628.544006
806.176025,163.968002,630.495972
804.223999,165.919998,622.687988
798.367981,165.919998,614.880005
800.320007,156.160004,614.880005
798.367981,165.919998,618.783997
806.176025,160.063995,622.687988
804.223999,158.112000,616.831970
813.984009,167.871994,634.400024
808.127991,173.727997,630.495972
806.176025,175.679993,646.112000
825.695984,181.535995,650.015991
825.695984,183.488007,655.872009
827.648010,204.960007,661.728027
833.504028,220.576004,679.296021
837.408020,210.815994,685.151978
835.455994,214.720001,687.104004
841.312012,220.576004,689.056030
847.168030,222.528000,689.056030
853.023987,226.432007,696.864014
847.168030,226.432007,694.911987
853.023987,234.240005,702.719971
839.359985,228.384003,687.104004
849.119995,224.479996,696.864014
849.119995,224.479996,687.104004
847.168030,218.623993,681.247986
839.359985,216.671997,683.200012
839.359985,210.815994,679.296021
837.408020,212.768005,671.487976
841.312012,210.815994,679.296021
835.455994,204.960007,667.583984
833.504028,189.343994,657.823975
831.552002,189.343994,671.487976
833.504028,189.343994,659.776001
829.599976,181.535995,665.632019
823.744019,189.343994,659.776001
825.695984,181.535995,661.728027
825.695984,187.391998,653.919983
821.791992,183.488007,650.015991
815.935974,181.535995,657.823975
821.791992,175.679993,655.872009
825.695984,183.488007,651.968018
819.840027,183.488007,661.728027
819.840027,185.440002,655.872009
821.791992,193.248001,661.728027
819.840027,189.343994,663.679993
827.648010,197.151993,657.823975
823.744019,183.488007,667.583984
819.840027,189.343994,675.392029
823.744019,183.488007,675.392029
813.984009,177.632004,677.343994
827.648010,171.776001,679.296021
831.552002,165.919998,681.247986
831.552002,167.871994,671.487976
829.599976,167.871994,681.247986
819.840027,179.584000,663.679993
819.840027,177.632004,673.440002
819.840027,163.968002,677.343994
839.359985,160.063995,661.728027
821.791992,160.063995,661.728027
833.504028,189.343994,657.823975
815.935974,162.016006,665.632019
823.744019,134.688004,669.536011
837.408020,175.679993,675.392029
837.408020,181.535995,651.968018
858.880005,142.496002,663.679993
847.168030,128.832001,683.200012
837.408020,144.447998,696.864014
837.408020,126.879997,692.960022
835.455994,101.503998,700.768005
853.023987,111.264000,700.768005
856.927979,119.071999,692.960022
853.023987,97.599998,694.911987
843.263977,85.888000,694.911987
839.359985,113.216003,704.671997
819.840027,126.879997,700.768005
812.031982,107.360001,698.815979
813.984009,99.552002,687.104004
819.840027,105.407997,683.200012
819.840027,115.167999,663.679993
819.840027,111.264000,657.823975
804.223999,121.024002,653.919983
808.127991,119.071999,657.823975
800.320007,109.311996,655.872009
808.127991,105.407997,650.015991
813.984009,122.975998,644.159973
808.127991,111.264000,644.159973
806.176025,99.552002,651.968018
804.223999,95.648003,655.872009
812.031982,89.792000,657.823975
804.223999,87.839996,657.823975
817.888000,78.080002,663.679993
821.791992,74.176003,673.440002
833.504028,58.560001,675.392029
806.176025,85.888000,687.104004
817.888000,121.024002,685.151978
798.367981,101.503998,691.007996
792.512024,80.031998,683.200012
810.080017,115.167999,675.392029
831.552002,115.167999,673.440002
831.552002,83.935997,671.487976
831.552002,44.896000,681.247986
821.791992,50.751999,685.151978
813.984009,64.416000,685.151978
825.695984,48.799999,683.200012
829.599976,46.848000,685.151978
821.791992,46.848000,696.864014
812.031982,54.655998,692.960022
800.320007,46.848000,681.247986
792.512024,56.608002,675.392029
794.463989,66.367996,669.536011
798.367981,58.560001,663.679993
804.223999,70.272003,663.679993
800.320007,74.176003,653.919983
802.271973,85.888000,653.919983
798.367981,83.935997,644.159973
792.512024,95.648003,636.351990
792.512024,95.648003,642.208008
782.752014,89.792000,648.064026
790.559998,105.407997,640.255981
784.703979,107.360001,632.447998
788.607971,101.503998,646.112000
780.799988,89.792000,651.968018
782.752014,78.080002,648.064026
780.799988,74.176003,653.919983
776.895996,95.648003,651.968018
790.559998,87.839996,650.015991
784.703979,78.080002,657.823975
788.607971,76.127998,665.632019
788.607971,81.984001,653.919983
794.463989,85.888000,655.872009
796.416016,103.456001,650.015991
812.031982,97.599998,642.208008
765.184021,138.591995,650.015991
749.567993,181.535995,648.064026
733.952026,154.207993,646.112000
743.711975,132.735992,638.304016
765.184021,167.871994,614.880005
784.703979,154.207993,601.216003
782.752014,101.503998,603.168030
782.752014,78.080002,616.831970
751.520020,93.695999,618.783997
751.520020,95.648003,626.591980
751.520020,72.223999,622.687988
737.856018,64.416000,610.976013
743.711975,87.839996,609.023987
735.903992,72.223999,607.072021
722.239990,62.464001,599.263977
716.383972,85.888000,599.263977
714.432007,91.744003,593.408020
712.479980,78.080002,589.504028
712.479980,83.935997,581.695984
712.479980,97.599998,581.695984
724.192017,117.120003,573.888000
712.479980,113.216003,571.935974
706.624023,126.879997,562.176025
698.815979,130.783997,554.367981
694.911987,136.639999,534.848022
691.007996,152.255997,528.992004
689.056030,171.776001,515.328003
683.200012,162.016006,505.567993
696.864014,181.535995,513.375977
691.007996,148.352005,499.712006
683.200012,179.584000,493.855988
673.440002,220.576004,499.712006
651.968018,163.968002,503.615997
646.112000,162.016006,499.712006
677.343994,171.776001,501.664001
663.679993,173.727997,509.471985
673.440002,142.496002,521.184021
669.536011,124.928001,530.943970
659.776001,122.975998,548.512024
651.968018,126.879997,534.848022
644.159973,138.591995,523.135986
648.064026,130.783997,517.280029
630.495972,136.639999,525.088013
644.159973,121.024002,527.039978
626.591980,109.311996,511.424011
632.447998,144.447998,503.615997
634.400024,158.112000,509.471985
618.783997,136.639999,507.519989
624.640015,126.879997,497.760010
618.783997,126.879997,493.855988
624.640015,136.639999,474.335999
626.591980,152.255997,470.432007
628.544006,146.399994,466.528015
624.640015,138.591995,470.432007
626.591980,128.832001,466.528015
624.640015,126.879997,456.768005
634.400024,134.688004,458.720001
650.015991,130.783997,462.623993
665.632019,115.167999,464.575989
673.440002,89.792000,474.335999
677.343994,89.792000,468.480011
691.007996,93.695999,476.287994
694.911987,83.935997,482.144012
710.528015,44.896000,484.096008
708.575989,39.040001,486.048004
712.479980,52.703999,489.951996
726.143982,56.608002,488.000000
726.143982,35.136002,491.903992
735.903992,19.520000,493.855988
759.328003,15.616000,489.951996
757.375977,29.280001,480.191986
761.280029,27.327999,476.287994
757.375977,17.568001,491.903992
767.135986,17.568001,491.903992
757.375977,17.568001,499.712006
776.895996,11.712000,495.808014
810.080017,-7.808000,489.951996
806.176025,-19.520000,499.712006
808.127991,7.808000,505.567993
815.935974,-1.952000,509.471985
817.888000,-17.568001,505.567993
827.648010,-19.520000,503.615997
849.119995,-9.760000,499.712006
860.831970,-15.616000,499.712006
854.976013,-19.520000,509.471985
860.831970,-19.520000,503.615997
856.927979,-9.760000,513.375977
874.495972,-27.327999,525.088013
876.447998,-13.664000,538.752014
903.776001,13.664000,550.463989
919.392029,17.568001,579.744019
925.247986,25.375999,612.927979
940.864014,15.616000,644.159973
954.528015,19.520000,667.583984
962.335999,27.327999,704.671997
977.952026,39.040001,716.383972
977.952026,31.232000,737.856018
979.903992,35.136002,753.471985
987.711975,44.896000,751.520020
993.567993,50.751999,759.328003
995.520020,50.751999,771.039978
989.664001,50.751999,774.943970
983.807983,54.655998,784.703979
981.856018,46.848000,790.559998
993.567993,46.848000,800.320007
995.520020,58.560001,804.223999
1007.231995,62.464001,812.031982
1005.280029,64.416000,804.223999
1011.135986,72.223999,813.984009
999.424011,83.935997,817.888000
1001.375977,93.695999,810.080017
991.616028,119.071999,790.559998
976.000000,132.735992,769.088013
960.383972,169.824005,759.328003
952.575989,191.296005,737.856018
950.624023,203.007996,708.575989
958.432007,222.528000,683.200012
940.864014,255.712006,675.392029
942.815979,261.567993,671.487976
927.200012,259.615997,667.583984
919.392029,267.424011,659.776001
919.392029,263.519989,665.632019
919.392029,265.471985,659.776001
921.343994,259.615997,669.536011
927.200012,228.384003,675.392029
935.007996,210.815994,691.007996
927.200012,199.104004,694.911987
925.247986,191.296005,692.960022
915.487976,167.871994,687.104004
913.536011,128.832001,689.056030
907.679993,113.216003,685.151978
899.872009,111.264000,669.536011
894.015991,103.456001,665.632019
878.400024,76.127998,638.304016
866.687988,85.888000,624.640015
851.072021,97.599998,605.119995
843.263977,113.216003,587.552002
837.408020,121.024002,566.080017
821.791992,124.928001,542.656006
806.176025,158.112000,527.039978
843.263977,152.255997,497.760010
784.703979,169.824005,474.335999
784.703979,236.192001,472.384003
765.184021,220.576004,478.239990
751.520020,163.968002,472.384003
767.135986,206.912003,452.864014
786.656006,218.623993,466.528015
763.231995,160.063995,462.623993
763.231995,138.591995,478.239990
755.424011,142.496002,491.903992
755.424011,138.591995,497.760010
759.328003,117.120003,497.760010
769.088013,119.071999,497.760010
761.280029,126.879997,507.519989
755.424011,107.360001,513.375977
739.807983,101.503998,511.424011
737.856018,121.024002,499.712006
737.856018,142.496002,484.096008
739.807983,134.688004,482.144012
728.096008,142.496002,482.144012
728.096008,156.160004,468.480011
720.288025,156.160004,466.528015
714.432007,158.112000,458.720001
714.432007,173.727997,450.911987
724.192017,165.919998,443.104004
716.383972,160.063995,437.247986
720.288025,173.727997,429.440002
722.239990,185.440002,425.536011
718.335999,175.679993,423.584015
708.575989,173.727997,411.872009
712.479980,167.871994,406.015991
714.432007,177.632004,396.256012
712.479980,179.584000,400.160004
716.383972,183.488007,398.208008
724.192017,162.016006,402.112000
710.528015,158.112000,402.112000
728.096008,167.871994,390.399994
733.952026,171.776001,396.256012
753.471985,146.399994,376.735992
737.856018,142.496002,359.167999
732.000000,208.863998,355.264008
726.143982,181.535995,365.023987
706.624023,136.639999,359.167999
735.903992,165.919998,349.407990
732.000000,175.679993,349.407990
722.239990,162.016006,351.359985
728.096008,154.207993,361.119995
710.528015,173.727997,349.407990
712.479980,171.776001,341.600006
743.711975,136.639999,327.936005
732.000000,109.311996,312.320007
741.760010,99.552002,312.320007
720.288025,54.655998,300.608002
720.288025,39.040001,292.799988
716.383972,31.232000,271.328003
724.192017,15.616000,255.712006
720.288025,-5.856000,242.048004
728.096008,-21.472000,234.240005
724.192017,-17.568001,220.576004
722.239990,-3.904000,218.623993
718.335999,15.616000,214.720001
692.960022,7.808000,204.960007
776.895996,3.904000,204.960007
732.000000,-21.472000,187.391998
753.471985,15.616000,195.199997
757.375977,42.944000,199.104004
726.143982,21.472000,201.056000
749.567993,1.952000,210.815994
745.664001,19.520000,206.912003
739.807983,37.088001,216.671997
757.375977,44.896000,214.720001
763.231995,56.608002,226.432007
763.231995,46.848000,242.048004
765.184021,64.416000,257.664001
778.848022,78.080002,283.040009
794.463989,105.407997,292.799988
790.559998,122.975998,308.415985
806.176025,113.216003,333.791992
798.367981,103.456001,347.455994
831.552002,121.024002,349.407990
813.984009,132.735992,359.167999
815.935974,126.879997,366.976013
841.312012,122.975998,365.023987
854.976013,97.599998,386.496002
868.640015,60.512001,376.735992
849.119995,74.176003,343.552002
858.880005,101.503998,327.936005
854.976013,70.272003,320.127991
874.495972,29.280001,318.175995
872.544006,37.088001,294.752014
882.304016,72.223999,253.759995
870.591980,62.464001,224.479996
890.112000,23.424000,206.912003
886.208008,27.327999,201.056000
921.343994,83.935997,222.528000
956.479980,152.255997,238.143997
929.151978,163.968002,232.287994
972.096008,142.496002,199.104004
970.143982,54.655998,162.016006
976.000000,-29.280001,128.832001
997.471985,-66.367996,117.120003
1020.895996,-68.320000,124.928001
1036.511963,-87.839996,122.975998
1030.656006,-121.024002,119.071999
1069.696045,-140.544006,105.407997
1052.128052,-165.919998,97.599998
1108.735962,-160.063995,101.503998
1087.264038,-162.016006,58.560001
1073.599976,-132.735992,39.040001
1104.832031,-255.712006,11.712000
845.216003,-300.608002,39.040001
1110.687988,-56.608002,122.975998
839.359985,263.519989,78.080002
901.823975,351.359985,52.703999
1151.680054,413.824005,66.367996
991.616028,601.216003,107.360001
1016.992004,458.720001,121.024002
1007.231995,290.847992,91.744003
1065.791992,292.799988,74.176003
1130.208008,423.584015,93.695999
1106.784058,409.920013,121.024002
1081.407959,349.407990,105.407997
1077.504028,382.592010,93.695999
1130.208008,454.816010,101.503998
1138.015991,456.768005,130.783997
1149.728027,423.584015,148.352005
1149.728027,425.536011,181.535995
1167.296021,376.735992,185.440002
1132.160034,322.079987,199.104004
1333.215942,345.503998,230.335999
1260.991943,253.759995,251.807999
1284.416016,263.519989,290.847992
1225.855957,247.904007,324.032013
1249.280029,238.143997,355.264008
1303.936035,212.768005,402.112000
1278.560059,146.399994,447.007996
1286.368042,132.735992,497.760010
1241.472046,103.456001,540.703979
1278.560059,85.888000,583.648010
1282.463989,42.944000,620.736023
1300.031982,44.896000,651.968018
1313.696045,31.232000,681.247986
1292.223999,46.848000,733.952026
1300.031982,54.655998,761.280029
1274.656006,56.608002,782.752014
1292.223999,54.655998,815.935974
1278.560059,107.360001,847.168030
1087.264038,854.976013,858.880005
1260.991943,1266.848022,884.255981
1208.287964,523.135986,903.776001
1245.375977,-253.759995,909.632019
1360.543945,-175.679993,925.247986
1241.472046,134.688004,917.440002
952.575989,93.695999,950.624023
1192.671997,122.975998,1038.463989
1348.832031,66.367996,1116.543945
1179.008057,-31.232000,1116.543945
1136.063965,-316.223999,1110.687988
1278.560059,-302.559998,1079.456055
1331.264038,-124.928001,1030.656006
1159.488037,-189.343994,1013.088013
1227.807983,-220.576004,991.616028
1401.536011,-199.104004,966.239990
1274.656006,-259.615997,935.007996
1298.079956,-80.031998,919.392029
1380.063965,-50.751999,901.823975
1475.712036,-245.951996,886.208008
1415.199951,-267.424011,878.400024
1452.287964,-183.488007,886.208008
1415.199951,-121.024002,905.728027
1401.536011,-99.552002,911.583984
1366.400024,-60.512001,903.776001
1368.352051,44.896000,903.776001
1325.407959,111.264000,897.919983
1288.319946,175.679993,894.015991
1270.751953,283.040009,880.351990
1231.712036,343.552002,858.880005
1212.192017,380.640015,845.216003
1206.336060,386.496002,821.791992
1208.287964,406.015991,798.367981
1210.239990,394.303986,782.752014
1194.624023,320.127991,749.567993
1188.767944,288.895996,720.288025
1196.576050,255.712006,700.768005
1198.527954,177.632004,675.392029
1177.056030,107.360001,640.255981
1177.056030,85.888000,616.831970
1169.248047,52.703999,599.263977
1138.015991,-7.808000,571.935974
1124.352051,-5.856000,532.895996
1106.784058,11.712000,503.615997
1081.407959,11.712000,480.191986
1050.176025,17.568001,454.816010
1042.368042,64.416000,425.536011
1016.992004,111.264000,392.351990
997.471985,138.591995,359.167999
983.807983,156.160004,325.984009
964.288025,204.960007,296.704010
946.719971,247.904007,255.712006
927.200012,247.904007,214.720001
921.343994,245.951996,183.488007
909.632019,236.192001,154.207993
901.823975,247.904007,119.071999
901.823975,242.048004,76.127998
897.919983,206.912003,46.848000
884.255981,181.535995,11.712000
876.447998,163.968002,-19.520000
860.831970,146.399994,-48.799999
843.263977,122.975998,-85.888000
837.408020,119.071999,-109.311996
819.840027,101.503998,-134.688004
808.127991,109.311996,-162.016006
800.320007,101.503998,-187.391998
784.703979,109.311996,-210.815994
790.559998,122.975998,-244.000000
771.039978,121.024002,-279.135986
765.184021,130.783997,-294.752014
765.184021,144.447998,-324.032013
763.231995,150.304001,-355.264008
767.135986,140.544006,-388.447998
759.328003,150.304001,-417.727997
759.328003,154.207993,-417.727997
767.135986,136.639999,-429.440002
769.088013,136.639999,-448.959991
778.848022,162.016006,-458.720001
772.992004,138.591995,-460.671997
767.135986,146.399994,-458.720001
761.280029,128.832001,-478.239990
767.135986,124.928001,-470.432007
788.607971,130.783997,-472.384003
790.559998,124.928001,-468.480011
780.799988,146.399994,-450.911987
774.943970,130.783997,-437.247986
774.943970,119.071999,-433.343994
806.176025,144.447998,-415.776001
812.031982,146.399994,-378.687988
827.648010,154.207993,-355.264008
813.984009,121.024002,-333.791992
849.119995,119.071999,-320.127991
860.831970,150.304001,-304.511993
895.968018,136.639999,-294.752014
882.304016,119.071999,-284.992004
886.208008,128.832001,-281.088013
435.295990,441.152008,113.216003
620.736023,667.583984,538.752014
761.280029,-80.031998,407.967987
790.559998,-661.728027,158.112000
665.632019,-74.176003,236.192001
970.143982,571.935974,616.831970
950.624023,1280.511963,936.960022
1479.615967,1196.576050,929.151978
1460.095947,1221.952026,921.343994
1305.887939,796.416016,905.728027
1303.936035,-722.239990,894.015991
1399.583984,-2182.335938,841.312012
1534.271973,-2697.664062,733.952026
1432.767944,-2219.424072,646.112000
1284.416016,-860.831970,573.888000
1188.767944,710.528015,532.895996
1210.239990,1821.215942,523.135986
1212.192017,2242.847900,528.992004
1180.959961,1335.167969,509.471985
1239.520020,-880.351990,552.416016
1188.767944,-2028.128052,573.888000
1227.807983,-1588.927979,532.895996
1184.864014,-365.023987,517.280029
1165.343994,776.895996,495.808014
1206.336060,1419.104004,427.488007
1175.104004,1204.384033,396.256012
1175.104004,245.951996,378.687988
1175.104004,-612.927979,392.351990
1212.192017,-831.552002,382.592010
1231.712036,-372.832001,372.832001
1227.807983,284.992004,351.359985
1208.287964,728.096008,327.936005
1186.816040,737.856018,273.279999
1147.776001,470.432007,238.143997
1155.583984,103.456001,189.343994
1122.400024,-99.552002,165.919998
1145.823975,-80.031998,142.496002
1134.112061,56.608002,121.024002
1132.160034,193.248001,97.599998
1110.687988,240.095993,68.320000
1093.119995,181.535995,25.375999
1079.456055,83.935997,-15.616000
1069.696045,48.799999,-29.280001
1098.975952,329.888000,-9.760000
1083.359985,648.064026,78.080002
1104.832031,607.072021,163.968002
1120.447998,218.623993,208.863998
1139.968018,-316.223999,234.240005
1169.248047,-692.960022,240.095993
1165.343994,-626.591980,234.240005
1153.631958,-160.063995,267.424011
1139.968018,144.447998,290.847992
1151.680054,9.760000,329.888000
1163.391968,-195.199997,361.119995
1188.767944,-210.815994,376.735992
1192.671997,-50.751999,359.167999
1169.248047,255.712006,312.320007
1151.680054,556.320007,255.712006
1128.255981,651.968018,193.248001
1108.735962,550.463989,148.352005
1089.215942,398.208008,101.503998
1091.167969,255.712006,46.848000
1097.024048,105.407997,3.904000
1083.359985,50.751999,-39.040001
1067.744019,124.928001,-70.272003
1044.319946,281.088013,-89.792000
1026.751953,445.056000,-93.695999
1020.895996,534.848022,-95.648003
1042.368042,511.424011,-81.984001
1067.744019,341.600006,-76.127998
1073.599976,103.456001,-74.176003
1069.696045,-17.568001,-93.695999
1067.744019,-7.808000,-132.735992
1038.463989,74.176003,-138.591995
1054.079956,138.591995,-158.112000
1030.656006,169.824005,-154.207993
1036.511963,288.895996,-136.639999
1098.975952,530.943970,-78.080002
1097.024048,730.047974,11.712000
1093.119995,610.976013,70.272003
1126.303955,197.151993,85.888000
1173.151978,-273.279999,70.272003
1184.864014,-587.552002,48.799999
1147.776001,-609.023987,54.655998
1118.495972,-468.480011,91.744003
1093.119995,-80.031998,126.879997
1089.215942,380.640015,148.352005
1110.687988,724.192017,140.544006
1118.495972,778.848022,121.024002
1130.208008,505.567993,89.792000
1139.968018,68.320000,54.655998
1149.728027,-240.095993,27.327999
1177.056030,-224.479996,1.952000
1163.391968,37.088001,-27.327999
1157.536011,378.687988,-50.751999
1151.680054,599.263977,-64.416000
1128.255981,632.447998,-89.792000
1112.640015,612.927979,-103.456001
1100.927979,530.943970,-140.544006
1104.832031,429.440002,-162.016006
1110.687988,421.631989,-158.112000
1087.264038,603.168030,-99.552002
1095.072021,700.768005,-54.655998
1095.072021,581.695984,17.568001
1081.407959,203.007996,48.799999
1143.871948,-201.056000,40.992001
1161.439941,-392.351990,56.608002
1159.488037,-390.399994,80.031998
1163.391968,-245.951996,121.024002
1186.816040,-97.599998,144.447998
1173.151978,91.744003,146.399994
1184.864014,275.231995,152.255997
1169.248047,290.847992,140.544006
1171.199951,189.343994,144.447998
1171.199951,66.367996,124.928001
1190.719971,31.232000,109.311996
1186.816040,105.407997,85.888000
1177.056030,257.664001,87.839996
1155.583984,402.112000,70.272003
1173.151978,466.528015,44.896000
1165.343994,388.447998,13.664000
1143.871948,263.519989,-9.760000
1114.592041,113.216003,-27.327999
1112.640015,64.416000,-42.944000
1087.264038,64.416000,-78.080002
1059.936035,48.799999,-80.031998
1032.608032,101.503998,-33.183998
1015.039978,136.639999,54.655998
1024.800049,247.904007,130.783997
1063.839966,382.592010,212.768005
1098.975952,339.648010,224.479996
1151.680054,230.335999,175.679993
1147.776001,140.544006,99.552002
1124.352051,124.928001,17.568001
1079.456055,191.296005,-31.232000
1034.560059,206.912003,-83.935997
991.616028,191.296005,-130.783997
985.760010,228.384003,-138.591995
983.807983,271.328003,-126.879997
997.471985,312.320007,-107.360001
1016.992004,304.511993,-111.264000
991.616028,210.815994,-165.919998
952.575989,99.552002,-232.287994
946.719971,74.176003,-290.847992
913.536011,81.984001,-341.600006
907.679993,242.048004,-411.872009
903.776001,689.056030,-425.536011
899.872009,1065.791992,-390.399994
858.880005,1141.920044,-359.167999
821.791992,573.888000,-322.079987
829.599976,-470.432007,-290.847992
827.648010,-1374.208008,-245.951996
829.599976,-1508.895996,-185.440002
839.359985,-702.719971,-160.063995
870.591980,406.015991,-156.160004
929.151978,1155.583984,-185.440002
954.528015,1227.807983,-208.863998
911.583984,669.536011,-240.095993
927.200012,-179.584000,-304.511993
964.288025,-837.408020,-378.687988
968.192017,-970.143982,-437.247986
944.768005,-554.367981,-464.575989
923.296021,83.935997,-499.712006
903.776001,569.984009,-505.567993
897.919983,712.479980,-525.088013
895.968018,462.623993,-550.463989
899.872009,-117.120003,-548.512024
897.919983,-829.599976,-511.424011
890.112000,-1196.576050,-372.832001
851.072021,-759.328003,-261.567993
872.544006,263.519989,-201.056000
894.015991,894.015991,-181.535995
1165.343994,384.544006,488.000000
1950.047974,-1633.823975,2898.719971
2660.575928,-2787.456055,4241.695801
2705.471924,-2338.496094,3699.040039
2391.199951,-1145.823975,2383.392090
2149.152100,-505.567993,1458.144043
2074.976074,-862.783997,1327.359985
1895.391968,-1169.248047,952.575989
1504.991943,-195.199997,111.264000
976.000000,329.888000,-665.632019
747.616028,901.823975,-1100.927979
812.031982,1202.432007,-1102.880005
880.351990,936.960022,-716.383972
872.544006,749.567993,-562.176025
878.400024,1003.328003,-761.280029
946.719971,962.335999,-575.840027
1163.391968,554.367981,58.560001
1344.927979,124.928001,636.351990
1397.631958,-19.520000,761.280029
1327.359985,134.688004,427.488007
1177.056030,308.415985,48.799999
1093.119995,230.335999,1.952000
1075.552002,85.888000,122.975998
1052.128052,74.176003,107.360001
1003.328003,113.216003,-23.424000
993.567993,113.216003,-115.167999
1040.416016,50.751999,-87.839996
1071.647949,-83.935997,48.799999
1087.264038,-119.071999,66.367996
1044.319946,1.952000,-103.456001
991.616028,152.255997,-261.567993
972.096008,251.807999,-320.127991
968.192017,290.847992,-296.704010
999.424011,259.615997,-228.384003
1016.992004,238.143997,-203.007996
1016.992004,173.727997,-203.007996
1009.184021,83.935997,-144.447998
1015.039978,19.520000,-83.935997
1011.135986,-13.664000,-31.232000
1007.231995,5.856000,-21.472000
1013.088013,50.751999,-60.512001
995.520020,58.560001,-60.512001
1005.280029,44.896000,-29.280001
989.664001,7.808000,-23.424000
968.192017,44.896000,-60.512001
952.575989,109.311996,-130.783997
931.104004,162.016006,-193.248001
909.632019,189.343994,-195.199997
927.200012,130.783997,-179.584000
927.200012,52.703999,-167.871994
925.247986,-11.712000,-156.160004
958.432007,-80.031998,-140.544006
991.616028,-119.071999,-99.552002
1020.895996,-179.584000,-74.176003
1056.031982,-236.192001,-40.992001
1085.312012,-271.328003,-17.568001
1091.167969,-294.752014,-7.808000
1098.975952,-316.223999,13.664000
1079.456055,-339.648010,19.520000
1063.839966,-349.407990,-5.856000
1046.271973,-368.928009,-21.472000
1013.088013,-345.503998,-46.848000
976.000000,-324.032013,-93.695999
966.239990,-269.376007,-136.639999
940.864014,-175.679993,-165.919998
931.104004,-72.223999,-165.919998
927.200012,0.000000,-152.255997
935.007996,50.751999,-113.216003
948.671997,101.503998,-78.080002
985.760010,109.311996,-33.183998
1020.895996,105.407997,-3.904000
1059.936035,109.311996,7.808000
1067.744019,148.352005,19.520000
1075.552002,144.447998,25.375999
1075.552002,146.399994,3.904000
1034.560059,144.447998,-13.664000
1016.992004,105.407997,-37.088001
1007.231995,64.416000,-68.320000
1005.280029,15.616000,-95.648003
983.807983,-31.232000,-144.447998
968.192017,-37.088001,-163.968002
942.815979,-17.568001,-171.776001
960.383972,1.952000,-191.296005
966.239990,1.952000,-197.151993
964.288025,-3.904000,-189.343994
962.335999,-46.848000,-204.960007
958.432007,-39.040001,-212.768005
944.768005,-7.808000,-238.143997
923.296021,21.472000,-255.712006
913.536011,58.560001,-245.951996
938.911987,81.984001,-232.287994
966.239990,76.127998,-212.768005
962.335999,40.992001,-201.056000
968.192017,17.568001,-203.007996
954.528015,13.664000,-228.384003
933.056030,52.703999,-251.807999
913.536011,54.655998,-269.376007
907.679993,60.512001,-275.231995
897.919983,50.751999,-263.519989
897.919983,60.512001,-253.759995
890.112000,105.407997,-251.807999
886.208008,156.160004,-236.192001
903.776001,234.240005,-230.335999
897.919983,259.615997,-212.768005
905.728027,265.471985,-220.576004
899.872009,242.048004,-257.664001
897.919983,156.160004,-279.135986
886.208008,89.792000,-294.752014
884.255981,68.320000,-308.415985
890.112000,19.520000,-310.368011
886.208008,-31.232000,-335.743988
878.400024,-89.792000,-335.743988
849.119995,-124.928001,-351.359985
825.695984,-136.639999,-357.216003
808.127991,-162.016006,-382.592010
815.935974,-158.112000,-398.208008
815.935974,-181.535995,-394.303986
829.599976,-199.104004,-409.920013
856.927979,-203.007996,-402.112000
851.072021,-158.112000,-400.160004
854.976013,-142.496002,-396.256012
853.023987,-76.127998,-368.928009
864.736023,-13.664000,-345.503998
909.632019,27.327999,-310.368011
960.383972,89.792000,-290.847992
977.952026,132.735992,-255.712006
989.664001,144.447998,-249.856003
997.471985,134.688004,-271.328003
985.760010,136.639999,-304.511993
983.807983,124.928001,-304.511993
993.567993,74.176003,-275.231995
1007.231995,72.223999,-269.376007
1016.992004,109.311996,-277.183990
1007.231995,93.695999,-283.040009
1009.184021,60.512001,-255.712006
999.424011,66.367996,-242.048004
1009.184021,72.223999,-245.951996
997.471985,80.031998,-245.951996
1007.231995,62.464001,-261.567993
968.192017,15.616000,-279.135986
950.624023,37.088001,-331.839996
952.575989,68.320000,-357.216003
950.624023,40.992001,-322.079987
958.432007,31.232000,-308.415985
956.479980,21.472000,-294.752014
989.664001,19.520000,-281.088013
1005.280029,5.856000,-251.807999
1015.039978,31.232000,-269.376007
1005.280029,134.688004,-302.559998
1009.184021,261.567993,-310.368011
1022.848022,281.088013,-259.615997
1024.800049,325.984009,-236.192001
1015.039978,378.687988,-283.040009
1016.992004,437.247986,-306.463989
1001.375977,435.295990,-294.752014
977.952026,368.928009,-279.135986
985.760010,265.471985,-277.183990
981.856018,156.160004,-261.567993
997.471985,62.464001,-292.799988
1007.231995,-52.703999,-296.704010
1050.176025,-160.063995,-273.279999
1114.592041,-214.720001,-259.615997
1180.959961,-115.167999,-259.615997
1303.936035,3.904000,-292.799988
1391.776001,107.360001,-304.511993
1415.199951,160.063995,-273.279999
1327.359985,244.000000,-208.863998
1227.807983,329.888000,-179.584000
1149.728027,341.600006,-101.503998
1073.599976,290.847992,-66.367996
1038.463989,191.296005,-83.935997
1052.128052,142.496002,-140.544006
1139.968018,11.712000,-189.343994
1169.248047,-124.928001,-146.399994
1165.343994,-218.623993,-80.031998
1169.248047,-199.104004,-66.367996
1155.583984,-162.016006,-78.080002
1155.583984,-126.879997,-91.744003
1145.823975,-70.272003,-105.407997
1159.488037,-54.655998,-144.447998
1180.959961,-31.232000,-183.488007
1192.671997,23.424000,-216.671997
1184.864014,89.792000,-201.056000
1159.488037,136.639999,-165.919998
1124.352051,185.440002,-165.919998
1116.543945,216.671997,-191.296005
1118.495972,255.712006,-185.440002
1165.343994,283.040009,-183.488007
1163.391968,249.856003,-165.919998
1147.776001,204.960007,-156.160004
1120.447998,113.216003,-130.783997
1087.264038,15.616000,-126.879997
1034.560059,-33.183998,-173.727997
1056.031982,-64.416000,-220.576004
1050.176025,-160.063995,-226.432007
1063.839966,-204.960007,-218.623993
1075.552002,-175.679993,-212.768005
1087.264038,-117.120003,-210.815994
1104.832031,-35.136002,-214.720001
1134.112061,58.560001,-247.904007
1130.208008,126.879997,-245.951996
1116.543945,183.488007,-236.192001
1104.832031,220.576004,-261.567993
1118.495972,259.615997,-283.040009
1110.687988,265.471985,-267.424011
1112.640015,273.279999,-253.759995
1124.352051,288.895996,-236.192001
1138.015991,324.032013,-218.623993
1155.583984,376.735992,-197.151993
1132.160034,376.735992,-181.535995
1130.208008,329.888000,-162.016006
1134.112061,247.904007,-181.535995
1161.439941,181.535995,-181.535995
1175.104004,132.735992,-150.304001
1177.056030,136.639999,-148.352005
1155.583984,136.639999,-146.399994
1134.112061,122.975998,-134.688004
1116.543945,122.975998,-134.688004
1132.160034,142.496002,-148.352005
1132.160034,187.391998,-177.632004
1118.495972,201.056000,-193.248001
1114.592041,187.391998,-179.584000
1110.687988,181.535995,-162.016006
1110.687988,175.679993,-156.160004
1118.495972,187.391998,-132.735992
1132.160034,177.632004,-109.311996
1138.015991,173.727997,-97.599998
1134.112061,148.352005,-126.879997
1126.303955,130.783997,-142.496002
1116.543945,121.024002,-146.399994
1118.495972,136.639999,-171.776001
1097.024048,167.871994,-175.679993
1079.456055,169.824005,-191.296005
1071.647949,167.871994,-193.248001
1048.223999,169.824005,-226.432007
1040.416016,158.112000,-226.432007
1042.368042,146.399994,-218.623993
1040.416016,144.447998,-222.528000
1034.560059,134.688004,-216.671997
1015.039978,105.407997,-212.768005
1013.088013,81.984001,-220.576004
1009.184021,101.503998,-242.048004
997.471985,154.207993,-251.807999
993.567993,185.440002,-240.095993
987.711975,165.919998,-240.095993
991.616028,95.648003,-236.192001
1005.280029,29.280001,-244.000000
1003.328003,0.000000,-244.000000
1003.328003,17.568001,-251.807999
974.047974,37.088001,-281.088013
958.432007,70.272003,-302.559998
946.719971,83.935997,-333.791992
929.151978,81.984001,-333.791992
931.104004,87.839996,-320.127991
944.768005,62.464001,-312.320007
950.624023,44.896000,-300.608002
944.768005,35.136002,-304.511993
942.815979,39.040001,-312.320007
935.007996,31.232000,-327.936005
927.200012,39.040001,-335.743988
925.247986,35.136002,-343.552002
942.815979,29.280001,-333.791992
931.104004,29.280001,-333.791992
942.815979,29.280001,-329.888000
944.768005,31.232000,-343.552002
933.056030,46.848000,-343.552002
944.768005,60.512001,-335.743988
946.719971,60.512001,-316.223999
954.528015,50.751999,-310.368011
962.335999,27.327999,-286.944000
974.047974,3.904000,-292.799988
974.047974,5.856000,-296.704010
956.479980,5.856000,-302.559998
956.479980,11.712000,-318.175995
952.575989,7.808000,-324.032013
940.864014,13.664000,-325.984009
944.768005,27.327999,-331.839996
938.911987,29.280001,-341.600006
940.864014,64.416000,-345.503998
936.960022,72.223999,-329.888000
935.007996,52.703999,-322.079987
931.104004,5.856000,-324.032013
944.768005,-1.952000,-329.888000
929.151978,13.664000,-337.696014
931.104004,42.944000,-345.503998
923.296021,52.703999,-357.216003
923.296021,56.608002,-361.119995
917.440002,48.799999,-382.592010
919.392029,48.799999,-376.735992
933.056030,35.136002,-378.687988
925.247986,39.040001,-382.592010
935.007996,74.176003,-378.687988
940.864014,93.695999,-376.735992
936.960022,91.744003,-365.023987
936.960022,56.608002,-366.976013
931.104004,39.040001,-382.592010
929.151978,42.944000,-388.447998
933.056030,60.512001,-372.832001
946.719971,80.031998,-365.023987
948.671997,91.744003,-357.216003
944.768005,85.888000,-355.264008
958.432007,81.984001,-345.503998
952.575989,76.127998,-351.359985
950.624023,27.327999,-359.167999
946.719971,-19.520000,-382.592010
938.911987,-37.088001,-394.303986
942.815979,37.088001,-378.687988
956.479980,128.832001,-372.832001
968.192017,242.048004,-345.503998
970.143982,230.335999,-331.839996
962.335999,121.024002,-341.600006
966.239990,-15.616000,-374.783997
964.288025,-87.839996,-370.880005
970.143982,-121.024002,-359.167999
991.616028,-21.472000,-349.407990
995.520020,142.496002,-357.216003
995.520020,281.088013,-325.984009
989.664001,271.328003,-312.320007
987.711975,107.360001,-345.503998
979.903992,-31.232000,-390.399994
972.096008,-99.552002,-361.119995
1003.328003,-130.783997,-312.320007
1020.895996,-80.031998,-298.656006
1007.231995,46.848000,-339.648010
991.616028,187.391998,-331.839996
993.567993,201.056000,-339.648010
977.952026,107.360001,-384.544006
966.239990,39.040001,-406.015991
968.192017,7.808000,-400.160004
985.760010,19.520000,-345.503998
987.711975,29.280001,-347.455994
979.903992,62.464001,-359.167999
970.143982,66.367996,-353.312012
983.807983,95.648003,-355.264008
987.711975,97.599998,-357.216003
976.000000,52.703999,-365.023987
983.807983,-19.520000,-359.167999
1003.328003,3.904000,-361.119995
995.520020,62.464001,-370.880005
972.096008,93.695999,-386.496002
972.096008,62.464001,-392.351990
976.000000,89.792000,-406.015991
972.096008,171.776001,-409.920013
974.047974,210.815994,-394.303986
972.096008,89.792000,-370.880005
987.711975,-81.984001,-372.832001
1009.184021,-105.407997,-372.832001
1011.135986,17.568001,-333.791992
1013.088013,158.112000,-298.656006
1028.703979,146.399994,-279.135986
1026.751953,23.424000,-331.839996
1016.992004,-83.935997,-411.872009
1003.328003,-66.367996,-417.727997
1011.135986,29.280001,-378.687988
1034.560059,117.120003,-361.119995
1046.271973,179.584000,-361.119995
1032.608032,203.007996,-374.783997
1030.656006,124.928001,-357.216003
1038.463989,13.664000,-347.455994
1052.128052,-68.320000,-355.264008
1063.839966,-81.984001,-322.079987
1067.744019,-50.751999,-300.608002
1079.456055,-11.712000,-279.135986
1085.312012,13.664000,-281.088013
1083.359985,68.320000,-318.175995
1059.936035,103.456001,-355.264008
1052.128052,81.984001,-363.071991
1065.791992,19.520000,-347.455994
1073.599976,9.760000,-357.216003
1065.791992,54.655998,-355.264008
1069.696045,97.599998,-322.079987
1067.744019,50.751999,-283.040009
1069.696045,-50.751999,-302.559998
1075.552002,-111.264000,-329.888000
1063.839966,-97.599998,-327.936005
1077.504028,-27.327999,-325.984009
1073.599976,-11.712000,-316.223999
1067.744019,44.896000,-359.167999
1063.839966,81.984001,-365.023987
1038.463989,111.264000,-374.783997
1046.271973,111.264000,-355.264008
1054.079956,39.040001,-351.359985
1056.031982,-62.464001,-359.167999
1046.271973,-165.919998,-339.648010
1063.839966,-152.255997,-316.223999
1079.456055,-11.712000,-329.888000
1054.079956,107.360001,-324.032013
1054.079956,109.311996,-316.223999
1046.271973,-9.760000,-327.936005
1061.887939,-70.272003,-376.735992
1059.936035,-64.416000,-390.399994
1046.271973,13.664000,-339.648010
1065.791992,52.703999,-308.415985
1052.128052,54.655998,-312.320007
1042.368042,29.280001,-353.312012
1042.368042,-52.703999,-339.648010
1063.839966,-80.031998,-325.984009
1059.936035,-44.896000,-357.216003
1034.560059,-37.088001,-335.743988
1038.463989,-11.712000,-341.600006
1034.560059,-70.272003,-347.455994
1024.800049,-31.232000,-357.216003
1032.608032,44.896000,-372.832001
1024.800049,93.695999,-339.648010
1026.751953,76.127998,-325.984009
1022.848022,-60.512001,-343.552002
1007.231995,-191.296005,-366.976013
1016.992004,-173.727997,-372.832001
1013.088013,-78.080002,-366.976013
995.520020,25.375999,-366.976013
968.192017,0.000000,-341.600006
987.711975,-29.280001,-361.119995
977.952026,1.952000,-421.631989
956.479980,44.896000,-400.160004
974.047974,37.088001,-355.264008
979.903992,-119.071999,-347.455994
964.288025,-171.776001,-402.112000
940.864014,-117.120003,-417.727997
960.383972,-35.136002,-372.832001
964.288025,13.664000,-363.071991
960.383972,-9.760000,-390.399994
950.624023,-29.280001,-400.160004
942.815979,-27.327999,-409.920013
944.768005,-1.952000,-398.208008
940.864014,-37.088001,-413.824005
933.056030,-81.984001,-390.399994
952.575989,-95.648003,-404.063995
950.624023,19.520000,-409.920013
942.815979,97.599998,-386.496002
966.239990,95.648003,-347.455994
989.664001,-11.712000,-343.552002
972.096008,-64.416000,-386.496002
960.383972,-68.320000,-386.496002
962.335999,-44.896000,-380.640015
966.239990,-19.520000,-366.976013
977.952026,-25.375999,-372.832001
968.192017,-58.560001,-376.735992
964.288025,-40.992001,-372.832001
985.760010,1.952000,-390.399994
987.711975,87.839996,-357.216003
983.807983,119.071999,-343.552002
997.471985,31.232000,-327.936005
1003.328003,-72.223999,-351.359985
991.616028,-93.695999,-384.544006
987.711975,-58.560001,-363.071991
997.471985,-9.760000,-335.743988
1009.184021,0.000000,-314.272003
1005.280029,-25.375999,-320.127991
993.567993,-7.808000,-355.264008
997.471985,17.568001,-363.071991
991.616028,17.568001,-357.216003
993.567993,-1.952000,-353.312012
997.471985,-21.472000,-349.407990
989.664001,-31.232000,-359.167999
987.711975,-17.568001,-349.407990
991.616028,0.000000,-341.600006
983.807983,1.952000,-345.503998
987.711975,1.952000,-366.976013
991.616028,5.856000,-361.119995
991.616028,9.760000,-345.503998
993.567993,3.904000,-343.552002
983.807983,-15.616000,-341.600006
977.952026,-33.183998,-343.552002
968.192017,-25.375999,-359.167999
977.952026,-5.856000,-374.783997
968.192017,-15.616000,-374.783997
972.096008,-3.904000,-374.783997
972.096008,7.808000,-361.119995
981.856018,7.808000,-366.976013
993.567993,3.904000,-374.783997
997.471985,7.808000,-370.880005
983.807983,-7.808000,-345.503998
981.856018,-7.808000,-359.167999
976.000000,-17.568001,-365.023987
972.096008,-29.280001,-345.503998
977.952026,-5.856000,-368.928009
983.807983,-7.808000,-361.119995
983.807983,0.000000,-361.119995
987.711975,3.904000,-357.216003
993.567993,-3.904000,-359.167999
981.856018,-7.808000,-374.783997
979.903992,-21.472000,-363.071991
989.664001,-23.424000,-361.119995
989.664001,-27.327999,-361.119995
979.903992,-27.327999,-365.023987
983.807983,-23.424000,-357.216003
987.711975,-19.520000,-351.359985
981.856018,-13.664000,-357.216003
976.000000,-17.568001,-359.167999
972.096008,-13.664000,-359.167999
972.096008,-5.856000,-341.600006
974.047974,-27.327999,-353.312012
976.000000,-40.992001,-349.407990
977.952026,-62.464001,-345.503998
979.903992,-46.848000,-333.791992
983.807983,-35.136002,-337.696014
977.952026,-31.232000,-347.455994
981.856018,-50.751999,-361.119995
972.096008,-58.560001,-351.359985
977.952026,-58.560001,-339.648010
977.952026,-66.367996,-347.455994
977.952026,-58.560001,-337.696014
968.192017,-68.320000,-357.216003
962.335999,-60.512001,-353.312012
964.288025,-74.176003,-366.976013
956.479980,-60.512001,-355.264008
960.383972,-56.608002,-349.407990
958.432007,-66.367996,-353.312012
958.432007,-81.984001,-349.407990
954.528015,-85.888000,-347.455994
948.671997,-91.744003,-361.119995
952.575989,-80.031998,-355.264008
946.719971,-76.127998,-347.455994
954.528015,-80.031998,-347.455994
942.815979,-81.984001,-331.839996
946.719971,-89.792000,-333.791992
936.960022,-80.031998,-345.503998
936.960022,-97.599998,-345.503998
931.104004,-87.839996,-363.071991
917.440002,-89.792000,-353.312012
927.200012,-85.888000,-363.071991
923.296021,-103.456001,-347.455994
929.151978,-80.031998,-318.175995
931.104004,-87.839996,-333.791992
915.487976,-107.360001,-349.407990
915.487976,-119.071999,-345.503998
915.487976,-121.024002,-361.119995
907.679993,-113.216003,-355.264008
913.536011,-105.407997,-339.648010
907.679993,-76.127998,-324.032013
909.632019,-91.744003,-329.888000
905.728027,-97.599998,-322.079987
905.728027,-91.744003,-333.791992
903.776001,-99.552002,-359.167999
882.304016,-99.552002,-353.312012
886.208008,-105.407997,-349.407990
895.968018,-109.311996,-339.648010
903.776001,-107.360001,-324.032013
901.823975,-99.552002,-343.552002
878.400024,-122.975998,-363.071991
876.447998,-126.879997,-331.839996
892.064026,-109.311996,-325.984009
874.495972,-122.975998,-347.455994
884.255981,-119.071999,-337.696014
882.304016,-107.360001,-341.600006
870.591980,-105.407997,-337.696014
860.831970,-115.167999,-349.407990
854.976013,-130.783997,-363.071991
858.880005,-134.688004,-355.264008
858.880005,-124.928001,-343.552002
862.783997,-115.167999,-355.264008
862.783997,-144.447998,-349.407990
860.831970,-126.879997,-357.216003
862.783997,-126.879997,-353.312012
862.783997,-121.024002,-343.552002
864.736023,-117.120003,-365.023987
851.072021,-119.071999,-374.783997
851.072021,-121.024002,-361.119995
860.831970,-119.071999,-345.503998
862.783997,-113.216003,-353.312012
868.640015,-128.832001,-353.312012
868.640015,-111.264000,-347.455994
868.640015,-122.975998,-343.552002
872.544006,-126.879997,-351.359985
884.255981,-124.928001,-355.264008
866.687988,-97.599998,-347.455994
866.687988,-97.599998,-341.600006
876.447998,-95.648003,-355.264008
864.736023,-111.264000,-361.119995
856.927979,-128.832001,-355.264008
866.687988,-122.975998,-345.503998
880.351990,-124.928001,-341.600006
888.159973,-119.071999,-355.264008
878.400024,-121.024002,-351.359985
882.304016,-121.024002,-329.888000
882.304016,-105.407997,-341.600006
878.400024,-115.167999,-353.312012
872.544006,-111.264000,-335.743988
866.687988,-105.407997,-365.023987
854.976013,-105.407997,-384.544006
849.119995,-105.407997,-382.592010
851.072021,-97.599998,-376.735992
849.119995,-87.839996,-404.063995
856.927979,-103.456001,-413.824005
854.976013,-93.695999,-413.824005
866.687988,-99.552002,-398.208008
874.495972,-85.888000,-390.399994
884.255981,-85.888000,-411.872009
890.112000,-72.223999,-419.679993
884.255981,-60.512001,-413.824005
892.064026,-54.655998,-407.967987
903.776001,-56.608002,-394.303986
913.536011,-46.848000,-417.727997
911.583984,-37.088001,-433.343994
913.536011,-21.472000,-411.872009
919.392029,-7.808000,-396.256012
927.200012,-15.616000,-404.063995
921.343994,-13.664000,-400.160004
929.151978,-7.808000,-396.256012
936.960022,0.000000,-386.496002
946.719971,11.712000,-359.167999
950.624023,9.760000,-372.832001
942.815979,-9.760000,-384.544006
940.864014,-11.712000,-386.496002
936.960022,-15.616000,-372.832001
944.768005,-7.808000,-366.976013
944.768005,-15.616000,-368.928009
948.671997,-7.808000,-366.976013
948.671997,-13.664000,-374.783997
952.575989,-15.616000,-370.880005
948.671997,-5.856000,-382.592010
950.624023,-1.952000,-374.783997
948.671997,3.904000,-363.071991
950.624023,-1.952000,-380.640015
948.671997,-5.856000,-368.928009
950.624023,3.904000,-359.167999
962.335999,3.904000,-349.407990
958.432007,0.000000,-355.264008
952.575989,7.808000,-357.216003
960.383972,5.856000,-363.071991
958.432007,21.472000,-363.071991
954.528015,33.183998,-357.216003
962.335999,19.520000,-359.167999
962.335999,23.424000,-359.167999
970.143982,25.375999,-355.264008
960.383972,31.232000,-366.976013
954.528015,40.992001,-374.783997
958.432007,25.375999,-365.023987
950.624023,27.327999,-368.928009
958.432007,29.280001,-370.880005
948.671997,39.040001,-372.832001
940.864014,40.992001,-370.880005
944.768005,31.232000,-365.023987
940.864014,35.136002,-365.023987
946.719971,39.040001,-370.880005
938.911987,29.280001,-384.544006
933.056030,19.520000,-390.399994
938.911987,37.088001,-378.687988
931.104004,40.992001,-388.447998
925.247986,44.896000,-380.640015
942.815979,27.327999,-368.928009
936.960022,11.712000,-341.600006
944.768005,7.808000,-353.312012
950.624023,17.568001,-357.216003
936.960022,23.424000,-374.783997
917.440002,48.799999,-372.832001
919.392029,62.464001,-388.447998
923.296021,60.512001,-402.112000
921.343994,27.327999,-372.832001
940.864014,27.327999,-370.880005
946.719971,29.280001,-361.119995
940.864014,27.327999,-349.407990
933.056030,27.327999,-361.119995
940.864014,31.232000,-378.687988
931.104004,35.136002,-374.783997
935.007996,29.280001,-370.880005
921.343994,27.327999,-380.640015
919.392029,19.520000,-378.687988
927.200012,23.424000,-370.880005
931.104004,13.664000,-378.687988
919.392029,1.952000,-365.023987
925.247986,3.904000,-374.783997
925.247986,11.712000,-372.832001
933.056030,17.568001,-366.976013
931.104004,21.472000,-382.592010
921.343994,11.712000,-386.496002
923.296021,9.760000,-378.687988
931.104004,11.712000,-374.783997
940.864014,11.712000,-357.216003
938.911987,0.000000,-368.928009
935.007996,9.760000,-376.735992
931.104004,15.616000,-380.640015
917.440002,23.424000,-386.496002
911.583984,27.327999,-400.160004
907.679993,21.472000,-384.544006
915.487976,-3.904000,-382.592010
919.392029,-15.616000,-353.312012
921.343994,-23.424000,-357.216003
927.200012,-27.327999,-347.455994
913.536011,-7.808000,-357.216003
901.823975,-1.952000,-386.496002
901.823975,0.000000,-388.447998
905.728027,-1.952000,-376.735992
897.919983,-3.904000,-378.687988
886.208008,1.952000,-394.303986
886.208008,-15.616000,-378.687988
895.968018,-17.568001,-359.167999
901.823975,-39.040001,-361.119995
890.112000,-42.944000,-357.216003
890.112000,-39.040001,-345.503998
876.447998,-35.136002,-359.167999
870.591980,-23.424000,-359.167999
886.208008,-13.664000,-353.312012
864.736023,0.000000,-363.071991
854.976013,-1.952000,-378.687988
847.168030,-1.952000,-380.640015
853.023987,-13.664000,-378.687988
851.072021,-15.616000,-349.407990
856.927979,-31.232000,-337.696014
856.927979,-23.424000,-349.407990
839.359985,-25.375999,-359.167999
843.263977,-9.760000,-349.407990
827.648010,-7.808000,-361.119995
823.744019,7.808000,-390.399994
813.984009,9.760000,-394.303986
812.031982,9.760000,-400.160004
808.127991,-3.904000,-396.256012
821.791992,-5.856000,-378.687988
821.791992,-27.327999,-382.592010
821.791992,-21.472000,-361.119995
819.840027,-9.760000,-363.071991
817.888000,-19.520000,-370.880005
810.080017,-25.375999,-363.071991
813.984009,-15.616000,-365.023987
800.320007,-19.520000,-388.447998
788.607971,-13.664000,-396.256012
798.367981,-5.856000,-388.447998
800.320007,-17.568001,-372.832001
817.888000,-13.664000,-363.071991
808.127991,-3.904000,-357.216003
808.127991,5.856000,-386.496002
802.271973,17.568001,-396.256012
798.367981,0.000000,-394.303986
788.607971,-3.904000,-386.496002
798.367981,0.000000,-376.735992
812.031982,3.904000,-372.832001
813.984009,-3.904000,-372.832001
813.984009,-1.952000,-370.880005
813.984009,0.000000,-376.735992
804.223999,1.952000,-384.544006
810.080017,9.760000,-378.687988
806.176025,13.664000,-378.687988
806.176025,-3.904000,-374.783997
812.031982,3.904000,-378.687988
812.031982,11.712000,-361.119995
815.935974,9.760000,-361.119995
819.840027,3.904000,-357.216003
810.080017,3.904000,-376.735992
800.320007,0.000000,-384.544006
798.367981,11.712000,-376.735992
806.176025,5.856000,-365.023987
819.840027,7.808000,-345.503998
812.031982,9.760000,-351.359985
819.840027,17.568001,-353.312012
812.031982,11.712000,-372.832001
812.031982,21.472000,-376.735992
810.080017,19.520000,-396.256012
808.127991,21.472000,-404.063995
806.176025,19.520000,-406.015991
819.840027,19.520000,-370.880005
829.599976,17.568001,-351.359985
835.455994,21.472000,-349.407990
823.744019,9.760000,-366.976013
819.840027,7.808000,-404.063995
817.888000,-9.760000,-411.872009
831.552002,-15.616000,-376.735992
839.359985,17.568001,-366.976013
843.263977,9.760000,-388.447998
833.504028,25.375999,-407.967987
821.791992,13.664000,-425.536011
825.695984,-1.952000,-384.544006
854.976013,0.000000,-361.119995
862.783997,3.904000,-374.783997
864.736023,-1.952000,-368.928009
862.783997,3.904000,-353.312012
868.640015,9.760000,-361.119995
854.976013,17.568001,-378.687988
870.591980,29.280001,-402.112000
866.687988,15.616000,-384.544006
872.544006,25.375999,-398.208008
856.927979,17.568001,-400.160004
862.783997,33.183998,-390.399994
866.687988,42.944000,-400.160004
851.072021,31.232000,-396.256012
868.640015,15.616000,-378.687988
886.208008,-3.904000,-357.216003
890.112000,-17.568001,-314.272003
915.487976,-9.760000,-308.415985
907.679993,-3.904000,-337.696014
874.495972,-3.904000,-376.735992
866.687988,31.232000,-433.343994
851.072021,21.472000,-443.104004
862.783997,29.280001,-400.160004
880.351990,25.375999,-380.640015
870.591980,13.664000,-363.071991
882.304016,23.424000,-366.976013
886.208008,21.472000,-386.496002
884.255981,15.616000,-394.303986
872.544006,0.000000,-390.399994
884.255981,7.808000,-378.687988
884.255981,25.375999,-386.496002
892.064026,42.944000,-407.967987
882.304016,50.751999,-396.256012
870.591980,54.655998,-378.687988
866.687988,60.512001,-417.727997
860.831970,48.799999,-439.200012
858.880005,40.992001,-404.063995
860.831970,46.848000,-417.727997
856.927979,39.040001,-435.295990
854.976013,31.232000,-439.200012
854.976013,29.280001,-400.160004
862.783997,56.608002,-419.679993
854.976013,35.136002,-404.063995
882.304016,42.944000,-366.976013
888.159973,72.223999,-351.359985
897.919983,74.176003,-353.312012
890.112000,76.127998,-370.880005
880.351990,60.512001,-409.920013
868.640015,48.799999,-431.391998
858.880005,40.992001,-454.816010
876.447998,13.664000,-431.391998
884.255981,15.616000,-413.824005
897.919983,-3.904000,-407.967987
897.919983,13.664000,-372.832001
878.400024,83.935997,-409.920013
864.736023,91.744003,-419.679993
843.263977,58.560001,-382.592010
853.023987,66.367996,-400.160004
862.783997,46.848000,-419.679993
854.976013,42.944000,-425.536011
843.263977,50.751999,-411.872009
823.744019,83.935997,-445.056000
819.840027,80.031998,-462.623993
831.552002,103.456001,-468.480011
851.072021,81.984001,-411.872009
858.880005,99.552002,-376.735992
847.168030,119.071999,-425.536011
813.984009,152.255997,-523.135986
790.559998,150.304001,-556.320007
784.703979,115.167999,-528.992004
796.416016,52.703999,-493.855988
806.176025,11.712000,-482.144012
780.799988,78.080002,-532.895996
771.039978,121.024002,-581.695984
774.943970,89.792000,-511.424011
794.463989,81.984001,-435.295990
815.935974,46.848000,-486.048004
796.416016,87.839996,-548.512024
798.367981,103.456001,-603.168030
786.656006,78.080002,-589.504028
772.992004,52.703999,-523.135986
784.703979,91.744003,-515.328003
755.424011,156.160004,-552.416016
732.000000,183.488007,-692.960022
714.432007,185.440002,-761.280029
714.432007,152.255997,-726.143982
743.711975,134.688004,-640.255981
751.520020,162.016006,-622.687988
763.231995,165.919998,-634.400024
749.567993,156.160004,-624.640015
741.760010,162.016006,-609.023987
733.952026,232.287994,-755.424011
704.671997,162.016006,-728.096008
700.768005,156.160004,-741.760010
692.960022,93.695999,-741.760010
677.343994,115.167999,-763.231995
675.392029,154.207993,-813.984009
665.632019,132.735992,-749.567993
694.911987,119.071999,-667.583984
743.711975,126.879997,-620.736023
782.752014,138.591995,-648.064026
813.984009,109.311996,-614.880005
817.888000,72.223999,-538.752014
827.648010,109.311996,-534.848022
804.223999,189.343994,-673.440002
732.000000,265.471985,-866.687988
667.583984,290.847992,-936.960022
583.648010,267.424011,-952.575989
564.127991,140.544006,-851.072021
607.072021,50.751999,-778.848022
700.768005,-93.695999,-700.768005
706.624023,-240.095993,-745.664001
944.768005,-242.048004,-825.695984
1032.608032,-62.464001,-880.351990
970.143982,-124.928001,-995.520020
915.487976,-222.528000,-1196.576050
782.752014,-148.352005,-1501.088013
661.728027,-142.496002,-1729.472046
622.687988,-335.743988,-1825.119995
603.168030,-427.488007,-1848.543945
593.408020,-294.752014,-1793.887939
484.096008,105.407997,-1635.776001
390.399994,835.455994,-1393.728027
337.696014,1274.656006,-1204.384033
222.528000,618.783997,-1077.504028
349.407990,-1407.391968,-1015.039978
548.512024,-2348.256104,-876.447998
835.455994,-2233.087891,-892.064026
849.119995,-2281.887939,-886.208008
601.216003,-1694.336060,-774.943970
493.855988,-452.864014,-636.351990
587.552002,210.815994,-431.391998
581.695984,1116.543945,-203.007996
616.831970,1651.391968,-152.255997
700.768005,1467.904053,-189.343994
739.807983,888.159973,-206.912003
659.776001,409.920013,-201.056000
732.000000,66.367996,-259.615997
671.487976,-542.656006,-275.231995
749.567993,-1747.040039,-337.696014
858.880005,-2055.456055,-443.104004
833.504028,-2016.416016,-507.519989
827.648010,-1565.504028,-560.223999
720.288025,-815.935974,-511.424011
921.343994,-540.703979,-548.512024
1032.608032,-353.312012,-542.656006
1426.911987,-2022.271973,165.919998
2358.016113,-4593.056152,3062.687988
3566.303955,-5096.671875,4944.416016
4132.383789,-4425.184082,4444.704102
3499.936035,-3021.696045,2320.927979
2502.464111,-1532.319946,365.023987
1688.479980,-486.048004,-917.440002
849.119995,349.407990,-2301.407959
99.552002,2223.327881,-2945.568115
-173.727997,2898.719971,-2929.951904
97.599998,3408.191895,-2350.208008
-169.824005,3453.087891,-1093.119995
853.023987,2892.864014,-640.255981
983.807983,3033.407959,-122.975998
1018.943970,2922.144043,189.343994
1069.696045,2221.375977,337.696014
1255.135986,872.544006,989.664001
1797.791992,-185.440002,1727.520020
2004.703979,-413.824005,1667.008057
1852.447998,-607.072021,892.064026
1774.368042,-1567.456055,335.743988
1789.984009,-2875.295898,499.712006
1946.144043,-3207.135986,853.023987
1565.504028,-1204.384033,1091.167969
1034.560059,882.304016,177.632004
1057.984009,2004.703979,-858.880005
968.192017,1547.936035,-931.104004
733.952026,1317.599976,-1235.615967
470.432007,1139.968018,-1542.079956
325.984009,913.536011,-1616.255981
220.576004,673.440002,-1536.223999
232.287994,259.615997,-1360.543945
368.928009,-216.671997,-1022.848022
501.664001,-134.688004,-919.392029
566.080017,74.176003,-1013.088013
589.504028,148.352005,-962.335999
607.072021,156.160004,-849.119995
624.640015,142.496002,-786.656006
593.408020,29.280001,-724.192017
616.831970,-70.272003,-692.960022
636.351990,-103.456001,-685.151978
663.679993,-175.679993,-696.864014
687.104004,-275.231995,-716.383972
683.200012,-306.463989,-733.952026
692.960022,-320.127991,-735.903992
683.200012,-407.967987,-733.952026
687.104004,-470.432007,-730.047974
685.151978,-454.816010,-739.807983
675.392029,-421.631989,-774.943970
665.632019,-417.727997,-792.512024
650.015991,-421.631989,-792.512024
651.968018,-425.536011,-786.656006
642.208008,-429.440002,-780.799988
624.640015,-413.824005,-792.512024
628.544006,-390.399994,-794.463989
636.351990,-382.592010,-819.840027
646.112000,-417.727997,-841.312012
657.823975,-413.824005,-847.168030
669.536011,-384.544006,-858.880005
679.296021,-413.824005,-845.216003
704.671997,-411.872009,-825.695984
730.047974,-431.391998,-796.416016
767.135986,-445.056000,-757.375977
794.463989,-392.351990,-718.335999
847.168030,-368.928009,-661.728027
911.583984,-359.167999,-620.736023
935.007996,-335.743988,-575.840027
952.575989,-304.511993,-540.703979
960.383972,-302.559998,-511.424011
981.856018,-384.544006,-493.855988
972.096008,-472.384003,-482.144012
976.000000,-499.712006,-460.671997
983.807983,-458.720001,-443.104004
956.479980,-392.351990,-445.056000
938.911987,-271.328003,-464.575989
927.200012,-136.639999,-468.480011
942.815979,-56.608002,-480.191986
956.479980,-42.944000,-495.808014
960.383972,-93.695999,-489.951996
966.239990,-87.839996,-482.144012
983.807983,-122.975998,-472.384003
1001.375977,-160.063995,-460.671997
1028.703979,-128.832001,-450.911987
1030.656006,-85.888000,-456.768005
1036.511963,-39.040001,-472.384003
1034.560059,33.183998,-484.096008
1052.128052,70.272003,-472.384003
1071.647949,70.272003,-478.239990
1071.647949,91.744003,-462.623993
1061.887939,148.352005,-452.864014
1069.696045,203.007996,-437.247986
1077.504028,224.479996,-435.295990
1100.927979,245.951996,-427.488007
1112.640015,302.559998,-406.015991
1141.920044,345.503998,-388.447998
1179.008057,351.359985,-343.552002
1196.576050,349.407990,-298.656006
1198.527954,363.071991,-277.183990
1190.719971,357.216003,-269.376007
1196.576050,324.032013,-283.040009
1210.239990,288.895996,-290.847992
1235.615967,263.519989,-292.799988
1245.375977,222.528000,-275.231995
1255.135986,181.535995,-255.712006
1274.656006,130.783997,-249.856003
1278.560059,87.839996,-244.000000
1298.079956,42.944000,-222.528000
1300.031982,3.904000,-224.479996
1313.696045,-29.280001,-218.623993
1321.504028,-46.848000,-201.056000
1339.072021,-58.560001,-181.535995
1348.832031,-72.223999,-154.207993
1374.208008,-81.984001,-142.496002
1383.968018,-68.320000,-130.783997
1387.871948,-68.320000,-124.928001
1387.871948,-74.176003,-122.975998
1389.823975,-54.655998,-113.216003
1382.015991,-56.608002,-93.695999
1387.871948,-37.088001,-99.552002
1382.015991,-31.232000,-95.648003
1370.303955,-23.424000,-113.216003
1352.735962,-13.664000,-122.975998
1327.359985,-7.808000,-140.544006
1298.079956,11.712000,-163.968002
1270.751953,15.616000,-195.199997
1241.472046,33.183998,-240.095993
1196.576050,52.703999,-298.656006
1136.063965,58.560001,-355.264008
1071.647949,78.080002,-433.343994
1011.135986,97.599998,-519.231995
952.575989,99.552002,-593.408020
907.679993,103.456001,-675.392029
872.544006,91.744003,-722.239990
845.216003,70.272003,-741.760010
835.455994,56.608002,-745.664001
845.216003,31.232000,-716.383972
868.640015,13.664000,-673.440002
890.112000,19.520000,-630.495972
915.487976,31.232000,-593.408020
931.104004,42.944000,-566.080017
933.056030,58.560001,-550.463989
935.007996,68.320000,-552.416016
911.583984,93.695999,-562.176025
897.919983,93.695999,-579.744019
890.112000,95.648003,-605.119995
884.255981,85.888000,-618.783997
874.495972,62.464001,-626.591980
862.783997,50.751999,-622.687988
856.927979,48.799999,-626.591980
858.880005,29.280001,-638.304016
860.831970,21.472000,-628.544006
854.976013,29.280001,-610.976013
854.976013,29.280001,-607.072021
853.023987,37.088001,-595.359985
841.312012,44.896000,-593.408020
845.216003,62.464001,-595.359985
837.408020,64.416000,-589.504028
837.408020,66.367996,-599.263977
825.695984,56.608002,-595.359985
829.599976,50.751999,-591.455994
808.127991,37.088001,-607.072021
800.320007,31.232000,-610.976013
792.512024,21.472000,-612.927979
778.848022,27.327999,-610.976013
769.088013,35.136002,-616.831970
767.135986,23.424000,-605.119995
759.328003,40.992001,-610.976013
759.328003,40.992001,-614.880005
747.616028,50.751999,-609.023987
747.616028,50.751999,-609.023987
732.000000,52.703999,-610.976013
747.616028,50.751999,-603.168030
743.711975,46.848000,-597.312012
739.807983,52.703999,-593.408020
730.047974,31.232000,-591.455994
730.047974,23.424000,-583.648010
726.143982,17.568001,-597.312012
720.288025,31.232000,-595.359985
712.479980,29.280001,-609.023987
704.671997,31.232000,-609.023987
694.911987,29.280001,-607.072021
694.911987,46.848000,-612.927979
704.671997,40.992001,-599.263977
691.007996,39.040001,-601.216003
689.056030,33.183998,-589.504028
694.911987,29.280001,-581.695984
708.575989,15.616000,-583.648010
700.768005,7.808000,-585.599976
685.151978,15.616000,-593.408020
689.056030,23.424000,-599.263977
679.296021,27.327999,-595.359985
677.343994,21.472000,-597.312012
667.583984,21.472000,-601.216003
667.583984,27.327999,-605.119995
655.872009,23.424000,-607.072021
650.015991,29.280001,-609.023987
653.919983,33.183998,-609.023987
648.064026,37.088001,-618.783997
657.823975,35.136002,-622.687988
653.919983,33.183998,-614.880005
657.823975,35.136002,-609.023987
659.776001,35.136002,-612.927979
665.632019,33.183998,-609.023987
661.728027,17.568001,-595.359985
667.583984,29.280001,-607.072021
671.487976,27.327999,-614.880005
663.679993,19.520000,-610.976013
671.487976,21.472000,-610.976013
673.440002,23.424000,-614.880005
675.392029,27.327999,-614.880005
669.536011,29.280001,-609.023987
679.296021,33.183998,-599.263977
687.104004,40.992001,-593.408020
694.911987,50.751999,-589.504028
694.911987,42.944000,-587.552002
700.768005,40.992001,-577.791992
710.528015,50.751999,-575.840027
716.383972,39.040001,-585.599976
712.479980,40.992001,-579.744019
702.719971,35.136002,-577.791992
710.528015,33.183998,-589.504028
710.528015,44.896000,-579.744019
720.288025,37.088001,-573.888000
716.383972,33.183998,-571.935974
714.432007,40.992001,-579.744019
726.143982,27.327999,-575.840027
