ACC_X,ACC_Y,ACC_Z
558.271973,495.808014,659.776001
560.223999,499.712006,665.632019
558.271973,499.712006,663.679993
558.271973,507.519989,667.583984
550.463989,499.712006,665.632019
554.367981,499.712006,663.679993
554.367981,501.664001,659.776001
556.320007,507.519989,659.776001
556.320007,499.712006,665.632019
556.320007,509.471985,661.728027
552.416016,501.664001,648.064026
558.271973,501.664001,653.919983
556.320007,503.615997,655.872009
556.320007,507.519989,657.823975
560.223999,501.664001,648.064026
556.320007,507.519989,653.919983
560.223999,507.519989,661.728027
560.223999,497.760010,659.776001
564.127991,509.471985,657.823975
558.271973,507.519989,661.728027
564.127991,511.424011,661.728027
564.127991,501.664001,659.776001
569.984009,499.712006,659.776001
569.984009,503.615997,663.679993
566.080017,501.664001,659.776001
568.031982,501.664001,669.536011
575.840027,503.615997,659.776001
571.935974,509.471985,665.632019
575.840027,513.375977,665.632019
569.984009,501.664001,669.536011
573.888000,501.664001,673.440002
575.840027,503.615997,663.679993
577.791992,509.471985,671.487976
569.984009,511.424011,677.343994
573.888000,513.375977,667.583984
569.984009,509.471985,671.487976
573.888000,503.615997,665.632019
569.984009,501.664001,675.392029
573.888000,505.567993,679.296021
575.840027,507.519989,675.392029
581.695984,505.567993,671.487976
583.648010,499.712006,692.960022
583.648010,503.615997,671.487976
583.648010,509.471985,675.392029
569.984009,505.567993,677.343994
573.888000,511.424011,679.296021
571.935974,509.471985,677.343994
573.888000,509.471985,679.296021
583.648010,501.664001,679.296021
575.840027,505.567993,679.296021
575.840027,511.424011,679.296021
579.744019,507.519989,677.343994
581.695984,509.471985,675.392029
579.744019,509.471985,677.343994
579.744019,507.519989,679.296021
583.648010,513.375977,671.487976
579.744019,505.567993,689.056030
579.744019,513.375977,679.296021
575.840027,499.712006,681.247986
579.744019,503.615997,681.247986
573.888000,501.664001,669.536011
569.984009,501.664001,669.536011
569.984009,501.664001,673.440002
571.935974,499.712006,675.392029
571.935974,501.664001,675.392029
569.984009,495.808014,675.392029
562.176025,499.712006,679.296021
564.127991,503.615997,671.487976
558.271973,499.712006,659.776001
566.080017,513.375977,677.343994
566.080017,515.328003,665.632019
558.271973,509.471985,673.440002
571.935974,503.615997,667.583984
558.271973,509.471985,663.679993
556.320007,499.712006,665.632019
562.176025,521.184021,673.440002
568.031982,507.519989,655.872009
566.080017,501.664001,667.583984
564.127991,507.519989,669.536011
564.127991,509.471985,659.776001
554.367981,509.471985,663.679993
558.271973,509.471985,665.632019
562.176025,515.328003,651.968018
560.223999,509.471985,653.919983
556.320007,513.375977,661.728027
560.223999,499.712006,665.632019
566.080017,507.519989,663.679993
560.223999,517.280029,663.679993
558.271973,505.567993,663.679993
554.367981,507.519989,667.583984
564.127991,509.471985,655.872009
556.320007,499.712006,665.632019
558.271973,513.375977,663.679993
556.320007,509.471985,655.872009
554.367981,503.615997,661.728027
554.367981,495.808014,659.776001
558.271973,495.808014,655.872009
560.223999,486.048004,665.632019
556.320007,495.808014,659.776001
556.320007,499.712006,665.632019
562.176025,493.855988,665.632019
562.176025,491.903992,665.632019
554.367981,488.000000,665.632019
562.176025,499.712006,671.487976
558.271973,505.567993,669.536011
558.271973,499.712006,677.343994
554.367981,495.808014,677.343994
564.127991,495.808014,679.296021
571.935974,503.615997,667.583984
560.223999,495.808014,671.487976
564.127991,505.567993,667.583984
568.031982,503.615997,669.536011
556.320007,497.760010,677.343994
568.031982,495.808014,677.343994
562.176025,501.664001,679.296021
560.223999,501.664001,681.247986
554.367981,493.855988,677.343994
560.223999,493.855988,669.536011
562.176025,497.760010,671.487976
562.176025,497.760010,671.487976
564.127991,497.760010,671.487976
562.176025,488.000000,669.536011
560.223999,499.712006,677.343994
562.176025,491.903992,667.583984
554.367981,493.855988,679.296021
564.127991,488.000000,681.247986
569.984009,493.855988,681.247986
566.080017,503.615997,685.151978
568.031982,507.519989,687.104004
568.031982,503.615997,692.960022
558.271973,495.808014,683.200012
568.031982,503.615997,681.247986
564.127991,501.664001,679.296021
569.984009,505.567993,679.296021
568.031982,499.712006,679.296021
568.031982,499.712006,677.343994
568.031982,505.567993,675.392029
566.080017,507.519989,671.487976
568.031982,501.664001,675.392029
566.080017,509.471985,677.343994
564.127991,507.519989,675.392029
562.176025,507.519989,679.296021
568.031982,509.471985,681.247986
558.271973,501.664001,671.487976
564.127991,509.471985,673.440002
558.271973,509.471985,681.247986
564.127991,501.664001,689.056030
564.127991,503.615997,681.247986
558.271973,509.471985,681.247986
556.320007,515.328003,681.247986
554.367981,517.280029,675.392029
564.127991,507.519989,665.632019
554.367981,517.280029,675.392029
554.367981,511.424011,675.392029
552.416016,501.664001,683.200012
556.320007,515.328003,681.247986
562.176025,515.328003,683.200012
556.320007,513.375977,681.247986
560.223999,509.471985,687.104004
558.271973,515.328003,692.960022
560.223999,515.328003,681.247986
560.223999,513.375977,681.247986
562.176025,515.328003,685.151978
550.463989,511.424011,683.200012
556.320007,513.375977,689.056030
542.656006,511.424011,679.296021
550.463989,511.424011,681.247986
556.320007,511.424011,681.247986
552.416016,507.519989,681.247986
548.512024,521.184021,675.392029
546.559998,521.184021,679.296021
542.656006,511.424011,683.200012
538.752014,509.471985,669.536011
546.559998,511.424011,667.583984
538.752014,517.280029,679.296021
538.752014,521.184021,675.392029
542.656006,525.088013,675.392029
542.656006,513.375977,669.536011
542.656006,523.135986,669.536011
536.799988,523.135986,663.679993
538.752014,525.088013,665.632019
536.799988,523.135986,661.728027
534.848022,528.992004,655.872009
534.848022,519.231995,661.728027
532.895996,521.184021,653.919983
527.039978,521.184021,657.823975
527.039978,525.088013,648.064026
527.039978,517.280029,661.728027
528.992004,521.184021,655.872009
536.799988,517.280029,657.823975
532.895996,521.184021,648.064026
528.992004,515.328003,650.015991
525.088013,507.519989,642.208008
532.895996,507.519989,640.255981
536.799988,525.088013,636.351990
530.943970,521.184021,644.159973
528.992004,527.039978,646.112000
530.943970,528.992004,638.304016
532.895996,521.184021,648.064026
528.992004,530.943970,634.400024
532.895996,523.135986,634.400024
538.752014,521.184021,636.351990
530.943970,515.328003,644.159973
534.848022,519.231995,651.968018
532.895996,527.039978,650.015991
532.895996,519.231995,640.255981
542.656006,517.280029,657.823975
534.848022,519.231995,651.968018
534.848022,521.184021,657.823975
542.656006,517.280029,648.064026
540.703979,507.519989,665.632019
536.799988,513.375977,655.872009
536.799988,517.280029,659.776001
542.656006,517.280029,659.776001
542.656006,513.375977,657.823975
544.607971,517.280029,667.583984
540.703979,511.424011,659.776001
544.607971,519.231995,657.823975
550.463989,519.231995,665.632019
554.367981,511.424011,669.536011
558.271973,507.519989,663.679993
554.367981,513.375977,667.583984
554.367981,517.280029,673.440002
558.271973,517.280029,663.679993
552.416016,507.519989,669.536011
550.463989,507.519989,663.679993
554.367981,517.280029,663.679993
562.176025,525.088013,671.487976
562.176025,523.135986,665.632019
560.223999,519.231995,665.632019
566.080017,511.424011,663.679993
564.127991,505.567993,663.679993
569.984009,517.280029,657.823975
575.840027,521.184021,661.728027
571.935974,519.231995,661.728027
573.888000,521.184021,663.679993
573.888000,525.088013,663.679993
573.888000,525.088013,663.679993
581.695984,525.088013,673.440002
581.695984,519.231995,665.632019
591.455994,517.280029,663.679993
583.648010,519.231995,663.679993
587.552002,528.992004,671.487976
573.888000,527.039978,669.536011
573.888000,528.992004,665.632019
579.744019,527.039978,669.536011
579.744019,534.848022,669.536011
591.455994,527.039978,659.776001
581.695984,517.280029,657.823975
593.408020,515.328003,661.728027
589.504028,519.231995,665.632019
589.504028,532.895996,657.823975
581.695984,517.280029,659.776001
577.791992,519.231995,655.872009
587.552002,532.895996,665.632019
577.791992,536.799988,663.679993
581.695984,534.848022,661.728027
583.648010,527.039978,657.823975
585.599976,534.848022,653.919983
581.695984,528.992004,661.728027
585.599976,530.943970,665.632019
583.648010,534.848022,657.823975
581.695984,523.135986,655.872009
581.695984,538.752014,653.919983
577.791992,534.848022,669.536011
577.791992,532.895996,659.776001
573.888000,530.943970,648.064026
581.695984,540.703979,653.919983
577.791992,536.799988,653.919983
577.791992,530.943970,655.872009
579.744019,528.992004,650.015991
585.599976,528.992004,648.064026
581.695984,544.607971,650.015991
587.552002,532.895996,653.919983
573.888000,530.943970,651.968018
583.648010,532.895996,651.968018
573.888000,538.752014,648.064026
569.984009,548.512024,648.064026
564.127991,538.752014,644.159973
573.888000,536.799988,657.823975
577.791992,536.799988,650.015991
569.984009,525.088013,644.159973
571.935974,528.992004,644.159973
575.840027,532.895996,644.159973
571.935974,532.895996,642.208008
569.984009,528.992004,642.208008
571.935974,530.943970,650.015991
568.031982,534.848022,644.159973
571.935974,530.943970,655.872009
571.935974,530.943970,650.015991
564.127991,521.184021,648.064026
560.223999,521.184021,646.112000
564.127991,532.895996,648.064026
564.127991,534.848022,648.064026
566.080017,523.135986,653.919983
568.031982,528.992004,648.064026
554.367981,528.992004,650.015991
558.271973,525.088013,651.968018
560.223999,527.039978,646.112000
564.127991,527.039978,646.112000
564.127991,527.039978,648.064026
560.223999,527.039978,648.064026
552.416016,532.895996,655.872009
562.176025,532.895996,650.015991
564.127991,525.088013,653.919983
554.367981,528.992004,659.776001
558.271973,534.848022,655.872009
558.271973,525.088013,657.823975
550.463989,513.375977,650.015991
560.223999,521.184021,648.064026
550.463989,515.328003,653.919983
554.367981,521.184021,653.919983
554.367981,521.184021,651.968018
556.320007,515.328003,653.919983
558.271973,521.184021,651.968018
546.559998,519.231995,651.968018
542.656006,517.280029,653.919983
552.416016,521.184021,659.776001
552.416016,515.328003,657.823975
542.656006,521.184021,650.015991
550.463989,517.280029,648.064026
546.559998,521.184021,648.064026
554.367981,515.328003,650.015991
556.320007,521.184021,651.968018
556.320007,513.375977,651.968018
546.559998,507.519989,659.776001
548.512024,515.328003,657.823975
546.559998,519.231995,650.015991
550.463989,513.375977,651.968018
544.607971,505.567993,651.968018
536.799988,505.567993,648.064026
556.320007,511.424011,650.015991
550.463989,513.375977,651.968018
556.320007,503.615997,657.823975
546.559998,493.855988,644.159973
548.512024,497.760010,657.823975
554.367981,495.808014,653.919983
548.512024,499.712006,646.112000
556.320007,501.664001,653.919983
554.367981,503.615997,653.919983
556.320007,507.519989,644.159973
548.512024,495.808014,650.015991
556.320007,511.424011,644.159973
552.416016,499.712006,650.015991
564.127991,495.808014,651.968018
558.271973,501.664001,648.064026
562.176025,484.096008,650.015991
568.031982,493.855988,648.064026
566.080017,495.808014,651.968018
562.176025,491.903992,648.064026
558.271973,491.903992,655.872009
566.080017,493.855988,646.112000
564.127991,495.808014,653.919983
571.935974,499.712006,650.015991
558.271973,493.855988,655.872009
566.080017,489.951996,651.968018
571.935974,499.712006,655.872009
568.031982,491.903992,642.208008
566.080017,486.048004,650.015991
568.031982,488.000000,648.064026
569.984009,486.048004,648.064026
571.935974,480.191986,648.064026
562.176025,484.096008,650.015991
569.984009,486.048004,648.064026
564.127991,482.144012,646.112000
562.176025,488.000000,646.112000
560.223999,482.144012,632.447998
548.512024,474.335999,634.400024
556.320007,482.144012,630.495972
548.512024,478.239990,638.304016
542.656006,470.432007,632.447998
554.367981,454.816010,636.351990
542.656006,470.432007,636.351990
538.752014,458.720001,632.447998
540.703979,462.623993,630.495972
540.703979,466.528015,624.640015
532.895996,456.768005,622.687988
536.799988,452.864014,616.831970
538.752014,447.007996,616.831970
536.799988,452.864014,618.783997
534.848022,456.768005,620.736023
534.848022,452.864014,626.591980
528.992004,462.623993,612.927979
530.943970,452.864014,616.831970
521.184021,454.816010,612.927979
523.135986,462.623993,609.023987
525.088013,462.623993,607.072021
525.088013,452.864014,618.783997
519.231995,456.768005,616.831970
513.375977,456.768005,618.783997
515.328003,448.959991,614.880005
521.184021,445.056000,612.927979
513.375977,452.864014,607.072021
509.471985,447.007996,609.023987
513.375977,443.104004,609.023987
503.615997,450.911987,607.072021
509.471985,450.911987,607.072021
515.328003,447.007996,609.023987
509.471985,441.152008,607.072021
503.615997,441.152008,607.072021
511.424011,433.343994,610.976013
509.471985,435.295990,599.263977
517.280029,433.343994,605.119995
501.664001,427.488007,609.023987
513.375977,435.295990,612.927979
503.615997,441.152008,605.119995
505.567993,437.247986,607.072021
495.808014,425.536011,605.119995
505.567993,443.104004,614.880005
503.615997,431.391998,601.216003
503.615997,437.247986,601.216003
505.567993,437.247986,603.168030
499.712006,431.391998,609.023987
495.808014,427.488007,605.119995
509.471985,427.488007,609.023987
505.567993,431.391998,605.119995
509.471985,419.679993,607.072021
501.664001,425.536011,610.976013
511.424011,421.631989,605.119995
509.471985,417.727997,607.072021
503.615997,421.631989,603.168030
509.471985,421.631989,603.168030
509.471985,415.776001,607.072021
497.760010,411.872009,609.023987
503.615997,409.920013,603.168030
501.664001,411.872009,605.119995
501.664001,409.920013,607.072021
503.615997,409.920013,603.168030
507.519989,413.824005,609.023987
501.664001,415.776001,603.168030
505.567993,417.727997,597.312012
505.567993,415.776001,599.263977
495.808014,406.015991,601.216003
505.567993,409.920013,593.408020
497.760010,406.015991,607.072021
503.615997,406.015991,601.216003
499.712006,409.920013,599.263977
507.519989,411.872009,595.359985
507.519989,407.967987,599.263977
507.519989,402.112000,605.119995
499.712006,402.112000,597.312012
505.567993,407.967987,593.408020
503.615997,404.063995,595.359985
521.184021,386.496002,601.216003
509.471985,398.208008,591.455994
511.424011,386.496002,593.408020
517.280029,400.160004,607.072021
517.280029,407.967987,607.072021
515.328003,394.303986,605.119995
528.992004,390.399994,599.263977
517.280029,407.967987,605.119995
525.088013,404.063995,603.168030
525.088013,394.303986,614.880005
530.943970,400.160004,603.168030
534.848022,394.303986,612.927979
534.848022,398.208008,614.880005
538.752014,407.967987,620.736023
546.559998,398.208008,624.640015
542.656006,406.015991,622.687988
544.607971,402.112000,618.783997
546.559998,406.015991,622.687988
542.656006,411.872009,622.687988
546.559998,413.824005,628.544006
550.463989,413.824005,626.591980
558.271973,411.872009,628.544006
571.935974,406.015991,624.640015
560.223999,406.015991,628.544006
568.031982,409.920013,630.495972
568.031982,407.967987,630.495972
573.888000,400.160004,632.447998
566.080017,406.015991,620.736023
569.984009,415.776001,628.544006
571.935974,404.063995,618.783997
573.888000,394.303986,620.736023
571.935974,406.015991,630.495972
581.695984,406.015991,628.544006
573.888000,402.112000,624.640015
577.791992,400.160004,626.591980
587.552002,407.967987,624.640015
579.744019,409.920013,620.736023
581.695984,411.872009,628.544006
585.599976,411.872009,624.640015
581.695984,411.872009,626.591980
585.599976,411.872009,632.447998
591.455994,411.872009,626.591980
597.312012,415.776001,634.400024
593.408020,417.727997,630.495972
589.504028,421.631989,624.640015
603.168030,417.727997,634.400024
603.168030,421.631989,634.400024
601.216003,417.727997,622.687988
601.216003,421.631989,638.304016
605.119995,427.488007,642.208008
605.119995,409.920013,642.208008
605.119995,419.679993,648.064026
609.023987,415.776001,640.255981
610.976013,407.967987,636.351990
610.976013,419.679993,636.351990
603.168030,417.727997,634.400024
603.168030,413.824005,642.208008
607.072021,409.920013,634.400024
603.168030,421.631989,634.400024
605.119995,415.776001,634.400024
605.119995,423.584015,628.544006
605.119995,417.727997,626.591980
599.263977,419.679993,628.544006
603.168030,431.391998,622.687988
599.263977,421.631989,630.495972
597.312012,425.536011,622.687988
614.880005,431.391998,620.736023
610.976013,429.440002,628.544006
601.216003,439.200012,630.495972
601.216003,429.440002,632.447998
599.263977,439.200012,630.495972
603.168030,437.247986,624.640015
609.023987,435.295990,630.495972
599.263977,429.440002,632.447998
603.168030,435.295990,630.495972
607.072021,437.247986,630.495972
599.263977,439.200012,638.304016
607.072021,433.343994,638.304016
599.263977,429.440002,642.208008
605.119995,425.536011,642.208008
605.119995,433.343994,636.351990
603.168030,437.247986,624.640015
597.312012,437.247986,630.495972
601.216003,431.391998,636.351990
593.408020,443.104004,634.400024
591.455994,445.056000,628.544006
599.263977,439.200012,638.304016
599.263977,443.104004,628.544006
601.216003,439.200012,642.208008
597.312012,447.007996,634.400024
595.359985,441.152008,628.544006
593.408020,445.056000,632.447998
593.408020,448.959991,630.495972
597.312012,441.152008,628.544006
593.408020,456.768005,642.208008
597.312012,450.911987,646.112000
593.408020,439.200012,632.447998
597.312012,443.104004,632.447998
589.504028,448.959991,642.208008
603.168030,450.911987,636.351990
595.359985,445.056000,644.159973
603.168030,448.959991,650.015991
597.312012,445.056000,638.304016
601.216003,435.295990,642.208008
597.312012,445.056000,640.255981
603.168030,448.959991,638.304016
601.216003,454.816010,646.112000
601.216003,447.007996,646.112000
603.168030,448.959991,638.304016
597.312012,450.911987,640.255981
595.359985,454.816010,642.208008
597.312012,441.152008,634.400024
601.216003,441.152008,632.447998
605.119995,454.816010,640.255981
599.263977,450.911987,644.159973
597.312012,452.864014,640.255981
597.312012,452.864014,644.159973
612.927979,450.911987,642.208008
603.168030,445.056000,634.400024
607.072021,448.959991,636.351990
612.927979,460.671997,636.351990
605.119995,445.056000,640.255981
601.216003,447.007996,653.919983
599.263977,466.528015,648.064026
607.072021,445.056000,648.064026
601.216003,458.720001,640.255981
607.072021,454.816010,648.064026
601.216003,448.959991,657.823975
614.880005,462.623993,650.015991
612.927979,454.816010,648.064026
607.072021,450.911987,646.112000
605.119995,445.056000,646.112000
614.880005,452.864014,640.255981
612.927979,450.911987,648.064026
610.976013,439.200012,644.159973
618.783997,447.007996,644.159973
610.976013,454.816010,653.919983
618.783997,445.056000,650.015991
614.880005,443.104004,644.159973
610.976013,445.056000,650.015991
618.783997,452.864014,644.159973
622.687988,450.911987,651.968018
618.783997,452.864014,650.015991
626.591980,445.056000,644.159973
622.687988,447.007996,650.015991
620.736023,447.007996,651.968018
628.544006,443.104004,661.728027
632.447998,443.104004,659.776001
632.447998,450.911987,659.776001
638.304016,441.152008,661.728027
640.255981,447.007996,665.632019
640.255981,447.007996,667.583984
638.304016,445.056000,659.776001
646.112000,452.864014,671.487976
650.015991,456.768005,665.632019
646.112000,452.864014,665.632019
640.255981,445.056000,677.343994
653.919983,454.816010,673.440002
657.823975,447.007996,663.679993
648.064026,450.911987,681.247986
653.919983,452.864014,675.392029
657.823975,450.911987,665.632019
657.823975,443.104004,667.583984
651.968018,441.152008,675.392029
650.015991,445.056000,677.343994
648.064026,443.104004,675.392029
646.112000,450.911987,665.632019
648.064026,443.104004,669.536011
651.968018,448.959991,673.440002
655.872009,454.816010,663.679993
651.968018,445.056000,669.536011
646.112000,450.911987,665.632019
634.400024,456.768005,661.728027
646.112000,450.911987,665.632019
636.351990,452.864014,667.583984
640.255981,450.911987,667.583984
650.015991,460.671997,667.583984
640.255981,447.007996,659.776001
638.304016,452.864014,667.583984
640.255981,445.056000,663.679993
632.447998,452.864014,663.679993
644.159973,462.623993,665.632019
644.159973,458.720001,667.583984
642.208008,466.528015,667.583984
630.495972,464.575989,665.632019
634.400024,448.959991,677.343994
640.255981,456.768005,667.583984
636.351990,470.432007,673.440002
646.112000,460.671997,673.440002
634.400024,452.864014,673.440002
636.351990,458.720001,677.343994
622.687988,464.575989,669.536011
630.495972,460.671997,667.583984
630.495972,466.528015,665.632019
624.640015,456.768005,665.632019
634.400024,472.384003,659.776001
626.591980,468.480011,669.536011
624.640015,458.720001,661.728027
610.976013,466.528015,663.679993
618.783997,474.335999,665.632019
614.880005,474.335999,667.583984
609.023987,468.480011,663.679993
620.736023,468.480011,665.632019
610.976013,466.528015,665.632019
618.783997,456.768005,665.632019
612.927979,458.720001,661.728027
616.831970,466.528015,657.823975
610.976013,470.432007,661.728027
612.927979,460.671997,661.728027
609.023987,462.623993,655.872009
607.072021,468.480011,655.872009
609.023987,474.335999,655.872009
603.168030,474.335999,653.919983
614.880005,460.671997,653.919983
589.504028,484.096008,651.968018
599.263977,491.903992,663.679993
601.216003,478.239990,648.064026
601.216003,472.384003,657.823975
597.312012,491.903992,657.823975
605.119995,474.335999,657.823975
597.312012,460.671997,653.919983
605.119995,464.575989,653.919983
599.263977,478.239990,648.064026
587.552002,462.623993,657.823975
585.599976,470.432007,657.823975
591.455994,474.335999,659.776001
591.455994,480.191986,644.159973
583.648010,468.480011,653.919983
591.455994,472.384003,657.823975
585.599976,489.951996,650.015991
581.695984,497.760010,657.823975
585.599976,484.096008,648.064026
587.552002,484.096008,650.015991
589.504028,497.760010,648.064026
589.504028,495.808014,653.919983
577.791992,476.287994,650.015991
585.599976,489.951996,648.064026
575.840027,495.808014,653.919983
579.744019,493.855988,653.919983
585.599976,476.287994,644.159973
579.744019,489.951996,650.015991
569.984009,484.096008,646.112000
568.031982,489.951996,644.159973
575.840027,482.144012,640.255981
575.840027,478.239990,640.255981
579.744019,488.000000,644.159973
573.888000,489.951996,632.447998
577.791992,480.191986,634.400024
579.744019,497.760010,632.447998
579.744019,501.664001,636.351990
573.888000,497.760010,622.687988
573.888000,489.951996,636.351990
575.840027,489.951996,636.351990
577.791992,491.903992,640.255981
566.080017,491.903992,646.112000
579.744019,489.951996,644.159973
577.791992,491.903992,640.255981
579.744019,497.760010,646.112000
566.080017,482.144012,636.351990
571.935974,484.096008,646.112000
573.888000,491.903992,642.208008
577.791992,482.144012,638.304016
575.840027,478.239990,636.351990
573.888000,489.951996,646.112000
577.791992,489.951996,648.064026
571.935974,480.191986,648.064026
589.504028,491.903992,650.015991
573.888000,489.951996,644.159973
571.935974,491.903992,650.015991
575.840027,489.951996,644.159973
571.935974,484.096008,646.112000
571.935974,507.519989,646.112000
575.840027,488.000000,648.064026
569.984009,505.567993,651.968018
569.984009,501.664001,640.255981
579.744019,495.808014,636.351990
571.935974,488.000000,650.015991
573.888000,491.903992,636.351990
569.984009,495.808014,636.351990
575.840027,484.096008,634.400024
583.648010,499.712006,634.400024
566.080017,505.567993,636.351990
579.744019,476.287994,634.400024
569.984009,484.096008,644.159973
569.984009,480.191986,646.112000
569.984009,491.903992,638.304016
575.840027,495.808014,642.208008
579.744019,484.096008,642.208008
575.840027,491.903992,642.208008
579.744019,497.760010,642.208008
579.744019,497.760010,638.304016
569.984009,491.903992,644.159973
569.984009,499.712006,644.159973
579.744019,495.808014,644.159973
575.840027,493.855988,644.159973
575.840027,499.712006,655.872009
575.840027,497.760010,644.159973
579.744019,493.855988,650.015991
577.791992,495.808014,648.064026
583.648010,493.855988,650.015991
577.791992,495.808014,650.015991
581.695984,488.000000,653.919983
577.791992,491.903992,655.872009
579.744019,484.096008,655.872009
583.648010,493.855988,655.872009
585.599976,493.855988,651.968018
583.648010,489.951996,657.823975
571.935974,484.096008,657.823975
587.552002,489.951996,653.919983
581.695984,486.048004,657.823975
587.552002,497.760010,659.776001
583.648010,495.808014,657.823975
595.359985,493.855988,665.632019
577.791992,489.951996,657.823975
587.552002,495.808014,665.632019
581.695984,497.760010,663.679993
579.744019,489.951996,663.679993
575.840027,491.903992,663.679993
579.744019,499.712006,665.632019
575.840027,486.048004,657.823975
579.744019,491.903992,665.632019
571.935974,489.951996,665.632019
575.840027,484.096008,667.583984
583.648010,488.000000,663.679993
583.648010,476.287994,665.632019
575.840027,472.384003,659.776001
583.648010,476.287994,663.679993
575.840027,482.144012,665.632019
569.984009,488.000000,661.728027
575.840027,482.144012,665.632019
575.840027,486.048004,673.440002
568.031982,499.712006,665.632019
568.031982,495.808014,663.679993
581.695984,486.048004,657.823975
581.695984,484.096008,663.679993
579.744019,480.191986,661.728027
569.984009,493.855988,661.728027
566.080017,489.951996,667.583984
573.888000,480.191986,669.536011
573.888000,491.903992,667.583984
562.176025,495.808014,665.632019
577.791992,480.191986,665.632019
583.648010,484.096008,665.632019
583.648010,486.048004,669.536011
587.552002,488.000000,665.632019
569.984009,482.144012,671.487976
577.791992,468.480011,673.440002
573.888000,484.096008,685.151978
583.648010,482.144012,673.440002
579.744019,478.239990,677.343994
577.791992,486.048004,675.392029
573.888000,480.191986,679.296021
579.744019,484.096008,667.583984
587.552002,486.048004,675.392029
585.599976,489.951996,679.296021
595.359985,472.384003,675.392029
591.455994,486.048004,673.440002
593.408020,489.951996,677.343994
591.455994,482.144012,687.104004
591.455994,484.096008,685.151978
591.455994,488.000000,671.487976
593.408020,486.048004,681.247986
577.791992,489.951996,681.247986
595.359985,478.239990,681.247986
587.552002,482.144012,675.392029
601.216003,486.048004,679.296021
587.552002,488.000000,671.487976
593.408020,478.239990,681.247986
587.552002,476.287994,679.296021
607.072021,474.335999,679.296021
603.168030,474.335999,687.104004
595.359985,474.335999,681.247986
595.359985,476.287994,681.247986
595.359985,489.951996,679.296021
593.408020,480.191986,677.343994
595.359985,476.287994,675.392029
587.552002,489.951996,681.247986
603.168030,497.760010,681.247986
599.263977,482.144012,683.200012
597.312012,486.048004,679.296021
599.263977,474.335999,689.056030
587.552002,488.000000,671.487976
593.408020,484.096008,675.392029
583.648010,482.144012,677.343994
589.504028,476.287994,679.296021
595.359985,474.335999,673.440002
593.408020,472.384003,679.296021
599.263977,476.287994,685.151978
593.408020,476.287994,675.392029
599.263977,474.335999,673.440002
591.455994,489.951996,685.151978
589.504028,486.048004,673.440002
583.648010,476.287994,681.247986
593.408020,478.239990,681.247986
585.599976,488.000000,675.392029
599.263977,491.903992,681.247986
605.119995,476.287994,679.296021
601.216003,470.432007,681.247986
603.168030,488.000000,687.104004
587.552002,486.048004,687.104004
593.408020,482.144012,691.007996
591.455994,484.096008,689.056030
589.504028,478.239990,698.815979
593.408020,480.191986,692.960022
589.504028,495.808014,691.007996
593.408020,472.384003,691.007996
599.263977,484.096008,687.104004
614.880005,488.000000,685.151978
609.023987,488.000000,675.392029
601.216003,482.144012,677.343994
597.312012,491.903992,663.679993
579.744019,489.951996,671.487976
581.695984,488.000000,665.632019
585.599976,489.951996,663.679993
569.984009,493.855988,673.440002
589.504028,489.951996,655.872009
569.984009,486.048004,651.968018
579.744019,489.951996,661.728027
585.599976,489.951996,665.632019
581.695984,484.096008,661.728027
599.263977,482.144012,663.679993
583.648010,484.096008,671.487976
599.263977,493.855988,665.632019
589.504028,486.048004,671.487976
591.455994,491.903992,665.632019
593.408020,495.808014,669.536011
591.455994,489.951996,685.151978
589.504028,493.855988,679.296021
595.359985,503.615997,677.343994
579.744019,515.328003,677.343994
599.263977,505.567993,679.296021
595.359985,503.615997,669.536011
595.359985,505.567993,681.247986
607.072021,507.519989,677.343994
601.216003,491.903992,677.343994
601.216003,493.855988,675.392029
607.072021,482.144012,679.296021
599.263977,495.808014,667.583984
614.880005,486.048004,663.679993
599.263977,488.000000,677.343994
601.216003,491.903992,673.440002
593.408020,486.048004,667.583984
593.408020,486.048004,661.728027
593.408020,501.664001,663.679993
601.216003,489.951996,667.583984
593.408020,499.712006,665.632019
605.119995,501.664001,661.728027
603.168030,499.712006,657.823975
603.168030,509.471985,661.728027
597.312012,499.712006,673.440002
603.168030,507.519989,659.776001
599.263977,499.712006,655.872009
605.119995,501.664001,665.632019
595.359985,503.615997,669.536011
614.880005,513.375977,669.536011
595.359985,513.375977,675.392029
610.976013,493.855988,663.679993
601.216003,493.855988,667.583984
595.359985,515.328003,671.487976
603.168030,495.808014,681.247986
603.168030,488.000000,679.296021
618.783997,497.760010,679.296021
605.119995,495.808014,675.392029
612.927979,491.903992,677.343994
593.408020,501.664001,669.536011
603.168030,497.760010,681.247986
597.312012,503.615997,669.536011
599.263977,507.519989,673.440002
603.168030,499.712006,667.583984
597.312012,505.567993,667.583984
595.359985,521.184021,659.776001
603.168030,505.567993,661.728027
610.976013,503.615997,661.728027
610.976013,511.424011,657.823975
616.831970,515.328003,659.776001
618.783997,495.808014,663.679993
607.072021,489.951996,663.679993
609.023987,507.519989,665.632019
607.072021,503.615997,665.632019
599.263977,497.760010,675.392029
610.976013,501.664001,667.583984
599.263977,503.615997,675.392029
607.072021,495.808014,675.392029
605.119995,491.903992,679.296021
605.119995,505.567993,679.296021
601.216003,511.424011,671.487976
605.119995,509.471985,671.487976
609.023987,509.471985,677.343994
601.216003,509.471985,673.440002
609.023987,519.231995,675.392029
607.072021,521.184021,669.536011
603.168030,513.375977,671.487976
599.263977,513.375977,677.343994
607.072021,515.328003,671.487976
597.312012,515.328003,673.440002
605.119995,517.280029,679.296021
607.072021,509.471985,677.343994
607.072021,511.424011,677.343994
601.216003,505.567993,679.296021
607.072021,497.760010,675.392029
609.023987,505.567993,675.392029
597.312012,513.375977,669.536011
601.216003,513.375977,677.343994
603.168030,503.615997,671.487976
603.168030,511.424011,677.343994
599.263977,505.567993,679.296021
601.216003,505.567993,679.296021
603.168030,499.712006,673.440002
601.216003,503.615997,681.247986
601.216003,517.280029,679.296021
605.119995,509.471985,677.343994
605.119995,511.424011,691.007996
603.168030,515.328003,691.007996
607.072021,513.375977,691.007996
614.880005,513.375977,689.056030
616.831970,509.471985,692.960022
616.831970,509.471985,694.911987
618.783997,503.615997,687.104004
607.072021,509.471985,696.864014
610.976013,501.664001,702.719971
618.783997,497.760010,698.815979
609.023987,493.855988,689.056030
614.880005,499.712006,694.911987
610.976013,491.903992,700.768005
601.216003,493.855988,696.864014
618.783997,493.855988,698.815979
607.072021,503.615997,700.768005
618.783997,488.000000,700.768005
610.976013,497.760010,696.864014
612.927979,493.855988,696.864014
607.072021,503.615997,696.864014
607.072021,495.808014,696.864014
609.023987,501.664001,698.815979
609.023987,511.424011,692.960022
601.216003,503.615997,691.007996
605.119995,493.855988,694.911987
607.072021,484.096008,696.864014
605.119995,495.808014,692.960022
601.216003,501.664001,700.768005
616.831970,491.903992,689.056030
597.312012,497.760010,692.960022
609.023987,488.000000,692.960022
603.168030,484.096008,698.815979
599.263977,495.808014,692.960022
605.119995,482.144012,691.007996
601.216003,484.096008,683.200012
607.072021,488.000000,683.200012
601.216003,486.048004,683.200012
603.168030,486.048004,689.056030
601.216003,486.048004,679.296021
642.208008,486.048004,677.343994
597.312012,486.048004,679.296021
609.023987,489.951996,687.104004
605.119995,478.239990,685.151978
614.880005,480.191986,675.392029
622.687988,486.048004,673.440002
589.504028,478.239990,675.392029
620.736023,468.480011,675.392029
624.640015,478.239990,677.343994
620.736023,476.287994,673.440002
614.880005,474.335999,679.296021
599.263977,476.287994,683.200012
601.216003,480.191986,685.151978
591.455994,478.239990,681.247986
589.504028,478.239990,673.440002
620.736023,466.528015,681.247986
591.455994,468.480011,696.864014
614.880005,482.144012,691.007996
603.168030,474.335999,696.864014
607.072021,462.623993,692.960022
626.591980,462.623993,687.104004
605.119995,484.096008,692.960022
620.736023,472.384003,694.911987
610.976013,470.432007,685.151978
610.976013,480.191986,679.296021
605.119995,476.287994,691.007996
610.976013,462.623993,696.864014
605.119995,468.480011,687.104004
612.927979,495.808014,689.056030
622.687988,468.480011,692.960022
609.023987,452.864014,692.960022
624.640015,472.384003,683.200012
620.736023,470.432007,689.056030
610.976013,462.623993,692.960022
607.072021,448.959991,698.815979
612.927979,462.623993,702.719971
614.880005,472.384003,691.007996
646.112000,458.720001,683.200012
638.304016,458.720001,698.815979
634.400024,448.959991,698.815979
632.447998,462.623993,696.864014
636.351990,464.575989,694.911987
634.400024,450.911987,702.719971
646.112000,460.671997,710.528015
646.112000,470.432007,714.432007
634.400024,452.864014,702.719971
640.255981,462.623993,708.575989
634.400024,462.623993,706.624023
634.400024,454.816010,714.432007
650.015991,452.864014,712.479980
648.064026,472.384003,718.335999
651.968018,445.056000,724.192017
644.159973,439.200012,726.143982
640.255981,456.768005,720.288025
636.351990,470.432007,728.096008
640.255981,450.911987,726.143982
632.447998,450.911987,724.192017
646.112000,458.720001,728.096008
642.208008,452.864014,728.096008
638.304016,445.056000,728.096008
644.159973,441.152008,735.903992
634.400024,448.959991,728.096008
642.208008,462.623993,737.856018
638.304016,441.152008,728.096008
636.351990,450.911987,726.143982
642.208008,468.480011,735.903992
626.591980,468.480011,726.143982
636.351990,460.671997,730.047974
620.736023,466.528015,722.239990
634.400024,472.384003,728.096008
638.304016,462.623993,724.192017
626.591980,445.056000,728.096008
628.544006,450.911987,728.096008
626.591980,448.959991,726.143982
630.495972,441.152008,724.192017
626.591980,447.007996,726.143982
622.687988,450.911987,724.192017
626.591980,450.911987,724.192017
618.783997,452.864014,724.192017
618.783997,448.959991,726.143982
614.880005,445.056000,728.096008
612.927979,458.720001,716.383972
609.023987,452.864014,720.288025
607.072021,450.911987,714.432007
612.927979,452.864014,712.479980
616.831970,462.623993,710.528015
612.927979,458.720001,718.335999
616.831970,462.623993,706.624023
605.119995,456.768005,716.383972
597.312012,464.575989,712.479980
601.216003,460.671997,704.671997
597.312012,452.864014,708.575989
599.263977,458.720001,712.479980
597.312012,464.575989,708.575989
595.359985,454.816010,706.624023
583.648010,456.768005,706.624023
593.408020,460.671997,694.911987
597.312012,460.671997,691.007996
581.695984,458.720001,692.960022
597.312012,450.911987,689.056030
585.599976,441.152008,677.343994
587.552002,468.480011,669.536011
589.504028,458.720001,669.536011
583.648010,441.152008,671.487976
595.359985,456.768005,669.536011
581.695984,458.720001,661.728027
589.504028,458.720001,657.823975
579.744019,462.623993,655.872009
577.791992,464.575989,651.968018
573.888000,460.671997,648.064026
579.744019,466.528015,651.968018
573.888000,460.671997,655.872009
583.648010,454.816010,661.728027
583.648010,462.623993,657.823975
583.648010,466.528015,655.872009
591.455994,448.959991,650.015991
581.695984,456.768005,646.112000
581.695984,462.623993,640.255981
583.648010,454.816010,653.919983
581.695984,452.864014,655.872009
583.648010,464.575989,653.919983
589.504028,458.720001,653.919983
593.408020,454.816010,653.919983
587.552002,458.720001,659.776001
589.504028,452.864014,653.919983
589.504028,458.720001,648.064026
593.408020,452.864014,651.968018
591.455994,462.623993,659.776001
589.504028,450.911987,653.919983
599.263977,464.575989,661.728027
589.504028,460.671997,665.632019
579.744019,454.816010,657.823975
583.648010,456.768005,661.728027
571.935974,456.768005,655.872009
571.935974,447.007996,651.968018
579.744019,447.007996,642.208008
583.648010,456.768005,646.112000
571.935974,450.911987,640.255981
585.599976,441.152008,624.640015
569.984009,445.056000,626.591980
577.791992,454.816010,634.400024
571.935974,448.959991,626.591980
558.271973,460.671997,624.640015
562.176025,474.335999,624.640015
562.176025,462.623993,632.447998
558.271973,464.575989,614.880005
568.031982,466.528015,626.591980
571.935974,466.528015,618.783997
562.176025,464.575989,616.831970
571.935974,452.864014,624.640015
554.367981,441.152008,616.831970
581.695984,458.720001,624.640015
566.080017,460.671997,630.495972
569.984009,447.007996,628.544006
571.935974,462.623993,630.495972
568.031982,462.623993,638.304016
569.984009,458.720001,644.159973
575.840027,452.864014,642.208008
575.840027,464.575989,644.159973
564.127991,466.528015,644.159973
571.935974,462.623993,653.919983
575.840027,452.864014,659.776001
579.744019,466.528015,659.776001
575.840027,474.335999,655.872009
569.984009,480.191986,651.968018
566.080017,474.335999,651.968018
569.984009,480.191986,661.728027
568.031982,472.384003,655.872009
577.791992,460.671997,653.919983
569.984009,486.048004,659.776001
581.695984,472.384003,650.015991
575.840027,460.671997,644.159973
573.888000,476.287994,648.064026
568.031982,478.239990,646.112000
568.031982,460.671997,646.112000
571.935974,468.480011,644.159973
575.840027,478.239990,659.776001
571.935974,445.056000,659.776001
575.840027,431.391998,655.872009
571.935974,448.959991,665.632019
575.840027,450.911987,663.679993
562.176025,429.440002,667.583984
566.080017,443.104004,663.679993
587.552002,425.536011,659.776001
593.408020,407.967987,657.823975
603.168030,433.343994,661.728027
597.312012,421.631989,667.583984
599.263977,415.776001,667.583984
581.695984,450.911987,655.872009
595.359985,454.816010,657.823975
591.455994,464.575989,651.968018
585.599976,486.048004,663.679993
577.791992,486.048004,663.679993
577.791992,484.096008,667.583984
579.744019,495.808014,675.392029
591.455994,472.384003,669.536011
605.119995,470.432007,667.583984
605.119995,486.048004,657.823975
605.119995,482.144012,663.679993
593.408020,464.575989,669.536011
599.263977,497.760010,667.583984
607.072021,501.664001,665.632019
601.216003,484.096008,661.728027
612.927979,501.664001,663.679993
599.263977,495.808014,661.728027
599.263977,493.855988,673.440002
605.119995,495.808014,669.536011
609.023987,484.096008,665.632019
609.023987,474.335999,671.487976
593.408020,478.239990,655.872009
614.880005,466.528015,653.919983
603.168030,458.720001,661.728027
618.783997,468.480011,665.632019
614.880005,464.575989,657.823975
612.927979,464.575989,657.823975
612.927979,480.191986,650.015991
599.263977,489.951996,653.919983
603.168030,497.760010,648.064026
603.168030,507.519989,648.064026
589.504028,513.375977,644.159973
591.455994,511.424011,646.112000
597.312012,511.424011,640.255981
595.359985,505.567993,630.495972
591.455994,495.808014,622.687988
601.216003,501.664001,630.495972
597.312012,489.951996,622.687988
597.312012,489.951996,616.831970
593.408020,489.951996,618.783997
585.599976,501.664001,626.591980
587.552002,489.951996,626.591980
587.552002,491.903992,626.591980
581.695984,501.664001,622.687988
577.791992,491.903992,620.736023
583.648010,488.000000,630.495972
575.840027,493.855988,624.640015
583.648010,495.808014,620.736023
571.935974,491.903992,612.927979
591.455994,497.760010,614.880005
569.984009,497.760010,605.119995
579.744019,491.903992,612.927979
575.840027,505.567993,616.831970
577.791992,493.855988,607.072021
575.840027,489.951996,610.976013
579.744019,488.000000,614.880005
583.648010,489.951996,609.023987
568.031982,486.048004,614.880005
577.791992,499.712006,618.783997
571.935974,489.951996,607.072021
573.888000,495.808014,605.119995
568.031982,501.664001,605.119995
564.127991,503.615997,603.168030
562.176025,491.903992,605.119995
568.031982,486.048004,609.023987
566.080017,484.096008,603.168030
571.935974,499.712006,599.263977
566.080017,486.048004,599.263977
569.984009,482.144012,605.119995
568.031982,491.903992,605.119995
575.840027,480.191986,599.263977
566.080017,486.048004,599.263977
577.791992,486.048004,599.263977
562.176025,472.384003,593.408020
575.840027,482.144012,597.312012
571.935974,480.191986,607.072021
571.935974,476.287994,601.216003
554.367981,470.432007,597.312012
562.176025,474.335999,599.263977
556.320007,468.480011,601.216003
568.031982,460.671997,593.408020
558.271973,462.623993,589.504028
564.127991,460.671997,599.263977
571.935974,460.671997,601.216003
560.223999,472.384003,599.263977
558.271973,450.911987,595.359985
560.223999,450.911987,589.504028
550.463989,454.816010,585.599976
558.271973,460.671997,591.455994
556.320007,450.911987,587.552002
554.367981,448.959991,591.455994
550.463989,443.104004,585.599976
552.416016,448.959991,593.408020
554.367981,454.816010,599.263977
556.320007,445.056000,589.504028
550.463989,443.104004,591.455994
556.320007,441.152008,593.408020
546.559998,433.343994,603.168030
552.416016,439.200012,593.408020
548.512024,447.007996,585.599976
542.656006,439.200012,601.216003
556.320007,437.247986,601.216003
546.559998,427.488007,595.359985
550.463989,429.440002,599.263977
548.512024,429.440002,593.408020
550.463989,425.536011,603.168030
544.607971,427.488007,599.263977
542.656006,423.584015,597.312012
546.559998,417.727997,610.976013
542.656006,421.631989,614.880005
548.512024,425.536011,610.976013
540.703979,409.920013,614.880005
546.559998,406.015991,622.687988
540.703979,402.112000,612.927979
552.416016,404.063995,612.927979
544.607971,406.015991,614.880005
546.559998,402.112000,622.687988
540.703979,406.015991,618.783997
544.607971,400.160004,620.736023
540.703979,404.063995,622.687988
544.607971,400.160004,620.736023
538.752014,396.256012,624.640015
536.799988,396.256012,630.495972
544.607971,394.303986,620.736023
540.703979,398.208008,630.495972
542.656006,392.351990,620.736023
546.559998,394.303986,624.640015
548.512024,394.303986,634.400024
534.848022,378.687988,628.544006
536.799988,386.496002,628.544006
532.895996,392.351990,632.447998
546.559998,388.447998,634.400024
538.752014,380.640015,626.591980
538.752014,384.544006,630.495972
544.607971,378.687988,636.351990
542.656006,372.832001,630.495972
546.559998,372.832001,642.208008
550.463989,365.023987,638.304016
544.607971,363.071991,644.159973
556.320007,363.071991,640.255981
552.416016,372.832001,653.919983
550.463989,357.216003,650.015991
556.320007,359.167999,651.968018
554.367981,365.023987,648.064026
558.271973,349.407990,663.679993
556.320007,359.167999,657.823975
554.367981,355.264008,661.728027
562.176025,359.167999,655.872009
560.223999,359.167999,659.776001
560.223999,359.167999,653.919983
550.463989,361.119995,657.823975
562.176025,355.264008,657.823975
562.176025,355.264008,655.872009
571.935974,361.119995,650.015991
568.031982,359.167999,650.015991
569.984009,353.312012,659.776001
575.840027,351.359985,665.632019
583.648010,353.312012,655.872009
571.935974,345.503998,665.632019
575.840027,335.743988,667.583984
577.791992,339.648010,665.632019
579.744019,337.696014,665.632019
579.744019,337.696014,677.343994
579.744019,337.696014,667.583984
591.455994,343.552002,671.487976
587.552002,337.696014,667.583984
591.455994,331.839996,677.343994
591.455994,329.888000,673.440002
595.359985,337.696014,673.440002
587.552002,335.743988,671.487976
583.648010,327.936005,669.536011
581.695984,343.552002,665.632019
595.359985,343.552002,663.679993
591.455994,337.696014,665.632019
597.312012,331.839996,673.440002
595.359985,337.696014,681.247986
593.408020,331.839996,671.487976
595.359985,325.984009,679.296021
595.359985,331.839996,679.296021
593.408020,327.936005,681.247986
603.168030,316.223999,671.487976
591.455994,312.320007,671.487976
601.216003,320.127991,679.296021
599.263977,322.079987,683.200012
595.359985,314.272003,679.296021
589.504028,318.175995,675.392029
591.455994,304.511993,671.487976
595.359985,316.223999,679.296021
597.312012,316.223999,679.296021
597.312012,324.032013,661.728027
597.312012,320.127991,661.728027
595.359985,320.127991,669.536011
603.168030,316.223999,659.776001
589.504028,325.984009,663.679993
599.263977,316.223999,663.679993
589.504028,308.415985,667.583984
599.263977,312.320007,669.536011
595.359985,327.936005,671.487976
597.312012,318.175995,663.679993
599.263977,314.272003,667.583984
597.312012,318.175995,655.872009
599.263977,310.368011,665.632019
595.359985,308.415985,665.632019
599.263977,316.223999,661.728027
599.263977,308.415985,663.679993
601.216003,318.175995,661.728027
603.168030,312.320007,657.823975
605.119995,306.463989,661.728027
601.216003,314.272003,661.728027
599.263977,316.223999,655.872009
599.263977,318.175995,657.823975
603.168030,312.320007,650.015991
593.408020,312.320007,646.112000
595.359985,312.320007,650.015991
593.408020,316.223999,644.159973
597.312012,322.079987,640.255981
597.312012,312.320007,650.015991
603.168030,322.079987,634.400024
607.072021,322.079987,638.304016
599.263977,325.984009,630.495972
599.263977,322.079987,624.640015
603.168030,324.032013,630.495972
599.263977,320.127991,624.640015
605.119995,318.175995,622.687988
601.216003,329.888000,616.831970
612.927979,325.984009,616.831970
601.216003,320.127991,628.544006
607.072021,329.888000,622.687988
603.168030,324.032013,620.736023
607.072021,322.079987,616.831970
609.023987,314.272003,609.023987
605.119995,322.079987,601.216003
614.880005,318.175995,605.119995
616.831970,318.175995,601.216003
612.927979,318.175995,610.976013
616.831970,324.032013,607.072021
622.687988,312.320007,597.312012
618.783997,320.127991,597.312012
626.591980,329.888000,610.976013
620.736023,320.127991,601.216003
622.687988,327.936005,599.263977
624.640015,327.936005,593.408020
630.495972,324.032013,599.263977
630.495972,333.791992,599.263977
640.255981,331.839996,589.504028
640.255981,333.791992,603.168030
640.255981,345.503998,605.119995
650.015991,343.552002,605.119995
646.112000,357.216003,612.927979
653.919983,359.167999,622.687988
651.968018,361.119995,630.495972
653.919983,361.119995,632.447998
659.776001,370.880005,628.544006
661.728027,372.832001,632.447998
657.823975,384.544006,634.400024
665.632019,384.544006,646.112000
665.632019,380.640015,655.872009
675.392029,388.447998,646.112000
679.296021,392.351990,642.208008
681.247986,386.496002,653.919983
685.151978,390.399994,655.872009
683.200012,394.303986,663.679993
683.200012,384.544006,655.872009
687.104004,390.399994,650.015991
692.960022,386.496002,648.064026
694.911987,382.592010,651.968018
700.768005,390.399994,648.064026
708.575989,388.447998,642.208008
704.671997,382.592010,650.015991
700.768005,384.544006,642.208008
702.719971,392.351990,636.351990
708.575989,378.687988,640.255981
712.479980,378.687988,642.208008
718.335999,382.592010,630.495972
720.288025,382.592010,630.495972
728.096008,376.735992,636.351990
722.239990,392.351990,636.351990
730.047974,400.160004,638.304016
732.000000,398.208008,638.304016
732.000000,400.160004,650.015991
720.288025,400.160004,644.159973
735.903992,407.967987,642.208008
733.952026,406.015991,650.015991
745.664001,411.872009,663.679993
747.616028,409.920013,650.015991
745.664001,411.872009,661.728027
753.471985,417.727997,665.632019
747.616028,415.776001,661.728027
751.520020,423.584015,663.679993
747.616028,417.727997,661.728027
741.760010,415.776001,663.679993
749.567993,413.824005,655.872009
755.424011,419.679993,648.064026
747.616028,413.824005,655.872009
751.520020,423.584015,661.728027
743.711975,415.776001,644.159973
745.664001,411.872009,644.159973
747.616028,419.679993,644.159973
747.616028,423.584015,642.208008
741.760010,417.727997,642.208008
741.760010,427.488007,646.112000
745.664001,415.776001,636.351990
739.807983,419.679993,642.208008
739.807983,419.679993,642.208008
739.807983,417.727997,644.159973
739.807983,413.824005,642.208008
737.856018,407.967987,636.351990
737.856018,417.727997,646.112000
739.807983,417.727997,642.208008
737.856018,413.824005,651.968018
743.711975,421.631989,644.159973
739.807983,421.631989,640.255981
730.047974,419.679993,650.015991
741.760010,427.488007,646.112000
733.952026,419.679993,638.304016
733.952026,417.727997,642.208008
732.000000,421.631989,646.112000
735.903992,423.584015,640.255981
724.192017,429.440002,636.351990
733.952026,421.631989,638.304016
737.856018,429.440002,632.447998
728.096008,421.631989,634.400024
735.903992,419.679993,642.208008
733.952026,415.776001,638.304016
728.096008,411.872009,634.400024
733.952026,406.015991,630.495972
735.903992,413.824005,628.544006
735.903992,411.872009,628.544006
735.903992,402.112000,636.351990
739.807983,406.015991,622.687988
735.903992,398.208008,630.495972
743.711975,406.015991,634.400024
735.903992,407.967987,624.640015
739.807983,402.112000,628.544006
735.903992,407.967987,632.447998
737.856018,407.967987,618.783997
741.760010,398.208008,626.591980
732.000000,407.967987,632.447998
743.711975,413.824005,622.687988
743.711975,411.872009,626.591980
741.760010,406.015991,634.400024
755.424011,402.112000,634.400024
741.760010,402.112000,626.591980
751.520020,390.399994,636.351990
747.616028,406.015991,646.112000
749.567993,402.112000,636.351990
743.711975,400.160004,646.112000
747.616028,402.112000,636.351990
751.520020,398.208008,640.255981
749.567993,392.351990,646.112000
747.616028,404.063995,640.255981
751.520020,398.208008,648.064026
747.616028,404.063995,651.968018
753.471985,394.303986,642.208008
747.616028,398.208008,651.968018
753.471985,407.967987,640.255981
753.471985,392.351990,632.447998
751.520020,394.303986,630.495972
747.616028,398.208008,634.400024
737.856018,390.399994,630.495972
747.616028,396.256012,628.544006
745.664001,396.256012,622.687988
743.711975,394.303986,636.351990
745.664001,392.351990,630.495972
751.520020,394.303986,630.495972
741.760010,390.399994,630.495972
737.856018,386.496002,620.736023
747.616028,394.303986,628.544006
759.328003,400.160004,630.495972
749.567993,384.544006,626.591980
743.711975,378.687988,628.544006
745.664001,396.256012,626.591980
749.567993,384.544006,630.495972
747.616028,390.399994,630.495972
743.711975,390.399994,624.640015
747.616028,388.447998,624.640015
753.471985,386.496002,634.400024
757.375977,392.351990,628.544006
761.280029,390.399994,622.687988
757.375977,392.351990,626.591980
749.567993,396.256012,624.640015
757.375977,384.544006,626.591980
763.231995,380.640015,618.783997
761.280029,392.351990,628.544006
757.375977,392.351990,620.736023
759.328003,374.783997,612.927979
767.135986,388.447998,616.831970
763.231995,392.351990,614.880005
757.375977,392.351990,616.831970
771.039978,380.640015,618.783997
774.943970,384.544006,624.640015
767.135986,386.496002,624.640015
769.088013,380.640015,626.591980
767.135986,386.496002,628.544006
767.135986,380.640015,628.544006
774.943970,382.592010,632.447998
772.992004,392.351990,634.400024
769.088013,384.544006,630.495972
776.895996,392.351990,630.495972
767.135986,392.351990,626.591980
778.848022,384.544006,630.495972
778.848022,382.592010,620.736023
774.943970,384.544006,616.831970
772.992004,376.735992,626.591980
772.992004,388.447998,620.736023
765.184021,392.351990,632.447998
763.231995,384.544006,638.304016
765.184021,388.447998,638.304016
778.848022,390.399994,622.687988
772.992004,382.592010,636.351990
774.943970,384.544006,624.640015
778.848022,390.399994,632.447998
772.992004,392.351990,630.495972
774.943970,388.447998,630.495972
778.848022,390.399994,630.495972
765.184021,376.735992,628.544006
771.039978,382.592010,646.112000
778.848022,382.592010,642.208008
769.088013,380.640015,634.400024
771.039978,384.544006,634.400024
774.943970,380.640015,632.447998
776.895996,378.687988,630.495972
769.088013,368.928009,634.400024
778.848022,374.783997,634.400024
784.703979,372.832001,630.495972
780.799988,376.735992,632.447998
778.848022,366.976013,638.304016
786.656006,363.071991,640.255981
784.703979,361.119995,632.447998
782.752014,355.264008,630.495972
790.559998,353.312012,628.544006
788.607971,365.023987,636.351990
790.559998,357.216003,634.400024
792.512024,353.312012,636.351990
794.463989,347.455994,636.351990
790.559998,359.167999,636.351990
794.463989,347.455994,634.400024
788.607971,347.455994,628.544006
790.559998,353.312012,634.400024
792.512024,357.216003,628.544006
790.559998,345.503998,638.304016
788.607971,345.503998,630.495972
788.607971,351.359985,620.736023
788.607971,347.455994,640.255981
786.656006,345.503998,636.351990
788.607971,345.503998,642.208008
784.703979,351.359985,636.351990
790.559998,345.503998,646.112000
784.703979,347.455994,638.304016
786.656006,335.743988,644.159973
786.656006,345.503998,642.208008
788.607971,345.503998,642.208008
784.703979,339.648010,650.015991
794.463989,345.503998,646.112000
794.463989,343.552002,644.159973
788.607971,349.407990,648.064026
788.607971,345.503998,644.159973
790.559998,339.648010,642.208008
782.752014,345.503998,646.112000
794.463989,349.407990,638.304016
790.559998,347.455994,638.304016
786.656006,337.696014,642.208008
786.656006,351.359985,650.015991
782.752014,339.648010,648.064026
786.656006,345.503998,650.015991
794.463989,343.552002,650.015991
788.607971,343.552002,646.112000
784.703979,329.888000,650.015991
780.799988,335.743988,651.968018
780.799988,345.503998,650.015991
782.752014,345.503998,648.064026
784.703979,337.696014,650.015991
786.656006,335.743988,650.015991
794.463989,333.791992,640.255981
782.752014,335.743988,644.159973
786.656006,349.407990,648.064026
782.752014,347.455994,634.400024
784.703979,353.312012,646.112000
784.703979,357.216003,634.400024
790.559998,353.312012,646.112000
782.752014,349.407990,636.351990
776.895996,357.216003,651.968018
782.752014,353.312012,644.159973
780.799988,347.455994,653.919983
778.848022,353.312012,650.015991
772.992004,357.216003,644.159973
780.799988,351.359985,648.064026
782.752014,363.071991,646.112000
784.703979,355.264008,644.159973
780.799988,355.264008,648.064026
778.848022,355.264008,653.919983
778.848022,363.071991,642.208008
771.039978,361.119995,632.447998
774.943970,363.071991,644.159973
772.992004,368.928009,640.255981
776.895996,370.880005,648.064026
786.656006,370.880005,640.255981
769.088013,374.783997,646.112000
765.184021,374.783997,636.351990
776.895996,366.976013,646.112000
771.039978,392.351990,642.208008
765.184021,382.592010,642.208008
772.992004,374.783997,636.351990
774.943970,380.640015,638.304016
771.039978,386.496002,638.304016
771.039978,380.640015,638.304016
774.943970,380.640015,628.544006
765.184021,384.544006,634.400024
765.184021,388.447998,632.447998
765.184021,388.447998,632.447998
761.280029,396.256012,630.495972
759.328003,400.160004,624.640015
759.328003,406.015991,620.736023
749.567993,406.015991,628.544006
751.520020,407.967987,626.591980
753.471985,402.112000,620.736023
749.567993,411.872009,616.831970
751.520020,406.015991,624.640015
741.760010,409.920013,616.831970
743.711975,406.015991,614.880005
741.760010,415.776001,607.072021
735.903992,411.872009,620.736023
735.903992,407.967987,620.736023
732.000000,411.872009,618.783997
730.047974,413.824005,616.831970
732.000000,415.776001,609.023987
726.143982,409.920013,610.976013
718.335999,409.920013,610.976013
726.143982,413.824005,614.880005
726.143982,411.872009,614.880005
720.288025,409.920013,603.168030
714.432007,417.727997,601.216003
712.479980,411.872009,607.072021
720.288025,409.920013,603.168030
702.719971,411.872009,593.408020
720.288025,402.112000,597.312012
710.528015,407.967987,597.312012
712.479980,423.584015,601.216003
702.719971,431.391998,595.359985
706.624023,419.679993,593.408020
710.528015,419.679993,601.216003
708.575989,413.824005,599.263977
704.671997,402.112000,605.119995
700.768005,421.631989,603.168030
704.671997,419.679993,603.168030
708.575989,417.727997,610.976013
700.768005,419.679993,605.119995
691.007996,419.679993,601.216003
691.007996,423.584015,599.263977
694.911987,411.872009,597.312012
691.007996,423.584015,601.216003
689.056030,415.776001,599.263977
683.200012,427.488007,597.312012
681.247986,429.440002,597.312012
683.200012,431.391998,603.168030
681.247986,425.536011,603.168030
679.296021,427.488007,595.359985
681.247986,425.536011,597.312012
683.200012,421.631989,595.359985
671.487976,431.391998,579.744019
667.583984,433.343994,581.695984
677.343994,423.584015,581.695984
667.583984,423.584015,589.504028
669.536011,425.536011,587.552002
673.440002,427.488007,581.695984
669.536011,429.440002,581.695984
673.440002,429.440002,579.744019
673.440002,419.679993,581.695984
669.536011,421.631989,577.791992
671.487976,421.631989,583.648010
663.679993,411.872009,577.791992
669.536011,417.727997,579.744019
663.679993,417.727997,585.599976
661.728027,413.824005,583.648010
665.632019,419.679993,577.791992
663.679993,427.488007,573.888000
667.583984,419.679993,583.648010
663.679993,415.776001,583.648010
665.632019,415.776001,583.648010
673.440002,419.679993,585.599976
673.440002,409.920013,587.552002
661.728027,413.824005,585.599976
663.679993,423.584015,597.312012
665.632019,406.015991,595.359985
673.440002,409.920013,603.168030
675.392029,413.824005,609.023987
671.487976,413.824005,599.263977
675.392029,411.872009,603.168030
669.536011,413.824005,605.119995
683.200012,413.824005,601.216003
673.440002,421.631989,599.263977
677.343994,419.679993,609.023987
679.296021,411.872009,601.216003
679.296021,406.015991,603.168030
673.440002,425.536011,597.312012
667.583984,427.488007,593.408020
665.632019,413.824005,607.072021
671.487976,417.727997,603.168030
677.343994,419.679993,603.168030
669.536011,409.920013,603.168030
659.776001,407.967987,589.504028
665.632019,407.967987,595.359985
671.487976,409.920013,603.168030
671.487976,406.015991,591.455994
663.679993,413.824005,591.455994
671.487976,415.776001,591.455994
669.536011,411.872009,591.455994
659.776001,409.920013,589.504028
665.632019,415.776001,603.168030
661.728027,415.776001,591.455994
663.679993,411.872009,589.504028
661.728027,417.727997,591.455994
655.872009,415.776001,595.359985
655.872009,415.776001,589.504028
655.872009,417.727997,589.504028
655.872009,417.727997,585.599976
650.015991,415.776001,591.455994
663.679993,411.872009,585.599976
659.776001,411.872009,579.744019
653.919983,409.920013,591.455994
648.064026,407.967987,589.504028
648.064026,415.776001,581.695984
648.064026,417.727997,599.263977
650.015991,415.776001,587.552002
644.159973,409.920013,593.408020
648.064026,406.015991,583.648010
642.208008,419.679993,583.648010
653.919983,415.776001,575.840027
644.159973,413.824005,587.552002
657.823975,411.872009,579.744019
655.872009,409.920013,579.744019
648.064026,417.727997,573.888000
648.064026,406.015991,575.840027
646.112000,415.776001,577.791992
648.064026,406.015991,583.648010
646.112000,419.679993,575.840027
651.968018,413.824005,575.840027
642.208008,413.824005,577.791992
640.255981,413.824005,569.984009
650.015991,415.776001,581.695984
646.112000,404.063995,585.599976
646.112000,407.967987,589.504028
657.823975,407.967987,585.599976
648.064026,407.967987,585.599976
650.015991,402.112000,595.359985
644.159973,398.208008,597.312012
657.823975,404.063995,597.312012
648.064026,421.631989,583.648010
655.872009,409.920013,587.552002
661.728027,407.967987,591.455994
651.968018,406.015991,591.455994
665.632019,419.679993,593.408020
650.015991,421.631989,595.359985
657.823975,415.776001,601.216003
630.495972,427.488007,610.976013
648.064026,411.872009,612.927979
640.255981,423.584015,601.216003
657.823975,425.536011,593.408020
657.823975,404.063995,597.312012
650.015991,409.920013,605.119995
657.823975,413.824005,607.072021
653.919983,406.015991,603.168030
657.823975,392.351990,599.263977
650.015991,402.112000,601.216003
646.112000,400.160004,597.312012
640.255981,406.015991,593.408020
646.112000,421.631989,581.695984
640.255981,409.920013,579.744019
640.255981,419.679993,581.695984
630.495972,425.536011,575.840027
634.400024,413.824005,571.935974
636.351990,406.015991,568.031982
642.208008,402.112000,569.984009
628.544006,409.920013,583.648010
644.159973,398.208008,575.840027
632.447998,400.160004,568.031982
632.447998,409.920013,571.935974
636.351990,390.399994,575.840027
646.112000,382.592010,581.695984
644.159973,386.496002,577.791992
642.208008,386.496002,583.648010
651.968018,378.687988,587.552002
642.208008,388.447998,585.599976
642.208008,398.208008,607.072021
651.968018,398.208008,597.312012
648.064026,392.351990,601.216003
650.015991,404.063995,607.072021
651.968018,404.063995,609.023987
650.015991,407.967987,603.168030
655.872009,411.872009,601.216003
653.919983,396.256012,595.359985
657.823975,398.208008,597.312012
657.823975,419.679993,599.263977
648.064026,411.872009,601.216003
653.919983,409.920013,593.408020
655.872009,409.920013,593.408020
655.872009,406.015991,595.359985
648.064026,402.112000,595.359985
653.919983,402.112000,597.312012
648.064026,394.303986,603.168030
661.728027,386.496002,593.408020
661.728027,384.544006,595.359985
663.679993,390.399994,601.216003
657.823975,386.496002,601.216003
659.776001,384.544006,607.072021
667.583984,384.544006,605.119995
659.776001,388.447998,609.023987
663.679993,376.735992,610.976013
657.823975,378.687988,601.216003
659.776001,382.592010,605.119995
655.872009,392.351990,622.687988
655.872009,404.063995,607.072021
650.015991,394.303986,607.072021
661.728027,390.399994,610.976013
669.536011,402.112000,605.119995
655.872009,400.160004,610.976013
655.872009,400.160004,610.976013
659.776001,396.256012,616.831970
657.823975,390.399994,620.736023
655.872009,386.496002,624.640015
661.728027,386.496002,622.687988
661.728027,378.687988,622.687988
655.872009,378.687988,618.783997
659.776001,374.783997,610.976013
651.968018,388.447998,616.831970
661.728027,376.735992,605.119995
651.968018,380.640015,610.976013
648.064026,386.496002,610.976013
648.064026,396.256012,614.880005
657.823975,384.544006,599.263977
653.919983,374.783997,603.168030
646.112000,382.592010,605.119995
646.112000,386.496002,607.072021
651.968018,382.592010,601.216003
642.208008,384.544006,599.263977
644.159973,392.351990,603.168030
644.159973,392.351990,609.023987
636.351990,382.592010,605.119995
642.208008,398.208008,601.216003
651.968018,396.256012,603.168030
638.304016,388.447998,603.168030
640.255981,390.399994,603.168030
636.351990,398.208008,607.072021
638.304016,398.208008,605.119995
634.400024,390.399994,603.168030
642.208008,398.208008,607.072021
650.015991,392.351990,603.168030
636.351990,380.640015,597.312012
636.351990,392.351990,597.312012
636.351990,386.496002,597.312012
636.351990,392.351990,605.119995
642.208008,394.303986,599.263977
638.304016,394.303986,593.408020
638.304016,394.303986,589.504028
628.544006,400.160004,593.408020
638.304016,394.303986,591.455994
634.400024,394.303986,591.455994
646.112000,396.256012,595.359985
640.255981,396.256012,599.263977
632.447998,392.351990,597.312012
640.255981,394.303986,591.455994
644.159973,396.256012,605.119995
657.823975,388.447998,597.312012
657.823975,374.783997,607.072021
644.159973,400.160004,607.072021
651.968018,392.351990,610.976013
651.968018,382.592010,612.927979
650.015991,384.544006,612.927979
659.776001,398.208008,612.927979
644.159973,386.496002,612.927979
659.776001,382.592010,609.023987
653.919983,398.208008,624.640015
665.632019,400.160004,622.687988
657.823975,394.303986,618.783997
661.728027,388.447998,620.736023
659.776001,396.256012,628.544006
667.583984,386.496002,626.591980
659.776001,394.303986,622.687988
661.728027,386.496002,618.783997
673.440002,392.351990,616.831970
667.583984,386.496002,616.831970
665.632019,394.303986,618.783997
675.392029,378.687988,620.736023
677.343994,374.783997,624.640015
667.583984,382.592010,624.640015
671.487976,382.592010,628.544006
663.679993,388.447998,634.400024
675.392029,376.735992,630.495972
663.679993,376.735992,630.495972
675.392029,378.687988,624.640015
669.536011,363.071991,630.495972
669.536011,370.880005,622.687988
675.392029,386.496002,626.591980
681.247986,372.832001,628.544006
679.296021,376.735992,626.591980
675.392029,376.735992,624.640015
677.343994,384.544006,628.544006
667.583984,376.735992,630.495972
667.583984,359.167999,634.400024
667.583984,366.976013,630.495972
687.104004,372.832001,628.544006
685.151978,376.735992,620.736023
679.296021,368.928009,620.736023
675.392029,353.312012,626.591980
689.056030,351.359985,634.400024
681.247986,351.359985,632.447998
677.343994,355.264008,630.495972
685.151978,349.407990,632.447998
683.200012,357.216003,642.208008
683.200012,353.312012,634.400024
683.200012,351.359985,630.495972
679.296021,347.455994,630.495972
677.343994,351.359985,642.208008
679.296021,351.359985,632.447998
681.247986,347.455994,622.687988
683.200012,349.407990,624.640015
689.056030,355.264008,628.544006
689.056030,339.648010,622.687988
689.056030,343.552002,630.495972
683.200012,357.216003,632.447998
687.104004,353.312012,630.495972
683.200012,357.216003,630.495972
683.200012,359.167999,628.544006
683.200012,349.407990,624.640015
683.200012,347.455994,636.351990
683.200012,349.407990,638.304016
689.056030,351.359985,636.351990
685.151978,343.552002,634.400024
691.007996,347.455994,632.447998
689.056030,339.648010,626.591980
692.960022,341.600006,628.544006
681.247986,347.455994,626.591980
692.960022,353.312012,624.640015
700.768005,343.552002,620.736023
689.056030,343.552002,624.640015
681.247986,341.600006,640.255981
692.960022,341.600006,636.351990
683.200012,347.455994,640.255981
691.007996,347.455994,634.400024
694.911987,345.503998,636.351990
685.151978,349.407990,644.159973
692.960022,355.264008,646.112000
696.864014,357.216003,646.112000
691.007996,343.552002,644.159973
687.104004,343.552002,640.255981
694.911987,361.119995,657.823975
696.864014,351.359985,650.015991
694.911987,351.359985,646.112000
694.911987,349.407990,659.776001
698.815979,339.648010,661.728027
698.815979,339.648010,655.872009
687.104004,355.264008,653.919983
689.056030,353.312012,646.112000
692.960022,351.359985,650.015991
694.911987,349.407990,648.064026
689.056030,353.312012,640.255981
689.056030,347.455994,638.304016
689.056030,351.359985,642.208008
677.343994,351.359985,642.208008
673.440002,365.023987,636.351990
677.343994,355.264008,638.304016
667.583984,359.167999,632.447998
675.392029,361.119995,626.591980
669.536011,359.167999,634.400024
669.536011,363.071991,630.495972
665.632019,363.071991,622.687988
663.679993,363.071991,628.544006
667.583984,355.264008,620.736023
667.583984,361.119995,624.640015
667.583984,363.071991,626.591980
661.728027,361.119995,626.591980
659.776001,368.928009,630.495972
651.968018,365.023987,620.736023
657.823975,359.167999,622.687988
655.872009,361.119995,616.831970
657.823975,368.928009,620.736023
657.823975,368.928009,614.880005
655.872009,361.119995,620.736023
665.632019,380.640015,626.591980
663.679993,365.023987,630.495972
657.823975,363.071991,624.640015
655.872009,365.023987,630.495972
665.632019,370.880005,628.544006
659.776001,374.783997,630.495972
663.679993,374.783997,626.591980
659.776001,372.832001,630.495972
661.728027,366.976013,632.447998
655.872009,374.783997,638.304016
673.440002,374.783997,634.400024
673.440002,378.687988,638.304016
665.632019,388.447998,634.400024
675.392029,396.256012,630.495972
667.583984,396.256012,632.447998
669.536011,388.447998,634.400024
665.632019,386.496002,640.255981
673.440002,396.256012,634.400024
663.679993,396.256012,636.351990
675.392029,402.112000,640.255981
665.632019,394.303986,642.208008
675.392029,400.160004,640.255981
677.343994,392.351990,644.159973
675.392029,386.496002,648.064026
675.392029,390.399994,642.208008
675.392029,404.063995,646.112000
681.247986,400.160004,642.208008
673.440002,407.967987,644.159973
669.536011,409.920013,634.400024
677.343994,413.824005,642.208008
677.343994,415.776001,636.351990
677.343994,409.920013,634.400024
671.487976,409.920013,640.255981
667.583984,415.776001,628.544006
677.343994,415.776001,638.304016
675.392029,421.631989,624.640015
671.487976,409.920013,626.591980
673.440002,419.679993,628.544006
675.392029,419.679993,624.640015
669.536011,421.631989,624.640015
665.632019,423.584015,618.783997
665.632019,431.391998,620.736023
669.536011,431.391998,622.687988
661.728027,423.584015,616.831970
659.776001,437.247986,618.783997
665.632019,437.247986,620.736023
673.440002,431.391998,616.831970
659.776001,429.440002,616.831970
667.583984,433.343994,612.927979
661.728027,433.343994,609.023987
653.919983,433.343994,607.072021
661.728027,443.104004,610.976013
661.728027,439.200012,612.927979
655.872009,437.247986,607.072021
661.728027,447.007996,612.927979
650.015991,437.247986,609.023987
653.919983,441.152008,612.927979
650.015991,441.152008,622.687988
659.776001,433.343994,610.976013
653.919983,437.247986,607.072021
657.823975,450.911987,610.976013
650.015991,447.007996,614.880005
651.968018,450.911987,612.927979
663.679993,450.911987,616.831970
663.679993,447.007996,614.880005
661.728027,447.007996,618.783997
655.872009,452.864014,618.783997
661.728027,454.816010,620.736023
657.823975,452.864014,626.591980
655.872009,450.911987,622.687988
657.823975,456.768005,612.927979
655.872009,450.911987,626.591980
659.776001,458.720001,616.831970
657.823975,462.623993,622.687988
651.968018,462.623993,626.591980
644.159973,458.720001,626.591980
648.064026,460.671997,626.591980
653.919983,452.864014,624.640015
653.919983,464.575989,628.544006
653.919983,460.671997,620.736023
653.919983,452.864014,622.687988
655.872009,460.671997,614.880005
651.968018,450.911987,601.216003
644.159973,454.816010,614.880005
653.919983,464.575989,616.831970
648.064026,458.720001,616.831970
650.015991,456.768005,614.880005
648.064026,464.575989,622.687988
648.064026,460.671997,622.687988
651.968018,464.575989,624.640015
657.823975,470.432007,634.400024
651.968018,460.671997,634.400024
661.728027,458.720001,638.304016
655.872009,466.528015,638.304016
657.823975,462.623993,642.208008
659.776001,468.480011,642.208008
663.679993,470.432007,640.255981
651.968018,470.432007,648.064026
659.776001,478.239990,636.351990
653.919983,466.528015,640.255981
653.919983,456.768005,634.400024
653.919983,468.480011,636.351990
653.919983,468.480011,634.400024
642.208008,472.384003,636.351990
648.064026,474.335999,640.255981
640.255981,474.335999,630.495972
638.304016,472.384003,634.400024
632.447998,478.239990,630.495972
630.495972,474.335999,620.736023
634.400024,464.575989,624.640015
634.400024,470.432007,634.400024
620.736023,464.575989,626.591980
628.544006,470.432007,626.591980
620.736023,460.671997,620.736023
609.023987,470.432007,616.831970
614.880005,474.335999,612.927979
607.072021,460.671997,610.976013
601.216003,466.528015,605.119995
607.072021,468.480011,610.976013
610.976013,466.528015,605.119995
610.976013,470.432007,612.927979
603.168030,476.287994,607.072021
593.408020,478.239990,610.976013
595.359985,478.239990,614.880005
601.216003,472.384003,609.023987
597.312012,472.384003,609.023987
595.359985,474.335999,610.976013
589.504028,474.335999,601.216003
591.455994,470.432007,599.263977
593.408020,468.480011,603.168030
591.455994,474.335999,609.023987
589.504028,468.480011,607.072021
591.455994,468.480011,607.072021
591.455994,468.480011,603.168030
593.408020,468.480011,603.168030
589.504028,466.528015,599.263977
581.695984,472.384003,610.976013
587.552002,462.623993,605.119995
591.455994,470.432007,616.831970
589.504028,468.480011,609.023987
595.359985,468.480011,607.072021
597.312012,462.623993,612.927979
599.263977,468.480011,607.072021
599.263977,468.480011,610.976013
595.359985,468.480011,607.072021
589.504028,474.335999,609.023987
601.216003,470.432007,610.976013
597.312012,462.623993,616.831970
607.072021,470.432007,612.927979
603.168030,464.575989,622.687988
595.359985,464.575989,622.687988
603.168030,462.623993,622.687988
601.216003,462.623993,638.304016
601.216003,458.720001,632.447998
597.312012,468.480011,620.736023
605.119995,460.671997,620.736023
609.023987,462.623993,630.495972
607.072021,454.816010,628.544006
612.927979,460.671997,626.591980
610.976013,452.864014,620.736023
614.880005,458.720001,620.736023
612.927979,478.239990,622.687988
609.023987,452.864014,614.880005
616.831970,464.575989,628.544006
612.927979,460.671997,634.400024
612.927979,445.056000,616.831970
607.072021,445.056000,620.736023
601.216003,448.959991,626.591980
618.783997,456.768005,628.544006
618.783997,452.864014,630.495972
616.831970,448.959991,630.495972
618.783997,448.959991,632.447998
618.783997,447.007996,624.640015
610.976013,447.007996,624.640015
612.927979,443.104004,624.640015
612.927979,433.343994,630.495972
614.880005,439.200012,620.736023
614.880005,433.343994,622.687988
618.783997,441.152008,624.640015
622.687988,439.200012,630.495972
624.640015,431.391998,634.400024
616.831970,431.391998,628.544006
618.783997,433.343994,632.447998
624.640015,431.391998,638.304016
622.687988,425.536011,628.544006
628.544006,419.679993,632.447998
626.591980,423.584015,632.447998
612.927979,421.631989,622.687988
632.447998,433.343994,642.208008
630.495972,429.440002,632.447998
620.736023,423.584015,630.495972
628.544006,421.631989,628.544006
620.736023,413.824005,630.495972
624.640015,415.776001,618.783997
628.544006,419.679993,626.591980
616.831970,419.679993,618.783997
632.447998,423.584015,626.591980
628.544006,423.584015,624.640015
630.495972,427.488007,618.783997
626.591980,427.488007,622.687988
626.591980,427.488007,626.591980
622.687988,431.391998,614.880005
620.736023,433.343994,616.831970
620.736023,431.391998,616.831970
620.736023,431.391998,614.880005
628.544006,429.440002,618.783997
634.400024,437.247986,612.927979
638.304016,437.247986,622.687988
636.351990,427.488007,618.783997
646.112000,431.391998,622.687988
640.255981,425.536011,612.927979
630.495972,433.343994,612.927979
632.447998,435.295990,612.927979
640.255981,425.536011,618.783997
638.304016,429.440002,626.591980
642.208008,423.584015,620.736023
644.159973,431.391998,628.544006
646.112000,421.631989,622.687988
644.159973,433.343994,632.447998
648.064026,429.440002,626.591980
648.064026,421.631989,620.736023
648.064026,433.343994,624.640015
648.064026,433.343994,628.544006
650.015991,439.200012,624.640015
650.015991,421.631989,624.640015
644.159973,433.343994,612.927979
651.968018,433.343994,620.736023
657.823975,429.440002,624.640015
646.112000,433.343994,628.544006
657.823975,441.152008,626.591980
651.968018,429.440002,634.400024
655.872009,433.343994,638.304016
657.823975,435.295990,634.400024
657.823975,431.391998,632.447998
661.728027,429.440002,632.447998
663.679993,427.488007,636.351990
671.487976,417.727997,636.351990
661.728027,429.440002,636.351990
667.583984,423.584015,630.495972
657.823975,417.727997,640.255981
661.728027,431.391998,638.304016
655.872009,425.536011,634.400024
663.679993,419.679993,632.447998
665.632019,417.727997,634.400024
661.728027,423.584015,636.351990
665.632019,417.727997,630.495972
671.487976,409.920013,634.400024
665.632019,419.679993,634.400024
665.632019,415.776001,634.400024
665.632019,419.679993,636.351990
667.583984,417.727997,634.400024
665.632019,419.679993,640.255981
667.583984,419.679993,638.304016
669.536011,423.584015,620.736023
667.583984,417.727997,634.400024
659.776001,415.776001,634.400024
659.776001,421.631989,640.255981
665.632019,419.679993,640.255981
667.583984,407.967987,636.351990
655.872009,411.872009,638.304016
659.776001,411.872009,636.351990
665.632019,417.727997,644.159973
663.679993,407.967987,632.447998
663.679993,411.872009,628.544006
665.632019,419.679993,634.400024
661.728027,398.208008,632.447998
661.728027,396.256012,632.447998
661.728027,394.303986,628.544006
665.632019,388.447998,634.400024
665.632019,390.399994,634.400024
663.679993,388.447998,634.400024
673.440002,386.496002,642.208008
665.632019,390.399994,640.255981
669.536011,388.447998,636.351990
671.487976,378.687988,646.112000
671.487976,386.496002,642.208008
671.487976,382.592010,640.255981
681.247986,376.735992,650.015991
681.247986,372.832001,648.064026
671.487976,374.783997,650.015991
675.392029,372.832001,646.112000
677.343994,368.928009,648.064026
679.296021,366.976013,648.064026
677.343994,366.976013,650.015991
685.151978,368.928009,659.776001
687.104004,372.832001,651.968018
677.343994,359.167999,648.064026
675.392029,365.023987,651.968018
671.487976,365.023987,653.919983
681.247986,359.167999,650.015991
683.200012,365.023987,653.919983
675.392029,351.359985,651.968018
677.343994,355.264008,653.919983
681.247986,347.455994,655.872009
673.440002,361.119995,651.968018
679.296021,339.648010,651.968018
673.440002,337.696014,659.776001
675.392029,331.839996,657.823975
675.392029,337.696014,650.015991
685.151978,333.791992,657.823975
683.200012,322.079987,661.728027
685.151978,335.743988,669.536011
681.247986,327.936005,651.968018
683.200012,329.888000,663.679993
681.247986,327.936005,653.919983
681.247986,327.936005,650.015991
683.200012,322.079987,663.679993
681.247986,325.984009,657.823975
683.200012,324.032013,655.872009
681.247986,320.127991,661.728027
679.296021,324.032013,669.536011
683.200012,318.175995,663.679993
685.151978,308.415985,667.583984
685.151978,318.175995,661.728027
687.104004,312.320007,665.632019
685.151978,316.223999,661.728027
685.151978,306.463989,667.583984
683.200012,310.368011,667.583984
685.151978,304.511993,655.872009
685.151978,302.559998,665.632019
681.247986,300.608002,669.536011
681.247986,300.608002,659.776001
689.056030,292.799988,663.679993
683.200012,288.895996,655.872009
681.247986,279.135986,659.776001
692.960022,281.088013,665.632019
677.343994,277.183990,659.776001
685.151978,279.135986,659.776001
692.960022,283.040009,661.728027
683.200012,275.231995,653.919983
687.104004,284.992004,663.679993
687.104004,277.183990,663.679993
687.104004,275.231995,665.632019
685.151978,279.135986,663.679993
683.200012,275.231995,659.776001
692.960022,267.424011,661.728027
689.056030,261.567993,655.872009
689.056030,261.567993,661.728027
691.007996,263.519989,659.776001
689.056030,271.328003,665.632019
691.007996,263.519989,665.632019
689.056030,265.471985,659.776001
685.151978,265.471985,653.919983
685.151978,265.471985,650.015991
685.151978,265.471985,655.872009
687.104004,267.424011,648.064026
679.296021,263.519989,655.872009
687.104004,273.279999,651.968018
689.056030,271.328003,653.919983
691.007996,271.328003,657.823975
691.007996,273.279999,651.968018
696.864014,263.519989,646.112000
681.247986,263.519989,653.919983
692.960022,261.567993,653.919983
692.960022,253.759995,653.919983
691.007996,251.807999,644.159973
692.960022,269.376007,653.919983
687.104004,253.759995,650.015991
687.104004,253.759995,642.208008
683.200012,259.615997,642.208008
683.200012,251.807999,651.968018
689.056030,245.951996,644.159973
687.104004,249.856003,640.255981
679.296021,242.048004,651.968018
687.104004,242.048004,646.112000
691.007996,245.951996,651.968018
694.911987,253.759995,648.064026
692.960022,249.856003,653.919983
692.960022,255.712006,648.064026
691.007996,238.143997,644.159973
683.200012,245.951996,648.064026
689.056030,245.951996,648.064026
687.104004,242.048004,644.159973
689.056030,242.048004,648.064026
679.296021,244.000000,653.919983
685.151978,244.000000,648.064026
681.247986,234.240005,644.159973
685.151978,234.240005,650.015991
685.151978,226.432007,653.919983
679.296021,234.240005,648.064026
689.056030,230.335999,642.208008
675.392029,234.240005,651.968018
683.200012,230.335999,644.159973
683.200012,240.095993,646.112000
689.056030,236.192001,638.304016
681.247986,236.192001,634.400024
685.151978,238.143997,634.400024
677.343994,222.528000,638.304016
683.200012,234.240005,628.544006
677.343994,240.095993,628.544006
691.007996,236.192001,620.736023
692.960022,230.335999,624.640015
691.007996,240.095993,624.640015
683.200012,240.095993,616.831970
685.151978,230.335999,618.783997
685.151978,234.240005,612.927979
689.056030,236.192001,605.119995
683.200012,238.143997,605.119995
685.151978,238.143997,603.168030
685.151978,244.000000,603.168030
683.200012,244.000000,609.023987
681.247986,247.904007,607.072021
683.200012,242.048004,595.359985
669.536011,245.951996,593.408020
677.343994,242.048004,597.312012
679.296021,249.856003,585.599976
675.392029,259.615997,587.552002
675.392029,259.615997,585.599976
667.583984,249.856003,577.791992
675.392029,247.904007,579.744019
673.440002,257.664001,591.455994
685.151978,255.712006,583.648010
681.247986,249.856003,575.840027
681.247986,245.951996,571.935974
671.487976,253.759995,566.080017
675.392029,261.567993,568.031982
685.151978,271.328003,566.080017
679.296021,265.471985,564.127991
685.151978,259.615997,552.416016
665.632019,277.183990,550.463989
679.296021,273.279999,554.367981
673.440002,269.376007,546.559998
669.536011,281.088013,550.463989
665.632019,279.135986,550.463989
673.440002,281.088013,546.559998
677.343994,277.183990,542.656006
673.440002,281.088013,540.703979
681.247986,279.135986,532.895996
677.343994,273.279999,534.848022
677.343994,281.088013,536.799988
673.440002,275.231995,528.992004
679.296021,283.040009,523.135986
681.247986,283.040009,525.088013
689.056030,281.088013,519.231995
683.200012,283.040009,515.328003
689.056030,286.944000,513.375977
700.768005,279.135986,525.088013
694.911987,273.279999,517.280029
698.815979,283.040009,519.231995
700.768005,281.088013,515.328003
689.056030,277.183990,521.184021
691.007996,281.088013,525.088013
691.007996,279.135986,525.088013
704.671997,267.424011,523.135986
696.864014,286.944000,527.039978
700.768005,279.135986,523.135986
692.960022,275.231995,515.328003
700.768005,284.992004,513.375977
708.575989,284.992004,509.471985
708.575989,283.040009,515.328003
706.624023,290.847992,507.519989
712.479980,298.656006,505.567993
708.575989,304.511993,503.615997
704.671997,320.127991,499.712006
714.432007,306.463989,495.808014
704.671997,304.511993,486.048004
702.719971,331.839996,493.855988
698.815979,329.888000,493.855988
698.815979,308.415985,493.855988
698.815979,308.415985,488.000000
702.719971,329.888000,488.000000
712.479980,312.320007,491.903992
716.383972,296.704010,497.760010
712.479980,296.704010,495.808014
720.288025,306.463989,501.664001
718.335999,284.992004,497.760010
720.288025,290.847992,501.664001
710.528015,286.944000,499.712006
714.432007,294.752014,505.567993
720.288025,300.608002,499.712006
726.143982,290.847992,497.760010
733.952026,281.088013,495.808014
730.047974,298.656006,495.808014
732.000000,294.752014,488.000000
745.664001,290.847992,493.855988
732.000000,281.088013,491.903992
749.567993,284.992004,488.000000
745.664001,284.992004,488.000000
741.760010,290.847992,488.000000
751.520020,294.752014,495.808014
745.664001,294.752014,501.664001
767.135986,292.799988,499.712006
765.184021,296.704010,503.615997
771.039978,298.656006,511.424011
776.895996,292.799988,515.328003
771.039978,292.799988,521.184021
774.943970,292.799988,530.943970
780.799988,298.656006,534.848022
780.799988,298.656006,538.752014
792.512024,290.847992,544.607971
788.607971,300.608002,550.463989
798.367981,312.320007,552.416016
792.512024,314.272003,558.271973
796.416016,312.320007,558.271973
802.271973,320.127991,568.031982
802.271973,333.791992,554.367981
790.559998,329.888000,554.367981
792.512024,337.696014,552.416016
798.367981,351.359985,552.416016
786.656006,365.023987,538.752014
782.752014,347.455994,532.895996
772.992004,361.119995,530.943970
772.992004,365.023987,527.039978
763.231995,363.071991,519.231995
757.375977,365.023987,509.471985
749.567993,359.167999,505.567993
757.375977,349.407990,491.903992
759.328003,343.552002,488.000000
755.424011,341.600006,489.951996
751.520020,337.696014,480.191986
751.520020,347.455994,478.239990
741.760010,345.503998,470.432007
737.856018,333.791992,462.623993
730.047974,337.696014,460.671997
716.383972,357.216003,448.959991
716.383972,353.312012,433.343994
704.671997,353.312012,443.104004
720.288025,351.359985,447.007996
704.671997,347.455994,437.247986
708.575989,349.407990,437.247986
712.479980,357.216003,437.247986
716.383972,339.648010,441.152008
714.432007,329.888000,452.864014
710.528015,331.839996,445.056000
716.383972,339.648010,447.007996
716.383972,335.743988,447.007996
710.528015,331.839996,445.056000
702.719971,331.839996,443.104004
692.960022,349.407990,433.343994
691.007996,343.552002,431.391998
683.200012,345.503998,437.247986
675.392029,347.455994,437.247986
683.200012,349.407990,435.295990
675.392029,357.216003,431.391998
667.583984,355.264008,421.631989
675.392029,347.455994,413.824005
671.487976,349.407990,421.631989
663.679993,353.312012,415.776001
663.679993,365.023987,417.727997
673.440002,349.407990,413.824005
663.679993,361.119995,409.920013
653.919983,365.023987,406.015991
651.968018,353.312012,402.112000
644.159973,363.071991,398.208008
648.064026,366.976013,402.112000
650.015991,368.928009,388.447998
648.064026,361.119995,382.592010
651.968018,372.832001,378.687988
653.919983,365.023987,378.687988
648.064026,359.167999,374.783997
657.823975,370.880005,376.735992
653.919983,351.359985,368.928009
651.968018,357.216003,363.071991
653.919983,349.407990,370.880005
648.064026,361.119995,363.071991
648.064026,365.023987,372.832001
651.968018,359.167999,368.928009
651.968018,349.407990,361.119995
655.872009,345.503998,359.167999
644.159973,345.503998,363.071991
640.255981,331.839996,366.976013
644.159973,335.743988,365.023987
642.208008,324.032013,366.976013
651.968018,316.223999,361.119995
657.823975,304.511993,368.928009
663.679993,310.368011,361.119995
663.679993,302.559998,357.216003
663.679993,302.559998,361.119995
669.536011,284.992004,365.023987
667.583984,281.088013,366.976013
665.632019,279.135986,372.832001
673.440002,269.376007,368.928009
675.392029,271.328003,368.928009
669.536011,261.567993,366.976013
665.632019,249.856003,372.832001
673.440002,257.664001,372.832001
685.151978,244.000000,365.023987
692.960022,240.095993,368.928009
685.151978,244.000000,361.119995
685.151978,238.143997,370.880005
683.200012,236.192001,359.167999
694.911987,236.192001,333.791992
691.007996,244.000000,310.368011
694.911987,238.143997,308.415985
696.864014,253.759995,294.752014
704.671997,245.951996,269.376007
710.528015,257.664001,236.192001
694.911987,245.951996,224.479996
706.624023,236.192001,220.576004
698.815979,236.192001,216.671997
698.815979,218.623993,197.151993
728.096008,218.623993,185.440002
735.903992,195.199997,175.679993
714.432007,175.679993,167.871994
745.664001,154.207993,179.584000
776.895996,142.496002,197.151993
812.031982,115.167999,199.104004
806.176025,95.648003,220.576004
827.648010,68.320000,234.240005
841.312012,81.984001,216.671997
849.119995,148.352005,187.391998
853.023987,222.528000,185.440002
843.263977,226.432007,179.584000
853.023987,187.391998,179.584000
845.216003,212.768005,179.584000
815.935974,247.904007,185.440002
796.416016,247.904007,187.391998
817.888000,341.600006,160.063995
823.744019,386.496002,138.591995
835.455994,339.648010,93.695999
847.168030,327.936005,80.031998
849.119995,398.208008,64.416000
849.119995,448.959991,56.608002
853.023987,443.104004,52.703999
872.544006,439.200012,54.655998
880.351990,474.335999,68.320000
876.447998,488.000000,60.512001
899.872009,466.528015,40.992001
888.159973,474.335999,37.088001
907.679993,505.567993,27.327999
907.679993,523.135986,31.232000
899.872009,525.088013,46.848000
899.872009,515.328003,44.896000
915.487976,462.623993,40.992001
954.528015,429.440002,70.272003
962.335999,404.063995,70.272003
977.952026,382.592010,72.223999
962.335999,427.488007,78.080002
966.239990,527.039978,95.648003
944.768005,575.840027,111.264000
938.911987,603.168030,115.167999
929.151978,642.208008,130.783997
940.864014,673.440002,162.016006
958.432007,564.127991,173.727997
985.760010,443.104004,175.679993
1005.280029,388.447998,193.248001
987.711975,456.768005,191.296005
974.047974,706.624023,204.960007
999.424011,800.320007,230.335999
1001.375977,568.031982,244.000000
1020.895996,374.783997,267.424011
1063.839966,396.256012,286.944000
1050.176025,540.703979,300.608002
1063.839966,659.776001,300.608002
1059.936035,644.159973,281.088013
1052.128052,540.703979,308.415985
1093.119995,493.855988,349.407990
1073.599976,509.471985,374.783997
1095.072021,573.888000,406.015991
1114.592041,581.695984,433.343994
730.047974,60.512001,495.808014
870.591980,31.232000,620.736023
1132.160034,236.192001,677.343994
1138.015991,1.952000,696.864014
1011.135986,-450.911987,681.247986
1069.696045,-236.192001,655.872009
1216.095947,44.896000,650.015991
1015.039978,-5.856000,663.679993
1104.832031,-78.080002,667.583984
1138.015991,-140.544006,650.015991
1255.135986,-78.080002,640.255981
1220.000000,-93.695999,655.872009
1221.952026,-121.024002,657.823975
1259.040039,-109.311996,653.919983
1286.368042,-3.904000,648.064026
1282.463989,68.320000,677.343994
1251.232056,109.311996,714.432007
1198.527954,167.871994,753.471985
1378.112061,365.023987,837.408020
1594.784058,704.671997,901.823975
1610.400024,726.143982,956.479980
1473.760010,585.599976,983.807983
1469.855957,747.616028,989.664001
1335.167969,874.495972,995.520020
1260.991943,720.288025,979.903992
1223.904053,644.159973,983.807983
1196.576050,659.776001,1001.375977
1151.680054,488.000000,1042.368042
1225.855957,478.239990,1069.696045
1233.663940,566.080017,1085.312012
1241.472046,530.943970,1102.880005
1253.183960,388.447998,1100.927979
1251.232056,382.592010,1089.215942
1243.423950,464.575989,1071.647949
1245.375977,417.727997,1044.319946
1241.472046,374.783997,1009.184021
1255.135986,345.503998,972.096008
1264.895996,361.119995,933.056030
1260.991943,355.264008,899.872009
1268.800049,357.216003,870.591980
1255.135986,366.976013,849.119995
1249.280029,376.735992,817.888000
1239.520020,357.216003,780.799988
1210.239990,349.407990,749.567993
1134.112061,351.359985,751.520020
1059.936035,482.144012,936.960022
1065.791992,255.712006,1110.687988
985.760010,81.984001,970.143982
1210.239990,478.239990,733.952026
1231.712036,667.583984,568.031982
1260.991943,433.343994,525.088013
1179.008057,378.687988,577.791992
1106.784058,290.847992,634.400024
1071.647949,189.343994,568.031982
1073.599976,257.664001,448.959991
1097.024048,226.432007,337.696014
1116.543945,128.832001,275.231995
1073.599976,251.807999,286.944000
1007.231995,312.320007,300.608002
974.047974,204.960007,292.799988
979.903992,271.328003,257.664001
979.903992,423.584015,226.432007
948.671997,374.783997,236.192001
938.911987,331.839996,259.615997
923.296021,417.727997,253.759995
921.343994,464.575989,226.432007
948.671997,392.351990,218.623993
948.671997,368.928009,220.576004
938.911987,435.295990,228.384003
929.151978,445.056000,242.048004
923.296021,394.303986,247.904007
907.679993,374.783997,247.904007
890.112000,409.920013,242.048004
882.304016,386.496002,214.720001
853.023987,390.399994,193.248001
837.408020,390.399994,158.112000
845.216003,353.312012,124.928001
831.552002,345.503998,95.648003
813.984009,359.167999,66.367996
804.223999,347.455994,64.416000
808.127991,353.312012,54.655998
780.799988,366.976013,68.320000
763.231995,374.783997,68.320000
769.088013,384.544006,74.176003
761.280029,398.208008,64.416000
753.471985,398.208008,64.416000
771.039978,398.208008,58.560001
790.559998,406.015991,56.608002
786.656006,415.776001,48.799999
808.127991,427.488007,42.944000
829.599976,445.056000,44.896000
798.367981,480.191986,62.464001
802.271973,474.335999,62.464001
788.607971,486.048004,52.703999
780.799988,499.712006,40.992001
778.848022,538.752014,5.856000
782.752014,577.791992,-21.472000
757.375977,601.216003,-42.944000
739.807983,605.119995,-62.464001
741.760010,609.023987,-76.127998
743.711975,595.359985,-91.744003
767.135986,540.703979,-105.407997
769.088013,558.271973,-111.264000
745.664001,595.359985,-126.879997
747.616028,630.495972,-130.783997
694.911987,638.304016,-119.071999
677.343994,222.528000,-117.120003
767.135986,-458.720001,-130.783997
751.520020,-897.919983,-122.975998
722.239990,-817.888000,-144.447998
689.056030,-261.567993,-175.679993
696.864014,505.567993,-199.104004
663.679993,1073.599976,-208.863998
663.679993,1339.072021,-228.384003
657.823975,1323.456055,-253.759995
691.007996,993.567993,-275.231995
706.624023,523.135986,-312.320007
722.239990,42.944000,-365.023987
765.184021,-1038.463989,-347.455994
732.000000,-1657.248047,-242.048004
681.247986,-894.015991,-171.776001
671.487976,390.399994,-105.407997
700.768005,1206.336060,-66.367996
815.935974,1520.608032,-50.751999
911.583984,1077.504028,286.944000
1704.095947,-1192.671997,2223.327881
2596.159912,-3466.751953,4405.664062
2812.832031,-3593.632080,4694.560059
2482.944092,-2623.488037,3400.384033
1985.183960,-2088.639893,1969.567993
1805.599976,-1809.504028,1075.552002
1588.927979,-1540.128052,558.271973
1214.144043,-1216.095947,183.488007
780.799988,-515.328003,-228.384003
505.567993,345.503998,-724.192017
501.664001,1415.199951,-1071.647949
525.088013,2629.343994,-1087.264038
712.479980,3943.040039,-698.815979
1034.560059,4157.759766,-91.744003
1050.176025,3164.191895,421.631989
1054.079956,2090.592041,406.015991
1108.735962,1315.647949,242.048004
1223.904053,804.223999,304.511993
1344.927979,292.799988,493.855988
1462.047974,-91.744003,704.671997
1516.703979,-363.071991,874.495972
1503.040039,-470.432007,831.552002
1424.959961,-302.559998,646.112000
1329.312012,17.568001,406.015991
1173.151978,259.615997,130.783997
1018.943970,396.256012,-58.560001
911.583984,507.519989,-199.104004
851.072021,681.247986,-310.368011
892.064026,843.263977,-308.415985
968.192017,979.903992,-165.919998
1063.839966,1013.088013,31.232000
1118.495972,905.728027,236.192001
1188.767944,737.856018,333.791992
1221.952026,622.687988,310.368011
1229.760010,464.575989,261.567993
1180.959961,320.127991,191.296005
1114.592041,261.567993,124.928001
1063.839966,228.384003,80.031998
1011.135986,290.847992,-7.808000
970.143982,396.256012,-80.031998
946.719971,310.368011,-119.071999
890.112000,97.599998,-113.216003
847.168030,-54.655998,-87.839996
854.976013,-187.391998,-74.176003
890.112000,-273.279999,-56.608002
931.104004,-292.799988,-39.040001
950.624023,-306.463989,-33.183998
956.479980,-308.415985,-23.424000
960.383972,-257.664001,-19.520000
964.288025,-152.255997,-1.952000
964.288025,-39.040001,25.375999
958.432007,44.896000,37.088001
948.671997,201.056000,39.040001
958.432007,415.776001,35.136002
950.624023,585.599976,11.712000
933.056030,698.815979,-19.520000
938.911987,882.304016,-13.664000
950.624023,1177.056030,27.327999
942.815979,1276.608032,66.367996
952.575989,1200.479980,105.407997
970.143982,1032.608032,105.407997
970.143982,823.744019,81.984001
942.815979,679.296021,15.616000
927.200012,638.304016,-54.655998
878.400024,667.583984,-124.928001
872.544006,605.119995,-97.599998
751.520020,394.303986,76.127998
1052.128052,-249.856003,571.935974
1339.072021,-1239.520020,1321.504028
1590.880005,-2121.823975,1897.343994
1737.280029,-3123.199951,1936.384033
1526.463989,-2943.615967,1350.784058
1192.671997,-1653.343994,376.735992
936.960022,-657.823975,-599.263977
730.047974,-148.352005,-1104.832031
644.159973,402.112000,-1288.319946
609.023987,999.424011,-1206.336060
605.119995,1434.719971,-788.607971
730.047974,1840.735962,-435.295990
851.072021,2065.216064,-277.183990
972.096008,1774.368042,93.695999
1077.504028,1114.592041,489.951996
1104.832031,558.271973,700.768005
1128.255981,310.368011,691.007996
1093.119995,523.135986,382.592010
1048.223999,901.823975,66.367996
1040.416016,950.624023,15.616000
1007.231995,605.119995,52.703999
1011.135986,-35.136002,240.095993
1110.687988,-597.312012,499.712006
1151.680054,-743.711975,599.263977
1149.728027,-603.168030,618.783997
1100.927979,-296.704010,527.039978
1042.368042,175.679993,271.328003
979.903992,716.383972,44.896000
976.000000,993.567993,-17.568001
940.864014,1005.280029,19.520000
946.719971,913.536011,76.127998
985.760010,815.935974,50.751999
977.952026,718.335999,-44.896000
954.528015,532.895996,-40.992001
956.479980,236.192001,52.703999
958.432007,-117.120003,124.928001
938.911987,-575.840027,193.248001
907.679993,-866.687988,150.304001
868.640015,-927.200012,87.839996
895.968018,-827.648010,99.552002
942.815979,-587.552002,119.071999
948.671997,-253.759995,121.024002
952.575989,91.744003,121.024002
958.432007,388.447998,107.360001
972.096008,544.607971,140.544006
960.383972,626.591980,179.584000
960.383972,667.583984,240.095993
987.711975,687.104004,288.895996
1016.992004,669.536011,283.040009
1032.608032,646.112000,245.951996
1016.992004,632.447998,218.623993
1026.751953,620.736023,210.815994
995.520020,735.903992,199.104004
995.520020,730.047974,216.671997
892.064026,610.976013,245.951996
862.783997,464.575989,234.240005
874.495972,290.847992,244.000000
913.536011,-64.416000,304.511993
905.728027,-322.079987,339.648010
894.015991,-370.880005,263.519989
897.919983,-304.511993,115.167999
876.447998,-247.904007,3.904000
866.687988,-238.143997,-40.992001
878.400024,-296.704010,-42.944000
872.544006,-368.928009,0.000000
825.695984,-484.096008,64.416000
802.271973,-484.096008,97.599998
786.656006,-331.839996,109.311996
833.504028,-95.648003,107.360001
878.400024,117.120003,132.735992
925.247986,216.671997,179.584000
970.143982,257.664001,253.759995
1016.992004,271.328003,286.944000
1034.560059,251.807999,294.752014
1036.511963,242.048004,300.608002
1028.703979,300.608002,271.328003
1013.088013,398.208008,230.335999
1013.088013,425.536011,201.056000
1015.039978,433.343994,185.440002
1007.231995,384.544006,201.056000
1001.375977,312.320007,199.104004
1005.280029,275.231995,206.912003
1009.184021,275.231995,214.720001
1015.039978,304.511993,210.815994
1018.943970,302.559998,195.199997
1040.416016,302.559998,201.056000
1044.319946,302.559998,193.248001
1073.599976,310.368011,191.296005
1079.456055,359.167999,197.151993
1079.456055,417.727997,197.151993
1085.312012,505.567993,199.104004
1085.312012,542.656006,185.440002
1071.647949,519.231995,175.679993
1069.696045,468.480011,156.160004
1046.271973,398.208008,124.928001
1038.463989,335.743988,81.984001
1030.656006,273.279999,60.512001
1011.135986,201.056000,46.848000
999.424011,91.744003,50.751999
995.520020,-11.712000,40.992001
977.952026,-72.223999,37.088001
987.711975,-80.031998,9.760000
983.807983,-39.040001,-15.616000
958.432007,-5.856000,-23.424000
954.528015,33.183998,-21.472000
936.960022,64.416000,-42.944000
944.768005,62.464001,-66.367996
936.960022,35.136002,-62.464001
933.056030,35.136002,-58.560001
944.768005,44.896000,-39.040001
956.479980,76.127998,-21.472000
956.479980,91.744003,-13.664000
974.047974,81.984001,-15.616000
964.288025,99.552002,-15.616000
958.432007,81.984001,-15.616000
940.864014,72.223999,-15.616000
940.864014,91.744003,-15.616000
938.911987,93.695999,-25.375999
946.719971,103.456001,-46.848000
954.528015,130.783997,-44.896000
948.671997,130.783997,-46.848000
946.719971,111.264000,-39.040001
929.151978,142.496002,-33.183998
950.624023,146.399994,-42.944000
962.335999,156.160004,-21.472000
970.143982,173.727997,-27.327999
979.903992,197.151993,-15.616000
991.616028,230.335999,1.952000
1007.231995,263.519989,3.904000
1009.184021,247.904007,3.904000
1009.184021,228.384003,15.616000
1007.231995,220.576004,11.712000
1016.992004,185.440002,5.856000
1001.375977,111.264000,1.952000
997.471985,83.935997,-13.664000
1001.375977,60.512001,-15.616000
1026.751953,60.512001,-25.375999
1059.936035,81.984001,-23.424000
1089.215942,99.552002,-15.616000
1124.352051,105.407997,-3.904000
1163.391968,142.496002,25.375999
1194.624023,212.768005,31.232000
1204.384033,288.895996,58.560001
1202.432007,368.928009,80.031998
1212.192017,415.776001,85.888000
1200.479980,437.247986,78.080002
1190.719971,413.824005,78.080002
1182.911987,388.447998,56.608002
1177.056030,333.791992,50.751999
1179.008057,257.664001,52.703999
1173.151978,218.623993,68.320000
1180.959961,199.104004,74.176003
1179.008057,191.296005,78.080002
1182.911987,163.968002,68.320000
1173.151978,187.391998,44.896000
1161.439941,222.528000,37.088001
1173.151978,251.807999,13.664000
1169.248047,245.951996,25.375999
1184.864014,259.615997,31.232000
1182.911987,261.567993,46.848000
1182.911987,245.951996,64.416000
1184.864014,245.951996,72.223999
1184.864014,230.335999,78.080002
1180.959961,204.960007,83.935997
1180.959961,187.391998,60.512001
1161.439941,181.535995,37.088001
1139.968018,165.919998,0.000000
1126.303955,142.496002,-11.712000
1106.784058,146.399994,-29.280001
1097.024048,165.919998,-46.848000
1104.832031,261.567993,-50.751999
1110.687988,464.575989,-39.040001
1097.024048,290.847992,-15.616000
1098.975952,150.304001,-25.375999
1106.784058,158.112000,-74.176003
1100.927979,185.440002,-83.935997
1098.975952,226.432007,-83.935997
1085.312012,234.240005,-101.503998
1069.696045,181.535995,-107.360001
1077.504028,203.007996,-121.024002
1059.936035,177.632004,-134.688004
1059.936035,140.544006,-124.928001
1050.176025,158.112000,-115.167999
1036.511963,136.639999,-117.120003
1040.416016,140.544006,-117.120003
1032.608032,85.888000,-99.552002
1009.184021,60.512001,-103.456001
976.000000,1.952000,-122.975998
952.575989,-39.040001,-105.407997
911.583984,-64.416000,-107.360001
870.591980,-126.879997,-85.888000
860.831970,-89.792000,-85.888000
880.351990,109.311996,-121.024002
1260.991943,534.848022,-261.567993
1473.760010,743.711975,-374.783997
1547.936035,368.928009,-372.832001
1393.728027,234.240005,-163.968002
1321.504028,462.623993,23.424000
1257.088013,437.247986,33.183998
1151.680054,484.096008,-70.272003
1083.359985,456.768005,-37.088001
999.424011,119.071999,126.879997
1030.656006,-193.248001,244.000000
1079.456055,-189.343994,134.688004
1079.456055,-37.088001,-81.984001
1040.416016,144.447998,-156.160004
1067.744019,242.048004,-83.935997
1087.264038,259.615997,-1.952000
1108.735962,240.095993,-1.952000
1098.975952,193.248001,-54.655998
1089.215942,206.912003,-72.223999
1110.687988,234.240005,-50.751999
1134.112061,208.863998,-42.944000
1134.112061,126.879997,-39.040001
1126.303955,46.848000,-17.568001
1139.968018,-7.808000,5.856000
1134.112061,-27.327999,3.904000
1128.255981,17.568001,-21.472000
1108.735962,72.223999,-40.992001
1091.167969,99.552002,-85.888000
1077.504028,119.071999,-124.928001
1085.312012,121.024002,-132.735992
1087.264038,97.599998,-91.744003
1097.024048,87.839996,-40.992001
1095.072021,121.024002,-33.183998
1104.832031,122.975998,-11.712000
1089.215942,148.352005,-9.760000
1093.119995,126.879997,-35.136002
1106.784058,105.407997,-19.520000
1112.640015,144.447998,-11.712000
1114.592041,169.824005,-23.424000
1114.592041,183.488007,-29.280001
1132.160034,203.007996,-19.520000
1134.112061,206.912003,5.856000
1153.631958,204.960007,-3.904000
1159.488037,351.359985,-27.327999
1186.816040,761.280029,3.904000
1200.479980,1022.848022,68.320000
1223.904053,880.351990,142.496002
1249.280029,575.840027,163.968002
1206.336060,181.535995,146.399994
1179.008057,-107.360001,122.975998
1149.728027,-126.879997,93.695999
1122.400024,19.520000,85.888000
1087.264038,117.120003,70.272003
1069.696045,179.584000,39.040001
1077.504028,171.776001,29.280001
1085.312012,146.399994,23.424000
1122.400024,124.928001,48.799999
1124.352051,85.888000,81.984001
1132.160034,78.080002,66.367996
1114.592041,83.935997,37.088001
1100.927979,83.935997,17.568001
1085.312012,80.031998,15.616000
1093.119995,64.416000,9.760000
1087.264038,76.127998,31.232000
1073.599976,81.984001,11.712000
1067.744019,121.024002,-3.904000
1059.936035,142.496002,-46.848000
1052.128052,132.735992,-64.416000
1038.463989,109.311996,-101.503998
1052.128052,107.360001,-140.544006
1065.791992,85.888000,-124.928001
1067.744019,113.216003,-83.935997
1081.407959,122.975998,-76.127998
1083.359985,146.399994,-72.223999
1071.647949,122.975998,-91.744003
1067.744019,122.975998,-111.264000
1046.271973,109.311996,-163.968002
1042.368042,103.456001,-185.440002
1038.463989,105.407997,-185.440002
1054.079956,105.407997,-165.919998
1065.791992,117.120003,-142.496002
1071.647949,122.975998,-128.832001
1091.167969,126.879997,-132.735992
1069.696045,134.688004,-119.071999
1087.264038,150.304001,-140.544006
1073.599976,158.112000,-146.399994
1061.887939,144.447998,-189.343994
1050.176025,105.407997,-189.343994
1081.407959,128.832001,-93.695999
1095.072021,144.447998,-68.320000
1097.024048,132.735992,-103.456001
1083.359985,132.735992,-138.591995
1079.456055,156.160004,-128.832001
1077.504028,201.056000,-117.120003
1083.359985,171.776001,-126.879997
1079.456055,152.255997,-165.919998
1057.984009,109.311996,-230.335999
1040.416016,144.447998,-238.143997
1036.511963,175.679993,-236.192001
1036.511963,175.679993,-173.727997
1057.984009,187.391998,-177.632004
1065.791992,165.919998,-183.488007
1079.456055,165.919998,-222.528000
1059.936035,115.167999,-253.759995
1061.887939,119.071999,-232.287994
1081.407959,162.016006,-183.488007
1100.927979,189.343994,-113.216003
1114.592041,212.768005,-103.456001
1118.495972,185.440002,-121.024002
1122.400024,156.160004,-124.928001
1114.592041,138.591995,-93.695999
1102.880005,162.016006,-95.648003
1102.880005,158.112000,-111.264000
1093.119995,169.824005,-134.688004
1079.456055,160.063995,-175.679993
1075.552002,128.832001,-216.671997
1077.504028,126.879997,-175.679993
1102.880005,167.871994,-121.024002
1118.495972,187.391998,-99.552002
1124.352051,201.056000,-111.264000
1093.119995,146.399994,-152.255997
1071.647949,122.975998,-158.112000
1069.696045,146.399994,-179.584000
1050.176025,152.255997,-244.000000
1057.984009,130.783997,-259.615997
1069.696045,119.071999,-189.343994
1098.975952,119.071999,-95.648003
1130.208008,146.399994,-54.655998
1138.015991,167.871994,-66.367996
1118.495972,175.679993,-119.071999
1097.024048,144.447998,-185.440002
1069.696045,132.735992,-249.856003
1052.128052,107.360001,-265.471985
1067.744019,140.544006,-236.192001
1067.744019,136.639999,-206.912003
1077.504028,124.928001,-162.016006
1079.456055,140.544006,-193.248001
1067.744019,105.407997,-234.240005
1052.128052,126.879997,-251.807999
1028.703979,173.727997,-329.888000
1036.511963,148.352005,-306.463989
1059.936035,119.071999,-238.143997
1114.592041,64.416000,-60.512001
1161.439941,156.160004,7.808000
1141.920044,195.199997,-56.608002
1126.303955,119.071999,-122.975998
1081.407959,56.608002,-146.399994
1065.791992,97.599998,-138.591995
1056.031982,165.919998,-212.768005
1036.511963,101.503998,-257.664001
1050.176025,72.223999,-224.479996
1034.560059,150.304001,-314.272003
1024.800049,83.935997,-310.368011
1040.416016,105.407997,-214.720001
1054.079956,119.071999,-163.968002
1087.264038,101.503998,-105.407997
1073.599976,160.063995,-183.488007
1044.319946,87.839996,-244.000000
1044.319946,33.183998,-173.727997
1030.656006,117.120003,-203.007996
1032.608032,138.591995,-292.799988
1022.848022,89.792000,-275.231995
1003.328003,80.031998,-271.328003
1009.184021,122.975998,-281.088013
1011.135986,89.792000,-263.519989
1007.231995,56.608002,-261.567993
1009.184021,52.703999,-245.951996
1007.231995,40.992001,-189.343994
1024.800049,119.071999,-167.871994
1038.463989,117.120003,-150.304001
1067.744019,119.071999,-105.407997
1073.599976,144.447998,-93.695999
1079.456055,167.871994,-134.688004
1046.271973,113.216003,-175.679993
1046.271973,39.040001,-128.832001
1046.271973,101.503998,-113.216003
1063.839966,107.360001,-105.407997
1095.072021,111.264000,-70.272003
1098.975952,148.352005,-44.896000
1073.599976,171.776001,-144.447998
1046.271973,117.120003,-179.584000
1052.128052,83.935997,-142.496002
1048.223999,115.167999,-165.919998
1050.176025,101.503998,-181.535995
1067.744019,52.703999,-134.688004
1057.984009,115.167999,-119.071999
1042.368042,150.304001,-189.343994
1018.943970,142.496002,-261.567993
985.760010,150.304001,-314.272003
976.000000,146.399994,-341.600006
987.711975,107.360001,-265.471985
1040.416016,89.792000,-146.399994
1085.312012,121.024002,-68.320000
1097.024048,119.071999,-80.031998
1061.887939,95.648003,-171.776001
1001.375977,76.127998,-249.856003
952.575989,91.744003,-318.175995
948.671997,140.544006,-361.119995
954.528015,171.776001,-365.023987
940.864014,126.879997,-398.208008
946.719971,124.928001,-406.015991
964.288025,44.896000,-247.904007
1007.231995,162.016006,-191.296005
995.520020,224.479996,-327.936005
933.056030,187.391998,-486.048004
911.583984,37.088001,-454.816010
935.007996,0.000000,-294.752014
995.520020,97.599998,-124.928001
1067.744019,171.776001,33.183998
1122.400024,234.240005,74.176003
1122.400024,220.576004,-1.952000
1079.456055,140.544006,-68.320000
1022.848022,44.896000,-132.735992
1018.943970,7.808000,-132.735992
1011.135986,70.272003,-165.919998
1007.231995,134.688004,-167.871994
1038.463989,128.832001,-87.839996
1052.128052,156.160004,-50.751999
1020.895996,126.879997,-128.832001
976.000000,138.591995,-298.656006
927.200012,80.031998,-423.584015
903.776001,107.360001,-458.720001
919.392029,56.608002,-366.976013
931.104004,191.296005,-396.256012
905.728027,267.424011,-534.848022
907.679993,113.216003,-454.816010
917.440002,105.407997,-402.112000
935.007996,58.560001,-343.552002
974.047974,-11.712000,-201.056000
1022.848022,39.040001,-83.935997
1018.943970,126.879997,-162.016006
1026.751953,39.040001,-81.984001
1005.280029,81.984001,-128.832001
954.528015,74.176003,-277.183990
907.679993,39.040001,-333.791992
870.591980,85.888000,-413.824005
839.359985,124.928001,-491.903992
854.976013,97.599998,-450.911987
876.447998,62.464001,-404.063995
882.304016,80.031998,-402.112000
880.351990,54.655998,-419.679993
882.304016,-25.375999,-320.127991
903.776001,56.608002,-244.000000
903.776001,134.688004,-290.847992
919.392029,83.935997,-193.248001
925.247986,66.367996,-83.935997
936.960022,212.768005,-119.071999
940.864014,220.576004,-121.024002
972.096008,146.399994,-56.608002
950.624023,136.639999,-171.776001
942.815979,91.744003,-247.904007
929.151978,-5.856000,-232.287994
935.007996,-97.599998,-119.071999
956.479980,-3.904000,-111.264000
935.007996,101.503998,-154.207993
944.768005,191.296005,-152.255997
929.151978,244.000000,-247.904007
884.255981,185.440002,-333.791992
856.927979,78.080002,-363.071991
866.687988,-11.712000,-308.415985
882.304016,-15.616000,-324.032013
901.823975,-27.327999,-242.048004
925.247986,68.320000,-197.151993
946.719971,142.496002,-126.879997
946.719971,226.432007,-181.535995
921.343994,183.488007,-199.104004
901.823975,218.623993,-314.272003
876.447998,154.207993,-413.824005
808.127991,124.928001,-527.039978
802.271973,0.000000,-523.135986
829.599976,-37.088001,-419.679993
839.359985,91.744003,-462.623993
815.935974,206.912003,-558.271973
790.559998,316.223999,-644.159973
800.320007,-50.751999,-648.064026
831.552002,-347.455994,-454.816010
843.263977,-103.456001,-283.040009
839.359985,216.671997,-265.471985
868.640015,279.135986,-204.960007
907.679993,33.183998,-35.136002
983.807983,97.599998,199.104004
1081.407959,154.207993,302.559998
1180.959961,140.544006,398.208008
1173.151978,169.824005,226.432007
1112.640015,109.311996,25.375999
1046.271973,66.367996,-15.616000
1032.608032,85.888000,54.655998
1013.088013,187.391998,-25.375999
964.288025,197.151993,-208.863998
921.343994,95.648003,-288.895996
907.679993,44.896000,-204.960007
915.487976,122.975998,-257.664001
899.872009,140.544006,-318.175995
880.351990,109.311996,-431.391998
868.640015,44.896000,-425.536011
919.392029,78.080002,-327.936005
944.768005,183.488007,-298.656006
948.671997,142.496002,-304.511993
954.528015,37.088001,-195.199997
1003.328003,58.560001,-111.264000
991.616028,179.584000,-238.143997
925.247986,165.919998,-361.119995
909.632019,35.136002,-331.839996
894.015991,39.040001,-310.368011
882.304016,101.503998,-386.496002
884.255981,113.216003,-400.160004
886.208008,78.080002,-396.256012
882.304016,70.272003,-406.015991
884.255981,52.703999,-382.592010
901.823975,58.560001,-368.928009
907.679993,64.416000,-378.687988
909.632019,113.216003,-417.727997
915.487976,105.407997,-384.544006
909.632019,93.695999,-302.559998
909.632019,160.063995,-325.984009
921.343994,126.879997,-355.264008
921.343994,64.416000,-359.167999
938.911987,42.944000,-390.399994
938.911987,-25.375999,-310.368011
956.479980,27.327999,-273.279999
954.528015,144.447998,-322.079987
942.815979,179.584000,-370.880005
915.487976,242.048004,-433.343994
886.208008,249.856003,-509.471985
851.072021,189.343994,-536.799988
831.552002,160.063995,-585.599976
829.599976,134.688004,-601.216003
835.455994,150.304001,-591.455994
837.408020,189.343994,-603.168030
817.888000,203.007996,-634.400024
813.984009,152.255997,-597.312012
819.840027,138.591995,-575.840027
817.888000,203.007996,-597.312012
813.984009,284.992004,-651.968018
810.080017,267.424011,-642.208008
810.080017,169.824005,-622.687988
813.984009,3.904000,-605.119995
812.031982,-171.776001,-540.703979
821.791992,-283.040009,-476.287994
843.263977,-365.023987,-343.552002
931.104004,-245.951996,-193.248001
958.432007,-66.367996,-175.679993
991.616028,74.176003,-259.615997
974.047974,-23.424000,-320.127991
940.864014,-140.544006,-333.791992
911.583984,-138.591995,-406.015991
858.880005,-87.839996,-472.384003
845.216003,17.568001,-534.848022
837.408020,80.031998,-509.471985
831.552002,154.207993,-530.943970
819.840027,175.679993,-552.416016
815.935974,171.776001,-505.567993
839.359985,150.304001,-427.488007
843.263977,130.783997,-394.303986
870.591980,99.552002,-361.119995
872.544006,80.031998,-392.351990
876.447998,93.695999,-462.623993
890.112000,101.503998,-458.720001
880.351990,169.824005,-534.848022
841.312012,171.776001,-632.447998
800.320007,177.632004,-667.583984
753.471985,325.984009,-669.536011
718.335999,486.048004,-644.159973
673.440002,704.671997,-663.679993
636.351990,659.776001,-698.815979
628.544006,474.335999,-642.208008
642.208008,271.328003,-622.687988
630.495972,216.671997,-655.872009
616.831970,267.424011,-716.383972
591.455994,284.992004,-741.760010
618.783997,247.904007,-671.487976
653.919983,171.776001,-630.495972
700.768005,105.407997,-575.840027
755.424011,72.223999,-581.695984
767.135986,148.352005,-661.728027
771.039978,271.328003,-821.791992
761.280029,433.343994,-940.864014
769.088013,527.039978,-960.383972
757.375977,622.687988,-946.719971
716.383972,558.271973,-1005.280029
597.312012,298.656006,-913.536011
548.512024,44.896000,-849.119995
548.512024,-284.992004,-653.919983
603.168030,-359.167999,-562.176025
673.440002,-480.191986,-368.928009
767.135986,-376.735992,-308.415985
794.463989,-253.759995,-368.928009
866.687988,-333.791992,-343.552002
905.728027,-298.656006,-273.279999
936.960022,-226.432007,-150.304001
1030.656006,-19.520000,-80.031998
1024.800049,620.736023,-21.472000
948.671997,1054.079956,-327.936005
802.271973,933.056030,-478.239990
761.280029,679.296021,-476.287994
679.296021,503.615997,-685.151978
595.359985,398.208008,-835.455994
523.135986,333.791992,-806.176025
499.712006,158.112000,-700.768005
527.039978,46.848000,-460.671997
562.176025,208.863998,-419.679993
622.687988,117.120003,-374.783997
718.335999,23.424000,-206.912003
757.375977,107.360001,-306.463989
739.807983,62.464001,-448.959991
651.968018,249.856003,-609.023987
589.504028,398.208008,-833.504028
515.328003,464.575989,-1022.848022
486.048004,571.935974,-1112.640015
495.808014,398.208008,-977.952026
610.976013,220.576004,-642.208008
712.479980,216.671997,-530.943970
817.888000,52.703999,-443.104004
878.400024,81.984001,-458.720001
815.935974,345.503998,-710.528015
716.383972,599.263977,-989.664001
620.736023,591.455994,-1052.128052
536.799988,626.591980,-1128.255981
407.967987,675.392029,-1266.848022
329.888000,657.823975,-1319.552002
275.231995,622.687988,-1387.871948
249.856003,421.631989,-1323.456055
214.720001,349.407990,-1300.031982
251.807999,521.184021,-1339.072021
109.311996,556.320007,-1216.095947
162.016006,273.279999,-1141.920044
80.031998,-50.751999,-1091.167969
195.199997,-558.271973,-970.143982
203.007996,-437.247986,-1075.552002
91.744003,-265.471985,-1298.079956
15.616000,-253.759995,-1530.368042
-105.407997,-249.856003,-1758.751953
-171.776001,-175.679993,-2020.319946
-366.976013,-31.232000,-2194.048096
-441.152008,-62.464001,-2295.552002
-505.567993,-122.975998,-2203.808105
-489.951996,-175.679993,-2133.535889
-562.176025,-302.559998,-2069.120117
-607.072021,-411.872009,-2039.839966
-667.583984,-429.440002,-2033.984009
-708.575989,-429.440002,-2067.167969
-722.239990,-386.496002,-2108.159912
-720.288025,-308.415985,-2137.439941
-507.519989,314.272003,-2162.815918
-138.591995,534.848022,-2182.335938
-76.127998,-80.031998,-2184.288086
-138.591995,-193.248001,-2127.679932
-158.112000,58.560001,-2074.976074
-158.112000,-13.664000,-2102.303955
-183.488007,-407.967987,-2153.055908
-251.807999,-472.384003,-2119.872070
-230.335999,275.231995,-2045.696045
185.440002,810.080017,-2053.503906
284.992004,-185.440002,-2065.216064
261.567993,-675.392029,-1973.472046
142.496002,-212.768005,-1856.352051
201.056000,-103.456001,-1854.400024
329.888000,-415.776001,-1903.199951
554.367981,-288.895996,-1891.488037
687.104004,-448.959991,-1758.751953
650.015991,-653.919983,-1643.583984
569.984009,-333.791992,-1518.656006
708.575989,-532.895996,-1446.432007
812.031982,-343.552002,-1356.640015
1083.359985,175.679993,-1300.031982
1128.255981,-208.863998,-1186.816040
989.664001,-488.000000,-1069.696045
1032.608032,-224.479996,-999.424011
1141.920044,-201.056000,-923.296021
1239.520020,-122.975998,-841.312012
1485.472046,78.080002,-788.607971
1596.735962,-341.600006,-728.096008
1551.839966,-466.528015,-599.263977
1590.880005,-345.503998,-448.959991
1569.407959,-560.223999,-279.135986
1698.239990,-273.279999,-302.559998
1959.807983,-228.384003,-542.656006
1969.567993,-263.519989,-704.671997
1780.223999,-37.088001,-308.415985
1686.527954,-165.919998,142.496002
1782.176025,11.712000,203.007996
1852.447998,882.304016,132.735992
2438.048096,1089.215942,80.031998
2578.592041,991.616028,253.759995
2498.560059,780.799988,675.392029
2434.144043,1057.984009,901.823975
2482.944092,987.711975,1044.319946
2424.384033,1321.504028,1124.352051
2598.112061,2201.855957,1083.359985
2646.912109,1996.895996,1186.816040
2063.263916,1112.640015,1602.592041
1799.744019,813.984009,1809.504028
2974.847900,528.992004,1015.039978
2365.823975,788.607971,210.815994
2262.367920,208.863998,-226.432007
2410.719971,556.320007,-343.552002
2254.560059,-37.088001,-245.951996
2992.416016,-292.799988,-37.088001
3084.159912,-862.783997,454.816010
2836.256104,-359.167999,972.096008
2535.647949,-599.263977,1391.776001
2223.327881,-1016.992004,1809.504028
2147.199951,-431.391998,1752.895996
2071.072021,-115.167999,1405.439941
1909.056030,-74.176003,1046.271973
1735.328003,48.799999,753.471985
1358.592041,-130.783997,581.695984
800.320007,-76.127998,544.607971
1944.192017,470.432007,29.280001
2076.927979,-165.919998,-681.247986
2301.407959,-2184.288086,-942.815979
3406.239990,-2635.199951,263.519989
4675.040039,-5541.728027,3929.375977
5026.399902,-8165.215820,5416.799805
3380.864014,-6913.983887,2949.471924
