ACC_X,ACC_Y,ACC_Z
400.160004,554.367981,718.335999
398.208008,558.271973,720.288025
398.208008,548.512024,718.335999
396.256012,554.367981,710.528015
398.208008,552.416016,710.528015
394.303986,542.656006,712.479980
394.303986,542.656006,710.528015
400.160004,548.512024,708.575989
394.303986,550.463989,696.864014
394.303986,534.848022,696.864014
400.160004,558.271973,698.815979
394.303986,558.271973,696.864014
394.303986,560.223999,708.575989
394.303986,564.127991,694.911987
396.256012,568.031982,706.624023
394.303986,571.935974,706.624023
388.447998,579.744019,710.528015
396.256012,585.599976,708.575989
382.592010,581.695984,704.671997
392.351990,591.455994,706.624023
388.447998,585.599976,702.719971
398.208008,583.648010,710.528015
404.063995,583.648010,706.624023
396.256012,593.408020,700.768005
398.208008,579.744019,700.768005
404.063995,579.744019,694.911987
398.208008,581.695984,704.671997
388.447998,575.840027,694.911987
400.160004,573.888000,698.815979
390.399994,577.791992,696.864014
400.160004,568.031982,704.671997
396.256012,569.984009,694.911987
382.592010,579.744019,691.007996
392.351990,575.840027,685.151978
382.592010,579.744019,685.151978
382.592010,585.599976,681.247986
380.640015,591.455994,677.343994
382.592010,581.695984,689.056030
378.687988,593.408020,687.104004
380.640015,607.072021,687.104004
378.687988,607.072021,696.864014
382.592010,614.880005,694.911987
386.496002,614.880005,702.719971
400.160004,612.927979,708.575989
396.256012,618.783997,714.432007
402.112000,612.927979,722.239990
406.015991,618.783997,732.000000
411.872009,609.023987,726.143982
407.967987,612.927979,732.000000
411.872009,614.880005,728.096008
419.679993,603.168030,722.239990
413.824005,595.359985,726.143982
415.776001,593.408020,716.383972
402.112000,583.648010,720.288025
406.015991,577.791992,706.624023
415.776001,581.695984,710.528015
406.015991,581.695984,696.864014
402.112000,579.744019,694.911987
404.063995,581.695984,696.864014
402.112000,577.791992,694.911987
400.160004,587.552002,698.815979
404.063995,581.695984,698.815979
390.399994,587.552002,691.007996
400.160004,589.504028,698.815979
402.112000,589.504028,708.575989
400.160004,593.408020,698.815979
398.208008,595.359985,720.288025
400.160004,603.168030,712.479980
406.015991,607.072021,714.432007
404.063995,595.359985,724.192017
400.160004,603.168030,718.335999
388.447998,597.312012,722.239990
396.256012,593.408020,718.335999
404.063995,577.791992,724.192017
390.399994,587.552002,718.335999
386.496002,587.552002,724.192017
394.303986,571.935974,710.528015
398.208008,575.840027,700.768005
390.399994,573.888000,696.864014
396.256012,573.888000,692.960022
390.399994,564.127991,689.056030
378.687988,564.127991,687.104004
388.447998,560.223999,679.296021
384.544006,573.888000,685.151978
396.256012,560.223999,687.104004
392.351990,560.223999,694.911987
388.447998,558.271973,692.960022
390.399994,566.080017,704.671997
396.256012,554.367981,712.479980
396.256012,554.367981,710.528015
390.399994,568.031982,712.479980
398.208008,564.127991,722.239990
402.112000,568.031982,716.383972
406.015991,568.031982,732.000000
404.063995,575.840027,718.335999
394.303986,577.791992,718.335999
400.160004,564.127991,718.335999
406.015991,558.271973,724.192017
411.872009,566.080017,718.335999
415.776001,575.840027,728.096008
413.824005,558.271973,724.192017
411.872009,556.320007,726.143982
413.824005,560.223999,726.143982
415.776001,544.607971,722.239990
417.727997,538.752014,716.383972
421.631989,536.799988,718.335999
427.488007,542.656006,726.143982
431.391998,532.895996,720.288025
431.391998,536.799988,726.143982
425.536011,536.799988,722.239990
431.391998,536.799988,726.143982
433.343994,540.703979,737.856018
433.343994,538.752014,726.143982
437.247986,548.512024,726.143982
443.104004,554.367981,737.856018
439.200012,554.367981,739.807983
441.152008,558.271973,745.664001
441.152008,562.176025,737.856018
437.247986,564.127991,743.711975
445.056000,564.127991,733.952026
445.056000,568.031982,747.616028
445.056000,573.888000,753.471985
447.007996,571.935974,751.520020
441.152008,558.271973,747.616028
441.152008,558.271973,751.520020
443.104004,548.512024,753.471985
439.200012,546.559998,753.471985
439.200012,552.416016,753.471985
439.200012,550.463989,749.567993
431.391998,546.559998,743.711975
433.343994,556.320007,741.760010
435.295990,552.416016,745.664001
431.391998,556.320007,733.952026
425.536011,554.367981,733.952026
435.295990,550.463989,735.903992
427.488007,552.416016,741.760010
417.727997,560.223999,728.096008
417.727997,552.416016,737.856018
423.584015,554.367981,726.143982
419.679993,564.127991,730.047974
411.872009,554.367981,730.047974
417.727997,558.271973,733.952026
419.679993,550.463989,735.903992
413.824005,558.271973,737.856018
423.584015,558.271973,735.903992
413.824005,558.271973,733.952026
415.776001,560.223999,735.903992
421.631989,550.463989,743.711975
417.727997,546.559998,741.760010
423.584015,548.512024,749.567993
413.824005,542.656006,745.664001
413.824005,550.463989,743.711975
419.679993,550.463989,737.856018
413.824005,556.320007,733.952026
411.872009,548.512024,739.807983
419.679993,546.559998,741.760010
417.727997,560.223999,730.047974
411.872009,562.176025,730.047974
413.824005,564.127991,732.000000
411.872009,564.127991,730.047974
415.776001,571.935974,732.000000
415.776001,566.080017,720.288025
421.631989,566.080017,728.096008
415.776001,569.984009,728.096008
415.776001,566.080017,728.096008
421.631989,568.031982,712.479980
417.727997,579.744019,716.383972
413.824005,581.695984,718.335999
413.824005,562.176025,741.760010
415.776001,546.559998,753.471985
429.440002,560.223999,749.567993
429.440002,579.744019,755.424011
431.391998,560.223999,749.567993
427.488007,544.607971,769.088013
421.631989,564.127991,767.135986
425.536011,587.552002,761.280029
441.152008,571.935974,757.375977
441.152008,554.367981,755.424011
441.152008,568.031982,749.567993
450.911987,573.888000,759.328003
447.007996,569.984009,759.328003
448.959991,554.367981,761.280029
448.959991,571.935974,769.088013
435.295990,593.408020,765.184021
443.104004,587.552002,767.135986
445.056000,575.840027,755.424011
452.864014,573.888000,759.328003
443.104004,587.552002,765.184021
437.247986,581.695984,765.184021
448.959991,585.599976,757.375977
448.959991,587.552002,757.375977
454.816010,577.791992,767.135986
460.671997,568.031982,757.375977
462.623993,562.176025,765.184021
458.720001,569.984009,765.184021
464.575989,550.463989,765.184021
454.816010,558.271973,769.088013
462.623993,558.271973,765.184021
456.768005,569.984009,765.184021
452.864014,571.935974,763.231995
452.864014,573.888000,772.992004
462.623993,573.888000,767.135986
466.528015,568.031982,769.088013
464.575989,575.840027,774.943970
452.864014,577.791992,763.231995
458.720001,575.840027,769.088013
468.480011,581.695984,772.992004
466.528015,566.080017,778.848022
460.671997,575.840027,769.088013
462.623993,579.744019,772.992004
460.671997,585.599976,772.992004
458.720001,579.744019,769.088013
450.911987,579.744019,767.135986
452.864014,577.791992,763.231995
458.720001,573.888000,769.088013
456.768005,573.888000,751.520020
456.768005,568.031982,741.760010
462.623993,575.840027,749.567993
456.768005,571.935974,745.664001
464.575989,568.031982,757.375977
464.575989,568.031982,755.424011
458.720001,571.935974,755.424011
468.480011,562.176025,759.328003
458.720001,558.271973,753.471985
456.768005,562.176025,753.471985
464.575989,571.935974,763.231995
462.623993,566.080017,755.424011
458.720001,571.935974,759.328003
466.528015,566.080017,755.424011
460.671997,579.744019,757.375977
470.432007,566.080017,759.328003
470.432007,566.080017,753.471985
460.671997,573.888000,761.280029
460.671997,579.744019,765.184021
470.432007,575.840027,767.135986
468.480011,581.695984,763.231995
464.575989,587.552002,769.088013
454.816010,585.599976,763.231995
458.720001,581.695984,769.088013
462.623993,581.695984,759.328003
456.768005,585.599976,753.471985
445.056000,587.552002,757.375977
456.768005,581.695984,759.328003
458.720001,579.744019,761.280029
448.959991,587.552002,749.567993
450.911987,583.648010,759.328003
454.816010,577.791992,751.520020
452.864014,581.695984,745.664001
448.959991,569.984009,751.520020
445.056000,579.744019,753.471985
445.056000,589.504028,755.424011
439.200012,585.599976,751.520020
443.104004,577.791992,757.375977
445.056000,585.599976,757.375977
437.247986,581.695984,753.471985
441.152008,581.695984,747.616028
437.247986,575.840027,747.616028
437.247986,577.791992,745.664001
435.295990,591.455994,741.760010
445.056000,579.744019,741.760010
433.343994,577.791992,747.616028
441.152008,587.552002,749.567993
439.200012,589.504028,749.567993
443.104004,583.648010,759.328003
433.343994,587.552002,755.424011
427.488007,599.263977,761.280029
427.488007,593.408020,769.088013
425.536011,579.744019,772.992004
425.536011,593.408020,763.231995
427.488007,595.359985,763.231995
431.391998,587.552002,759.328003
425.536011,587.552002,759.328003
429.440002,589.504028,751.520020
427.488007,589.504028,741.760010
429.440002,585.599976,747.616028
419.679993,581.695984,735.903992
409.920013,597.312012,739.807983
419.679993,612.927979,730.047974
421.631989,601.216003,728.096008
417.727997,591.455994,726.143982
407.967987,605.119995,728.096008
415.776001,607.072021,733.952026
413.824005,595.359985,726.143982
415.776001,591.455994,726.143982
415.776001,603.168030,730.047974
409.920013,597.312012,732.000000
415.776001,597.312012,732.000000
415.776001,595.359985,735.903992
413.824005,597.312012,728.096008
421.631989,607.072021,735.903992
417.727997,601.216003,732.000000
427.488007,603.168030,726.143982
425.536011,609.023987,724.192017
419.679993,612.927979,724.192017
417.727997,614.880005,735.903992
423.584015,597.312012,718.335999
425.536011,609.023987,720.288025
415.776001,607.072021,722.239990
427.488007,610.976013,730.047974
419.679993,609.023987,722.239990
419.679993,603.168030,722.239990
417.727997,603.168030,730.047974
425.536011,605.119995,722.239990
417.727997,599.263977,710.528015
419.679993,609.023987,728.096008
415.776001,603.168030,728.096008
413.824005,593.408020,716.383972
411.872009,601.216003,722.239990
406.015991,599.263977,722.239990
406.015991,601.216003,724.192017
413.824005,605.119995,722.239990
398.208008,597.312012,716.383972
411.872009,607.072021,714.432007
407.967987,591.455994,712.479980
409.920013,599.263977,712.479980
404.063995,597.312012,712.479980
392.351990,603.168030,710.528015
386.496002,603.168030,714.432007
400.160004,605.119995,716.383972
390.399994,605.119995,712.479980
394.303986,597.312012,710.528015
390.399994,595.359985,714.432007
386.496002,605.119995,708.575989
392.351990,599.263977,710.528015
388.447998,597.312012,698.815979
384.544006,599.263977,704.671997
384.544006,603.168030,704.671997
384.544006,599.263977,704.671997
388.447998,605.119995,708.575989
384.544006,597.312012,700.768005
380.640015,589.504028,692.960022
386.496002,591.455994,694.911987
382.592010,595.359985,700.768005
384.544006,589.504028,698.815979
378.687988,581.695984,694.911987
386.496002,587.552002,700.768005
380.640015,585.599976,704.671997
382.592010,587.552002,700.768005
394.303986,585.599976,702.719971
374.783997,591.455994,694.911987
388.447998,589.504028,704.671997
378.687988,595.359985,696.864014
392.351990,587.552002,698.815979
386.496002,587.552002,694.911987
390.399994,595.359985,696.864014
384.544006,583.648010,702.719971
384.544006,589.504028,698.815979
382.592010,585.599976,694.911987
392.351990,591.455994,698.815979
396.256012,593.408020,694.911987
386.496002,587.552002,694.911987
390.399994,581.695984,689.056030
392.351990,579.744019,708.575989
386.496002,577.791992,706.624023
388.447998,575.840027,696.864014
386.496002,571.935974,696.864014
382.592010,577.791992,704.671997
390.399994,571.935974,704.671997
386.496002,569.984009,696.864014
394.303986,581.695984,696.864014
394.303986,579.744019,696.864014
386.496002,579.744019,691.007996
398.208008,579.744019,698.815979
396.256012,573.888000,700.768005
396.256012,581.695984,694.911987
400.160004,577.791992,687.104004
386.496002,579.744019,683.200012
398.208008,577.791992,683.200012
388.447998,577.791992,696.864014
400.160004,569.984009,692.960022
390.399994,562.176025,692.960022
388.447998,575.840027,700.768005
394.303986,568.031982,689.056030
394.303986,571.935974,692.960022
400.160004,569.984009,687.104004
394.303986,569.984009,692.960022
398.208008,571.935974,692.960022
394.303986,566.080017,692.960022
394.303986,564.127991,694.911987
398.208008,562.176025,696.864014
402.112000,554.367981,696.864014
400.160004,562.176025,691.007996
407.967987,558.271973,691.007996
407.967987,560.223999,696.864014
398.208008,554.367981,696.864014
406.015991,554.367981,702.719971
411.872009,550.463989,698.815979
413.824005,546.559998,700.768005
407.967987,548.512024,698.815979
406.015991,544.607971,692.960022
407.967987,542.656006,698.815979
407.967987,548.512024,700.768005
404.063995,544.607971,704.671997
407.967987,540.703979,700.768005
406.015991,530.943970,696.864014
417.727997,534.848022,694.911987
406.015991,550.463989,698.815979
415.776001,542.656006,700.768005
407.967987,544.607971,706.624023
413.824005,540.703979,710.528015
423.584015,536.799988,716.383972
415.776001,530.943970,712.479980
421.631989,536.799988,720.288025
415.776001,530.943970,712.479980
421.631989,525.088013,718.335999
423.584015,525.088013,712.479980
423.584015,534.848022,716.383972
425.536011,517.280029,716.383972
429.440002,513.375977,724.192017
425.536011,517.280029,710.528015
429.440002,521.184021,722.239990
427.488007,511.424011,724.192017
425.536011,515.328003,714.432007
425.536011,515.328003,716.383972
421.631989,521.184021,720.288025
427.488007,517.280029,706.624023
423.584015,511.424011,710.528015
425.536011,517.280029,710.528015
435.295990,519.231995,702.719971
417.727997,505.567993,710.528015
425.536011,513.375977,710.528015
423.584015,507.519989,714.432007
431.391998,507.519989,712.479980
421.631989,505.567993,706.624023
421.631989,507.519989,714.432007
417.727997,503.615997,702.719971
417.727997,505.567993,710.528015
417.727997,499.712006,708.575989
423.584015,497.760010,704.671997
411.872009,495.808014,694.911987
417.727997,503.615997,700.768005
413.824005,499.712006,712.479980
417.727997,489.951996,694.911987
409.920013,484.096008,696.864014
413.824005,493.855988,700.768005
411.872009,488.000000,696.864014
415.776001,491.903992,694.911987
411.872009,486.048004,696.864014
406.015991,493.855988,702.719971
415.776001,489.951996,700.768005
406.015991,491.903992,700.768005
409.920013,478.239990,698.815979
406.015991,486.048004,698.815979
404.063995,486.048004,700.768005
402.112000,478.239990,700.768005
400.160004,472.384003,692.960022
402.112000,474.335999,700.768005
409.920013,472.384003,700.768005
404.063995,474.335999,694.911987
409.920013,472.384003,696.864014
411.872009,470.432007,698.815979
409.920013,468.480011,694.911987
415.776001,472.384003,696.864014
409.920013,470.432007,700.768005
411.872009,460.671997,698.815979
411.872009,460.671997,694.911987
409.920013,466.528015,706.624023
409.920013,454.816010,702.719971
427.488007,464.575989,710.528015
421.631989,462.623993,712.479980
427.488007,466.528015,710.528015
421.631989,472.384003,728.096008
435.295990,474.335999,722.239990
431.391998,470.432007,730.047974
435.295990,472.384003,724.192017
450.911987,478.239990,739.807983
454.816010,476.287994,751.520020
454.816010,478.239990,751.520020
454.816010,484.096008,759.328003
452.864014,480.191986,761.280029
462.623993,488.000000,771.039978
466.528015,486.048004,771.039978
466.528015,470.432007,765.184021
466.528015,482.144012,769.088013
466.528015,476.287994,778.848022
462.623993,472.384003,786.656006
474.335999,476.287994,786.656006
476.287994,468.480011,786.656006
468.480011,470.432007,792.512024
468.480011,470.432007,782.752014
472.384003,478.239990,788.607971
472.384003,480.191986,786.656006
472.384003,482.144012,798.367981
474.335999,470.432007,792.512024
470.432007,484.096008,802.271973
474.335999,489.951996,788.607971
466.528015,480.191986,798.367981
482.144012,491.903992,800.320007
474.335999,495.808014,798.367981
470.432007,486.048004,800.320007
480.191986,482.144012,804.223999
482.144012,486.048004,804.223999
476.287994,488.000000,806.176025
476.287994,489.951996,792.512024
476.287994,499.712006,810.080017
488.000000,489.951996,815.935974
486.048004,489.951996,812.031982
482.144012,488.000000,812.031982
482.144012,482.144012,821.791992
478.239990,488.000000,813.984009
476.287994,486.048004,815.935974
482.144012,488.000000,815.935974
474.335999,489.951996,817.888000
480.191986,486.048004,813.984009
482.144012,480.191986,808.127991
478.239990,476.287994,815.935974
478.239990,486.048004,817.888000
486.048004,474.335999,815.935974
474.335999,480.191986,813.984009
476.287994,484.096008,802.271973
478.239990,489.951996,798.367981
474.335999,472.384003,800.320007
470.432007,480.191986,796.416016
478.239990,484.096008,784.703979
470.432007,489.951996,784.703979
478.239990,493.855988,780.799988
478.239990,493.855988,776.895996
466.528015,480.191986,786.656006
464.575989,489.951996,778.848022
466.528015,495.808014,774.943970
464.575989,486.048004,769.088013
462.623993,484.096008,774.943970
466.528015,493.855988,761.280029
462.623993,493.855988,765.184021
462.623993,493.855988,771.039978
454.816010,484.096008,767.135986
448.959991,495.808014,761.280029
452.864014,505.567993,749.567993
452.864014,499.712006,749.567993
454.816010,495.808014,759.328003
445.056000,495.808014,755.424011
445.056000,499.712006,745.664001
450.911987,493.855988,751.520020
445.056000,509.471985,745.664001
441.152008,505.567993,737.856018
441.152008,507.519989,728.096008
445.056000,499.712006,730.047974
443.104004,501.664001,732.000000
439.200012,517.280029,735.903992
435.295990,495.808014,733.952026
429.440002,505.567993,735.903992
429.440002,505.567993,735.903992
433.343994,505.567993,726.143982
423.584015,509.471985,726.143982
419.679993,499.712006,732.000000
429.440002,503.615997,733.952026
425.536011,507.519989,718.335999
427.488007,503.615997,722.239990
415.776001,499.712006,714.432007
415.776001,505.567993,718.335999
406.015991,503.615997,708.575989
404.063995,505.567993,712.479980
413.824005,501.664001,704.671997
413.824005,513.375977,698.815979
407.967987,511.424011,704.671997
406.015991,507.519989,696.864014
398.208008,509.471985,694.911987
396.256012,513.375977,700.768005
388.447998,515.328003,696.864014
382.592010,511.424011,691.007996
386.496002,513.375977,691.007996
378.687988,515.328003,691.007996
378.687988,528.992004,692.960022
378.687988,525.088013,692.960022
370.880005,521.184021,685.151978
366.976013,515.328003,687.104004
357.216003,525.088013,681.247986
363.071991,523.135986,677.343994
359.167999,523.135986,677.343994
368.928009,525.088013,679.296021
355.264008,525.088013,667.583984
351.359985,515.328003,673.440002
339.648010,519.231995,663.679993
343.552002,527.039978,665.632019
349.407990,523.135986,669.536011
341.600006,517.280029,667.583984
337.696014,519.231995,659.776001
333.791992,532.895996,657.823975
335.743988,528.992004,661.728027
320.127991,517.280029,657.823975
318.175995,521.184021,655.872009
324.032013,525.088013,653.919983
327.936005,521.184021,651.968018
316.223999,509.471985,640.255981
308.415985,519.231995,632.447998
308.415985,532.895996,648.064026
304.511993,511.424011,644.159973
292.799988,507.519989,646.112000
290.847992,511.424011,638.304016
290.847992,521.184021,630.495972
284.992004,519.231995,624.640015
288.895996,509.471985,626.591980
281.088013,515.328003,630.495972
275.231995,515.328003,622.687988
283.040009,519.231995,616.831970
271.328003,513.375977,605.119995
273.279999,511.424011,609.023987
275.231995,519.231995,603.168030
273.279999,511.424011,607.072021
271.328003,509.471985,601.216003
265.471985,503.615997,601.216003
261.567993,511.424011,597.312012
257.664001,513.375977,589.504028
275.231995,507.519989,591.455994
267.424011,507.519989,589.504028
269.376007,509.471985,593.408020
267.424011,482.144012,607.072021
263.519989,460.671997,620.736023
247.904007,445.056000,634.400024
253.759995,443.104004,632.447998
251.807999,458.720001,626.591980
247.904007,458.720001,614.880005
249.856003,454.816010,614.880005
255.712006,445.056000,612.927979
253.759995,431.391998,616.831970
255.712006,443.104004,620.736023
244.000000,448.959991,624.640015
245.951996,437.247986,605.119995
238.143997,441.152008,618.783997
234.240005,443.104004,612.927979
234.240005,441.152008,609.023987
240.095993,447.007996,609.023987
244.000000,462.623993,603.168030
238.143997,462.623993,597.312012
244.000000,460.671997,607.072021
238.143997,456.768005,607.072021
234.240005,468.480011,599.263977
228.384003,468.480011,599.263977
230.335999,474.335999,597.312012
238.143997,478.239990,589.504028
240.095993,495.808014,585.599976
236.192001,497.760010,579.744019
238.143997,497.760010,575.840027
238.143997,501.664001,579.744019
236.192001,491.903992,569.984009
242.048004,503.615997,575.840027
245.951996,517.280029,575.840027
242.048004,517.280029,573.888000
251.807999,527.039978,564.127991
242.048004,532.895996,554.367981
244.000000,534.848022,560.223999
251.807999,532.895996,568.031982
251.807999,536.799988,571.935974
257.664001,536.799988,564.127991
257.664001,536.799988,558.271973
257.664001,544.607971,558.271973
269.376007,548.512024,564.127991
275.231995,538.752014,556.320007
277.183990,532.895996,564.127991
283.040009,527.039978,554.367981
286.944000,517.280029,577.791992
288.895996,517.280029,585.599976
294.752014,499.712006,589.504028
306.463989,497.760010,610.976013
316.223999,458.720001,620.736023
327.936005,447.007996,653.919983
331.839996,433.343994,657.823975
329.888000,425.536011,675.392029
343.552002,406.015991,685.151978
343.552002,409.920013,712.479980
343.552002,406.015991,710.528015
351.359985,415.776001,724.192017
339.648010,411.872009,718.335999
351.359985,431.391998,720.288025
361.119995,439.200012,724.192017
347.455994,448.959991,722.239990
345.503998,468.480011,728.096008
365.023987,474.335999,726.143982
359.167999,480.191986,722.239990
365.023987,493.855988,724.192017
359.167999,499.712006,714.432007
361.119995,505.567993,714.432007
365.023987,497.760010,718.335999
372.832001,489.951996,724.192017
368.928009,505.567993,730.047974
368.928009,491.903992,739.807983
370.880005,486.048004,737.856018
370.880005,476.287994,737.856018
374.783997,472.384003,743.711975
378.687988,460.671997,743.711975
384.544006,460.671997,745.664001
382.592010,454.816010,745.664001
380.640015,448.959991,739.807983
384.544006,441.152008,730.047974
388.447998,441.152008,722.239990
382.592010,441.152008,724.192017
386.496002,431.391998,724.192017
384.544006,433.343994,724.192017
382.592010,447.007996,716.383972
382.592010,435.295990,726.143982
380.640015,443.104004,720.288025
388.447998,454.816010,720.288025
382.592010,454.816010,722.239990
384.544006,452.864014,728.096008
384.544006,452.864014,728.096008
392.351990,462.623993,737.856018
400.160004,462.623993,741.760010
390.399994,464.575989,741.760010
398.208008,464.575989,741.760010
398.208008,464.575989,751.520020
404.063995,472.384003,755.424011
398.208008,470.432007,753.471985
394.303986,462.623993,757.375977
402.112000,454.816010,767.135986
398.208008,456.768005,769.088013
396.256012,450.911987,757.375977
402.112000,447.007996,755.424011
407.967987,448.959991,749.567993
396.256012,458.720001,741.760010
396.256012,456.768005,743.711975
396.256012,447.007996,726.143982
400.160004,452.864014,724.192017
402.112000,448.959991,726.143982
392.351990,454.816010,722.239990
392.351990,464.575989,714.432007
384.544006,452.864014,720.288025
382.592010,454.816010,722.239990
392.351990,452.864014,714.432007
390.399994,454.816010,706.624023
382.592010,454.816010,708.575989
392.351990,454.816010,714.432007
382.592010,450.911987,708.575989
386.496002,454.816010,708.575989
378.687988,464.575989,712.479980
384.544006,462.623993,712.479980
386.496002,456.768005,710.528015
396.256012,464.575989,710.528015
380.640015,460.671997,712.479980
388.447998,460.671997,712.479980
374.783997,448.959991,712.479980
376.735992,466.528015,710.528015
382.592010,468.480011,712.479980
378.687988,466.528015,704.671997
390.399994,474.335999,702.719971
386.496002,456.768005,698.815979
380.640015,458.720001,698.815979
378.687988,458.720001,702.719971
380.640015,454.816010,700.768005
382.592010,460.671997,692.960022
376.735992,448.959991,692.960022
374.783997,448.959991,687.104004
380.640015,448.959991,692.960022
376.735992,450.911987,696.864014
374.783997,445.056000,694.911987
378.687988,447.007996,696.864014
374.783997,448.959991,694.911987
370.880005,447.007996,685.151978
370.880005,439.200012,679.296021
372.832001,443.104004,696.864014
384.544006,448.959991,696.864014
378.687988,448.959991,696.864014
384.544006,447.007996,696.864014
376.735992,450.911987,698.815979
376.735992,443.104004,700.768005
376.735992,443.104004,706.624023
374.783997,437.247986,696.864014
382.592010,448.959991,696.864014
376.735992,450.911987,706.624023
394.303986,450.911987,702.719971
378.687988,452.864014,700.768005
398.208008,454.816010,698.815979
384.544006,447.007996,696.864014
400.160004,456.768005,708.575989
398.208008,448.959991,702.719971
400.160004,452.864014,706.624023
390.399994,454.816010,712.479980
400.160004,450.911987,718.335999
400.160004,445.056000,714.432007
400.160004,454.816010,720.288025
402.112000,450.911987,718.335999
407.967987,448.959991,712.479980
406.015991,448.959991,728.096008
402.112000,448.959991,724.192017
402.112000,447.007996,730.047974
413.824005,433.343994,732.000000
419.679993,441.152008,722.239990
417.727997,439.200012,728.096008
417.727997,441.152008,728.096008
419.679993,448.959991,728.096008
419.679993,441.152008,733.952026
413.824005,448.959991,739.807983
415.776001,445.056000,743.711975
417.727997,447.007996,741.760010
417.727997,454.816010,741.760010
425.536011,445.056000,745.664001
423.584015,456.768005,745.664001
427.488007,458.720001,741.760010
425.536011,450.911987,745.664001
425.536011,452.864014,757.375977
431.391998,447.007996,755.424011
431.391998,454.816010,753.471985
429.440002,448.959991,757.375977
423.584015,454.816010,753.471985
421.631989,456.768005,745.664001
421.631989,450.911987,753.471985
425.536011,452.864014,751.520020
429.440002,450.911987,755.424011
425.536011,441.152008,755.424011
421.631989,437.247986,749.567993
425.536011,454.816010,751.520020
429.440002,443.104004,757.375977
429.440002,443.104004,763.231995
427.488007,443.104004,761.280029
427.488007,443.104004,757.375977
421.631989,441.152008,759.328003
421.631989,445.056000,755.424011
429.440002,445.056000,749.567993
419.679993,441.152008,759.328003
431.391998,441.152008,755.424011
421.631989,450.911987,759.328003
429.440002,447.007996,757.375977
427.488007,448.959991,759.328003
429.440002,443.104004,761.280029
421.631989,454.816010,774.943970
433.343994,443.104004,761.280029
427.488007,448.959991,767.135986
425.536011,450.911987,769.088013
427.488007,445.056000,771.039978
431.391998,445.056000,765.184021
423.584015,454.816010,765.184021
433.343994,443.104004,757.375977
427.488007,450.911987,761.280029
429.440002,439.200012,771.039978
423.584015,437.247986,765.184021
427.488007,443.104004,767.135986
429.440002,443.104004,765.184021
427.488007,447.007996,769.088013
427.488007,445.056000,761.280029
425.536011,439.200012,767.135986
421.631989,452.864014,765.184021
425.536011,445.056000,772.992004
425.536011,437.247986,765.184021
427.488007,441.152008,772.992004
429.440002,439.200012,772.992004
429.440002,439.200012,774.943970
421.631989,439.200012,776.895996
425.536011,437.247986,765.184021
431.391998,437.247986,765.184021
429.440002,450.911987,769.088013
429.440002,445.056000,769.088013
433.343994,439.200012,771.039978
435.295990,445.056000,761.280029
435.295990,452.864014,774.943970
437.247986,445.056000,778.848022
443.104004,441.152008,774.943970
445.056000,454.816010,778.848022
447.007996,452.864014,772.992004
448.959991,447.007996,780.799988
447.007996,435.295990,780.799988
448.959991,448.959991,776.895996
450.911987,435.295990,774.943970
448.959991,445.056000,778.848022
462.623993,447.007996,778.848022
456.768005,441.152008,786.656006
466.528015,441.152008,782.752014
450.911987,437.247986,786.656006
456.768005,439.200012,786.656006
458.720001,447.007996,794.463989
470.432007,439.200012,784.703979
470.432007,445.056000,798.367981
476.287994,450.911987,790.559998
470.432007,454.816010,798.367981
482.144012,448.959991,792.512024
476.287994,454.816010,806.176025
478.239990,452.864014,798.367981
478.239990,441.152008,796.416016
482.144012,445.056000,802.271973
488.000000,452.864014,810.080017
486.048004,448.959991,813.984009
488.000000,454.816010,819.840027
484.096008,452.864014,821.791992
501.664001,464.575989,815.935974
488.000000,456.768005,825.695984
495.808014,448.959991,819.840027
505.567993,454.816010,821.791992
505.567993,460.671997,831.552002
491.903992,460.671997,835.455994
501.664001,466.528015,835.455994
495.808014,462.623993,835.455994
497.760010,458.720001,839.359985
493.855988,462.623993,845.216003
495.808014,452.864014,837.408020
491.903992,458.720001,847.168030
503.615997,462.623993,843.263977
493.855988,470.432007,841.312012
505.567993,474.335999,841.312012
497.760010,478.239990,837.408020
488.000000,478.239990,837.408020
484.096008,488.000000,839.359985
493.855988,484.096008,835.455994
488.000000,482.144012,837.408020
484.096008,493.855988,831.552002
476.287994,499.712006,829.599976
482.144012,495.808014,837.408020
474.335999,501.664001,831.552002
466.528015,505.567993,819.840027
474.335999,507.519989,815.935974
472.384003,513.375977,819.840027
472.384003,509.471985,825.695984
458.720001,513.375977,812.031982
456.768005,511.424011,810.080017
460.671997,513.375977,810.080017
458.720001,517.280029,819.840027
458.720001,521.184021,808.127991
452.864014,519.231995,806.176025
445.056000,528.992004,800.320007
450.911987,525.088013,806.176025
447.007996,530.943970,812.031982
445.056000,527.039978,798.367981
435.295990,523.135986,796.416016
443.104004,521.184021,798.367981
443.104004,532.895996,792.512024
439.200012,525.088013,800.320007
433.343994,527.039978,792.512024
427.488007,544.607971,794.463989
429.440002,538.752014,792.512024
425.536011,530.943970,798.367981
433.343994,540.703979,782.752014
427.488007,548.512024,794.463989
439.200012,542.656006,798.367981
425.536011,548.512024,790.559998
429.440002,548.512024,788.607971
427.488007,538.752014,784.703979
427.488007,546.559998,792.512024
433.343994,542.656006,782.752014
435.295990,554.367981,790.559998
427.488007,556.320007,788.607971
435.295990,562.176025,790.559998
431.391998,556.320007,790.559998
429.440002,554.367981,782.752014
435.295990,562.176025,796.416016
441.152008,564.127991,782.752014
443.104004,554.367981,784.703979
443.104004,564.127991,788.607971
443.104004,571.935974,790.559998
437.247986,560.223999,790.559998
437.247986,562.176025,796.416016
447.007996,571.935974,784.703979
439.200012,568.031982,788.607971
460.671997,575.840027,792.512024
450.911987,571.935974,792.512024
452.864014,577.791992,794.463989
454.816010,562.176025,796.416016
456.768005,571.935974,802.271973
456.768005,573.888000,794.463989
452.864014,575.840027,794.463989
450.911987,577.791992,784.703979
445.056000,583.648010,788.607971
443.104004,583.648010,792.512024
454.816010,587.552002,792.512024
458.720001,587.552002,780.799988
464.575989,585.599976,784.703979
476.287994,575.840027,794.463989
470.432007,571.935974,794.463989
476.287994,591.455994,794.463989
476.287994,587.552002,796.416016
476.287994,577.791992,792.512024
466.528015,579.744019,786.656006
472.384003,601.216003,788.607971
466.528015,603.168030,774.943970
468.480011,597.312012,774.943970
468.480011,607.072021,780.799988
458.720001,595.359985,784.703979
476.287994,595.359985,788.607971
466.528015,597.312012,780.799988
470.432007,587.552002,786.656006
474.335999,583.648010,782.752014
480.191986,599.263977,784.703979
478.239990,583.648010,786.656006
480.191986,575.840027,782.752014
478.239990,593.408020,776.895996
480.191986,603.168030,776.895996
478.239990,593.408020,776.895996
484.096008,587.552002,778.848022
486.048004,599.263977,782.752014
493.855988,607.072021,778.848022
484.096008,591.455994,774.943970
493.855988,605.119995,788.607971
489.951996,595.359985,782.752014
486.048004,599.263977,782.752014
491.903992,599.263977,786.656006
493.855988,601.216003,774.943970
501.664001,593.408020,786.656006
499.712006,597.312012,774.943970
495.808014,607.072021,780.799988
488.000000,601.216003,780.799988
499.712006,609.023987,769.088013
505.567993,603.168030,772.992004
497.760010,603.168030,778.848022
501.664001,609.023987,780.799988
503.615997,601.216003,776.895996
509.471985,601.216003,774.943970
511.424011,610.976013,780.799988
503.615997,605.119995,784.703979
509.471985,601.216003,790.559998
511.424011,603.168030,792.512024
525.088013,599.263977,802.271973
521.184021,591.455994,806.176025
521.184021,591.455994,798.367981
530.943970,599.263977,794.463989
523.135986,616.831970,776.895996
530.943970,605.119995,778.848022
532.895996,624.640015,780.799988
538.752014,622.687988,776.895996
552.416016,610.976013,776.895996
550.463989,603.168030,771.039978
546.559998,626.591980,780.799988
548.512024,614.880005,778.848022
548.512024,603.168030,780.799988
542.656006,609.023987,788.607971
554.367981,612.927979,786.656006
552.416016,626.591980,790.559998
562.176025,605.119995,794.463989
564.127991,607.072021,792.512024
568.031982,620.736023,794.463989
564.127991,616.831970,790.559998
575.840027,597.312012,784.703979
583.648010,597.312012,792.512024
571.935974,609.023987,798.367981
569.984009,601.216003,802.271973
573.888000,605.119995,804.223999
575.840027,603.168030,802.271973
573.888000,603.168030,804.223999
583.648010,610.976013,806.176025
585.599976,599.263977,796.416016
581.695984,597.312012,800.320007
591.455994,609.023987,802.271973
585.599976,607.072021,806.176025
581.695984,610.976013,808.127991
587.552002,607.072021,810.080017
585.599976,595.359985,806.176025
595.359985,601.216003,798.367981
585.599976,610.976013,794.463989
583.648010,599.263977,792.512024
577.791992,605.119995,790.559998
583.648010,601.216003,796.416016
583.648010,593.408020,800.320007
587.552002,593.408020,784.703979
581.695984,593.408020,794.463989
585.599976,599.263977,796.416016
577.791992,591.455994,788.607971
577.791992,583.648010,790.559998
585.599976,583.648010,784.703979
583.648010,571.935974,794.463989
585.599976,566.080017,794.463989
577.791992,566.080017,788.607971
579.744019,569.984009,782.752014
581.695984,575.840027,776.895996
579.744019,564.127991,788.607971
575.840027,558.271973,774.943970
575.840027,554.367981,767.135986
571.935974,564.127991,769.088013
566.080017,554.367981,774.943970
562.176025,571.935974,772.992004
568.031982,566.080017,774.943970
562.176025,562.176025,765.184021
558.271973,568.031982,761.280029
558.271973,564.127991,759.328003
556.320007,554.367981,763.231995
564.127991,573.888000,769.088013
550.463989,560.223999,771.039978
556.320007,554.367981,759.328003
550.463989,550.463989,753.471985
550.463989,544.607971,755.424011
542.656006,550.463989,749.567993
536.799988,534.848022,757.375977
538.752014,536.799988,753.471985
530.943970,530.943970,751.520020
527.039978,536.799988,743.711975
530.943970,530.943970,745.664001
525.088013,530.943970,739.807983
538.752014,523.135986,737.856018
528.992004,515.328003,737.856018
521.184021,528.992004,735.903992
511.424011,515.328003,728.096008
519.231995,523.135986,735.903992
503.615997,521.184021,735.903992
509.471985,511.424011,732.000000
507.519989,525.088013,730.047974
505.567993,511.424011,732.000000
503.615997,515.328003,728.096008
501.664001,509.471985,728.096008
499.712006,507.519989,743.711975
501.664001,511.424011,726.143982
495.808014,505.567993,730.047974
499.712006,495.808014,735.903992
491.903992,507.519989,730.047974
491.903992,511.424011,730.047974
488.000000,503.615997,735.903992
489.951996,499.712006,737.856018
486.048004,499.712006,732.000000
488.000000,509.471985,735.903992
484.096008,497.760010,726.143982
480.191986,489.951996,730.047974
480.191986,491.903992,732.000000
486.048004,495.808014,732.000000
486.048004,501.664001,726.143982
482.144012,495.808014,726.143982
480.191986,495.808014,726.143982
478.239990,497.760010,735.903992
474.335999,497.760010,726.143982
476.287994,488.000000,733.952026
486.048004,486.048004,732.000000
480.191986,480.191986,722.239990
474.335999,489.951996,724.192017
480.191986,486.048004,728.096008
476.287994,493.855988,728.096008
482.144012,484.096008,739.807983
472.384003,476.287994,737.856018
472.384003,482.144012,730.047974
480.191986,476.287994,741.760010
482.144012,486.048004,735.903992
478.239990,478.239990,733.952026
472.384003,476.287994,739.807983
476.287994,476.287994,741.760010
482.144012,476.287994,739.807983
476.287994,476.287994,739.807983
476.287994,480.191986,739.807983
476.287994,478.239990,741.760010
480.191986,482.144012,733.952026
480.191986,486.048004,741.760010
470.432007,468.480011,743.711975
474.335999,478.239990,745.664001
476.287994,480.191986,751.520020
476.287994,468.480011,747.616028
474.335999,480.191986,743.711975
466.528015,470.432007,733.952026
474.335999,484.096008,751.520020
468.480011,474.335999,751.520020
474.335999,474.335999,747.616028
472.384003,474.335999,743.711975
470.432007,482.144012,737.856018
474.335999,482.144012,743.711975
468.480011,484.096008,737.856018
470.432007,486.048004,733.952026
462.623993,484.096008,739.807983
466.528015,478.239990,749.567993
462.623993,480.191986,743.711975
462.623993,472.384003,743.711975
464.575989,470.432007,741.760010
464.575989,478.239990,743.711975
468.480011,478.239990,739.807983
460.671997,478.239990,743.711975
460.671997,472.384003,743.711975
458.720001,489.951996,739.807983
460.671997,480.191986,724.192017
470.432007,486.048004,735.903992
460.671997,476.287994,735.903992
460.671997,489.951996,741.760010
460.671997,480.191986,733.952026
456.768005,478.239990,730.047974
460.671997,486.048004,735.903992
460.671997,476.287994,733.952026
466.528015,470.432007,739.807983
464.575989,486.048004,735.903992
466.528015,478.239990,743.711975
462.623993,484.096008,743.711975
466.528015,468.480011,728.096008
464.575989,474.335999,732.000000
466.528015,472.384003,739.807983
466.528015,476.287994,732.000000
462.623993,484.096008,743.711975
464.575989,486.048004,737.856018
468.480011,489.951996,737.856018
460.671997,482.144012,737.856018
466.528015,484.096008,743.711975
474.335999,493.855988,733.952026
474.335999,484.096008,743.711975
464.575989,489.951996,739.807983
468.480011,486.048004,743.711975
476.287994,484.096008,733.952026
468.480011,482.144012,743.711975
470.432007,491.903992,747.616028
472.384003,488.000000,743.711975
468.480011,484.096008,747.616028
478.239990,486.048004,751.520020
476.287994,486.048004,753.471985
476.287994,480.191986,745.664001
474.335999,474.335999,739.807983
470.432007,478.239990,741.760010
480.191986,482.144012,741.760010
478.239990,482.144012,747.616028
478.239990,488.000000,743.711975
468.480011,486.048004,745.664001
478.239990,486.048004,741.760010
478.239990,482.144012,741.760010
478.239990,486.048004,745.664001
482.144012,472.384003,739.807983
480.191986,480.191986,743.711975
466.528015,480.191986,749.567993
474.335999,474.335999,741.760010
478.239990,474.335999,747.616028
472.384003,468.480011,743.711975
474.335999,482.144012,745.664001
472.384003,484.096008,751.520020
468.480011,472.384003,743.711975
468.480011,482.144012,745.664001
468.480011,476.287994,745.664001
464.575989,480.191986,737.856018
468.480011,476.287994,739.807983
472.384003,472.384003,733.952026
470.432007,464.575989,741.760010
470.432007,478.239990,739.807983
468.480011,476.287994,743.711975
470.432007,472.384003,735.903992
466.528015,468.480011,730.047974
462.623993,468.480011,739.807983
464.575989,478.239990,735.903992
460.671997,474.335999,735.903992
454.816010,470.432007,726.143982
462.623993,468.480011,728.096008
456.768005,478.239990,741.760010
454.816010,474.335999,747.616028
456.768005,476.287994,733.952026
454.816010,472.384003,733.952026
456.768005,468.480011,728.096008
460.671997,476.287994,726.143982
458.720001,478.239990,735.903992
456.768005,470.432007,730.047974
456.768005,474.335999,730.047974
456.768005,468.480011,739.807983
458.720001,466.528015,739.807983
454.816010,484.096008,745.664001
448.959991,480.191986,741.760010
450.911987,472.384003,739.807983
448.959991,466.528015,735.903992
452.864014,470.432007,741.760010
452.864014,474.335999,735.903992
452.864014,468.480011,743.711975
441.152008,478.239990,739.807983
454.816010,470.432007,737.856018
454.816010,476.287994,741.760010
448.959991,470.432007,730.047974
445.056000,472.384003,730.047974
454.816010,470.432007,735.903992
445.056000,470.432007,730.047974
445.056000,466.528015,726.143982
450.911987,470.432007,726.143982
439.200012,472.384003,722.239990
437.247986,474.335999,722.239990
443.104004,466.528015,733.952026
447.007996,464.575989,722.239990
448.959991,474.335999,722.239990
448.959991,470.432007,726.143982
447.007996,472.384003,728.096008
447.007996,464.575989,726.143982
447.007996,472.384003,728.096008
447.007996,474.335999,730.047974
450.911987,472.384003,722.239990
448.959991,472.384003,728.096008
445.056000,478.239990,728.096008
447.007996,468.480011,724.192017
437.247986,464.575989,732.000000
439.200012,474.335999,737.856018
445.056000,472.384003,726.143982
450.911987,478.239990,722.239990
445.056000,474.335999,720.288025
448.959991,482.144012,722.239990
447.007996,464.575989,724.192017
448.959991,476.287994,732.000000
452.864014,478.239990,733.952026
448.959991,462.623993,732.000000
448.959991,482.144012,728.096008
458.720001,478.239990,730.047974
447.007996,476.287994,732.000000
448.959991,480.191986,730.047974
458.720001,482.144012,730.047974
454.816010,489.951996,732.000000
452.864014,489.951996,730.047974
456.768005,482.144012,743.711975
456.768005,484.096008,747.616028
462.623993,493.855988,733.952026
460.671997,501.664001,733.952026
456.768005,495.808014,735.903992
462.623993,497.760010,739.807983
458.720001,495.808014,743.711975
458.720001,491.903992,733.952026
452.864014,491.903992,741.760010
462.623993,507.519989,737.856018
448.959991,501.664001,726.143982
460.671997,509.471985,737.856018
462.623993,499.712006,728.096008
470.432007,511.424011,726.143982
456.768005,503.615997,718.335999
460.671997,495.808014,730.047974
448.959991,501.664001,730.047974
456.768005,499.712006,732.000000
454.816010,503.615997,730.047974
462.623993,503.615997,718.335999
460.671997,505.567993,732.000000
466.528015,509.471985,726.143982
464.575989,501.664001,739.807983
460.671997,501.664001,714.432007
454.816010,509.471985,724.192017
452.864014,505.567993,726.143982
460.671997,513.375977,728.096008
452.864014,515.328003,732.000000
462.623993,507.519989,724.192017
454.816010,505.567993,722.239990
450.911987,511.424011,728.096008
445.056000,519.231995,722.239990
450.911987,525.088013,718.335999
445.056000,517.280029,722.239990
450.911987,515.328003,728.096008
445.056000,519.231995,718.335999
443.104004,517.280029,720.288025
437.247986,521.184021,714.432007
433.343994,517.280029,718.335999
435.295990,515.328003,718.335999
439.200012,525.088013,722.239990
443.104004,513.375977,706.624023
429.440002,521.184021,720.288025
433.343994,532.895996,714.432007
435.295990,525.088013,714.432007
429.440002,523.135986,710.528015
429.440002,521.184021,708.575989
433.343994,523.135986,710.528015
429.440002,527.039978,702.719971
425.536011,528.992004,710.528015
427.488007,534.848022,702.719971
431.391998,528.992004,694.911987
429.440002,536.799988,698.815979
417.727997,532.895996,694.911987
429.440002,534.848022,683.200012
423.584015,536.799988,683.200012
421.631989,532.895996,679.296021
427.488007,530.943970,692.960022
429.440002,532.895996,679.296021
431.391998,534.848022,685.151978
421.631989,534.848022,671.487976
421.631989,530.943970,683.200012
421.631989,527.039978,683.200012
431.391998,527.039978,691.007996
431.391998,532.895996,685.151978
421.631989,528.992004,675.392029
429.440002,521.184021,679.296021
421.631989,519.231995,685.151978
431.391998,515.328003,685.151978
435.295990,515.328003,681.247986
431.391998,521.184021,683.200012
429.440002,523.135986,691.007996
427.488007,519.231995,683.200012
425.536011,521.184021,685.151978
423.584015,515.328003,681.247986
415.776001,521.184021,677.343994
431.391998,515.328003,683.200012
425.536011,515.328003,675.392029
425.536011,515.328003,681.247986
431.391998,513.375977,681.247986
423.584015,515.328003,677.343994
431.391998,515.328003,681.247986
429.440002,521.184021,679.296021
431.391998,511.424011,685.151978
435.295990,515.328003,673.440002
429.440002,505.567993,671.487976
433.343994,501.664001,677.343994
425.536011,513.375977,679.296021
431.391998,513.375977,679.296021
435.295990,509.471985,687.104004
433.343994,499.712006,689.056030
447.007996,499.712006,687.104004
447.007996,495.808014,685.151978
447.007996,495.808014,689.056030
441.152008,513.375977,687.104004
443.104004,499.712006,696.864014
439.200012,501.664001,691.007996
445.056000,501.664001,692.960022
452.864014,499.712006,692.960022
454.816010,495.808014,692.960022
450.911987,491.903992,687.104004
445.056000,491.903992,692.960022
448.959991,501.664001,694.911987
448.959991,503.615997,694.911987
458.720001,505.567993,692.960022
456.768005,495.808014,694.911987
448.959991,505.567993,692.960022
452.864014,499.712006,704.671997
456.768005,499.712006,696.864014
458.720001,505.567993,700.768005
454.816010,503.615997,700.768005
468.480011,497.760010,696.864014
470.432007,495.808014,696.864014
468.480011,497.760010,691.007996
464.575989,505.567993,704.671997
464.575989,505.567993,694.911987
460.671997,511.424011,694.911987
460.671997,517.280029,700.768005
460.671997,513.375977,694.911987
472.384003,513.375977,694.911987
470.432007,513.375977,704.671997
470.432007,507.519989,704.671997
474.335999,503.615997,712.479980
478.239990,509.471985,702.719971
476.287994,515.328003,704.671997
476.287994,517.280029,710.528015
476.287994,517.280029,710.528015
488.000000,515.328003,716.383972
482.144012,513.375977,716.383972
482.144012,513.375977,710.528015
480.191986,515.328003,706.624023
486.048004,525.088013,716.383972
489.951996,523.135986,710.528015
493.855988,515.328003,716.383972
493.855988,513.375977,714.432007
497.760010,515.328003,718.335999
497.760010,513.375977,712.479980
497.760010,519.231995,728.096008
493.855988,515.328003,718.335999
497.760010,511.424011,714.432007
499.712006,523.135986,718.335999
503.615997,523.135986,724.192017
509.471985,519.231995,712.479980
505.567993,517.280029,716.383972
503.615997,525.088013,716.383972
507.519989,517.280029,714.432007
507.519989,517.280029,714.432007
503.615997,527.039978,722.239990
513.375977,519.231995,718.335999
513.375977,523.135986,706.624023
509.471985,525.088013,714.432007
509.471985,527.039978,724.192017
515.328003,528.992004,724.192017
511.424011,519.231995,716.383972
521.184021,519.231995,720.288025
517.280029,515.328003,720.288025
507.519989,517.280029,716.383972
507.519989,517.280029,720.288025
507.519989,517.280029,710.528015
507.519989,517.280029,710.528015
513.375977,507.519989,716.383972
511.424011,517.280029,710.528015
511.424011,517.280029,710.528015
505.567993,517.280029,708.575989
505.567993,507.519989,712.479980
509.471985,499.712006,708.575989
509.471985,503.615997,700.768005
509.471985,501.664001,708.575989
503.615997,507.519989,702.719971
509.471985,503.615997,698.815979
495.808014,495.808014,710.528015
503.615997,503.615997,708.575989
501.664001,495.808014,710.528015
503.615997,501.664001,702.719971
501.664001,507.519989,694.911987
505.567993,501.664001,700.768005
499.712006,497.760010,704.671997
501.664001,513.375977,694.911987
501.664001,509.471985,704.671997
495.808014,509.471985,702.719971
503.615997,503.615997,704.671997
501.664001,507.519989,698.815979
501.664001,509.471985,704.671997
495.808014,499.712006,706.624023
501.664001,503.615997,702.719971
488.000000,497.760010,696.864014
497.760010,509.471985,698.815979
488.000000,501.664001,698.815979
499.712006,501.664001,700.768005
497.760010,497.760010,700.768005
499.712006,501.664001,692.960022
499.712006,503.615997,694.911987
489.951996,505.567993,694.911987
499.712006,491.903992,691.007996
491.903992,484.096008,687.104004
497.760010,501.664001,696.864014
493.855988,491.903992,683.200012
486.048004,491.903992,696.864014
499.712006,497.760010,696.864014
495.808014,491.903992,698.815979
493.855988,486.048004,700.768005
491.903992,482.144012,700.768005
493.855988,488.000000,702.719971
491.903992,486.048004,706.624023
495.808014,491.903992,702.719971
499.712006,497.760010,702.719971
491.903992,488.000000,706.624023
503.615997,489.951996,708.575989
499.712006,489.951996,698.815979
497.760010,493.855988,702.719971
493.855988,480.191986,698.815979
501.664001,495.808014,708.575989
493.855988,491.903992,700.768005
495.808014,486.048004,694.911987
493.855988,493.855988,700.768005
495.808014,493.855988,700.768005
501.664001,491.903992,708.575989
497.760010,499.712006,698.815979
493.855988,488.000000,700.768005
488.000000,488.000000,708.575989
489.951996,486.048004,698.815979
482.144012,478.239990,700.768005
484.096008,489.951996,704.671997
488.000000,488.000000,700.768005
476.287994,484.096008,708.575989
480.191986,472.384003,702.719971
484.096008,480.191986,704.671997
491.903992,486.048004,700.768005
489.951996,486.048004,692.960022
480.191986,489.951996,700.768005
476.287994,476.287994,691.007996
476.287994,488.000000,700.768005
472.384003,480.191986,700.768005
478.239990,488.000000,692.960022
484.096008,478.239990,700.768005
489.951996,484.096008,685.151978
482.144012,486.048004,692.960022
478.239990,480.191986,694.911987
482.144012,484.096008,696.864014
484.096008,482.144012,691.007996
472.384003,484.096008,691.007996
482.144012,488.000000,694.911987
470.432007,486.048004,694.911987
482.144012,478.239990,689.056030
480.191986,480.191986,683.200012
474.335999,472.384003,685.151978
482.144012,474.335999,696.864014
480.191986,472.384003,692.960022
478.239990,482.144012,696.864014
480.191986,468.480011,687.104004
476.287994,478.239990,691.007996
478.239990,472.384003,691.007996
482.144012,484.096008,691.007996
476.287994,476.287994,691.007996
484.096008,474.335999,692.960022
480.191986,480.191986,691.007996
488.000000,478.239990,687.104004
488.000000,489.951996,683.200012
493.855988,478.239990,692.960022
489.951996,486.048004,694.911987
489.951996,489.951996,691.007996
488.000000,493.855988,700.768005
489.951996,484.096008,691.007996
497.760010,488.000000,696.864014
495.808014,499.712006,702.719971
493.855988,486.048004,698.815979
493.855988,486.048004,698.815979
497.760010,489.951996,704.671997
497.760010,501.664001,708.575989
495.808014,489.951996,708.575989
495.808014,488.000000,706.624023
509.471985,488.000000,704.671997
507.519989,489.951996,706.624023
513.375977,491.903992,694.911987
509.471985,480.191986,702.719971
499.712006,493.855988,702.719971
507.519989,488.000000,706.624023
511.424011,491.903992,712.479980
511.424011,499.712006,706.624023
515.328003,495.808014,700.768005
511.424011,491.903992,712.479980
517.280029,491.903992,706.624023
519.231995,495.808014,708.575989
509.471985,501.664001,714.432007
507.519989,489.951996,704.671997
507.519989,501.664001,706.624023
515.328003,505.567993,704.671997
515.328003,491.903992,706.624023
507.519989,505.567993,708.575989
517.280029,501.664001,704.671997
523.135986,499.712006,704.671997
521.184021,499.712006,716.383972
519.231995,505.567993,702.719971
521.184021,491.903992,710.528015
515.328003,499.712006,718.335999
519.231995,503.615997,706.624023
515.328003,491.903992,710.528015
511.424011,501.664001,716.383972
513.375977,503.615997,702.719971
507.519989,501.664001,694.911987
515.328003,503.615997,702.719971
511.424011,509.471985,708.575989
517.280029,505.567993,708.575989
523.135986,495.808014,702.719971
513.375977,499.712006,714.432007
513.375977,497.760010,712.479980
515.328003,484.096008,702.719971
515.328003,501.664001,708.575989
513.375977,489.951996,702.719971
511.424011,497.760010,694.911987
519.231995,493.855988,698.815979
507.519989,491.903992,702.719971
509.471985,493.855988,706.624023
515.328003,505.567993,706.624023
525.088013,495.808014,706.624023
513.375977,503.615997,708.575989
513.375977,493.855988,712.479980
515.328003,491.903992,714.432007
513.375977,503.615997,722.239990
521.184021,501.664001,714.432007
521.184021,495.808014,708.575989
521.184021,499.712006,718.335999
517.280029,509.471985,716.383972
521.184021,499.712006,716.383972
511.424011,499.712006,710.528015
521.184021,499.712006,712.479980
517.280029,505.567993,714.432007
521.184021,499.712006,712.479980
525.088013,507.519989,712.479980
525.088013,501.664001,716.383972
523.135986,493.855988,710.528015
521.184021,495.808014,716.383972
525.088013,497.760010,716.383972
527.039978,501.664001,712.479980
523.135986,495.808014,716.383972
523.135986,501.664001,718.335999
528.992004,495.808014,718.335999
527.039978,499.712006,728.096008
521.184021,489.951996,720.288025
525.088013,499.712006,714.432007
525.088013,501.664001,712.479980
523.135986,495.808014,716.383972
519.231995,505.567993,712.479980
528.992004,499.712006,708.575989
521.184021,499.712006,712.479980
532.895996,503.615997,720.288025
525.088013,499.712006,728.096008
530.943970,503.615997,724.192017
527.039978,511.424011,718.335999
532.895996,495.808014,714.432007
523.135986,507.519989,718.335999
536.799988,507.519989,722.239990
534.848022,509.471985,730.047974
540.703979,509.471985,722.239990
534.848022,495.808014,735.903992
542.656006,493.855988,735.903992
544.607971,493.855988,718.335999
536.799988,495.808014,726.143982
536.799988,497.760010,733.952026
538.752014,497.760010,732.000000
542.656006,497.760010,732.000000
540.703979,484.096008,739.807983
548.512024,499.712006,735.903992
534.848022,497.760010,737.856018
540.703979,488.000000,737.856018
534.848022,499.712006,743.711975
534.848022,489.951996,739.807983
538.752014,489.951996,737.856018
532.895996,491.903992,733.952026
542.656006,497.760010,730.047974
536.799988,486.048004,739.807983
536.799988,486.048004,739.807983
536.799988,489.951996,737.856018
530.943970,491.903992,735.903992
534.848022,488.000000,726.143982
538.752014,491.903992,726.143982
532.895996,493.855988,735.903992
532.895996,495.808014,733.952026
536.799988,489.951996,737.856018
525.088013,488.000000,732.000000
528.992004,484.096008,737.856018
527.039978,480.191986,726.143982
523.135986,486.048004,726.143982
527.039978,488.000000,732.000000
515.328003,488.000000,718.335999
519.231995,480.191986,722.239990
519.231995,488.000000,720.288025
519.231995,486.048004,714.432007
519.231995,478.239990,724.192017
515.328003,472.384003,732.000000
511.424011,474.335999,720.288025
507.519989,480.191986,720.288025
503.615997,474.335999,718.335999
503.615997,480.191986,724.192017
503.615997,482.144012,722.239990
505.567993,482.144012,720.288025
491.903992,482.144012,722.239990
497.760010,464.575989,720.288025
488.000000,472.384003,724.192017
495.808014,472.384003,714.432007
489.951996,470.432007,710.528015
482.144012,468.480011,714.432007
476.287994,472.384003,726.143982
474.335999,472.384003,716.383972
480.191986,468.480011,718.335999
470.432007,474.335999,724.192017
474.335999,472.384003,726.143982
472.384003,464.575989,718.335999
462.623993,478.239990,718.335999
464.575989,462.623993,720.288025
460.671997,460.671997,710.528015
460.671997,460.671997,714.432007
452.864014,470.432007,714.432007
456.768005,464.575989,706.624023
445.056000,466.528015,706.624023
447.007996,458.720001,708.575989
443.104004,462.623993,706.624023
441.152008,458.720001,710.528015
441.152008,456.768005,712.479980
447.007996,450.911987,702.719971
447.007996,452.864014,708.575989
437.247986,450.911987,694.911987
433.343994,447.007996,694.911987
429.440002,445.056000,698.815979
433.343994,448.959991,694.911987
439.200012,443.104004,694.911987
429.440002,443.104004,692.960022
427.488007,439.200012,691.007996
431.391998,447.007996,687.104004
417.727997,447.007996,700.768005
425.536011,437.247986,696.864014
423.584015,443.104004,691.007996
427.488007,431.391998,683.200012
425.536011,421.631989,692.960022
425.536011,425.536011,696.864014
425.536011,429.440002,692.960022
427.488007,433.343994,691.007996
425.536011,429.440002,698.815979
429.440002,429.440002,689.056030
425.536011,425.536011,698.815979
413.824005,427.488007,694.911987
413.824005,427.488007,694.911987
421.631989,419.679993,696.864014
423.584015,411.872009,696.864014
421.631989,425.536011,698.815979
425.536011,421.631989,698.815979
419.679993,429.440002,694.911987
421.631989,427.488007,696.864014
423.584015,407.967987,694.911987
419.679993,421.631989,696.864014
423.584015,417.727997,691.007996
421.631989,413.824005,702.719971
431.391998,409.920013,706.624023
411.872009,400.160004,708.575989
417.727997,409.920013,704.671997
419.679993,407.967987,700.768005
423.584015,411.872009,710.528015
431.391998,413.824005,706.624023
425.536011,404.063995,700.768005
417.727997,398.208008,706.624023
429.440002,396.256012,708.575989
433.343994,394.303986,712.479980
435.295990,398.208008,710.528015
435.295990,400.160004,708.575989
435.295990,398.208008,710.528015
437.247986,394.303986,714.432007
441.152008,396.256012,716.383972
435.295990,396.256012,716.383972
441.152008,390.399994,710.528015
437.247986,386.496002,722.239990
441.152008,388.447998,724.192017
443.104004,382.592010,714.432007
443.104004,392.351990,716.383972
443.104004,394.303986,720.288025
437.247986,382.592010,710.528015
439.200012,396.256012,720.288025
448.959991,390.399994,724.192017
441.152008,390.399994,720.288025
441.152008,396.256012,720.288025
450.911987,406.015991,716.383972
437.247986,390.399994,712.479980
439.200012,400.160004,706.624023
439.200012,390.399994,708.575989
448.959991,392.351990,720.288025
439.200012,400.160004,710.528015
439.200012,386.496002,718.335999
431.391998,390.399994,712.479980
443.104004,390.399994,712.479980
433.343994,402.112000,714.432007
429.440002,396.256012,710.528015
431.391998,390.399994,712.479980
439.200012,406.015991,704.671997
429.440002,406.015991,700.768005
421.631989,404.063995,708.575989
431.391998,394.303986,696.864014
443.104004,406.015991,710.528015
431.391998,400.160004,704.671997
425.536011,394.303986,700.768005
431.391998,394.303986,698.815979
433.343994,392.351990,694.911987
431.391998,406.015991,694.911987
433.343994,398.208008,694.911987
423.584015,396.256012,698.815979
413.824005,394.303986,702.719971
419.679993,406.015991,685.151978
415.776001,400.160004,700.768005
411.872009,402.112000,694.911987
417.727997,406.015991,692.960022
415.776001,415.776001,696.864014
419.679993,419.679993,691.007996
419.679993,406.015991,687.104004
411.872009,411.872009,683.200012
411.872009,423.584015,685.151978
402.112000,406.015991,689.056030
400.160004,407.967987,685.151978
394.303986,417.727997,683.200012
382.592010,419.679993,683.200012
382.592010,417.727997,689.056030
378.687988,421.631989,691.007996
372.832001,421.631989,685.151978
372.832001,419.679993,681.247986
378.687988,427.488007,663.679993
372.832001,435.295990,667.583984
361.119995,427.488007,663.679993
363.071991,439.200012,661.728027
347.455994,433.343994,655.872009
351.359985,445.056000,659.776001
357.216003,437.247986,661.728027
343.552002,441.152008,648.064026
343.552002,443.104004,653.919983
339.648010,437.247986,646.112000
339.648010,439.200012,648.064026
333.791992,443.104004,644.159973
345.503998,443.104004,632.447998
339.648010,429.440002,640.255981
339.648010,443.104004,642.208008
333.791992,437.247986,632.447998
331.839996,429.440002,622.687988
329.888000,443.104004,628.544006
325.984009,439.200012,634.400024
322.079987,441.152008,628.544006
316.223999,439.200012,626.591980
322.079987,437.247986,622.687988
316.223999,445.056000,609.023987
325.984009,439.200012,605.119995
322.079987,439.200012,612.927979
322.079987,447.007996,605.119995
322.079987,447.007996,603.168030
324.032013,460.671997,601.216003
322.079987,452.864014,605.119995
322.079987,447.007996,607.072021
320.127991,456.768005,609.023987
318.175995,458.720001,601.216003
310.368011,458.720001,599.263977
318.175995,458.720001,589.504028
314.272003,462.623993,585.599976
322.079987,464.575989,583.648010
316.223999,464.575989,589.504028
325.984009,466.528015,587.552002
329.888000,470.432007,579.744019
327.936005,464.575989,585.599976
322.079987,460.671997,581.695984
335.743988,456.768005,583.648010
337.696014,456.768005,577.791992
341.600006,452.864014,591.455994
333.791992,456.768005,591.455994
345.503998,460.671997,585.599976
345.503998,452.864014,585.599976
345.503998,452.864014,595.359985
355.264008,454.816010,595.359985
353.312012,458.720001,589.504028
361.119995,448.959991,595.359985
363.071991,450.911987,591.455994
372.832001,452.864014,593.408020
366.976013,452.864014,599.263977
372.832001,448.959991,593.408020
368.928009,441.152008,593.408020
374.783997,450.911987,593.408020
384.544006,447.007996,595.359985
380.640015,443.104004,589.504028
378.687988,439.200012,593.408020
388.447998,437.247986,593.408020
390.399994,437.247986,591.455994
400.160004,433.343994,591.455994
392.351990,433.343994,599.263977
398.208008,441.152008,609.023987
407.967987,429.440002,589.504028
409.920013,425.536011,601.216003
421.631989,425.536011,603.168030
423.584015,425.536011,609.023987
429.440002,425.536011,601.216003
443.104004,427.488007,601.216003
447.007996,413.824005,599.263977
445.056000,407.967987,601.216003
448.959991,413.824005,609.023987
456.768005,409.920013,607.072021
458.720001,409.920013,609.023987
460.671997,402.112000,609.023987
462.623993,411.872009,618.783997
478.239990,411.872009,618.783997
480.191986,411.872009,622.687988
478.239990,419.679993,634.400024
488.000000,406.015991,628.544006
497.760010,415.776001,638.304016
499.712006,423.584015,642.208008
503.615997,415.776001,644.159973
519.231995,413.824005,657.823975
528.992004,421.631989,661.728027
530.943970,421.631989,657.823975
530.943970,431.391998,665.632019
540.703979,423.584015,677.343994
546.559998,421.631989,665.632019
550.463989,411.872009,679.296021
560.223999,407.967987,691.007996
558.271973,406.015991,692.960022
558.271973,404.063995,696.864014
568.031982,404.063995,696.864014
573.888000,396.256012,694.911987
587.552002,394.303986,691.007996
583.648010,386.496002,702.719971
585.599976,392.351990,706.624023
591.455994,386.496002,716.383972
597.312012,398.208008,718.335999
605.119995,392.351990,722.239990
605.119995,392.351990,720.288025
597.312012,404.063995,724.192017
599.263977,392.351990,739.807983
605.119995,400.160004,732.000000
605.119995,407.967987,732.000000
597.312012,406.015991,732.000000
607.072021,406.015991,732.000000
607.072021,415.776001,743.711975
612.927979,419.679993,747.616028
610.976013,419.679993,739.807983
614.880005,423.584015,745.664001
610.976013,417.727997,747.616028
616.831970,409.920013,745.664001
618.783997,417.727997,747.616028
616.831970,427.488007,751.520020
618.783997,413.824005,755.424011
616.831970,407.967987,741.760010
620.736023,427.488007,745.664001
622.687988,419.679993,747.616028
616.831970,415.776001,749.567993
618.783997,421.631989,755.424011
612.927979,421.631989,749.567993
618.783997,419.679993,743.711975
620.736023,421.631989,743.711975
620.736023,409.920013,735.903992
620.736023,413.824005,735.903992
622.687988,419.679993,747.616028
622.687988,415.776001,743.711975
618.783997,421.631989,745.664001
622.687988,429.440002,745.664001
616.831970,427.488007,741.760010
616.831970,429.440002,745.664001
618.783997,421.631989,743.711975
626.591980,427.488007,751.520020
618.783997,427.488007,745.664001
622.687988,421.631989,745.664001
622.687988,431.391998,759.328003
616.831970,443.104004,755.424011
622.687988,423.584015,763.231995
622.687988,435.295990,753.471985
620.736023,431.391998,755.424011
630.495972,435.295990,757.375977
624.640015,425.536011,753.471985
620.736023,427.488007,755.424011
630.495972,429.440002,761.280029
618.783997,425.536011,763.231995
622.687988,431.391998,759.328003
626.591980,423.584015,755.424011
628.544006,417.727997,759.328003
632.447998,425.536011,741.760010
628.544006,429.440002,745.664001
624.640015,421.631989,749.567993
628.544006,425.536011,755.424011
620.736023,429.440002,753.471985
616.831970,429.440002,745.664001
622.687988,433.343994,751.520020
626.591980,433.343994,745.664001
622.687988,439.200012,743.711975
622.687988,441.152008,743.711975
614.880005,433.343994,739.807983
601.216003,437.247986,747.616028
603.168030,425.536011,743.711975
618.783997,427.488007,737.856018
616.831970,445.056000,733.952026
626.591980,454.816010,735.903992
634.400024,439.200012,732.000000
640.255981,425.536011,726.143982
642.208008,445.056000,733.952026
640.255981,458.720001,728.096008
638.304016,433.343994,739.807983
644.159973,433.343994,739.807983
634.400024,454.816010,741.760010
620.736023,443.104004,726.143982
630.495972,450.911987,718.335999
624.640015,454.816010,710.528015
622.687988,439.200012,716.383972
622.687988,448.959991,712.479980
620.736023,441.152008,710.528015
616.831970,443.104004,700.768005
612.927979,445.056000,694.911987
610.976013,458.720001,691.007996
610.976013,460.671997,700.768005
618.783997,447.007996,692.960022
607.072021,450.911987,698.815979
609.023987,460.671997,694.911987
603.168030,447.007996,702.719971
607.072021,458.720001,708.575989
609.023987,468.480011,712.479980
605.119995,456.768005,716.383972
609.023987,445.056000,728.096008
601.216003,462.623993,720.288025
603.168030,462.623993,718.335999
607.072021,452.864014,728.096008
599.263977,456.768005,720.288025
603.168030,466.528015,716.383972
597.312012,464.575989,712.479980
595.359985,458.720001,708.575989
593.408020,462.623993,708.575989
589.504028,466.528015,702.719971
591.455994,464.575989,691.007996
585.599976,470.432007,691.007996
589.504028,458.720001,689.056030
595.359985,462.623993,683.200012
599.263977,456.768005,685.151978
593.408020,458.720001,683.200012
601.216003,454.816010,687.104004
603.168030,456.768005,685.151978
603.168030,450.911987,671.487976
601.216003,454.816010,691.007996
601.216003,448.959991,685.151978
610.976013,454.816010,689.056030
607.072021,456.768005,685.151978
607.072021,454.816010,691.007996
603.168030,452.864014,689.056030
601.216003,454.816010,679.296021
610.976013,448.959991,683.200012
612.927979,448.959991,683.200012
609.023987,441.152008,671.487976
609.023987,441.152008,673.440002
610.976013,435.295990,671.487976
616.831970,433.343994,679.296021
620.736023,437.247986,677.343994
614.880005,437.247986,685.151978
624.640015,421.631989,681.247986
628.544006,433.343994,687.104004
628.544006,435.295990,687.104004
632.447998,419.679993,691.007996
640.255981,431.391998,692.960022
626.591980,435.295990,691.007996
636.351990,427.488007,694.911987
636.351990,427.488007,700.768005
644.159973,431.391998,706.624023
655.872009,423.584015,704.671997
659.776001,415.776001,698.815979
669.536011,411.872009,712.479980
663.679993,425.536011,712.479980
669.536011,411.872009,716.383972
663.679993,419.679993,714.432007
671.487976,406.015991,716.383972
673.440002,413.824005,722.239990
675.392029,415.776001,724.192017
677.343994,406.015991,726.143982
685.151978,406.015991,735.903992
685.151978,406.015991,722.239990
692.960022,409.920013,745.664001
700.768005,406.015991,745.664001
696.864014,394.303986,737.856018
694.911987,402.112000,755.424011
700.768005,406.015991,741.760010
704.671997,398.208008,759.328003
702.719971,398.208008,749.567993
708.575989,400.160004,747.616028
708.575989,400.160004,749.567993
708.575989,402.112000,745.664001
708.575989,404.063995,757.375977
712.479980,388.447998,747.616028
712.479980,390.399994,745.664001
714.432007,400.160004,747.616028
710.528015,378.687988,751.520020
720.288025,388.447998,759.328003
712.479980,380.640015,759.328003
714.432007,382.592010,753.471985
720.288025,376.735992,753.471985
716.383972,376.735992,747.616028
712.479980,374.783997,753.471985
710.528015,366.976013,753.471985
710.528015,384.544006,753.471985
718.335999,372.832001,741.760010
714.432007,380.640015,749.567993
722.239990,372.832001,755.424011
724.192017,366.976013,757.375977
718.335999,372.832001,757.375977
718.335999,370.880005,749.567993
706.624023,376.735992,761.280029
716.383972,376.735992,755.424011
718.335999,374.783997,763.231995
714.432007,382.592010,767.135986
706.624023,386.496002,755.424011
722.239990,382.592010,757.375977
726.143982,386.496002,771.039978
728.096008,378.687988,753.471985
724.192017,382.592010,753.471985
722.239990,380.640015,763.231995
724.192017,370.880005,761.280029
724.192017,380.640015,753.471985
718.335999,374.783997,759.328003
716.383972,372.832001,751.520020
730.047974,376.735992,757.375977
708.575989,380.640015,757.375977
720.288025,366.976013,749.567993
706.624023,366.976013,755.424011
720.288025,380.640015,743.711975
714.432007,372.832001,743.711975
714.432007,370.880005,741.760010
720.288025,378.687988,751.520020
708.575989,366.976013,745.664001
708.575989,376.735992,745.664001
706.624023,384.544006,747.616028
710.528015,366.976013,741.760010
708.575989,368.928009,743.711975
702.719971,374.783997,737.856018
702.719971,370.880005,735.903992
708.575989,372.832001,741.760010
708.575989,370.880005,741.760010
708.575989,365.023987,747.616028
704.671997,359.167999,741.760010
694.911987,370.880005,739.807983
704.671997,378.687988,747.616028
700.768005,368.928009,747.616028
698.815979,366.976013,735.903992
708.575989,376.735992,739.807983
712.479980,374.783997,730.047974
708.575989,368.928009,732.000000
702.719971,376.735992,732.000000
702.719971,374.783997,743.711975
700.768005,366.976013,732.000000
700.768005,370.880005,730.047974
712.479980,372.832001,720.288025
716.383972,363.071991,728.096008
710.528015,361.119995,730.047974
704.671997,366.976013,720.288025
712.479980,359.167999,718.335999
706.624023,361.119995,716.383972
708.575989,366.976013,716.383972
718.335999,365.023987,716.383972
710.528015,365.023987,712.479980
702.719971,374.783997,712.479980
714.432007,370.880005,714.432007
720.288025,363.071991,706.624023
716.383972,374.783997,704.671997
716.383972,374.783997,708.575989
714.432007,378.687988,710.528015
716.383972,384.544006,706.624023
712.479980,392.351990,712.479980
710.528015,400.160004,702.719971
714.432007,386.496002,704.671997
712.479980,394.303986,696.864014
716.383972,394.303986,689.056030
716.383972,404.063995,691.007996
716.383972,404.063995,696.864014
716.383972,413.824005,694.911987
722.239990,411.872009,694.911987
720.288025,419.679993,696.864014
714.432007,415.776001,694.911987
720.288025,413.824005,692.960022
720.288025,415.776001,692.960022
716.383972,421.631989,692.960022
714.432007,427.488007,689.056030
710.528015,427.488007,685.151978
714.432007,419.679993,681.247986
712.479980,425.536011,669.536011
724.192017,429.440002,673.440002
716.383972,429.440002,665.632019
710.528015,417.727997,655.872009
710.528015,425.536011,640.255981
696.864014,425.536011,651.968018
708.575989,423.584015,642.208008
698.815979,421.631989,628.544006
691.007996,419.679993,634.400024
685.151978,409.920013,620.736023
694.911987,411.872009,628.544006
692.960022,417.727997,630.495972
696.864014,406.015991,624.640015
698.815979,417.727997,620.736023
722.239990,402.112000,614.880005
718.335999,407.967987,601.216003
714.432007,431.391998,607.072021
708.575989,425.536011,609.023987
696.864014,400.160004,610.976013
683.200012,435.295990,614.880005
691.007996,447.007996,603.168030
679.296021,425.536011,607.072021
689.056030,409.920013,616.831970
679.296021,413.824005,609.023987
685.151978,406.015991,603.168030
681.247986,404.063995,597.312012
673.440002,388.447998,601.216003
689.056030,372.832001,603.168030
681.247986,374.783997,595.359985
689.056030,390.399994,589.504028
673.440002,376.735992,579.744019
669.536011,365.023987,575.840027
667.583984,376.735992,573.888000
661.728027,376.735992,568.031982
657.823975,376.735992,558.271973
653.919983,370.880005,566.080017
648.064026,368.928009,554.367981
653.919983,378.687988,554.367981
651.968018,392.351990,538.752014
650.015991,378.687988,528.992004
651.968018,392.351990,536.799988
646.112000,396.256012,534.848022
653.919983,374.783997,534.848022
650.015991,396.256012,527.039978
651.968018,400.160004,536.799988
644.159973,388.447998,530.943970
665.632019,386.496002,527.039978
653.919983,390.399994,528.992004
655.872009,386.496002,523.135986
650.015991,388.447998,527.039978
651.968018,388.447998,525.088013
667.583984,380.640015,528.992004
667.583984,386.496002,532.895996
661.728027,384.544006,534.848022
673.440002,380.640015,532.895996
673.440002,365.023987,542.656006
679.296021,365.023987,527.039978
681.247986,372.832001,546.559998
691.007996,380.640015,538.752014
692.960022,374.783997,542.656006
691.007996,361.119995,542.656006
696.864014,368.928009,556.320007
708.575989,380.640015,550.463989
696.864014,384.544006,554.367981
700.768005,374.783997,556.320007
704.671997,384.544006,554.367981
694.911987,384.544006,550.463989
708.575989,390.399994,552.416016
712.479980,396.256012,554.367981
698.815979,386.496002,560.223999
706.624023,390.399994,556.320007
714.432007,396.256012,560.223999
718.335999,396.256012,564.127991
722.239990,394.303986,568.031982
724.192017,378.687988,562.176025
716.383972,386.496002,568.031982
712.479980,390.399994,568.031982
712.479980,382.592010,568.031982
720.288025,372.832001,571.935974
718.335999,376.735992,562.176025
716.383972,374.783997,571.935974
724.192017,368.928009,571.935974
720.288025,365.023987,573.888000
716.383972,378.687988,566.080017
728.096008,376.735992,571.935974
720.288025,368.928009,569.984009
712.479980,372.832001,581.695984
733.952026,366.976013,571.935974
724.192017,366.976013,562.176025
730.047974,378.687988,573.888000
720.288025,376.735992,566.080017
716.383972,357.216003,560.223999
710.528015,376.735992,564.127991
732.000000,388.447998,566.080017
714.432007,365.023987,558.271973
728.096008,355.264008,546.559998
716.383972,384.544006,550.463989
716.383972,365.023987,554.367981
728.096008,355.264008,556.320007
706.624023,357.216003,552.416016
718.335999,361.119995,554.367981
716.383972,347.455994,564.127991
716.383972,347.455994,554.367981
702.719971,343.552002,562.176025
714.432007,329.888000,564.127991
714.432007,331.839996,566.080017
718.335999,331.839996,571.935974
720.288025,327.936005,564.127991
710.528015,324.032013,579.744019
710.528015,320.127991,569.984009
706.624023,329.888000,566.080017
708.575989,335.743988,554.367981
706.624023,329.888000,560.223999
694.911987,324.032013,558.271973
712.479980,333.791992,560.223999
698.815979,349.407990,554.367981
708.575989,333.791992,546.559998
696.864014,325.984009,540.703979
694.911987,337.696014,544.607971
691.007996,335.743988,554.367981
681.247986,341.600006,544.607971
689.056030,333.791992,534.848022
683.200012,325.984009,538.752014
679.296021,341.600006,554.367981
685.151978,339.648010,546.559998
681.247986,322.079987,546.559998
677.343994,318.175995,550.463989
681.247986,331.839996,556.320007
671.487976,318.175995,546.559998
692.960022,302.559998,550.463989
675.392029,316.223999,548.512024
679.296021,322.079987,548.512024
681.247986,304.511993,548.512024
687.104004,320.127991,546.559998
671.487976,316.223999,546.559998
673.440002,308.415985,542.656006
681.247986,318.175995,540.703979
671.487976,322.079987,538.752014
675.392029,312.320007,534.848022
671.487976,310.368011,542.656006
689.056030,316.223999,542.656006
659.776001,302.559998,544.607971
673.440002,318.175995,532.895996
667.583984,318.175995,534.848022
665.632019,306.463989,536.799988
669.536011,312.320007,530.943970
673.440002,316.223999,538.752014
661.728027,302.559998,538.752014
665.632019,308.415985,530.943970
663.679993,318.175995,527.039978
677.343994,308.415985,527.039978
677.343994,312.320007,527.039978
685.151978,304.511993,528.992004
661.728027,296.704010,532.895996
675.392029,302.559998,525.088013
714.432007,267.424011,509.471985
679.296021,267.424011,515.328003
702.719971,322.079987,540.703979
681.247986,255.712006,548.512024
687.104004,232.287994,528.992004
708.575989,294.752014,515.328003
657.823975,310.368011,530.943970
671.487976,234.240005,554.367981
675.392029,224.479996,556.320007
685.151978,271.328003,546.559998
683.200012,290.847992,538.752014
700.768005,247.904007,534.848022
712.479980,204.960007,546.559998
700.768005,212.768005,534.848022
681.247986,257.664001,540.703979
687.104004,269.376007,544.607971
689.056030,228.384003,540.703979
696.864014,220.576004,528.992004
700.768005,255.712006,511.424011
696.864014,271.328003,509.471985
687.104004,271.328003,509.471985
677.343994,236.192001,507.519989
683.200012,238.143997,507.519989
681.247986,261.567993,488.000000
689.056030,259.615997,488.000000
683.200012,251.807999,491.903992
671.487976,251.807999,501.664001
677.343994,240.095993,513.375977
685.151978,232.287994,499.712006
691.007996,242.048004,501.664001
681.247986,234.240005,505.567993
691.007996,214.720001,503.615997
675.392029,210.815994,517.280029
687.104004,220.576004,507.519989
698.815979,224.479996,495.808014
694.911987,204.960007,501.664001
704.671997,212.768005,509.471985
696.864014,206.912003,499.712006
694.911987,206.912003,493.855988
704.671997,218.623993,493.855988
694.911987,216.671997,488.000000
716.383972,206.912003,488.000000
700.768005,214.720001,495.808014
702.719971,210.815994,491.903992
706.624023,210.815994,478.239990
683.200012,228.384003,486.048004
687.104004,212.768005,486.048004
683.200012,206.912003,486.048004
685.151978,210.815994,482.144012
687.104004,216.671997,472.384003
671.487976,214.720001,474.335999
700.768005,214.720001,484.096008
698.815979,208.863998,480.191986
708.575989,193.248001,474.335999
702.719971,175.679993,470.432007
698.815979,185.440002,476.287994
691.007996,185.440002,480.191986
692.960022,173.727997,482.144012
677.343994,156.160004,447.007996
685.151978,173.727997,458.720001
677.343994,158.112000,466.528015
679.296021,136.639999,454.816010
681.247986,152.255997,447.007996
689.056030,146.399994,439.200012
689.056030,126.879997,429.440002
681.247986,126.879997,435.295990
685.151978,107.360001,433.343994
681.247986,111.264000,443.104004
706.624023,113.216003,435.295990
716.383972,99.552002,415.776001
728.096008,101.503998,386.496002
718.335999,121.024002,376.735992
726.143982,117.120003,349.407990
714.432007,117.120003,316.223999
716.383972,124.928001,294.752014
722.239990,126.879997,271.328003
714.432007,130.783997,240.095993
728.096008,154.207993,216.671997
728.096008,138.591995,201.056000
745.664001,121.024002,189.343994
747.616028,107.360001,187.391998
753.471985,105.407997,193.248001
771.039978,111.264000,197.151993
794.463989,85.888000,199.104004
854.976013,169.824005,222.528000
833.504028,70.272003,212.768005
864.736023,54.655998,206.912003
878.400024,115.167999,206.912003
878.400024,162.016006,216.671997
915.487976,177.632004,224.479996
913.536011,97.599998,216.671997
929.151978,-25.375999,199.104004
942.815979,-121.024002,189.343994
952.575989,-50.751999,199.104004
948.671997,121.024002,220.576004
862.783997,320.127991,232.287994
806.176025,646.112000,286.944000
747.616028,480.191986,300.608002
763.231995,167.871994,259.615997
894.015991,499.712006,251.807999
919.392029,657.823975,251.807999
927.200012,325.984009,249.856003
923.296021,218.623993,245.951996
950.624023,548.512024,240.095993
972.096008,694.911987,255.712006
983.807983,447.007996,265.471985
960.383972,284.992004,290.847992
958.432007,515.328003,308.415985
960.383972,696.864014,308.415985
948.671997,568.031982,312.320007
989.664001,388.447998,318.175995
997.471985,474.335999,312.320007
972.096008,632.447998,302.559998
962.335999,612.927979,275.231995
962.335999,519.231995,275.231995
991.616028,495.808014,269.376007
1005.280029,441.152008,265.471985
985.760010,402.112000,284.992004
977.952026,437.247986,286.944000
962.335999,470.432007,275.231995
962.335999,507.519989,290.847992
968.192017,509.471985,288.895996
936.960022,495.808014,288.895996
972.096008,501.664001,298.656006
946.719971,437.247986,294.752014
981.856018,380.640015,292.799988
964.288025,347.455994,292.799988
909.632019,279.135986,269.376007
991.616028,281.088013,263.519989
903.776001,419.679993,247.904007
888.159973,1054.079956,216.671997
931.104004,989.664001,201.056000
851.072021,304.511993,197.151993
946.719971,40.992001,218.623993
942.815979,185.440002,251.807999
866.687988,523.135986,275.231995
880.351990,827.648010,279.135986
915.487976,751.520020,286.944000
845.216003,361.119995,302.559998
659.776001,-68.320000,363.071991
802.271973,288.895996,470.432007
847.168030,236.192001,534.848022
1005.280029,-60.512001,536.799988
1028.703979,-548.512024,544.607971
1054.079956,-468.480011,509.471985
940.864014,-1.952000,474.335999
870.591980,39.040001,472.384003
905.728027,-121.024002,448.959991
958.432007,-136.639999,419.679993
983.807983,-33.183998,400.160004
1005.280029,15.616000,355.264008
1007.231995,-81.984001,329.888000
1022.848022,-44.896000,308.415985
1040.416016,203.007996,288.895996
1052.128052,355.264008,288.895996
1048.223999,314.272003,273.279999
1030.656006,380.640015,255.712006
1028.703979,601.216003,257.664001
979.903992,691.007996,255.712006
995.520020,646.112000,242.048004
1013.088013,564.127991,226.432007
1016.992004,620.736023,216.671997
1016.992004,673.440002,208.863998
999.424011,669.536011,201.056000
1015.039978,638.304016,187.391998
1024.800049,626.591980,181.535995
1034.560059,620.736023,183.488007
1030.656006,650.015991,191.296005
1046.271973,650.015991,195.199997
1036.511963,626.591980,210.815994
1052.128052,628.544006,238.143997
1036.511963,636.351990,251.807999
1018.943970,628.544006,247.904007
1056.031982,579.744019,263.519989
1026.751953,546.559998,251.807999
1056.031982,542.656006,271.328003
1040.416016,525.088013,265.471985
1089.215942,476.287994,257.664001
1104.832031,413.824005,249.856003
1122.400024,370.880005,242.048004
1126.303955,380.640015,244.000000
1139.968018,380.640015,222.528000
1118.495972,345.503998,244.000000
1124.352051,325.984009,244.000000
1141.920044,339.648010,249.856003
979.903992,503.615997,380.640015
979.903992,595.359985,968.192017
1009.184021,33.183998,970.143982
1028.703979,-91.744003,511.424011
1221.952026,411.872009,146.399994
1175.104004,503.615997,66.367996
1171.199951,343.552002,236.192001
1161.439941,314.272003,528.992004
1069.696045,21.472000,642.208008
1085.312012,66.367996,548.512024
995.520020,577.791992,636.351990
1655.296021,802.271973,950.624023
1362.495972,513.375977,1303.936035
1428.864014,618.783997,1401.536011
1436.671997,763.231995,1417.151978
1290.271973,778.848022,1473.760010
1383.968018,737.856018,1448.384033
1520.608032,792.512024,1385.920044
1569.407959,909.632019,1341.024048
1559.647949,913.536011,1286.368042
1553.791992,874.495972,1245.375977
1503.040039,872.544006,1210.239990
1467.904053,458.720001,1167.296021
1569.407959,-220.576004,1110.687988
1565.504028,-650.015991,1052.128052
1549.887939,-612.927979,974.047974
1489.375977,-136.639999,903.776001
1467.904053,507.519989,831.552002
1315.647949,915.487976,796.416016
1241.472046,987.711975,778.848022
1198.527954,772.992004,753.471985
1169.248047,423.584015,733.952026
1182.911987,87.839996,689.056030
1198.527954,-62.464001,626.591980
1155.583984,-76.127998,562.176025
1106.784058,42.944000,511.424011
1050.176025,267.424011,439.200012
1032.608032,488.000000,368.928009
1022.848022,640.255981,320.127991
1013.088013,716.383972,247.904007
997.471985,732.000000,204.960007
964.288025,696.864014,160.063995
936.960022,683.200012,126.879997
903.776001,651.968018,93.695999
890.112000,595.359985,68.320000
890.112000,503.615997,52.703999
890.112000,290.847992,42.944000
880.351990,3.904000,58.560001
884.255981,-160.063995,89.792000
866.687988,-52.703999,115.167999
878.400024,214.720001,138.591995
880.351990,497.760010,156.160004
864.736023,581.695984,197.151993
860.831970,495.808014,228.384003
843.263977,417.727997,228.384003
870.591980,425.536011,218.623993
907.679993,507.519989,193.248001
894.015991,612.927979,171.776001
888.159973,687.104004,156.160004
886.208008,648.064026,124.928001
897.919983,525.088013,101.503998
870.591980,419.679993,93.695999
870.591980,361.119995,83.935997
841.312012,333.791992,70.272003
794.463989,341.600006,66.367996
765.184021,376.735992,46.848000
755.424011,386.496002,33.183998
747.616028,361.119995,15.616000
735.903992,310.368011,-5.856000
720.288025,265.471985,-9.760000
728.096008,261.567993,-25.375999
728.096008,302.559998,-52.703999
737.856018,324.032013,-64.416000
732.000000,355.264008,-89.792000
743.711975,425.536011,-107.360001
730.047974,489.951996,-130.783997
735.903992,466.528015,-158.112000
733.952026,406.015991,-191.296005
724.192017,363.071991,-220.576004
706.624023,327.936005,-247.904007
710.528015,296.704010,-273.279999
696.864014,306.463989,-273.279999
698.815979,281.088013,-279.135986
692.960022,214.720001,-288.895996
669.536011,160.063995,-304.511993
673.440002,152.255997,-312.320007
677.343994,189.343994,-324.032013
692.960022,204.960007,-339.648010
706.624023,515.328003,-345.503998
708.575989,1177.056030,-292.799988
708.575989,1419.104004,-224.479996
661.728027,952.575989,-175.679993
681.247986,35.136002,-162.016006
745.664001,-782.752014,-154.207993
794.463989,-882.304016,-165.919998
780.799988,-423.584015,-152.255997
753.471985,242.048004,-76.127998
732.000000,743.711975,-42.944000
753.471985,905.728027,-23.424000
802.271973,843.263977,-31.232000
853.023987,702.719971,-46.848000
856.927979,620.736023,-44.896000
890.112000,646.112000,-78.080002
917.440002,661.728027,-97.599998
909.632019,650.015991,-140.544006
923.296021,556.320007,-181.535995
933.056030,390.399994,-210.815994
917.440002,142.496002,-208.863998
892.064026,-70.272003,-197.151993
876.447998,-165.919998,-189.343994
892.064026,-124.928001,-177.632004
901.823975,-11.712000,-150.304001
946.719971,72.223999,-128.832001
958.432007,165.919998,-101.503998
972.096008,579.744019,-25.375999
962.335999,960.383972,85.888000
970.143982,897.919983,171.776001
1032.608032,292.799988,175.679993
1145.823975,-568.031982,167.871994
1231.712036,-1491.328003,210.815994
1220.000000,-1692.384033,349.407990
1239.520020,-630.495972,443.104004
1212.192017,771.039978,503.615997
1278.560059,1438.624023,530.943970
1348.832031,1354.687988,544.607971
1341.024048,909.632019,550.463989
1335.167969,175.679993,548.512024
1335.167969,-556.320007,517.280029
1360.543945,-823.744019,466.528015
1339.072021,-486.048004,421.631989
1309.791992,177.632004,415.776001
1288.319946,868.640015,429.440002
1249.280029,1350.784058,484.096008
1233.663940,1122.400024,534.848022
1247.328003,327.936005,527.039978
1292.223999,-550.463989,501.664001
1333.215942,-1032.608032,480.191986
1337.119995,-1011.135986,488.000000
1315.647949,-538.752014,528.992004
1292.223999,195.199997,566.080017
1309.791992,806.176025,597.312012
1358.592041,1032.608032,630.495972
1380.063965,804.223999,597.312012
1407.391968,376.735992,536.799988
1393.728027,27.327999,493.855988
1383.968018,-105.407997,462.623993
1350.784058,62.464001,429.440002
1309.791992,390.399994,394.303986
1274.656006,696.864014,374.783997
1253.183960,806.176025,361.119995
1229.760010,679.296021,337.696014
1216.095947,396.256012,306.463989
1223.904053,11.712000,322.079987
1292.223999,-406.015991,417.727997
1342.975952,-772.992004,568.031982
1438.624023,-1120.447998,907.679993
1561.599976,-1313.696045,1315.647949
1602.592041,-1173.151978,1622.112061
1538.176025,-813.984009,1684.576050
1602.592041,-445.056000,1471.807983
1540.128052,117.120003,1110.687988
1499.135986,464.575989,737.856018
1395.680054,609.023987,468.480011
1315.647949,671.487976,244.000000
1227.807983,691.007996,87.839996
1163.391968,776.895996,-25.375999
1098.975952,847.168030,-119.071999
1042.368042,923.296021,-175.679993
1026.751953,915.487976,-197.151993
1026.751953,815.935974,-160.063995
1032.608032,632.447998,-48.799999
1054.079956,411.872009,87.839996
1106.784058,183.488007,214.720001
1128.255981,5.856000,308.415985
1126.303955,-83.935997,337.696014
1095.072021,-111.264000,308.415985
1054.079956,-56.608002,238.143997
1024.800049,37.088001,140.544006
997.471985,150.304001,50.751999
974.047974,265.471985,-1.952000
958.432007,363.071991,-33.183998
944.768005,417.727997,-48.799999
952.575989,464.575989,-29.280001
962.335999,468.480011,0.000000
976.000000,454.816010,64.416000
1001.375977,380.640015,124.928001
1001.375977,312.320007,183.488007
1001.375977,275.231995,210.815994
1007.231995,244.000000,224.479996
1007.231995,230.335999,222.528000
1001.375977,218.623993,204.960007
979.903992,234.240005,181.535995
950.624023,251.807999,146.399994
936.960022,281.088013,99.552002
933.056030,316.223999,76.127998
915.487976,353.312012,40.992001
907.679993,353.312012,31.232000
890.112000,333.791992,37.088001
886.208008,283.040009,60.512001
895.968018,226.432007,80.031998
895.968018,208.863998,105.407997
897.919983,187.391998,113.216003
884.255981,167.871994,126.879997
874.495972,165.919998,113.216003
880.351990,185.440002,101.503998
870.591980,203.007996,103.456001
868.640015,236.192001,87.839996
864.736023,253.759995,66.367996
874.495972,253.759995,56.608002
868.640015,247.904007,46.848000
872.544006,240.095993,56.608002
886.208008,247.904007,56.608002
876.447998,238.143997,50.751999
872.544006,230.335999,50.751999
880.351990,191.296005,64.416000
866.687988,173.727997,42.944000
868.640015,181.535995,40.992001
858.880005,185.440002,40.992001
851.072021,191.296005,33.183998
841.312012,179.584000,33.183998
833.504028,179.584000,23.424000
839.359985,191.296005,19.520000
841.312012,179.584000,21.472000
837.408020,179.584000,13.664000
827.648010,177.632004,3.904000
833.504028,177.632004,5.856000
847.168030,187.391998,-5.856000
860.831970,167.871994,5.856000
868.640015,154.207993,9.760000
878.400024,165.919998,0.000000
866.687988,163.968002,9.760000
878.400024,179.584000,21.472000
888.159973,206.912003,25.375999
876.447998,204.960007,19.520000
866.687988,187.391998,13.664000
870.591980,175.679993,9.760000
878.400024,177.632004,7.808000
884.255981,177.632004,15.616000
890.112000,179.584000,19.520000
903.776001,175.679993,11.712000
903.776001,177.632004,7.808000
915.487976,228.384003,7.808000
913.536011,259.615997,21.472000
913.536011,253.759995,11.712000
917.440002,273.279999,11.712000
921.343994,300.608002,3.904000
917.440002,318.175995,9.760000
942.815979,310.368011,17.568001
935.007996,286.944000,17.568001
931.104004,314.272003,17.568001
933.056030,245.951996,21.472000
944.768005,165.919998,1.952000
948.671997,210.815994,-1.952000
958.432007,238.143997,0.000000
954.528015,261.567993,19.520000
944.768005,296.704010,29.280001
958.432007,320.127991,17.568001
954.528015,329.888000,-3.904000
966.239990,312.320007,-7.808000
974.047974,333.791992,-11.712000
972.096008,370.880005,-19.520000
979.903992,417.727997,-13.664000
979.903992,462.623993,-7.808000
985.760010,482.144012,5.856000
985.760010,478.239990,-7.808000
999.424011,433.343994,-13.664000
999.424011,388.447998,-5.856000
1009.184021,355.264008,5.856000
1015.039978,284.992004,0.000000
1020.895996,249.856003,-5.856000
1042.368042,275.231995,5.856000
1052.128052,304.511993,13.664000
1056.031982,341.600006,23.424000
1067.744019,359.167999,25.375999
1075.552002,357.216003,19.520000
1077.504028,329.888000,25.375999
1083.359985,349.407990,0.000000
1093.119995,343.552002,9.760000
1097.024048,331.839996,-3.904000
1089.215942,314.272003,-1.952000
1077.504028,300.608002,5.856000
1077.504028,316.223999,-1.952000
1087.264038,316.223999,-5.856000
1093.119995,296.704010,-5.856000
1091.167969,284.992004,-1.952000
1085.312012,300.608002,-19.520000
1079.456055,331.839996,-31.232000
1079.456055,357.216003,-27.327999
1083.359985,339.648010,-19.520000
1081.407959,331.839996,-29.280001
1089.215942,329.888000,-50.751999
1087.264038,312.320007,-62.464001
1075.552002,308.415985,-70.272003
1057.984009,318.175995,-80.031998
1040.416016,300.608002,-93.695999
1034.560059,284.992004,-95.648003
1038.463989,296.704010,-111.264000
1042.368042,318.175995,-132.735992
1044.319946,331.839996,-156.160004
1048.223999,302.559998,-165.919998
1032.608032,253.759995,-148.352005
1020.895996,216.671997,-138.591995
1022.848022,234.240005,-142.496002
1011.135986,245.951996,-144.447998
1015.039978,247.904007,-138.591995
1024.800049,208.863998,-119.071999
1034.560059,206.912003,-91.744003
1038.463989,226.432007,-64.416000
1059.936035,255.712006,-44.896000
1054.079956,265.471985,-58.560001
1057.984009,249.856003,-31.232000
1054.079956,249.856003,-52.703999
1038.463989,195.199997,-72.223999
1015.039978,140.544006,-60.512001
1015.039978,111.264000,-46.848000
1015.039978,87.839996,-17.568001
1038.463989,72.223999,29.280001
1048.223999,80.031998,72.223999
1059.936035,105.407997,101.503998
1057.984009,165.919998,103.456001
1059.936035,253.759995,56.608002
1044.319946,304.511993,7.808000
1040.416016,351.359985,-25.375999
1015.039978,392.351990,-81.984001
995.520020,427.488007,-122.975998
991.616028,392.351990,-113.216003
991.616028,316.223999,-46.848000
1011.135986,244.000000,37.088001
1024.800049,228.384003,97.599998
1009.184021,245.951996,122.975998
1015.039978,265.471985,107.360001
997.471985,267.424011,54.655998
981.856018,216.671997,1.952000
962.335999,179.584000,-19.520000
954.528015,222.528000,-48.799999
935.007996,244.000000,-81.984001
921.343994,286.944000,-109.311996
911.583984,304.511993,-119.071999
897.919983,304.511993,-105.407997
905.728027,286.944000,-64.416000
915.487976,251.807999,-11.712000
921.343994,222.528000,29.280001
913.536011,224.479996,33.183998
923.296021,247.904007,13.664000
938.911987,232.287994,3.904000
938.911987,212.768005,27.327999
948.671997,204.960007,35.136002
962.335999,240.095993,31.232000
950.624023,245.951996,21.472000
952.575989,251.807999,-9.760000
933.056030,240.095993,0.000000
933.056030,236.192001,9.760000
938.911987,257.664001,5.856000
942.815979,277.183990,-23.424000
938.911987,269.376007,-33.183998
929.151978,244.000000,0.000000
935.007996,238.143997,17.568001
940.864014,255.712006,19.520000
944.768005,244.000000,19.520000
942.815979,224.479996,23.424000
942.815979,210.815994,17.568001
931.104004,220.576004,13.664000
931.104004,238.143997,-17.568001
913.536011,247.904007,-42.944000
901.823975,236.192001,-54.655998
899.872009,255.712006,-85.888000
899.872009,271.328003,-97.599998
897.919983,271.328003,-103.456001
905.728027,275.231995,-101.503998
903.776001,261.567993,-99.552002
921.343994,259.615997,-89.792000
936.960022,240.095993,-62.464001
946.719971,240.095993,-46.848000
950.624023,255.712006,-35.136002
958.432007,275.231995,-23.424000
962.335999,286.944000,-17.568001
948.671997,279.135986,-23.424000
958.432007,279.135986,-29.280001
956.479980,281.088013,-40.992001
962.335999,281.088013,-48.799999
962.335999,275.231995,-54.655998
960.383972,275.231995,-66.367996
962.335999,275.231995,-52.703999
964.288025,294.752014,-48.799999
960.383972,286.944000,-42.944000
964.288025,271.328003,-29.280001
979.903992,255.712006,-35.136002
979.903992,255.712006,-50.751999
976.000000,255.712006,-58.560001
981.856018,242.048004,-56.608002
987.711975,236.192001,-72.223999
987.711975,234.240005,-83.935997
976.000000,216.671997,-101.503998
976.000000,191.296005,-134.688004
985.760010,216.671997,-136.639999
977.952026,257.664001,-130.783997
981.856018,283.040009,-140.544006
1001.375977,255.712006,-119.071999
1003.328003,265.471985,-115.167999
1007.231995,249.856003,-122.975998
1009.184021,226.432007,-107.360001
1020.895996,232.287994,-109.311996
1030.656006,195.199997,-78.080002
1044.319946,220.576004,-80.031998
1050.176025,222.528000,-93.695999
1050.176025,234.240005,-87.839996
1052.128052,253.759995,-91.744003
1059.936035,271.328003,-85.888000
1069.696045,284.992004,-85.888000
1067.744019,292.799988,-83.935997
1069.696045,306.463989,-91.744003
1059.936035,300.608002,-113.216003
1056.031982,288.895996,-101.503998
1065.791992,275.231995,-91.744003
1071.647949,230.335999,-52.703999
1083.359985,195.199997,-15.616000
1091.167969,154.207993,-17.568001
1079.456055,169.824005,-50.751999
1069.696045,158.112000,-81.984001
1054.079956,167.871994,-103.456001
1056.031982,144.447998,-78.080002
1056.031982,156.160004,-80.031998
1061.887939,214.720001,-107.360001
1071.647949,290.847992,-158.112000
1046.271973,329.888000,-187.391998
1046.271973,320.127991,-199.104004
1052.128052,294.752014,-179.584000
1067.744019,242.048004,-124.928001
1079.456055,226.432007,-95.648003
1073.599976,226.432007,-99.552002
1056.031982,261.567993,-132.735992
1063.839966,228.384003,-109.311996
1067.744019,214.720001,-89.792000
1087.264038,247.904007,-21.472000
1120.447998,296.704010,78.080002
1171.199951,366.976013,152.255997
1192.671997,431.391998,195.199997
1180.959961,491.903992,181.535995
1157.536011,488.000000,115.167999
1118.495972,427.488007,42.944000
1098.975952,370.880005,-31.232000
1057.984009,368.928009,-122.975998
1020.895996,331.839996,-189.343994
1009.184021,247.904007,-167.871994
1032.608032,162.016006,-105.407997
1028.703979,117.120003,-83.935997
1020.895996,103.456001,-62.464001
1030.656006,46.848000,-46.848000
1032.608032,-1.952000,1.952000
1048.223999,-7.808000,54.655998
1075.552002,130.783997,66.367996
1077.504028,470.432007,56.608002
1065.791992,513.375977,95.648003
1077.504028,460.671997,58.560001
1081.407959,353.312012,19.520000
1061.887939,201.056000,7.808000
1069.696045,91.744003,17.568001
1069.696045,142.496002,48.799999
1065.791992,212.768005,78.080002
1075.552002,259.615997,68.320000
1073.599976,263.519989,37.088001
1071.647949,245.951996,13.664000
1077.504028,220.576004,-19.520000
1073.599976,163.968002,-27.327999
1061.887939,154.207993,-9.760000
1057.984009,162.016006,-11.712000
1057.984009,163.968002,3.904000
1052.128052,195.199997,-11.712000
1054.079956,189.343994,7.808000
1052.128052,187.391998,31.232000
1065.791992,169.824005,54.655998
1065.791992,163.968002,42.944000
1067.744019,162.016006,46.848000
1048.223999,169.824005,37.088001
1046.271973,173.727997,29.280001
1036.511963,169.824005,0.000000
1026.751953,160.063995,-15.616000
1024.800049,169.824005,-11.712000
1028.703979,152.255997,-31.232000
1022.848022,169.824005,-42.944000
1020.895996,193.248001,-37.088001
1018.943970,195.199997,-62.464001
1001.375977,197.151993,-70.272003
991.616028,193.248001,-64.416000
981.856018,183.488007,-95.648003
956.479980,175.679993,-122.975998
956.479980,154.207993,-132.735992
960.383972,146.399994,-115.167999
981.856018,136.639999,-81.984001
983.807983,142.496002,-68.320000
979.903992,132.735992,-72.223999
977.952026,142.496002,-66.367996
979.903992,165.919998,-72.223999
970.143982,132.735992,-48.799999
972.096008,162.016006,-50.751999
970.143982,146.399994,-60.512001
958.432007,146.399994,-105.407997
948.671997,142.496002,-115.167999
944.768005,181.535995,-101.503998
946.719971,171.776001,-101.503998
952.575989,152.255997,-85.888000
974.047974,158.112000,-40.992001
979.903992,154.207993,-40.992001
968.192017,148.352005,-70.272003
952.575989,158.112000,-105.407997
936.960022,187.391998,-126.879997
938.911987,193.248001,-140.544006
935.007996,222.528000,-136.639999
919.392029,183.488007,-142.496002
921.343994,158.112000,-148.352005
915.487976,148.352005,-144.447998
911.583984,154.207993,-134.688004
929.151978,162.016006,-89.792000
940.864014,163.968002,-74.176003
944.768005,171.776001,-58.560001
948.671997,185.440002,-80.031998
923.296021,163.968002,-111.264000
905.728027,179.584000,-138.591995
886.208008,165.919998,-150.304001
897.919983,179.584000,-146.399994
899.872009,197.151993,-136.639999
899.872009,187.391998,-142.496002
892.064026,193.248001,-150.304001
888.159973,185.440002,-154.207993
890.112000,185.440002,-167.871994
878.400024,175.679993,-173.727997
874.495972,156.160004,-171.776001
890.112000,185.440002,-150.304001
890.112000,181.535995,-150.304001
894.015991,187.391998,-144.447998
882.304016,169.824005,-148.352005
888.159973,171.776001,-154.207993
876.447998,154.207993,-134.688004
895.968018,171.776001,-121.024002
894.015991,148.352005,-107.360001
909.632019,148.352005,-101.503998
911.583984,189.343994,-99.552002
894.015991,163.968002,-150.304001
880.351990,185.440002,-171.776001
892.064026,181.535995,-179.584000
880.351990,175.679993,-160.063995
901.823975,162.016006,-163.968002
897.919983,154.207993,-154.207993
913.536011,148.352005,-142.496002
921.343994,158.112000,-128.832001
923.296021,146.399994,-111.264000
929.151978,142.496002,-99.552002
933.056030,144.447998,-103.456001
929.151978,162.016006,-103.456001
927.200012,165.919998,-146.399994
913.536011,146.399994,-144.447998
929.151978,171.776001,-158.112000
927.200012,140.544006,-142.496002
936.960022,162.016006,-134.688004
944.768005,140.544006,-146.399994
940.864014,136.639999,-152.255997
942.815979,173.727997,-144.447998
938.911987,152.255997,-158.112000
942.815979,169.824005,-156.160004
944.768005,146.399994,-156.160004
950.624023,132.735992,-165.919998
962.335999,134.688004,-142.496002
970.143982,158.112000,-132.735992
968.192017,148.352005,-142.496002
962.335999,148.352005,-158.112000
956.479980,148.352005,-169.824005
956.479980,158.112000,-173.727997
972.096008,154.207993,-163.968002
987.711975,165.919998,-154.207993
983.807983,144.447998,-152.255997
993.567993,160.063995,-163.968002
987.711975,148.352005,-187.391998
985.760010,146.399994,-199.104004
999.424011,177.632004,-160.063995
1016.992004,177.632004,-138.591995
1022.848022,181.535995,-122.975998
1013.088013,165.919998,-150.304001
1013.088013,169.824005,-165.919998
1011.135986,185.440002,-175.679993
1022.848022,173.727997,-173.727997
1026.751953,167.871994,-169.824005
1036.511963,193.248001,-148.352005
1042.368042,191.296005,-160.063995
1040.416016,171.776001,-144.447998
1040.416016,183.488007,-146.399994
1032.608032,171.776001,-150.304001
1040.416016,175.679993,-158.112000
1036.511963,163.968002,-154.207993
1042.368042,185.440002,-169.824005
1032.608032,179.584000,-179.584000
1028.703979,193.248001,-199.104004
1032.608032,179.584000,-189.343994
1042.368042,189.343994,-181.535995
1040.416016,167.871994,-175.679993
1042.368042,185.440002,-167.871994
1056.031982,175.679993,-183.488007
1038.463989,183.488007,-179.584000
1044.319946,181.535995,-179.584000
1050.176025,201.056000,-167.871994
1052.128052,173.727997,-169.824005
1038.463989,175.679993,-193.248001
1032.608032,156.160004,-212.768005
1024.800049,167.871994,-204.960007
1032.608032,173.727997,-171.776001
1040.416016,183.488007,-156.160004
1054.079956,185.440002,-158.112000
1056.031982,195.199997,-144.447998
1061.887939,216.671997,-154.207993
1057.984009,212.768005,-179.584000
1071.647949,208.863998,-191.296005
1054.079956,169.824005,-163.968002
1059.936035,183.488007,-128.832001
1065.791992,175.679993,-105.407997
1073.599976,167.871994,-117.120003
1057.984009,136.639999,-136.639999
1040.416016,138.591995,-165.919998
1036.511963,175.679993,-177.632004
1032.608032,169.824005,-224.479996
1028.703979,165.919998,-240.095993
1036.511963,195.199997,-199.104004
1046.271973,197.151993,-179.584000
1059.936035,191.296005,-165.919998
1057.984009,179.584000,-154.207993
1054.079956,154.207993,-160.063995
1061.887939,152.255997,-181.535995
1038.463989,173.727997,-197.151993
1034.560059,160.063995,-177.632004
1042.368042,158.112000,-169.824005
1042.368042,177.632004,-175.679993
1038.463989,175.679993,-162.016006
1038.463989,169.824005,-177.632004
1028.703979,148.352005,-185.440002
1028.703979,150.304001,-195.199997
1022.848022,144.447998,-171.776001
1022.848022,163.968002,-148.352005
1026.751953,169.824005,-158.112000
1016.992004,163.968002,-179.584000
1001.375977,171.776001,-165.919998
995.520020,169.824005,-158.112000
983.807983,158.112000,-158.112000
976.000000,140.544006,-181.535995
966.239990,136.639999,-191.296005
952.575989,152.255997,-185.440002
950.624023,165.919998,-169.824005
952.575989,167.871994,-148.352005
948.671997,136.639999,-156.160004
933.056030,132.735992,-183.488007
931.104004,134.688004,-165.919998
919.392029,165.919998,-173.727997
915.487976,162.016006,-173.727997
911.583984,150.304001,-179.584000
901.823975,148.352005,-177.632004
882.304016,165.919998,-220.576004
878.400024,152.255997,-212.768005
882.304016,175.679993,-232.287994
888.159973,134.688004,-208.863998
899.872009,132.735992,-163.968002
905.728027,177.632004,-181.535995
882.304016,124.928001,-210.815994
880.351990,115.167999,-210.815994
880.351990,150.304001,-177.632004
890.112000,171.776001,-171.776001
895.968018,162.016006,-185.440002
894.015991,121.024002,-181.535995
892.064026,138.591995,-183.488007
880.351990,146.399994,-208.863998
884.255981,126.879997,-187.391998
899.872009,148.352005,-162.016006
905.728027,160.063995,-162.016006
899.872009,146.399994,-167.871994
890.112000,152.255997,-177.632004
882.304016,128.832001,-183.488007
892.064026,134.688004,-158.112000
892.064026,134.688004,-163.968002
884.255981,148.352005,-156.160004
864.736023,146.399994,-199.104004
837.408020,138.591995,-222.528000
813.984009,132.735992,-232.287994
825.695984,130.783997,-216.671997
831.552002,144.447998,-201.056000
837.408020,148.352005,-160.063995
817.888000,179.584000,-191.296005
808.127991,105.407997,-212.768005
854.976013,83.935997,-220.576004
901.823975,103.456001,-244.000000
903.776001,132.735992,-240.095993
878.400024,167.871994,-220.576004
858.880005,163.968002,-203.007996
860.831970,183.488007,-197.151993
860.831970,158.112000,-224.479996
851.072021,126.879997,-232.287994
862.783997,107.360001,-234.240005
882.304016,121.024002,-204.960007
899.872009,154.207993,-208.863998
901.823975,136.639999,-181.535995
903.776001,171.776001,-191.296005
911.583984,169.824005,-195.199997
911.583984,165.919998,-201.056000
897.919983,162.016006,-218.623993
899.872009,121.024002,-203.007996
915.487976,165.919998,-197.151993
927.200012,121.024002,-175.679993
944.768005,142.496002,-140.544006
950.624023,203.007996,-169.824005
935.007996,158.112000,-193.248001
931.104004,160.063995,-226.432007
931.104004,146.399994,-212.768005
942.815979,173.727997,-214.720001
936.960022,156.160004,-218.623993
950.624023,165.919998,-193.248001
948.671997,177.632004,-203.007996
968.192017,162.016006,-183.488007
972.096008,144.447998,-156.160004
972.096008,140.544006,-140.544006
972.096008,163.968002,-165.919998
974.047974,169.824005,-189.343994
976.000000,173.727997,-183.488007
972.096008,177.632004,-148.352005
981.856018,185.440002,-165.919998
989.664001,167.871994,-175.679993
979.903992,163.968002,-191.296005
987.711975,163.968002,-167.871994
983.807983,193.248001,-181.535995
985.760010,185.440002,-193.248001
991.616028,152.255997,-181.535995
1001.375977,162.016006,-158.112000
1005.280029,175.679993,-162.016006
999.424011,152.255997,-158.112000
1005.280029,148.352005,-199.104004
987.711975,140.544006,-199.104004
991.616028,173.727997,-185.440002
989.664001,195.199997,-199.104004
1009.184021,189.343994,-171.776001
1015.039978,167.871994,-162.016006
1022.848022,158.112000,-158.112000
1018.943970,163.968002,-160.063995
999.424011,160.063995,-197.151993
1003.328003,154.207993,-185.440002
1016.992004,165.919998,-167.871994
1016.992004,165.919998,-150.304001
1024.800049,169.824005,-136.639999
1018.943970,142.496002,-169.824005
1024.800049,126.879997,-146.399994
1009.184021,162.016006,-171.776001
1003.328003,130.783997,-169.824005
1016.992004,144.447998,-154.207993
1011.135986,150.304001,-152.255997
1013.088013,199.104004,-152.255997
1005.280029,185.440002,-160.063995
999.424011,148.352005,-165.919998
1005.280029,115.167999,-136.639999
1013.088013,144.447998,-109.311996
1001.375977,152.255997,-148.352005
1003.328003,142.496002,-156.160004
1001.375977,140.544006,-165.919998
995.520020,152.255997,-181.535995
985.760010,177.632004,-199.104004
976.000000,138.591995,-204.960007
974.047974,124.928001,-206.912003
983.807983,138.591995,-195.199997
977.952026,144.447998,-187.391998
981.856018,146.399994,-181.535995
979.903992,121.024002,-158.112000
987.711975,152.255997,-179.584000
977.952026,140.544006,-206.912003
968.192017,122.975998,-175.679993
968.192017,165.919998,-210.815994
966.239990,126.879997,-208.863998
979.903992,163.968002,-195.199997
976.000000,142.496002,-185.440002
976.000000,124.928001,-167.871994
985.760010,124.928001,-165.919998
981.856018,121.024002,-160.063995
977.952026,130.783997,-148.352005
976.000000,144.447998,-165.919998
964.288025,156.160004,-177.632004
954.528015,158.112000,-228.384003
946.719971,142.496002,-236.192001
936.960022,152.255997,-244.000000
946.719971,138.591995,-218.623993
952.575989,115.167999,-181.535995
964.288025,103.456001,-148.352005
958.432007,122.975998,-162.016006
948.671997,117.120003,-169.824005
950.624023,146.399994,-169.824005
942.815979,154.207993,-175.679993
942.815979,134.688004,-189.343994
950.624023,148.352005,-212.768005
925.247986,115.167999,-238.143997
921.343994,128.832001,-253.759995
919.392029,126.879997,-253.759995
919.392029,121.024002,-197.151993
938.911987,165.919998,-189.343994
944.768005,150.304001,-206.912003
935.007996,140.544006,-214.720001
919.392029,140.544006,-261.567993
909.632019,121.024002,-263.519989
917.440002,134.688004,-236.192001
921.343994,138.591995,-228.384003
917.440002,140.544006,-220.576004
919.392029,146.399994,-214.720001
923.296021,156.160004,-247.904007
917.440002,142.496002,-220.576004
929.151978,134.688004,-175.679993
909.632019,128.832001,-165.919998
890.112000,111.264000,-158.112000
868.640015,126.879997,-236.192001
819.840027,158.112000,-288.895996
808.127991,181.535995,-318.175995
851.072021,119.071999,-341.600006
940.864014,115.167999,-269.376007
991.616028,111.264000,-220.576004
987.711975,144.447998,-171.776001
948.671997,165.919998,-158.112000
913.536011,158.112000,-208.863998
876.447998,99.552002,-238.143997
880.351990,121.024002,-244.000000
890.112000,154.207993,-277.183990
897.919983,144.447998,-310.368011
911.583984,150.304001,-304.511993
909.632019,185.440002,-277.183990
915.487976,167.871994,-249.856003
921.343994,87.839996,-212.768005
936.960022,78.080002,-181.535995
921.343994,132.735992,-201.056000
907.679993,150.304001,-267.424011
878.400024,121.024002,-304.511993
876.447998,89.792000,-267.424011
907.679993,115.167999,-208.863998
936.960022,113.216003,-193.248001
946.719971,111.264000,-187.391998
940.864014,105.407997,-189.343994
919.392029,165.919998,-259.615997
890.112000,121.024002,-308.415985
894.015991,134.688004,-314.272003
888.159973,122.975998,-327.936005
894.015991,136.639999,-324.032013
886.208008,136.639999,-337.696014
899.872009,99.552002,-308.415985
927.200012,93.695999,-245.951996
929.151978,107.360001,-185.440002
944.768005,138.591995,-175.679993
940.864014,29.280001,-206.912003
936.960022,42.944000,-216.671997
931.104004,210.815994,-269.376007
905.728027,214.720001,-286.944000
892.064026,117.120003,-302.559998
901.823975,105.407997,-306.463989
921.343994,160.063995,-273.279999
929.151978,162.016006,-259.615997
936.960022,103.456001,-286.944000
936.960022,105.407997,-296.704010
938.911987,175.679993,-244.000000
950.624023,187.391998,-222.528000
960.383972,169.824005,-206.912003
960.383972,154.207993,-201.056000
960.383972,109.311996,-193.248001
979.903992,169.824005,-179.584000
989.664001,189.343994,-173.727997
1001.375977,142.496002,-162.016006
1003.328003,142.496002,-197.151993
1011.135986,218.623993,-210.815994
999.424011,230.335999,-222.528000
991.616028,208.863998,-247.904007
989.664001,181.535995,-255.712006
991.616028,165.919998,-277.183990
1005.280029,148.352005,-244.000000
1007.231995,169.824005,-228.384003
993.567993,189.343994,-244.000000
991.616028,179.584000,-251.807999
1001.375977,163.968002,-263.519989
1001.375977,197.151993,-267.424011
999.424011,171.776001,-294.752014
993.567993,154.207993,-300.608002
997.471985,185.440002,-283.040009
1001.375977,228.384003,-290.847992
991.616028,226.432007,-322.079987
1005.280029,195.199997,-308.415985
1007.231995,216.671997,-259.615997
1026.751953,203.007996,-222.528000
1042.368042,187.391998,-197.151993
1052.128052,148.352005,-191.296005
1050.176025,175.679993,-169.824005
1044.319946,210.815994,-183.488007
1032.608032,218.623993,-199.104004
1040.416016,220.576004,-212.768005
1040.416016,216.671997,-232.287994
1030.656006,195.199997,-244.000000
1036.511963,179.584000,-242.048004
1040.416016,216.671997,-234.240005
1032.608032,226.432007,-249.856003
1046.271973,222.528000,-234.240005
1057.984009,212.768005,-216.671997
1048.223999,218.623993,-234.240005
1040.416016,203.007996,-236.192001
1036.511963,204.960007,-267.424011
1026.751953,197.151993,-308.415985
1015.039978,208.863998,-343.552002
1003.328003,226.432007,-372.832001
989.664001,244.000000,-372.832001
991.616028,263.519989,-409.920013
1001.375977,228.384003,-374.783997
1034.560059,197.151993,-304.511993
1046.271973,175.679993,-245.951996
1046.271973,201.056000,-259.615997
1028.703979,171.776001,-298.656006
1011.135986,191.296005,-324.032013
991.616028,193.248001,-329.888000
979.903992,222.528000,-306.463989
997.471985,220.576004,-288.895996
997.471985,234.240005,-294.752014
983.807983,203.007996,-318.175995
970.143982,201.056000,-327.936005
979.903992,140.544006,-263.519989
999.424011,171.776001,-212.768005
1001.375977,197.151993,-214.720001
1001.375977,230.335999,-230.335999
985.760010,199.104004,-179.584000
1003.328003,218.623993,-101.503998
1016.992004,288.895996,-91.744003
1020.895996,288.895996,-132.735992
1001.375977,238.143997,-195.199997
991.616028,146.399994,-185.440002
972.096008,179.584000,-214.720001
948.671997,267.424011,-259.615997
940.864014,296.704010,-306.463989
925.247986,286.944000,-361.119995
905.728027,300.608002,-448.959991
899.872009,257.664001,-464.575989
899.872009,222.528000,-421.631989
921.343994,224.479996,-361.119995
954.528015,226.432007,-292.799988
976.000000,232.287994,-240.095993
987.711975,310.368011,-255.712006
950.624023,363.071991,-409.920013
936.960022,193.248001,-392.351990
962.335999,66.367996,-249.856003
1020.895996,93.695999,-72.223999
1052.128052,253.759995,-80.031998
1034.560059,304.511993,-181.535995
995.520020,259.615997,-259.615997
960.383972,167.871994,-292.799988
923.296021,197.151993,-349.407990
884.255981,203.007996,-445.056000
909.632019,97.599998,-335.743988
962.335999,171.776001,-242.048004
970.143982,325.984009,-290.847992
929.151978,366.976013,-417.727997
866.687988,236.192001,-503.615997
837.408020,15.616000,-437.247986
868.640015,-13.664000,-284.992004
921.343994,142.496002,-201.056000
938.911987,302.559998,-220.576004
923.296021,325.984009,-316.223999
899.872009,171.776001,-294.752014
923.296021,66.367996,-195.199997
936.960022,76.127998,-128.832001
935.007996,279.135986,-259.615997
868.640015,488.000000,-554.367981
812.031982,374.783997,-628.544006
825.695984,146.399994,-454.816010
829.599976,105.407997,-359.167999
851.072021,134.688004,-314.272003
886.208008,154.207993,-259.615997
895.968018,259.615997,-298.656006
868.640015,308.415985,-406.015991
804.223999,300.608002,-560.223999
769.088013,124.928001,-554.367981
745.664001,158.112000,-581.695984
741.760010,27.327999,-489.951996
790.559998,0.000000,-284.992004
823.744019,214.720001,-224.479996
862.783997,316.223999,-162.016006
919.392029,302.559998,-39.040001
993.567993,199.104004,105.407997
1038.463989,275.231995,111.264000
1020.895996,269.376007,-44.896000
989.664001,203.007996,-140.544006
970.143982,171.776001,-132.735992
958.432007,251.807999,-189.343994
921.343994,333.791992,-304.511993
882.304016,372.832001,-411.872009
837.408020,325.984009,-507.519989
800.320007,222.528000,-523.135986
782.752014,197.151993,-511.424011
784.703979,195.199997,-519.231995
796.416016,204.960007,-495.808014
782.752014,269.376007,-566.080017
769.088013,249.856003,-583.648010
792.512024,292.799988,-558.271973
788.607971,365.023987,-638.304016
786.656006,292.799988,-620.736023
800.320007,162.016006,-488.000000
780.799988,218.623993,-542.656006
718.335999,345.503998,-661.728027
679.296021,368.928009,-712.479980
710.528015,279.135986,-624.640015
737.856018,255.712006,-527.039978
757.375977,263.519989,-538.752014
780.799988,249.856003,-513.375977
765.184021,298.656006,-651.968018
769.088013,195.199997,-730.047974
753.471985,31.232000,-671.487976
732.000000,-152.255997,-620.736023
700.768005,-275.231995,-589.504028
708.575989,-271.328003,-503.615997
769.088013,-3.904000,-456.768005
868.640015,64.416000,-265.471985
991.616028,29.280001,0.000000
1081.407959,-76.127998,253.759995
1155.583984,-109.311996,365.023987
1227.807983,21.472000,404.063995
1259.040039,160.063995,290.847992
1260.991943,183.488007,132.735992
1245.375977,185.440002,66.367996
1196.576050,177.632004,-60.512001
1087.264038,292.799988,-380.640015
950.624023,242.048004,-651.968018
864.736023,179.584000,-724.192017
812.031982,318.175995,-702.719971
774.943970,566.080017,-558.271973
726.143982,821.791992,-466.528015
675.392029,648.064026,-390.399994
622.687988,509.471985,-484.096008
550.463989,413.824005,-696.864014
589.504028,368.928009,-708.575989
655.872009,530.943970,-700.768005
685.151978,571.935974,-667.583984
745.664001,470.432007,-562.176025
802.271973,286.944000,-468.480011
853.023987,122.975998,-333.791992
866.687988,175.679993,-445.056000
872.544006,132.735992,-534.848022
909.632019,76.127998,-560.223999
921.343994,83.935997,-560.223999
938.911987,154.207993,-581.695984
938.911987,179.584000,-620.736023
907.679993,216.671997,-675.392029
876.447998,273.279999,-782.752014
872.544006,134.688004,-704.671997
862.783997,187.391998,-634.400024
800.320007,407.967987,-825.695984
751.520020,482.144012,-964.288025
718.335999,450.911987,-1069.696045
673.440002,400.160004,-1200.479980
640.255981,201.056000,-1305.887939
556.320007,-83.935997,-1300.031982
484.096008,-560.223999,-1179.008057
569.984009,-933.056030,-960.383972
708.575989,-244.000000,-702.719971
772.992004,1075.552002,-368.928009
772.992004,1518.656006,19.520000
860.831970,1311.744019,234.240005
919.392029,722.239990,136.639999
921.343994,152.255997,-29.280001
966.239990,-103.456001,-171.776001
1026.751953,-117.120003,-228.384003
1120.447998,-171.776001,-146.399994
1147.776001,111.264000,-167.871994
1098.975952,292.799988,-277.183990
1087.264038,136.639999,-210.815994
1126.303955,-126.879997,-17.568001
1106.784058,-103.456001,81.984001
1087.264038,78.080002,7.808000
1042.368042,124.928001,-54.655998
999.424011,87.839996,-39.040001
970.143982,232.287994,-111.264000
901.823975,312.320007,-251.807999
856.927979,429.440002,-413.824005
841.312012,349.407990,-466.528015
864.736023,238.143997,-425.536011
897.919983,279.135986,-458.720001
847.168030,429.440002,-620.736023
808.127991,357.216003,-673.440002
749.567993,546.559998,-655.872009
706.624023,601.216003,-618.783997
663.679993,681.247986,-692.960022
640.255981,673.440002,-751.520020
689.056030,577.791992,-722.239990
737.856018,534.848022,-698.815979
771.039978,523.135986,-653.919983
759.328003,644.159973,-702.719971
771.039978,486.048004,-614.880005
792.512024,488.000000,-579.744019
761.280029,482.144012,-554.367981
772.992004,437.247986,-462.623993
751.520020,493.855988,-489.951996
716.383972,361.119995,-489.951996
687.104004,302.559998,-532.895996
620.736023,366.976013,-651.968018
552.416016,300.608002,-663.679993
499.712006,181.535995,-650.015991
521.184021,-132.735992,-630.495972
517.280029,-507.519989,-675.392029
484.096008,-1011.135986,-575.840027
435.295990,-1077.504028,-603.168030
562.176025,-573.888000,-825.695984
569.984009,-275.231995,-917.440002
517.280029,29.280001,-1042.368042
392.351990,417.727997,-1204.384033
273.279999,505.567993,-1337.119995
253.759995,68.320000,-1276.608032
380.640015,-566.080017,-1091.167969
612.927979,-1077.504028,-804.223999
831.552002,-862.783997,-655.872009
907.679993,-704.671997,-569.984009
958.432007,-607.072021,-445.056000
931.104004,-156.160004,-525.088013
835.455994,50.751999,-562.176025
691.007996,718.335999,-813.984009
503.615997,1108.735962,-1067.744019
331.839996,1241.472046,-1186.816040
220.576004,1245.375977,-1179.008057
119.071999,1225.855957,-1163.391968
89.792000,1138.015991,-1165.343994
13.664000,987.711975,-1169.248047
-9.760000,657.823975,-1235.615967
29.280001,497.760010,-1235.615967
236.192001,575.840027,-1177.056030
452.864014,569.984009,-1067.744019
614.880005,503.615997,-895.968018
677.343994,355.264008,-755.424011
681.247986,-11.712000,-694.911987
