ACC_X,ACC_Y,ACC_Z
478.239990,530.943970,691.007996
476.287994,540.703979,691.007996
482.144012,530.943970,694.911987
474.335999,540.703979,692.960022
476.287994,534.848022,692.960022
476.287994,540.703979,689.056030
472.384003,540.703979,691.007996
468.480011,536.799988,691.007996
468.480011,530.943970,700.768005
478.239990,546.559998,698.815979
482.144012,540.703979,691.007996
482.144012,534.848022,696.864014
476.287994,532.895996,694.911987
476.287994,536.799988,691.007996
478.239990,534.848022,696.864014
476.287994,548.512024,689.056030
480.191986,536.799988,691.007996
486.048004,536.799988,691.007996
484.096008,530.943970,692.960022
480.191986,532.895996,694.911987
480.191986,540.703979,696.864014
482.144012,534.848022,696.864014
484.096008,534.848022,696.864014
480.191986,544.607971,694.911987
482.144012,534.848022,696.864014
478.239990,540.703979,696.864014
484.096008,540.703979,691.007996
476.287994,536.799988,691.007996
482.144012,540.703979,696.864014
484.096008,538.752014,700.768005
484.096008,540.703979,696.864014
488.000000,544.607971,687.104004
482.144012,534.848022,696.864014
476.287994,532.895996,692.960022
476.287994,540.703979,691.007996
478.239990,534.848022,696.864014
484.096008,534.848022,696.864014
488.000000,528.992004,700.768005
484.096008,536.799988,698.815979
478.239990,540.703979,696.864014
484.096008,534.848022,696.864014
484.096008,528.992004,689.056030
484.096008,530.943970,694.911987
482.144012,532.895996,696.864014
489.951996,544.607971,692.960022
484.096008,536.799988,694.911987
480.191986,538.752014,696.864014
480.191986,536.799988,691.007996
489.951996,532.895996,689.056030
491.903992,542.656006,700.768005
478.239990,542.656006,691.007996
476.287994,542.656006,691.007996
478.239990,538.752014,696.864014
480.191986,532.895996,698.815979
476.287994,536.799988,691.007996
482.144012,538.752014,691.007996
482.144012,519.231995,689.056030
478.239990,527.039978,687.104004
482.144012,534.848022,696.864014
476.287994,532.895996,694.911987
472.384003,530.943970,687.104004
478.239990,532.895996,696.864014
476.287994,530.943970,692.960022
480.191986,530.943970,683.200012
474.335999,527.039978,694.911987
472.384003,534.848022,691.007996
478.239990,530.943970,683.200012
474.335999,528.992004,696.864014
480.191986,530.943970,691.007996
476.287994,528.992004,694.911987
482.144012,525.088013,694.911987
474.335999,530.943970,689.056030
484.096008,530.943970,683.200012
480.191986,530.943970,689.056030
482.144012,530.943970,683.200012
480.191986,528.992004,692.960022
478.239990,528.992004,685.151978
476.287994,528.992004,681.247986
476.287994,528.992004,681.247986
482.144012,527.039978,681.247986
480.191986,528.992004,687.104004
476.287994,536.799988,677.343994
474.335999,532.895996,673.440002
478.239990,536.799988,679.296021
476.287994,530.943970,683.200012
478.239990,523.135986,683.200012
482.144012,530.943970,685.151978
470.432007,528.992004,683.200012
478.239990,530.943970,681.247986
480.191986,536.799988,679.296021
478.239990,528.992004,683.200012
478.239990,530.943970,687.104004
484.096008,530.943970,687.104004
484.096008,530.943970,689.056030
486.048004,542.656006,679.296021
482.144012,530.943970,689.056030
486.048004,546.559998,683.200012
484.096008,538.752014,687.104004
486.048004,538.752014,689.056030
484.096008,530.943970,681.247986
480.191986,532.895996,700.768005
482.144012,534.848022,696.864014
480.191986,534.848022,696.864014
486.048004,542.656006,691.007996
480.191986,538.752014,685.151978
484.096008,532.895996,691.007996
478.239990,534.848022,691.007996
480.191986,540.703979,691.007996
484.096008,528.992004,687.104004
480.191986,536.799988,689.056030
486.048004,548.512024,683.200012
486.048004,536.799988,683.200012
480.191986,536.799988,683.200012
482.144012,540.703979,689.056030
480.191986,536.799988,683.200012
476.287994,544.607971,683.200012
482.144012,536.799988,689.056030
482.144012,538.752014,679.296021
486.048004,540.703979,689.056030
482.144012,530.943970,687.104004
488.000000,548.512024,677.343994
486.048004,534.848022,685.151978
482.144012,540.703979,689.056030
480.191986,536.799988,685.151978
480.191986,542.656006,689.056030
480.191986,536.799988,689.056030
478.239990,538.752014,677.343994
480.191986,538.752014,679.296021
476.287994,538.752014,683.200012
478.239990,527.039978,671.487976
478.239990,530.943970,681.247986
484.096008,532.895996,679.296021
482.144012,538.752014,683.200012
482.144012,540.703979,677.343994
486.048004,536.799988,685.151978
476.287994,548.512024,683.200012
486.048004,538.752014,679.296021
484.096008,530.943970,683.200012
486.048004,536.799988,679.296021
478.239990,538.752014,671.487976
482.144012,536.799988,679.296021
482.144012,534.848022,679.296021
478.239990,536.799988,675.392029
480.191986,532.895996,669.536011
476.287994,536.799988,685.151978
482.144012,542.656006,671.487976
489.951996,532.895996,679.296021
488.000000,532.895996,681.247986
489.951996,540.703979,681.247986
482.144012,536.799988,681.247986
486.048004,536.799988,671.487976
482.144012,532.895996,687.104004
480.191986,536.799988,683.200012
482.144012,530.943970,679.296021
484.096008,540.703979,677.343994
488.000000,546.559998,681.247986
486.048004,544.607971,683.200012
486.048004,530.943970,679.296021
482.144012,538.752014,681.247986
493.855988,538.752014,679.296021
488.000000,534.848022,681.247986
484.096008,528.992004,681.247986
484.096008,532.895996,683.200012
488.000000,530.943970,677.343994
495.808014,546.559998,685.151978
495.808014,540.703979,685.151978
488.000000,536.799988,679.296021
497.760010,534.848022,685.151978
499.712006,540.703979,685.151978
493.855988,540.703979,681.247986
488.000000,540.703979,681.247986
493.855988,538.752014,687.104004
491.903992,540.703979,683.200012
491.903992,532.895996,679.296021
491.903992,532.895996,679.296021
493.855988,538.752014,685.151978
491.903992,527.039978,679.296021
497.760010,540.703979,681.247986
493.855988,534.848022,685.151978
503.615997,538.752014,691.007996
495.808014,540.703979,683.200012
497.760010,538.752014,681.247986
493.855988,530.943970,691.007996
499.712006,542.656006,685.151978
501.664001,534.848022,683.200012
505.567993,534.848022,687.104004
501.664001,532.895996,689.056030
497.760010,540.703979,689.056030
501.664001,536.799988,692.960022
495.808014,532.895996,677.343994
497.760010,536.799988,683.200012
499.712006,532.895996,689.056030
497.760010,538.752014,683.200012
501.664001,546.559998,696.864014
499.712006,542.656006,683.200012
499.712006,544.607971,685.151978
493.855988,542.656006,689.056030
499.712006,534.848022,687.104004
493.855988,542.656006,691.007996
503.615997,548.512024,694.911987
507.519989,538.752014,691.007996
497.760010,536.799988,687.104004
501.664001,548.512024,687.104004
493.855988,538.752014,683.200012
499.712006,544.607971,685.151978
497.760010,534.848022,687.104004
497.760010,534.848022,692.960022
489.951996,544.607971,687.104004
495.808014,534.848022,687.104004
493.855988,546.559998,679.296021
497.760010,546.559998,683.200012
499.712006,546.559998,689.056030
499.712006,540.703979,692.960022
488.000000,538.752014,681.247986
493.855988,542.656006,681.247986
497.760010,542.656006,681.247986
497.760010,540.703979,685.151978
488.000000,544.607971,685.151978
488.000000,548.512024,685.151978
497.760010,544.607971,681.247986
488.000000,544.607971,681.247986
493.855988,542.656006,687.104004
493.855988,540.703979,685.151978
499.712006,534.848022,687.104004
497.760010,542.656006,687.104004
488.000000,546.559998,692.960022
493.855988,550.463989,691.007996
488.000000,548.512024,691.007996
499.712006,544.607971,692.960022
499.712006,534.848022,689.056030
493.855988,544.607971,687.104004
501.664001,538.752014,694.911987
499.712006,542.656006,687.104004
488.000000,538.752014,685.151978
497.760010,534.848022,687.104004
495.808014,534.848022,691.007996
493.855988,534.848022,685.151978
493.855988,544.607971,687.104004
499.712006,544.607971,694.911987
497.760010,544.607971,692.960022
499.712006,534.848022,687.104004
499.712006,534.848022,692.960022
499.712006,534.848022,692.960022
499.712006,536.799988,696.864014
489.951996,540.703979,696.864014
505.567993,527.039978,683.200012
497.760010,530.943970,696.864014
501.664001,532.895996,691.007996
499.712006,523.135986,687.104004
497.760010,530.943970,700.768005
497.760010,534.848022,687.104004
491.903992,532.895996,691.007996
497.760010,534.848022,691.007996
499.712006,532.895996,683.200012
505.567993,532.895996,692.960022
503.615997,528.992004,685.151978
501.664001,530.943970,691.007996
503.615997,527.039978,683.200012
509.471985,525.088013,687.104004
499.712006,538.752014,687.104004
507.519989,523.135986,692.960022
505.567993,536.799988,689.056030
503.615997,536.799988,692.960022
507.519989,538.752014,689.056030
501.664001,527.039978,683.200012
507.519989,536.799988,689.056030
503.615997,534.848022,691.007996
499.712006,527.039978,692.960022
501.664001,525.088013,683.200012
503.615997,527.039978,685.151978
507.519989,532.895996,687.104004
513.375977,525.088013,689.056030
507.519989,528.992004,687.104004
501.664001,528.992004,683.200012
503.615997,527.039978,679.296021
495.808014,525.088013,685.151978
507.519989,519.231995,679.296021
501.664001,536.799988,694.911987
497.760010,523.135986,683.200012
511.424011,536.799988,685.151978
509.471985,538.752014,679.296021
509.471985,523.135986,689.056030
511.424011,528.992004,681.247986
503.615997,525.088013,685.151978
513.375977,525.088013,692.960022
509.471985,530.943970,692.960022
511.424011,523.135986,692.960022
509.471985,527.039978,681.247986
509.471985,528.992004,681.247986
511.424011,523.135986,694.911987
513.375977,530.943970,687.104004
513.375977,525.088013,683.200012
513.375977,530.943970,692.960022
509.471985,528.992004,685.151978
511.424011,525.088013,691.007996
511.424011,527.039978,694.911987
513.375977,525.088013,687.104004
509.471985,530.943970,685.151978
515.328003,521.184021,689.056030
515.328003,517.280029,685.151978
513.375977,525.088013,692.960022
507.519989,517.280029,691.007996
499.712006,521.184021,687.104004
515.328003,527.039978,689.056030
511.424011,521.184021,681.247986
513.375977,521.184021,691.007996
517.280029,521.184021,694.911987
515.328003,517.280029,679.296021
523.135986,532.895996,691.007996
513.375977,517.280029,685.151978
515.328003,528.992004,687.104004
515.328003,525.088013,694.911987
517.280029,519.231995,696.864014
509.471985,521.184021,696.864014
513.375977,515.328003,691.007996
507.519989,517.280029,691.007996
525.088013,511.424011,692.960022
517.280029,517.280029,691.007996
511.424011,515.328003,700.768005
521.184021,517.280029,692.960022
523.135986,525.088013,689.056030
517.280029,523.135986,692.960022
515.328003,521.184021,689.056030
519.231995,515.328003,683.200012
521.184021,517.280029,692.960022
513.375977,505.567993,689.056030
507.519989,511.424011,689.056030
509.471985,515.328003,694.911987
517.280029,517.280029,685.151978
523.135986,515.328003,691.007996
517.280029,519.231995,692.960022
517.280029,519.231995,691.007996
513.375977,515.328003,696.864014
507.519989,517.280029,683.200012
515.328003,525.088013,687.104004
519.231995,517.280029,689.056030
519.231995,515.328003,692.960022
521.184021,523.135986,683.200012
521.184021,523.135986,685.151978
521.184021,521.184021,683.200012
515.328003,519.231995,692.960022
519.231995,521.184021,694.911987
517.280029,515.328003,689.056030
515.328003,521.184021,696.864014
517.280029,517.280029,683.200012
513.375977,517.280029,691.007996
521.184021,515.328003,696.864014
517.280029,511.424011,691.007996
511.424011,515.328003,689.056030
513.375977,519.231995,683.200012
509.471985,521.184021,689.056030
517.280029,521.184021,685.151978
517.280029,521.184021,687.104004
513.375977,523.135986,687.104004
515.328003,523.135986,692.960022
511.424011,517.280029,691.007996
521.184021,523.135986,687.104004
521.184021,528.992004,687.104004
513.375977,519.231995,687.104004
525.088013,527.039978,691.007996
511.424011,528.992004,687.104004
513.375977,525.088013,687.104004
511.424011,532.895996,692.960022
513.375977,525.088013,692.960022
515.328003,530.943970,685.151978
507.519989,527.039978,687.104004
513.375977,528.992004,687.104004
511.424011,528.992004,694.911987
507.519989,527.039978,687.104004
509.471985,532.895996,696.864014
507.519989,538.752014,679.296021
511.424011,536.799988,683.200012
507.519989,528.992004,694.911987
511.424011,534.848022,694.911987
509.471985,523.135986,681.247986
511.424011,532.895996,700.768005
503.615997,540.703979,692.960022
503.615997,538.752014,698.815979
507.519989,534.848022,694.911987
519.231995,534.848022,685.151978
511.424011,534.848022,692.960022
515.328003,534.848022,689.056030
511.424011,548.512024,691.007996
513.375977,530.943970,687.104004
507.519989,538.752014,685.151978
507.519989,534.848022,698.815979
517.280029,544.607971,692.960022
507.519989,546.559998,708.575989
503.615997,544.607971,694.911987
517.280029,552.416016,694.911987
511.424011,546.559998,689.056030
523.135986,548.512024,687.104004
521.184021,540.703979,696.864014
515.328003,534.848022,696.864014
515.328003,544.607971,700.768005
515.328003,546.559998,696.864014
515.328003,540.703979,694.911987
517.280029,546.559998,692.960022
521.184021,550.463989,692.960022
517.280029,548.512024,691.007996
513.375977,550.463989,692.960022
521.184021,548.512024,692.960022
511.424011,548.512024,691.007996
507.519989,548.512024,689.056030
517.280029,546.559998,692.960022
507.519989,552.416016,700.768005
521.184021,542.656006,694.911987
517.280029,548.512024,683.200012
513.375977,556.320007,687.104004
513.375977,550.463989,687.104004
511.424011,542.656006,691.007996
511.424011,546.559998,691.007996
511.424011,550.463989,683.200012
515.328003,558.271973,689.056030
511.424011,548.512024,689.056030
515.328003,554.367981,692.960022
517.280029,542.656006,689.056030
517.280029,546.559998,689.056030
515.328003,554.367981,683.200012
517.280029,542.656006,685.151978
519.231995,542.656006,691.007996
519.231995,548.512024,691.007996
525.088013,550.463989,691.007996
513.375977,556.320007,687.104004
521.184021,552.416016,691.007996
523.135986,558.271973,689.056030
525.088013,550.463989,691.007996
525.088013,560.223999,694.911987
519.231995,544.607971,691.007996
517.280029,558.271973,694.911987
513.375977,548.512024,692.960022
521.184021,548.512024,694.911987
525.088013,556.320007,696.864014
523.135986,548.512024,696.864014
517.280029,544.607971,704.671997
523.135986,550.463989,702.719971
515.328003,546.559998,696.864014
521.184021,548.512024,694.911987
519.231995,542.656006,687.104004
525.088013,556.320007,698.815979
521.184021,556.320007,694.911987
525.088013,560.223999,700.768005
521.184021,552.416016,691.007996
519.231995,550.463989,700.768005
528.992004,552.416016,702.719971
517.280029,550.463989,702.719971
515.328003,560.223999,706.624023
517.280029,556.320007,700.768005
521.184021,554.367981,694.911987
519.231995,548.512024,691.007996
513.375977,546.559998,700.768005
521.184021,544.607971,696.864014
519.231995,554.367981,704.671997
521.184021,546.559998,691.007996
519.231995,554.367981,698.815979
528.992004,548.512024,691.007996
521.184021,548.512024,694.911987
509.471985,546.559998,700.768005
515.328003,552.416016,694.911987
511.424011,546.559998,698.815979
513.375977,542.656006,696.864014
513.375977,546.559998,696.864014
513.375977,546.559998,700.768005
513.375977,544.607971,691.007996
507.519989,548.512024,689.056030
513.375977,546.559998,698.815979
513.375977,544.607971,700.768005
509.471985,538.752014,700.768005
513.375977,544.607971,691.007996
509.471985,540.703979,702.719971
509.471985,540.703979,696.864014
507.519989,532.895996,692.960022
513.375977,546.559998,696.864014
513.375977,534.848022,691.007996
513.375977,546.559998,700.768005
515.328003,530.943970,689.056030
513.375977,532.895996,691.007996
505.567993,538.752014,689.056030
501.664001,536.799988,694.911987
503.615997,532.895996,689.056030
505.567993,532.895996,694.911987
507.519989,534.848022,702.719971
507.519989,532.895996,694.911987
497.760010,548.512024,700.768005
503.615997,532.895996,691.007996
509.471985,534.848022,700.768005
509.471985,530.943970,692.960022
501.664001,519.231995,698.815979
497.760010,534.848022,687.104004
501.664001,530.943970,692.960022
499.712006,530.943970,696.864014
501.664001,536.799988,694.911987
497.760010,528.992004,696.864014
493.855988,527.039978,700.768005
497.760010,519.231995,696.864014
495.808014,530.943970,696.864014
495.808014,528.992004,696.864014
495.808014,523.135986,696.864014
491.903992,517.280029,694.911987
488.000000,523.135986,694.911987
488.000000,517.280029,691.007996
488.000000,527.039978,694.911987
493.855988,515.328003,687.104004
486.048004,525.088013,692.960022
489.951996,521.184021,687.104004
482.144012,517.280029,689.056030
484.096008,519.231995,687.104004
486.048004,517.280029,683.200012
482.144012,517.280029,689.056030
482.144012,525.088013,692.960022
489.951996,523.135986,689.056030
488.000000,515.328003,683.200012
489.951996,525.088013,692.960022
476.287994,517.280029,677.343994
472.384003,519.231995,685.151978
484.096008,523.135986,685.151978
484.096008,521.184021,679.296021
478.239990,523.135986,679.296021
482.144012,513.375977,689.056030
480.191986,517.280029,679.296021
472.384003,521.184021,683.200012
484.096008,513.375977,679.296021
484.096008,509.471985,677.343994
480.191986,507.519989,677.343994
476.287994,507.519989,679.296021
482.144012,513.375977,679.296021
486.048004,517.280029,679.296021
482.144012,515.328003,677.343994
480.191986,513.375977,683.200012
480.191986,511.424011,685.151978
482.144012,499.712006,692.960022
484.096008,507.519989,696.864014
491.903992,509.471985,689.056030
489.951996,509.471985,689.056030
484.096008,515.328003,691.007996
486.048004,517.280029,689.056030
482.144012,507.519989,696.864014
484.096008,509.471985,696.864014
488.000000,509.471985,696.864014
488.000000,521.184021,698.815979
478.239990,507.519989,696.864014
489.951996,511.424011,694.911987
488.000000,509.471985,698.815979
484.096008,511.424011,698.815979
491.903992,517.280029,698.815979
480.191986,517.280029,702.719971
484.096008,515.328003,698.815979
484.096008,515.328003,696.864014
484.096008,515.328003,700.768005
486.048004,507.519989,691.007996
484.096008,507.519989,696.864014
482.144012,509.471985,698.815979
480.191986,515.328003,698.815979
489.951996,517.280029,694.911987
486.048004,521.184021,702.719971
486.048004,511.424011,702.719971
486.048004,517.280029,702.719971
478.239990,507.519989,694.911987
486.048004,517.280029,691.007996
482.144012,521.184021,696.864014
480.191986,517.280029,683.200012
491.903992,527.039978,685.151978
486.048004,527.039978,692.960022
482.144012,515.328003,696.864014
482.144012,517.280029,687.104004
482.144012,525.088013,687.104004
478.239990,515.328003,689.056030
472.384003,523.135986,683.200012
468.480011,525.088013,689.056030
466.528015,515.328003,685.151978
464.575989,523.135986,683.200012
470.432007,527.039978,679.296021
472.384003,519.231995,683.200012
472.384003,525.088013,687.104004
476.287994,515.328003,689.056030
474.335999,515.328003,687.104004
474.335999,525.088013,687.104004
462.623993,536.799988,677.343994
472.384003,523.135986,683.200012
472.384003,519.231995,687.104004
470.432007,517.280029,687.104004
462.623993,519.231995,665.632019
464.575989,527.039978,679.296021
466.528015,525.088013,679.296021
464.575989,530.943970,677.343994
466.528015,538.752014,673.440002
466.528015,530.943970,677.343994
470.432007,527.039978,681.247986
470.432007,527.039978,679.296021
464.575989,521.184021,683.200012
472.384003,540.703979,673.440002
472.384003,532.895996,677.343994
470.432007,523.135986,685.151978
468.480011,530.943970,671.487976
472.384003,530.943970,681.247986
470.432007,525.088013,689.056030
472.384003,528.992004,685.151978
470.432007,528.992004,685.151978
474.335999,523.135986,677.343994
468.480011,523.135986,673.440002
470.432007,530.943970,675.392029
466.528015,538.752014,685.151978
466.528015,532.895996,683.200012
460.671997,534.848022,679.296021
464.575989,540.703979,675.392029
472.384003,534.848022,679.296021
468.480011,536.799988,677.343994
462.623993,534.848022,669.536011
470.432007,534.848022,665.632019
466.528015,530.943970,665.632019
468.480011,538.752014,663.679993
464.575989,536.799988,663.679993
460.671997,548.512024,671.487976
466.528015,530.943970,667.583984
470.432007,534.848022,671.487976
460.671997,536.799988,667.583984
468.480011,542.656006,655.872009
464.575989,534.848022,663.679993
468.480011,552.416016,648.064026
456.768005,534.848022,655.872009
462.623993,534.848022,655.872009
460.671997,542.656006,661.728027
466.528015,542.656006,650.015991
462.623993,540.703979,657.823975
456.768005,536.799988,651.968018
466.528015,534.848022,644.159973
470.432007,530.943970,650.015991
458.720001,540.703979,644.159973
460.671997,536.799988,636.351990
464.575989,536.799988,642.208008
464.575989,540.703979,644.159973
468.480011,528.992004,646.112000
468.480011,540.703979,651.968018
468.480011,538.752014,653.919983
472.384003,532.895996,648.064026
474.335999,544.607971,648.064026
474.335999,534.848022,657.823975
468.480011,534.848022,655.872009
478.239990,536.799988,653.919983
474.335999,536.799988,648.064026
468.480011,548.512024,655.872009
478.239990,548.512024,661.728027
486.048004,536.799988,657.823975
476.287994,528.992004,663.679993
486.048004,540.703979,657.823975
478.239990,540.703979,665.632019
480.191986,534.848022,663.679993
472.384003,538.752014,659.776001
478.239990,542.656006,659.776001
476.287994,538.752014,659.776001
482.144012,542.656006,659.776001
478.239990,540.703979,665.632019
484.096008,534.848022,663.679993
478.239990,532.895996,661.728027
489.951996,536.799988,663.679993
480.191986,532.895996,671.487976
472.384003,542.656006,673.440002
476.287994,540.703979,679.296021
478.239990,530.943970,687.104004
476.287994,530.943970,677.343994
482.144012,530.943970,681.247986
488.000000,540.703979,679.296021
482.144012,544.607971,679.296021
480.191986,538.752014,679.296021
478.239990,548.512024,687.104004
480.191986,540.703979,679.296021
476.287994,538.752014,691.007996
470.432007,532.895996,681.247986
482.144012,536.799988,679.296021
486.048004,536.799988,679.296021
484.096008,540.703979,677.343994
468.480011,538.752014,681.247986
470.432007,540.703979,677.343994
472.384003,544.607971,669.536011
476.287994,542.656006,679.296021
468.480011,538.752014,679.296021
482.144012,542.656006,673.440002
470.432007,534.848022,685.151978
466.528015,544.607971,681.247986
470.432007,532.895996,679.296021
468.480011,542.656006,679.296021
474.335999,548.512024,677.343994
470.432007,552.416016,679.296021
466.528015,548.512024,673.440002
464.575989,550.463989,677.343994
462.623993,546.559998,681.247986
460.671997,542.656006,673.440002
450.911987,546.559998,669.536011
452.864014,554.367981,675.392029
454.816010,558.271973,675.392029
454.816010,556.320007,669.536011
445.056000,552.416016,673.440002
454.816010,552.416016,667.583984
445.056000,544.607971,665.632019
448.959991,552.416016,667.583984
454.816010,558.271973,665.632019
450.911987,544.607971,677.343994
448.959991,540.703979,673.440002
456.768005,542.656006,673.440002
448.959991,548.512024,681.247986
450.911987,536.799988,679.296021
445.056000,548.512024,679.296021
447.007996,546.559998,671.487976
445.056000,546.559998,673.440002
448.959991,544.607971,683.200012
445.056000,548.512024,687.104004
452.864014,538.752014,677.343994
445.056000,542.656006,679.296021
454.816010,536.799988,685.151978
448.959991,542.656006,691.007996
452.864014,536.799988,689.056030
456.768005,536.799988,698.815979
447.007996,538.752014,702.719971
456.768005,528.992004,694.911987
466.528015,540.703979,692.960022
460.671997,538.752014,700.768005
466.528015,528.992004,700.768005
470.432007,530.943970,704.671997
462.623993,528.992004,702.719971
460.671997,534.848022,712.479980
466.528015,528.992004,702.719971
466.528015,519.231995,702.719971
468.480011,530.943970,708.575989
472.384003,530.943970,704.671997
474.335999,525.088013,702.719971
478.239990,515.328003,696.864014
476.287994,532.895996,694.911987
476.287994,527.039978,694.911987
468.480011,528.992004,696.864014
470.432007,525.088013,687.104004
472.384003,523.135986,694.911987
470.432007,528.992004,689.056030
474.335999,519.231995,702.719971
478.239990,521.184021,696.864014
470.432007,519.231995,692.960022
478.239990,515.328003,696.864014
468.480011,525.088013,696.864014
472.384003,515.328003,691.007996
468.480011,511.424011,692.960022
478.239990,517.280029,683.200012
474.335999,517.280029,685.151978
460.671997,521.184021,685.151978
466.528015,515.328003,685.151978
470.432007,519.231995,692.960022
472.384003,517.280029,698.815979
472.384003,511.424011,692.960022
474.335999,519.231995,679.296021
470.432007,527.039978,685.151978
476.287994,519.231995,685.151978
474.335999,515.328003,687.104004
476.287994,519.231995,689.056030
474.335999,517.280029,683.200012
478.239990,515.328003,696.864014
478.239990,503.615997,691.007996
480.191986,509.471985,683.200012
474.335999,513.375977,692.960022
480.191986,517.280029,689.056030
482.144012,517.280029,694.911987
474.335999,519.231995,691.007996
470.432007,521.184021,685.151978
474.335999,513.375977,691.007996
466.528015,511.424011,694.911987
474.335999,503.615997,685.151978
478.239990,499.712006,687.104004
474.335999,511.424011,685.151978
474.335999,517.280029,679.296021
474.335999,515.328003,683.200012
476.287994,503.615997,687.104004
486.048004,511.424011,691.007996
482.144012,507.519989,691.007996
482.144012,511.424011,685.151978
489.951996,505.567993,685.151978
486.048004,505.567993,689.056030
480.191986,501.664001,694.911987
486.048004,501.664001,694.911987
478.239990,515.328003,696.864014
489.951996,509.471985,696.864014
493.855988,509.471985,687.104004
491.903992,507.519989,687.104004
493.855988,515.328003,692.960022
489.951996,511.424011,694.911987
495.808014,517.280029,694.911987
495.808014,519.231995,700.768005
495.808014,517.280029,704.671997
493.855988,515.328003,704.671997
491.903992,517.280029,698.815979
495.808014,521.184021,691.007996
491.903992,517.280029,694.911987
488.000000,517.280029,691.007996
495.808014,511.424011,692.960022
499.712006,519.231995,698.815979
499.712006,519.231995,696.864014
491.903992,517.280029,692.960022
501.664001,517.280029,704.671997
495.808014,528.992004,704.671997
501.664001,536.799988,692.960022
499.712006,525.088013,689.056030
501.664001,527.039978,681.247986
499.712006,530.943970,696.864014
503.615997,530.943970,694.911987
505.567993,523.135986,694.911987
497.760010,525.088013,691.007996
501.664001,519.231995,694.911987
491.903992,527.039978,683.200012
507.519989,540.703979,679.296021
509.471985,530.943970,683.200012
501.664001,523.135986,689.056030
507.519989,517.280029,683.200012
509.471985,519.231995,681.247986
513.375977,517.280029,685.151978
501.664001,523.135986,681.247986
503.615997,521.184021,685.151978
509.471985,525.088013,692.960022
509.471985,525.088013,687.104004
509.471985,523.135986,694.911987
509.471985,523.135986,692.960022
505.567993,530.943970,691.007996
507.519989,519.231995,683.200012
509.471985,519.231995,687.104004
511.424011,519.231995,689.056030
511.424011,525.088013,683.200012
507.519989,519.231995,687.104004
509.471985,528.992004,687.104004
503.615997,519.231995,692.960022
507.519989,521.184021,694.911987
517.280029,521.184021,692.960022
507.519989,519.231995,691.007996
503.615997,521.184021,689.056030
513.375977,521.184021,692.960022
509.471985,519.231995,681.247986
511.424011,519.231995,679.296021
505.567993,525.088013,675.392029
503.615997,517.280029,687.104004
503.615997,515.328003,696.864014
507.519989,517.280029,683.200012
501.664001,525.088013,683.200012
501.664001,521.184021,687.104004
505.567993,519.231995,689.056030
513.375977,515.328003,671.487976
507.519989,515.328003,677.343994
509.471985,519.231995,681.247986
511.424011,515.328003,671.487976
503.615997,515.328003,677.343994
513.375977,523.135986,673.440002
515.328003,519.231995,681.247986
515.328003,521.184021,677.343994
509.471985,519.231995,683.200012
511.424011,517.280029,689.056030
515.328003,525.088013,683.200012
517.280029,507.519989,685.151978
517.280029,517.280029,683.200012
525.088013,515.328003,687.104004
517.280029,511.424011,691.007996
517.280029,517.280029,689.056030
521.184021,507.519989,694.911987
525.088013,503.615997,685.151978
528.992004,515.328003,683.200012
528.992004,513.375977,685.151978
528.992004,503.615997,683.200012
528.992004,505.567993,689.056030
523.135986,507.519989,694.911987
525.088013,499.712006,696.864014
528.992004,503.615997,692.960022
528.992004,511.424011,691.007996
534.848022,501.664001,685.151978
534.848022,499.712006,692.960022
525.088013,497.760010,696.864014
523.135986,501.664001,689.056030
523.135986,503.615997,687.104004
528.992004,495.808014,691.007996
528.992004,497.760010,691.007996
536.799988,499.712006,691.007996
536.799988,497.760010,696.864014
530.943970,495.808014,694.911987
532.895996,489.951996,687.104004
530.943970,491.903992,700.768005
536.799988,497.760010,700.768005
538.752014,489.951996,698.815979
542.656006,480.191986,685.151978
536.799988,486.048004,685.151978
534.848022,489.951996,679.296021
536.799988,488.000000,691.007996
536.799988,488.000000,689.056030
536.799988,486.048004,689.056030
530.943970,484.096008,683.200012
544.607971,493.855988,696.864014
532.895996,484.096008,689.056030
527.039978,484.096008,685.151978
536.799988,489.951996,687.104004
542.656006,486.048004,679.296021
532.895996,497.760010,692.960022
538.752014,480.191986,689.056030
540.703979,482.144012,691.007996
528.992004,480.191986,692.960022
540.703979,491.903992,685.151978
536.799988,484.096008,685.151978
530.943970,484.096008,687.104004
540.703979,493.855988,675.392029
540.703979,493.855988,692.960022
530.943970,488.000000,696.864014
538.752014,484.096008,694.911987
538.752014,486.048004,679.296021
532.895996,501.664001,683.200012
534.848022,488.000000,692.960022
527.039978,486.048004,675.392029
542.656006,497.760010,685.151978
540.703979,493.855988,692.960022
540.703979,486.048004,692.960022
536.799988,484.096008,683.200012
540.703979,488.000000,692.960022
532.895996,486.048004,692.960022
544.607971,488.000000,681.247986
538.752014,488.000000,691.007996
534.848022,499.712006,683.200012
548.512024,491.903992,689.056030
542.656006,480.191986,689.056030
534.848022,489.951996,696.864014
530.943970,491.903992,691.007996
544.607971,497.760010,685.151978
540.703979,495.808014,681.247986
540.703979,495.808014,685.151978
546.559998,489.951996,685.151978
542.656006,488.000000,679.296021
544.607971,497.760010,685.151978
544.607971,495.808014,687.104004
538.752014,486.048004,689.056030
538.752014,488.000000,687.104004
544.607971,497.760010,683.200012
540.703979,495.808014,694.911987
540.703979,484.096008,696.864014
542.656006,495.808014,694.911987
546.559998,491.903992,692.960022
548.512024,480.191986,681.247986
544.607971,488.000000,687.104004
554.367981,480.191986,694.911987
546.559998,484.096008,696.864014
558.271973,484.096008,685.151978
552.416016,486.048004,694.911987
558.271973,491.903992,702.719971
564.127991,482.144012,694.911987
558.271973,486.048004,694.911987
560.223999,488.000000,698.815979
556.320007,488.000000,698.815979
568.031982,486.048004,708.575989
573.888000,484.096008,698.815979
566.080017,480.191986,704.671997
566.080017,480.191986,698.815979
583.648010,480.191986,704.671997
575.840027,476.287994,712.479980
569.984009,482.144012,710.528015
571.935974,470.432007,704.671997
581.695984,478.239990,712.479980
583.648010,478.239990,708.575989
587.552002,472.384003,716.383972
571.935974,466.528015,716.383972
581.695984,472.384003,698.815979
587.552002,466.528015,702.719971
599.263977,462.623993,698.815979
595.359985,464.575989,710.528015
585.599976,464.575989,716.383972
595.359985,460.671997,710.528015
597.312012,466.528015,718.335999
601.216003,464.575989,700.768005
601.216003,460.671997,698.815979
597.312012,462.623993,712.479980
597.312012,452.864014,708.575989
595.359985,456.768005,694.911987
593.408020,458.720001,692.960022
585.599976,458.720001,691.007996
589.504028,458.720001,689.056030
593.408020,448.959991,687.104004
593.408020,452.864014,681.247986
585.599976,458.720001,677.343994
583.648010,458.720001,677.343994
581.695984,454.816010,665.632019
581.695984,456.768005,671.487976
579.744019,458.720001,673.440002
579.744019,456.768005,665.632019
575.840027,456.768005,673.440002
575.840027,452.864014,665.632019
575.840027,452.864014,671.487976
569.984009,458.720001,663.679993
573.888000,458.720001,667.583984
577.791992,448.959991,667.583984
577.791992,450.911987,669.536011
569.984009,458.720001,669.536011
569.984009,458.720001,667.583984
566.080017,456.768005,669.536011
562.176025,460.671997,669.536011
560.223999,454.816010,665.632019
554.367981,456.768005,663.679993
558.271973,456.768005,665.632019
560.223999,447.007996,673.440002
546.559998,452.864014,667.583984
554.367981,460.671997,659.776001
550.463989,447.007996,655.872009
554.367981,448.959991,667.583984
554.367981,443.104004,663.679993
558.271973,448.959991,669.536011
546.559998,447.007996,665.632019
544.607971,450.911987,671.487976
546.559998,443.104004,663.679993
540.703979,447.007996,665.632019
546.559998,447.007996,669.536011
540.703979,445.056000,665.632019
540.703979,441.152008,667.583984
544.607971,447.007996,669.536011
538.752014,445.056000,665.632019
544.607971,447.007996,665.632019
538.752014,450.911987,665.632019
538.752014,439.200012,663.679993
538.752014,441.152008,665.632019
540.703979,437.247986,661.728027
538.752014,439.200012,661.728027
532.895996,439.200012,659.776001
540.703979,443.104004,661.728027
538.752014,439.200012,661.728027
542.656006,439.200012,661.728027
542.656006,433.343994,663.679993
546.559998,447.007996,667.583984
550.463989,443.104004,667.583984
550.463989,439.200012,669.536011
550.463989,433.343994,667.583984
554.367981,437.247986,667.583984
548.512024,443.104004,671.487976
558.271973,443.104004,675.392029
550.463989,445.056000,675.392029
554.367981,439.200012,677.343994
558.271973,439.200012,677.343994
550.463989,439.200012,675.392029
554.367981,448.959991,681.247986
554.367981,439.200012,683.200012
564.127991,441.152008,683.200012
558.271973,441.152008,691.007996
550.463989,441.152008,687.104004
564.127991,439.200012,689.056030
554.367981,433.343994,691.007996
571.935974,443.104004,696.864014
566.080017,435.295990,687.104004
577.791992,437.247986,692.960022
569.984009,433.343994,694.911987
562.176025,433.343994,694.911987
568.031982,431.391998,694.911987
575.840027,429.440002,696.864014
568.031982,437.247986,700.768005
573.888000,439.200012,698.815979
573.888000,433.343994,694.911987
579.744019,441.152008,694.911987
577.791992,441.152008,696.864014
575.840027,433.343994,691.007996
581.695984,443.104004,696.864014
577.791992,441.152008,689.056030
577.791992,433.343994,694.911987
579.744019,439.200012,698.815979
581.695984,435.295990,698.815979
579.744019,435.295990,710.528015
583.648010,439.200012,708.575989
573.888000,431.391998,698.815979
581.695984,433.343994,694.911987
577.791992,441.152008,700.768005
577.791992,439.200012,702.719971
581.695984,447.007996,704.671997
579.744019,443.104004,702.719971
583.648010,437.247986,700.768005
579.744019,443.104004,704.671997
569.984009,441.152008,702.719971
575.840027,445.056000,698.815979
571.935974,441.152008,700.768005
573.888000,447.007996,700.768005
575.840027,448.959991,702.719971
575.840027,441.152008,700.768005
577.791992,448.959991,700.768005
577.791992,445.056000,700.768005
581.695984,450.911987,704.671997
569.984009,433.343994,694.911987
573.888000,439.200012,698.815979
577.791992,456.768005,694.911987
573.888000,445.056000,696.864014
571.935974,452.864014,696.864014
575.840027,452.864014,696.864014
575.840027,452.864014,698.815979
575.840027,441.152008,691.007996
571.935974,458.720001,696.864014
571.935974,454.816010,706.624023
569.984009,458.720001,694.911987
573.888000,450.911987,710.528015
575.840027,458.720001,700.768005
569.984009,460.671997,706.624023
575.840027,452.864014,708.575989
569.984009,458.720001,706.624023
573.888000,458.720001,706.624023
571.935974,462.623993,706.624023
575.840027,452.864014,694.911987
569.984009,460.671997,700.768005
562.176025,456.768005,704.671997
571.935974,452.864014,700.768005
571.935974,456.768005,704.671997
568.031982,464.575989,702.719971
562.176025,460.671997,702.719971
568.031982,456.768005,706.624023
562.176025,460.671997,700.768005
562.176025,464.575989,698.815979
556.320007,466.528015,708.575989
560.223999,456.768005,702.719971
554.367981,456.768005,694.911987
558.271973,456.768005,696.864014
560.223999,456.768005,696.864014
562.176025,462.623993,696.864014
571.935974,470.432007,702.719971
556.320007,468.480011,700.768005
560.223999,476.287994,698.815979
552.416016,468.480011,698.815979
554.367981,468.480011,698.815979
552.416016,472.384003,698.815979
550.463989,464.575989,700.768005
554.367981,470.432007,702.719971
556.320007,478.239990,704.671997
552.416016,476.287994,700.768005
552.416016,472.384003,696.864014
554.367981,486.048004,700.768005
560.223999,480.191986,696.864014
554.367981,474.335999,692.960022
534.848022,472.384003,698.815979
554.367981,468.480011,694.911987
548.512024,464.575989,694.911987
542.656006,478.239990,702.719971
546.559998,474.335999,706.624023
542.656006,472.384003,696.864014
560.223999,466.528015,698.815979
552.416016,476.287994,694.911987
550.463989,468.480011,696.864014
554.367981,470.432007,708.575989
560.223999,478.239990,698.815979
556.320007,468.480011,696.864014
556.320007,474.335999,698.815979
556.320007,466.528015,708.575989
560.223999,462.623993,702.719971
569.984009,470.432007,704.671997
568.031982,472.384003,712.479980
571.935974,468.480011,706.624023
568.031982,468.480011,698.815979
562.176025,464.575989,706.624023
564.127991,466.528015,710.528015
568.031982,474.335999,714.432007
566.080017,470.432007,716.383972
566.080017,478.239990,724.192017
581.695984,472.384003,718.335999
575.840027,468.480011,714.432007
569.984009,466.528015,718.335999
577.791992,468.480011,718.335999
577.791992,470.432007,710.528015
568.031982,474.335999,716.383972
577.791992,470.432007,722.239990
577.791992,474.335999,726.143982
581.695984,472.384003,720.288025
587.552002,478.239990,714.432007
575.840027,480.191986,724.192017
581.695984,474.335999,722.239990
579.744019,470.432007,732.000000
583.648010,472.384003,741.760010
585.599976,476.287994,726.143982
585.599976,468.480011,732.000000
581.695984,470.432007,730.047974
591.455994,470.432007,733.952026
591.455994,466.528015,739.807983
595.359985,458.720001,737.856018
595.359985,456.768005,730.047974
589.504028,466.528015,741.760010
591.455994,472.384003,732.000000
595.359985,462.623993,741.760010
593.408020,452.864014,743.711975
595.359985,464.575989,743.711975
589.504028,462.623993,737.856018
595.359985,464.575989,741.760010
599.263977,472.384003,745.664001
595.359985,462.623993,743.711975
601.216003,470.432007,735.903992
597.312012,470.432007,741.760010
603.168030,466.528015,745.664001
591.455994,458.720001,741.760010
593.408020,464.575989,730.047974
595.359985,464.575989,741.760010
597.312012,462.623993,743.711975
603.168030,462.623993,735.903992
601.216003,470.432007,737.856018
589.504028,470.432007,741.760010
595.359985,474.335999,743.711975
593.408020,474.335999,745.664001
599.263977,472.384003,743.711975
597.312012,466.528015,743.711975
591.455994,472.384003,747.616028
587.552002,470.432007,745.664001
589.504028,472.384003,751.520020
589.504028,478.239990,747.616028
595.359985,474.335999,743.711975
591.455994,472.384003,743.711975
595.359985,484.096008,732.000000
583.648010,482.144012,732.000000
585.599976,480.191986,730.047974
599.263977,478.239990,743.711975
587.552002,476.287994,737.856018
585.599976,472.384003,741.760010
585.599976,484.096008,730.047974
587.552002,484.096008,747.616028
577.791992,486.048004,733.952026
579.744019,484.096008,743.711975
583.648010,488.000000,743.711975
581.695984,495.808014,741.760010
581.695984,495.808014,737.856018
575.840027,497.760010,730.047974
581.695984,497.760010,732.000000
569.984009,495.808014,733.952026
577.791992,499.712006,735.903992
575.840027,495.808014,726.143982
571.935974,495.808014,726.143982
575.840027,509.471985,735.903992
571.935974,503.615997,730.047974
558.271973,505.567993,730.047974
564.127991,509.471985,722.239990
566.080017,511.424011,722.239990
564.127991,509.471985,730.047974
564.127991,507.519989,726.143982
558.271973,517.280029,735.903992
564.127991,507.519989,726.143982
562.176025,507.519989,722.239990
566.080017,513.375977,732.000000
566.080017,517.280029,724.192017
562.176025,519.231995,728.096008
564.127991,517.280029,726.143982
569.984009,521.184021,726.143982
562.176025,519.231995,722.239990
568.031982,519.231995,728.096008
571.935974,519.231995,724.192017
568.031982,521.184021,726.143982
564.127991,521.184021,720.288025
554.367981,515.328003,728.096008
562.176025,527.039978,720.288025
560.223999,527.039978,720.288025
558.271973,528.992004,728.096008
564.127991,525.088013,724.192017
562.176025,519.231995,720.288025
558.271973,534.848022,710.528015
564.127991,538.752014,724.192017
554.367981,528.992004,726.143982
566.080017,532.895996,716.383972
556.320007,534.848022,718.335999
560.223999,532.895996,720.288025
560.223999,542.656006,724.192017
562.176025,548.512024,716.383972
556.320007,538.752014,718.335999
556.320007,534.848022,714.432007
554.367981,540.703979,714.432007
560.223999,546.559998,716.383972
546.559998,542.656006,706.624023
548.512024,554.367981,710.528015
546.559998,548.512024,712.479980
548.512024,542.656006,704.671997
544.607971,546.559998,702.719971
544.607971,538.752014,706.624023
540.703979,530.943970,716.383972
544.607971,536.799988,714.432007
536.799988,544.607971,710.528015
544.607971,534.848022,728.096008
540.703979,534.848022,728.096008
544.607971,527.039978,728.096008
552.416016,521.184021,728.096008
542.656006,532.895996,737.856018
536.799988,525.088013,726.143982
528.992004,528.992004,733.952026
540.703979,528.992004,735.903992
530.943970,532.895996,730.047974
527.039978,527.039978,728.096008
528.992004,534.848022,716.383972
536.799988,540.703979,704.671997
527.039978,530.943970,700.768005
521.184021,527.039978,683.200012
528.992004,528.992004,691.007996
528.992004,534.848022,679.296021
523.135986,527.039978,677.343994
521.184021,536.799988,667.583984
515.328003,536.799988,659.776001
513.375977,527.039978,653.919983
517.280029,536.799988,655.872009
511.424011,544.607971,653.919983
517.280029,538.752014,648.064026
503.615997,542.656006,644.159973
517.280029,527.039978,638.304016
513.375977,530.943970,644.159973
507.519989,532.895996,644.159973
517.280029,532.895996,644.159973
527.039978,527.039978,650.015991
521.184021,527.039978,648.064026
517.280029,523.135986,648.064026
517.280029,525.088013,663.679993
515.328003,523.135986,657.823975
519.231995,530.943970,671.487976
528.992004,536.799988,663.679993
527.039978,534.848022,675.392029
525.088013,532.895996,679.296021
527.039978,523.135986,677.343994
523.135986,521.184021,679.296021
525.088013,527.039978,679.296021
528.992004,527.039978,691.007996
530.943970,538.752014,689.056030
527.039978,527.039978,685.151978
525.088013,527.039978,679.296021
527.039978,534.848022,683.200012
525.088013,532.895996,671.487976
525.088013,534.848022,675.392029
523.135986,527.039978,685.151978
525.088013,536.799988,679.296021
521.184021,530.943970,673.440002
511.424011,536.799988,679.296021
511.424011,534.848022,677.343994
515.328003,530.943970,681.247986
519.231995,532.895996,681.247986
521.184021,544.607971,679.296021
519.231995,534.848022,685.151978
525.088013,534.848022,685.151978
517.280029,536.799988,679.296021
527.039978,532.895996,689.056030
521.184021,538.752014,681.247986
525.088013,540.703979,679.296021
511.424011,548.512024,679.296021
521.184021,538.752014,677.343994
519.231995,534.848022,683.200012
525.088013,538.752014,675.392029
511.424011,538.752014,677.343994
513.375977,540.703979,669.536011
515.328003,544.607971,671.487976
517.280029,532.895996,667.583984
509.471985,534.848022,671.487976
505.567993,532.895996,675.392029
515.328003,544.607971,667.583984
507.519989,548.512024,677.343994
511.424011,536.799988,677.343994
507.519989,542.656006,671.487976
505.567993,538.752014,675.392029
511.424011,546.559998,671.487976
509.471985,548.512024,675.392029
495.808014,536.799988,667.583984
503.615997,532.895996,677.343994
511.424011,538.752014,671.487976
501.664001,544.607971,675.392029
505.567993,548.512024,677.343994
507.519989,552.416016,675.392029
513.375977,540.703979,677.343994
509.471985,544.607971,669.536011
499.712006,544.607971,671.487976
499.712006,538.752014,675.392029
503.615997,556.320007,673.440002
503.615997,546.559998,671.487976
495.808014,552.416016,671.487976
497.760010,554.367981,679.296021
501.664001,554.367981,679.296021
499.712006,548.512024,677.343994
495.808014,556.320007,679.296021
497.760010,552.416016,679.296021
497.760010,556.320007,679.296021
497.760010,548.512024,677.343994
493.855988,562.176025,671.487976
488.000000,550.463989,667.583984
486.048004,552.416016,665.632019
497.760010,548.512024,663.679993
484.096008,550.463989,681.247986
489.951996,556.320007,683.200012
491.903992,542.656006,667.583984
486.048004,542.656006,671.487976
495.808014,550.463989,673.440002
497.760010,538.752014,681.247986
491.903992,546.559998,679.296021
493.855988,542.656006,675.392029
493.855988,544.607971,675.392029
491.903992,548.512024,663.679993
482.144012,546.559998,665.632019
482.144012,538.752014,665.632019
489.951996,548.512024,669.536011
478.239990,542.656006,669.536011
482.144012,542.656006,671.487976
484.096008,542.656006,669.536011
480.191986,552.416016,667.583984
476.287994,538.752014,669.536011
478.239990,540.703979,665.632019
478.239990,540.703979,665.632019
478.239990,519.231995,661.728027
474.335999,532.895996,663.679993
474.335999,536.799988,665.632019
472.384003,536.799988,663.679993
470.432007,532.895996,651.968018
472.384003,519.231995,650.015991
460.671997,528.992004,648.064026
466.528015,523.135986,650.015991
458.720001,521.184021,646.112000
470.432007,517.280029,640.255981
464.575989,517.280029,632.447998
466.528015,532.895996,628.544006
456.768005,530.943970,634.400024
462.623993,519.231995,626.591980
468.480011,515.328003,620.736023
460.671997,523.135986,628.544006
460.671997,523.135986,620.736023
478.239990,525.088013,622.687988
474.335999,515.328003,626.591980
474.335999,515.328003,622.687988
470.432007,517.280029,607.072021
472.384003,517.280029,610.976013
474.335999,511.424011,612.927979
470.432007,513.375977,603.168030
474.335999,517.280029,614.880005
478.239990,513.375977,614.880005
478.239990,511.424011,607.072021
472.384003,509.471985,601.216003
474.335999,511.424011,614.880005
474.335999,511.424011,614.880005
474.335999,509.471985,618.783997
474.335999,499.712006,605.119995
482.144012,503.615997,609.023987
482.144012,509.471985,609.023987
484.096008,503.615997,603.168030
476.287994,505.567993,628.544006
476.287994,509.471985,622.687988
476.287994,501.664001,632.447998
488.000000,507.519989,622.687988
488.000000,495.808014,632.447998
491.903992,495.808014,626.591980
497.760010,505.567993,630.495972
486.048004,501.664001,630.495972
491.903992,501.664001,628.544006
497.760010,495.808014,638.304016
497.760010,499.712006,650.015991
501.664001,488.000000,650.015991
495.808014,484.096008,650.015991
503.615997,493.855988,650.015991
503.615997,493.855988,648.064026
501.664001,491.903992,659.776001
505.567993,488.000000,648.064026
495.808014,484.096008,655.872009
509.471985,486.048004,663.679993
525.088013,480.191986,661.728027
513.375977,474.335999,665.632019
517.280029,480.191986,661.728027
519.231995,472.384003,667.583984
528.992004,474.335999,669.536011
530.943970,468.480011,671.487976
546.559998,468.480011,675.392029
544.607971,466.528015,685.151978
542.656006,470.432007,675.392029
548.512024,470.432007,673.440002
554.367981,468.480011,694.911987
556.320007,472.384003,694.911987
560.223999,474.335999,694.911987
562.176025,462.623993,708.575989
568.031982,472.384003,712.479980
569.984009,456.768005,708.575989
575.840027,456.768005,714.432007
581.695984,452.864014,714.432007
569.984009,460.671997,726.143982
579.744019,466.528015,726.143982
587.552002,468.480011,728.096008
587.552002,464.575989,730.047974
587.552002,466.528015,726.143982
589.504028,466.528015,728.096008
591.455994,460.671997,722.239990
593.408020,466.528015,732.000000
599.263977,456.768005,728.096008
603.168030,445.056000,732.000000
595.359985,454.816010,735.903992
595.359985,448.959991,726.143982
595.359985,456.768005,728.096008
593.408020,448.959991,718.335999
593.408020,441.152008,724.192017
597.312012,433.343994,718.335999
597.312012,435.295990,720.288025
583.648010,439.200012,722.239990
591.455994,441.152008,720.288025
589.504028,431.391998,720.288025
589.504028,439.200012,714.432007
589.504028,439.200012,716.383972
599.263977,431.391998,722.239990
597.312012,421.631989,722.239990
589.504028,435.295990,714.432007
597.312012,435.295990,718.335999
595.359985,421.631989,720.288025
601.216003,427.488007,728.096008
603.168030,427.488007,728.096008
601.216003,425.536011,718.335999
597.312012,423.584015,724.192017
599.263977,423.584015,720.288025
595.359985,421.631989,710.528015
599.263977,421.631989,724.192017
597.312012,421.631989,720.288025
601.216003,421.631989,704.671997
607.072021,413.824005,720.288025
601.216003,415.776001,722.239990
599.263977,423.584015,708.575989
601.216003,415.776001,716.383972
603.168030,415.776001,728.096008
599.263977,411.872009,722.239990
601.216003,419.679993,720.288025
601.216003,411.872009,720.288025
603.168030,411.872009,718.335999
605.119995,415.776001,722.239990
601.216003,413.824005,720.288025
597.312012,415.776001,726.143982
597.312012,406.015991,718.335999
607.072021,409.920013,728.096008
609.023987,406.015991,724.192017
612.927979,407.967987,718.335999
618.783997,404.063995,728.096008
612.927979,404.063995,732.000000
618.783997,411.872009,726.143982
612.927979,402.112000,726.143982
620.736023,398.208008,724.192017
618.783997,394.303986,732.000000
622.687988,402.112000,722.239990
620.736023,406.015991,730.047974
618.783997,400.160004,728.096008
626.591980,404.063995,728.096008
630.495972,394.303986,728.096008
624.640015,407.967987,735.903992
632.447998,404.063995,735.903992
632.447998,398.208008,732.000000
634.400024,398.208008,743.711975
636.351990,402.112000,735.903992
628.544006,404.063995,751.520020
640.255981,394.303986,755.424011
640.255981,402.112000,743.711975
640.255981,398.208008,745.664001
646.112000,400.160004,749.567993
644.159973,409.920013,743.711975
640.255981,400.160004,743.711975
640.255981,402.112000,747.616028
640.255981,406.015991,743.711975
644.159973,406.015991,730.047974
646.112000,409.920013,732.000000
646.112000,411.872009,733.952026
650.015991,402.112000,739.807983
644.159973,406.015991,739.807983
646.112000,409.920013,732.000000
650.015991,404.063995,735.903992
646.112000,411.872009,726.143982
642.208008,407.967987,733.952026
644.159973,419.679993,737.856018
644.159973,404.063995,735.903992
640.255981,411.872009,737.856018
640.255981,404.063995,743.711975
648.064026,407.967987,741.760010
644.159973,415.776001,726.143982
648.064026,407.967987,733.952026
646.112000,419.679993,732.000000
650.015991,413.824005,743.711975
644.159973,423.584015,732.000000
646.112000,417.727997,739.807983
651.968018,406.015991,733.952026
646.112000,419.679993,726.143982
644.159973,425.536011,733.952026
651.968018,415.776001,741.760010
648.064026,411.872009,730.047974
642.208008,415.776001,739.807983
642.208008,411.872009,733.952026
651.968018,413.824005,733.952026
651.968018,409.920013,745.664001
644.159973,419.679993,743.711975
640.255981,425.536011,743.711975
638.304016,411.872009,739.807983
640.255981,419.679993,732.000000
646.112000,413.824005,732.000000
642.208008,417.727997,741.760010
644.159973,421.631989,743.711975
648.064026,427.488007,741.760010
646.112000,423.584015,737.856018
646.112000,429.440002,739.807983
653.919983,425.536011,735.903992
650.015991,415.776001,743.711975
648.064026,429.440002,741.760010
646.112000,427.488007,745.664001
642.208008,419.679993,743.711975
646.112000,423.584015,757.375977
646.112000,421.631989,759.328003
644.159973,421.631989,755.424011
650.015991,415.776001,749.567993
648.064026,419.679993,745.664001
650.015991,417.727997,753.471985
648.064026,429.440002,741.760010
650.015991,417.727997,749.567993
651.968018,409.920013,753.471985
644.159973,423.584015,759.328003
650.015991,425.536011,755.424011
653.919983,423.584015,757.375977
653.919983,423.584015,755.424011
648.064026,411.872009,755.424011
644.159973,417.727997,741.760010
650.015991,431.391998,759.328003
646.112000,437.247986,757.375977
646.112000,429.440002,751.520020
644.159973,419.679993,753.471985
644.159973,417.727997,759.328003
644.159973,411.872009,745.664001
644.159973,413.824005,741.760010
642.208008,419.679993,741.760010
636.351990,415.776001,741.760010
648.064026,407.967987,733.952026
642.208008,413.824005,743.711975
646.112000,400.160004,743.711975
634.400024,406.015991,747.616028
638.304016,413.824005,741.760010
632.447998,415.776001,739.807983
634.400024,411.872009,749.567993
636.351990,417.727997,743.711975
634.400024,423.584015,739.807983
634.400024,417.727997,741.760010
638.304016,423.584015,747.616028
632.447998,423.584015,749.567993
624.640015,417.727997,743.711975
630.495972,423.584015,755.424011
630.495972,429.440002,732.000000
620.736023,427.488007,739.807983
620.736023,421.631989,739.807983
612.927979,431.391998,730.047974
614.880005,421.631989,732.000000
620.736023,427.488007,722.239990
622.687988,421.631989,724.192017
616.831970,421.631989,718.335999
616.831970,429.440002,722.239990
616.831970,417.727997,730.047974
612.927979,423.584015,724.192017
612.927979,419.679993,718.335999
609.023987,415.776001,722.239990
605.119995,411.872009,722.239990
610.976013,415.776001,716.383972
610.976013,411.872009,710.528015
618.783997,409.920013,718.335999
607.072021,423.584015,716.383972
601.216003,415.776001,702.719971
612.927979,413.824005,712.479980
607.072021,417.727997,718.335999
607.072021,425.536011,712.479980
603.168030,415.776001,702.719971
599.263977,429.440002,692.960022
597.312012,423.584015,692.960022
593.408020,421.631989,692.960022
599.263977,425.536011,689.056030
595.359985,419.679993,683.200012
599.263977,417.727997,689.056030
597.312012,406.015991,687.104004
591.455994,411.872009,696.864014
599.263977,415.776001,685.151978
597.312012,421.631989,689.056030
593.408020,413.824005,681.247986
585.599976,409.920013,683.200012
599.263977,415.776001,679.296021
577.791992,407.967987,677.343994
581.695984,413.824005,673.440002
591.455994,421.631989,677.343994
587.552002,413.824005,667.583984
591.455994,402.112000,669.536011
585.599976,413.824005,669.536011
585.599976,419.679993,675.392029
591.455994,409.920013,681.247986
601.216003,415.776001,677.343994
587.552002,409.920013,675.392029
591.455994,406.015991,677.343994
589.504028,411.872009,675.392029
589.504028,421.631989,685.151978
593.408020,415.776001,667.583984
593.408020,415.776001,675.392029
591.455994,411.872009,675.392029
593.408020,415.776001,685.151978
587.552002,417.727997,687.104004
593.408020,409.920013,675.392029
597.312012,407.967987,679.296021
599.263977,413.824005,679.296021
595.359985,409.920013,679.296021
591.455994,409.920013,681.247986
591.455994,415.776001,681.247986
587.552002,415.776001,687.104004
587.552002,409.920013,687.104004
599.263977,407.967987,694.911987
597.312012,406.015991,692.960022
597.312012,419.679993,696.864014
595.359985,411.872009,694.911987
601.216003,413.824005,689.056030
599.263977,407.967987,698.815979
603.168030,409.920013,698.815979
597.312012,409.920013,696.864014
603.168030,409.920013,691.007996
597.312012,402.112000,692.960022
597.312012,413.824005,694.911987
601.216003,407.967987,704.671997
607.072021,406.015991,712.479980
607.072021,406.015991,706.624023
609.023987,409.920013,708.575989
605.119995,411.872009,710.528015
605.119995,413.824005,720.288025
605.119995,406.015991,702.719971
605.119995,398.208008,712.479980
603.168030,404.063995,714.432007
614.880005,406.015991,714.432007
607.072021,406.015991,716.383972
607.072021,400.160004,712.479980
601.216003,384.544006,722.239990
599.263977,390.399994,716.383972
605.119995,390.399994,728.096008
609.023987,406.015991,724.192017
599.263977,400.160004,726.143982
605.119995,398.208008,724.192017
599.263977,402.112000,726.143982
605.119995,398.208008,726.143982
609.023987,394.303986,710.528015
609.023987,394.303986,706.624023
603.168030,388.447998,714.432007
603.168030,392.351990,714.432007
605.119995,392.351990,712.479980
597.312012,396.256012,710.528015
597.312012,390.399994,714.432007
603.168030,392.351990,712.479980
601.216003,392.351990,712.479980
609.023987,396.256012,720.288025
603.168030,392.351990,712.479980
601.216003,400.160004,712.479980
601.216003,400.160004,710.528015
605.119995,394.303986,710.528015
601.216003,386.496002,718.335999
601.216003,384.544006,716.383972
605.119995,390.399994,720.288025
593.408020,386.496002,720.288025
593.408020,392.351990,716.383972
597.312012,390.399994,722.239990
595.359985,396.256012,714.432007
597.312012,378.687988,728.096008
587.552002,390.399994,716.383972
591.455994,384.544006,712.479980
585.599976,390.399994,712.479980
591.455994,378.687988,716.383972
599.263977,390.399994,724.192017
581.695984,386.496002,716.383972
585.599976,386.496002,726.143982
575.840027,384.544006,728.096008
583.648010,392.351990,724.192017
589.504028,390.399994,718.335999
577.791992,390.399994,722.239990
575.840027,394.303986,714.432007
577.791992,394.303986,724.192017
573.888000,386.496002,722.239990
577.791992,392.351990,718.335999
571.935974,380.640015,722.239990
579.744019,374.783997,718.335999
579.744019,407.967987,702.719971
573.888000,427.488007,696.864014
571.935974,423.584015,685.151978
566.080017,421.631989,669.536011
575.840027,439.200012,669.536011
566.080017,439.200012,667.583984
556.320007,447.007996,661.728027
564.127991,427.488007,659.776001
564.127991,427.488007,648.064026
566.080017,425.536011,657.823975
571.935974,423.584015,661.728027
571.935974,409.920013,669.536011
562.176025,394.303986,667.583984
571.935974,394.303986,681.247986
568.031982,386.496002,685.151978
560.223999,384.544006,687.104004
562.176025,370.880005,692.960022
562.176025,376.735992,698.815979
562.176025,366.976013,698.815979
566.080017,361.119995,698.815979
568.031982,363.071991,702.719971
562.176025,368.928009,710.528015
568.031982,376.735992,700.768005
560.223999,370.880005,708.575989
560.223999,372.832001,698.815979
554.367981,384.544006,698.815979
558.271973,392.351990,700.768005
554.367981,394.303986,704.671997
562.176025,400.160004,692.960022
556.320007,406.015991,698.815979
556.320007,413.824005,694.911987
560.223999,409.920013,692.960022
562.176025,411.872009,696.864014
560.223999,409.920013,704.671997
562.176025,404.063995,704.671997
562.176025,413.824005,708.575989
558.271973,407.967987,716.383972
558.271973,400.160004,718.335999
568.031982,398.208008,726.143982
564.127991,394.303986,720.288025
556.320007,388.447998,724.192017
568.031982,382.592010,714.432007
552.416016,398.208008,714.432007
556.320007,390.399994,714.432007
556.320007,390.399994,716.383972
564.127991,396.256012,718.335999
566.080017,394.303986,714.432007
564.127991,396.256012,710.528015
554.367981,396.256012,714.432007
560.223999,396.256012,710.528015
554.367981,407.967987,716.383972
546.559998,394.303986,718.335999
554.367981,402.112000,714.432007
552.416016,398.208008,724.192017
554.367981,400.160004,718.335999
550.463989,394.303986,722.239990
554.367981,392.351990,726.143982
556.320007,390.399994,718.335999
554.367981,386.496002,726.143982
558.271973,392.351990,726.143982
558.271973,392.351990,724.192017
556.320007,384.544006,718.335999
562.176025,388.447998,718.335999
560.223999,392.351990,726.143982
548.512024,384.544006,728.096008
554.367981,384.544006,724.192017
556.320007,386.496002,724.192017
552.416016,388.447998,728.096008
542.656006,386.496002,722.239990
556.320007,378.687988,716.383972
542.656006,374.783997,716.383972
554.367981,388.447998,720.288025
564.127991,376.735992,710.528015
540.703979,388.447998,716.383972
548.512024,392.351990,714.432007
542.656006,380.640015,710.528015
558.271973,378.687988,724.192017
552.416016,380.640015,728.096008
540.703979,380.640015,714.432007
540.703979,386.496002,722.239990
542.656006,392.351990,722.239990
544.607971,390.399994,718.335999
544.607971,374.783997,712.479980
532.895996,378.687988,706.624023
532.895996,386.496002,718.335999
544.607971,374.783997,712.479980
542.656006,382.592010,708.575989
538.752014,380.640015,716.383972
530.943970,392.351990,702.719971
519.231995,388.447998,712.479980
534.848022,388.447998,714.432007
507.519989,378.687988,714.432007
495.808014,390.399994,724.192017
515.328003,388.447998,716.383972
519.231995,372.832001,702.719971
521.184021,370.880005,708.575989
505.567993,378.687988,708.575989
507.519989,380.640015,710.528015
517.280029,370.880005,704.671997
505.567993,366.976013,708.575989
507.519989,378.687988,706.624023
503.615997,374.783997,712.479980
478.239990,370.880005,714.432007
491.903992,370.880005,700.768005
497.760010,380.640015,712.479980
484.096008,380.640015,702.719971
505.567993,365.023987,698.815979
478.239990,366.976013,692.960022
497.760010,363.071991,696.864014
491.903992,361.119995,698.815979
491.903992,366.976013,700.768005
482.144012,370.880005,698.815979
484.096008,361.119995,694.911987
470.432007,361.119995,694.911987
480.191986,357.216003,694.911987
489.951996,365.023987,691.007996
482.144012,365.023987,691.007996
491.903992,361.119995,694.911987
474.335999,357.216003,689.056030
472.384003,349.407990,696.864014
476.287994,343.552002,691.007996
470.432007,355.264008,698.815979
470.432007,345.503998,704.671997
468.480011,339.648010,694.911987
462.623993,333.791992,700.768005
466.528015,337.696014,702.719971
460.671997,339.648010,710.528015
462.623993,337.696014,700.768005
466.528015,329.888000,691.007996
452.864014,327.936005,698.815979
460.671997,324.032013,694.911987
470.432007,324.032013,691.007996
468.480011,324.032013,692.960022
454.816010,335.743988,689.056030
458.720001,331.839996,692.960022
437.247986,331.839996,694.911987
445.056000,335.743988,685.151978
445.056000,329.888000,689.056030
464.575989,331.839996,691.007996
445.056000,324.032013,685.151978
456.768005,324.032013,683.200012
445.056000,324.032013,689.056030
447.007996,318.175995,691.007996
441.152008,322.079987,692.960022
447.007996,318.175995,698.815979
450.911987,314.272003,691.007996
447.007996,318.175995,689.056030
447.007996,327.936005,696.864014
447.007996,322.079987,700.768005
445.056000,308.415985,692.960022
450.911987,310.368011,687.104004
445.056000,308.415985,694.911987
441.152008,302.559998,696.864014
443.104004,306.463989,696.864014
443.104004,306.463989,696.864014
445.056000,308.415985,694.911987
433.343994,318.175995,698.815979
445.056000,310.368011,687.104004
435.295990,318.175995,687.104004
443.104004,312.320007,685.151978
433.343994,304.511993,689.056030
425.536011,306.463989,691.007996
437.247986,304.511993,691.007996
435.295990,296.704010,687.104004
435.295990,290.847992,687.104004
431.391998,296.704010,685.151978
431.391998,302.559998,679.296021
427.488007,292.799988,691.007996
435.295990,294.752014,687.104004
429.440002,290.847992,679.296021
437.247986,296.704010,683.200012
439.200012,296.704010,679.296021
419.679993,288.895996,671.487976
431.391998,290.847992,681.247986
427.488007,300.608002,677.343994
429.440002,288.895996,669.536011
433.343994,298.656006,663.679993
429.440002,290.847992,663.679993
435.295990,288.895996,669.536011
439.200012,290.847992,665.632019
431.391998,294.752014,661.728027
435.295990,300.608002,665.632019
437.247986,296.704010,671.487976
439.200012,284.992004,667.583984
439.200012,288.895996,667.583984
419.679993,302.559998,673.440002
429.440002,294.752014,671.487976
427.488007,284.992004,665.632019
421.631989,290.847992,661.728027
421.631989,294.752014,669.536011
429.440002,284.992004,675.392029
441.152008,284.992004,665.632019
439.200012,292.799988,667.583984
443.104004,284.992004,681.247986
443.104004,292.799988,677.343994
425.536011,296.704010,681.247986
431.391998,312.320007,677.343994
433.343994,302.559998,689.056030
441.152008,306.463989,685.151978
447.007996,300.608002,681.247986
439.200012,314.272003,679.296021
448.959991,312.320007,689.056030
450.911987,304.511993,691.007996
450.911987,310.368011,692.960022
458.720001,316.223999,691.007996
454.816010,318.175995,687.104004
456.768005,327.936005,692.960022
460.671997,314.272003,689.056030
439.200012,320.127991,687.104004
454.816010,316.223999,692.960022
445.056000,320.127991,683.200012
462.623993,320.127991,681.247986
450.911987,318.175995,675.392029
462.623993,314.272003,687.104004
450.911987,316.223999,671.487976
462.623993,314.272003,679.296021
462.623993,320.127991,679.296021
450.911987,316.223999,677.343994
462.623993,312.320007,677.343994
458.720001,310.368011,692.960022
454.816010,312.320007,689.056030
460.671997,306.463989,687.104004
456.768005,322.079987,685.151978
464.575989,322.079987,683.200012
466.528015,324.032013,681.247986
460.671997,316.223999,679.296021
464.575989,327.936005,689.056030
466.528015,327.936005,681.247986
472.384003,331.839996,692.960022
464.575989,327.936005,687.104004
478.239990,341.600006,687.104004
478.239990,320.127991,696.864014
486.048004,322.079987,692.960022
472.384003,325.984009,694.911987
486.048004,324.032013,691.007996
491.903992,333.791992,691.007996
480.191986,333.791992,694.911987
493.855988,329.888000,698.815979
480.191986,324.032013,696.864014
489.951996,322.079987,694.911987
489.951996,329.888000,698.815979
472.384003,329.888000,704.671997
482.144012,327.936005,691.007996
486.048004,324.032013,696.864014
484.096008,325.984009,694.911987
488.000000,327.936005,692.960022
489.951996,329.888000,694.911987
489.951996,324.032013,691.007996
486.048004,339.648010,692.960022
489.951996,339.648010,683.200012
474.335999,345.503998,704.671997
486.048004,335.743988,698.815979
482.144012,333.791992,698.815979
489.951996,327.936005,694.911987
497.760010,331.839996,692.960022
474.335999,345.503998,694.911987
501.664001,331.839996,712.479980
489.951996,327.936005,696.864014
495.808014,327.936005,689.056030
482.144012,343.552002,692.960022
484.096008,337.696014,694.911987
497.760010,320.127991,698.815979
478.239990,322.079987,700.768005
493.855988,331.839996,691.007996
484.096008,329.888000,689.056030
513.375977,322.079987,691.007996
476.287994,320.127991,692.960022
491.903992,331.839996,694.911987
482.144012,320.127991,696.864014
466.528015,314.272003,692.960022
491.903992,314.272003,685.151978
478.239990,322.079987,689.056030
480.191986,318.175995,681.247986
484.096008,310.368011,681.247986
482.144012,310.368011,689.056030
472.384003,314.272003,687.104004
472.384003,308.415985,691.007996
478.239990,300.608002,683.200012
472.384003,294.752014,683.200012
488.000000,288.895996,687.104004
486.048004,294.752014,677.343994
491.903992,294.752014,689.056030
484.096008,290.847992,679.296021
480.191986,296.704010,685.151978
488.000000,302.559998,692.960022
501.664001,302.559998,679.296021
491.903992,292.799988,679.296021
489.951996,300.608002,692.960022
497.760010,294.752014,692.960022
503.615997,286.944000,702.719971
491.903992,302.559998,702.719971
501.664001,320.127991,714.432007
499.712006,294.752014,710.528015
511.424011,288.895996,706.624023
521.184021,304.511993,710.528015
521.184021,314.272003,718.335999
523.135986,302.559998,720.288025
523.135986,300.608002,718.335999
513.375977,308.415985,724.192017
517.280029,318.175995,722.239990
519.231995,308.415985,726.143982
509.471985,300.608002,724.192017
513.375977,306.463989,724.192017
511.424011,304.511993,724.192017
513.375977,306.463989,710.528015
505.567993,300.608002,712.479980
503.615997,281.088013,704.671997
509.471985,292.799988,702.719971
515.328003,290.847992,689.056030
509.471985,269.376007,681.247986
513.375977,275.231995,685.151978
491.903992,283.040009,685.151978
497.760010,283.040009,675.392029
499.712006,257.664001,675.392029
501.664001,277.183990,685.151978
511.424011,273.279999,687.104004
509.471985,265.471985,677.343994
503.615997,257.664001,681.247986
511.424011,275.231995,685.151978
507.519989,277.183990,692.960022
509.471985,279.135986,681.247986
513.375977,261.567993,683.200012
507.519989,275.231995,675.392029
511.424011,279.135986,689.056030
515.328003,271.328003,687.104004
519.231995,271.328003,694.911987
525.088013,257.664001,687.104004
521.184021,271.328003,696.864014
523.135986,283.040009,696.864014
527.039978,284.992004,687.104004
513.375977,269.376007,689.056030
515.328003,275.231995,694.911987
521.184021,269.376007,681.247986
528.992004,284.992004,683.200012
532.895996,279.135986,679.296021
523.135986,269.376007,683.200012
527.039978,273.279999,691.007996
515.328003,269.376007,692.960022
517.280029,261.567993,689.056030
521.184021,257.664001,692.960022
517.280029,271.328003,692.960022
511.424011,269.376007,692.960022
513.375977,259.615997,689.056030
515.328003,267.424011,687.104004
511.424011,255.712006,691.007996
511.424011,255.712006,679.296021
517.280029,255.712006,679.296021
523.135986,257.664001,673.440002
513.375977,255.712006,677.343994
511.424011,261.567993,677.343994
505.567993,257.664001,671.487976
509.471985,265.471985,669.536011
517.280029,261.567993,673.440002
513.375977,265.471985,669.536011
507.519989,275.231995,663.679993
503.615997,271.328003,663.679993
513.375977,259.615997,671.487976
521.184021,255.712006,663.679993
528.992004,267.424011,665.632019
521.184021,257.664001,663.679993
523.135986,247.904007,669.536011
525.088013,249.856003,669.536011
521.184021,245.951996,671.487976
527.039978,249.856003,669.536011
525.088013,249.856003,667.583984
540.703979,238.143997,675.392029
548.512024,242.048004,661.728027
540.703979,238.143997,661.728027
540.703979,234.240005,667.583984
540.703979,238.143997,661.728027
550.463989,245.951996,661.728027
548.512024,236.192001,657.823975
552.416016,234.240005,657.823975
550.463989,228.384003,648.064026
552.416016,238.143997,655.872009
560.223999,232.287994,651.968018
560.223999,222.528000,655.872009
568.031982,226.432007,655.872009
560.223999,214.720001,659.776001
554.367981,226.432007,663.679993
568.031982,212.768005,663.679993
575.840027,214.720001,663.679993
573.888000,208.863998,663.679993
573.888000,206.912003,659.776001
581.695984,210.815994,673.440002
577.791992,203.007996,665.632019
577.791992,191.296005,669.536011
581.695984,199.104004,661.728027
583.648010,203.007996,667.583984
591.455994,199.104004,675.392029
583.648010,197.151993,673.440002
573.888000,203.007996,677.343994
573.888000,195.199997,679.296021
579.744019,191.296005,675.392029
587.552002,197.151993,681.247986
591.455994,195.199997,683.200012
597.312012,183.488007,679.296021
589.504028,179.584000,683.200012
601.216003,193.248001,679.296021
589.504028,189.343994,691.007996
603.168030,183.488007,685.151978
603.168030,183.488007,687.104004
603.168030,189.343994,692.960022
599.263977,193.248001,691.007996
612.927979,187.391998,696.864014
603.168030,193.248001,700.768005
609.023987,201.056000,694.911987
605.119995,199.104004,691.007996
614.880005,191.296005,689.056030
612.927979,204.960007,683.200012
612.927979,208.863998,681.247986
622.687988,201.056000,679.296021
610.976013,204.960007,691.007996
618.783997,210.815994,689.056030
622.687988,210.815994,689.056030
620.736023,208.863998,679.296021
620.736023,218.623993,677.343994
616.831970,218.623993,683.200012
624.640015,224.479996,679.296021
622.687988,214.720001,671.487976
614.880005,214.720001,681.247986
612.927979,218.623993,671.487976
622.687988,218.623993,669.536011
616.831970,224.479996,673.440002
616.831970,216.671997,677.343994
620.736023,228.384003,663.679993
618.783997,218.623993,665.632019
624.640015,226.432007,663.679993
616.831970,224.479996,663.679993
624.640015,218.623993,663.679993
618.783997,228.384003,651.968018
628.544006,226.432007,659.776001
618.783997,230.335999,653.919983
624.640015,232.287994,653.919983
632.447998,236.192001,657.823975
620.736023,236.192001,651.968018
630.495972,232.287994,655.872009
632.447998,232.287994,651.968018
634.400024,238.143997,651.968018
634.400024,238.143997,655.872009
634.400024,236.192001,648.064026
634.400024,244.000000,655.872009
628.544006,234.240005,659.776001
634.400024,238.143997,655.872009
628.544006,244.000000,653.919983
630.495972,244.000000,659.776001
632.447998,245.951996,661.728027
626.591980,251.807999,651.968018
638.304016,249.856003,650.015991
624.640015,263.519989,661.728027
634.400024,255.712006,653.919983
620.736023,251.807999,653.919983
622.687988,257.664001,651.968018
620.736023,245.951996,648.064026
612.927979,261.567993,650.015991
620.736023,269.376007,638.304016
605.119995,273.279999,632.447998
607.072021,265.471985,636.351990
614.880005,257.664001,632.447998
605.119995,275.231995,630.495972
612.927979,273.279999,626.591980
603.168030,261.567993,624.640015
599.263977,267.424011,620.736023
589.504028,271.328003,616.831970
595.359985,277.183990,618.783997
601.216003,271.328003,610.976013
593.408020,273.279999,605.119995
585.599976,261.567993,603.168030
581.695984,281.088013,595.359985
587.552002,279.135986,607.072021
581.695984,275.231995,605.119995
581.695984,286.944000,603.168030
579.744019,284.992004,593.408020
581.695984,283.040009,587.552002
575.840027,275.231995,591.455994
569.984009,294.752014,595.359985
571.935974,300.608002,587.552002
566.080017,292.799988,579.744019
552.416016,290.847992,583.648010
564.127991,292.799988,589.504028
560.223999,290.847992,579.744019
566.080017,290.847992,579.744019
558.271973,288.895996,569.984009
556.320007,288.895996,587.552002
552.416016,284.992004,575.840027
556.320007,286.944000,566.080017
560.223999,288.895996,573.888000
560.223999,292.799988,568.031982
556.320007,284.992004,568.031982
554.367981,290.847992,558.271973
554.367981,288.895996,554.367981
556.320007,294.752014,548.512024
550.463989,298.656006,554.367981
568.031982,292.799988,556.320007
556.320007,292.799988,546.559998
554.367981,298.656006,544.607971
560.223999,298.656006,540.703979
546.559998,298.656006,544.607971
552.416016,292.799988,538.752014
552.416016,300.608002,538.752014
550.463989,286.944000,542.656006
548.512024,296.704010,540.703979
560.223999,298.656006,538.752014
550.463989,284.992004,527.039978
556.320007,292.799988,536.799988
540.703979,281.088013,530.943970
546.559998,296.704010,540.703979
556.320007,294.752014,530.943970
550.463989,294.752014,536.799988
542.656006,290.847992,528.992004
542.656006,292.799988,532.895996
546.559998,304.511993,528.992004
546.559998,302.559998,528.992004
542.656006,296.704010,519.231995
542.656006,296.704010,532.895996
544.607971,300.608002,519.231995
538.752014,302.559998,513.375977
530.943970,308.415985,507.519989
544.607971,314.272003,505.567993
538.752014,308.415985,511.424011
544.607971,312.320007,505.567993
544.607971,322.079987,509.471985
540.703979,316.223999,501.664001
538.752014,312.320007,495.808014
548.512024,318.175995,493.855988
552.416016,314.272003,497.760010
540.703979,314.272003,497.760010
552.416016,310.368011,493.855988
554.367981,304.511993,497.760010
560.223999,314.272003,495.808014
560.223999,310.368011,503.615997
571.935974,304.511993,493.855988
562.176025,296.704010,493.855988
571.935974,300.608002,495.808014
569.984009,310.368011,493.855988
575.840027,306.463989,493.855988
569.984009,290.847992,501.664001
579.744019,292.799988,495.808014
579.744019,286.944000,501.664001
581.695984,277.183990,499.712006
587.552002,273.279999,499.712006
591.455994,279.135986,501.664001
593.408020,279.135986,507.519989
581.695984,275.231995,509.471985
587.552002,275.231995,517.280029
599.263977,275.231995,515.328003
593.408020,281.088013,511.424011
601.216003,275.231995,517.280029
601.216003,271.328003,505.567993
599.263977,273.279999,507.519989
597.312012,277.183990,499.712006
595.359985,279.135986,495.808014
603.168030,277.183990,495.808014
595.359985,281.088013,505.567993
603.168030,281.088013,499.712006
609.023987,279.135986,499.712006
607.072021,275.231995,499.712006
595.359985,273.279999,497.760010
599.263977,279.135986,491.903992
597.312012,275.231995,493.855988
616.831970,271.328003,503.615997
612.927979,261.567993,501.664001
609.023987,253.759995,501.664001
609.023987,259.615997,503.615997
616.831970,259.615997,501.664001
612.927979,253.759995,499.712006
607.072021,249.856003,499.712006
609.023987,249.856003,497.760010
609.023987,259.615997,484.096008
616.831970,255.712006,488.000000
626.591980,255.712006,486.048004
618.783997,238.143997,482.144012
630.495972,244.000000,484.096008
620.736023,249.856003,482.144012
622.687988,238.143997,482.144012
610.976013,236.192001,472.384003
624.640015,236.192001,472.384003
628.544006,236.192001,476.287994
624.640015,232.287994,468.480011
630.495972,242.048004,472.384003
630.495972,230.335999,472.384003
638.304016,218.623993,468.480011
640.255981,210.815994,460.671997
650.015991,204.960007,447.007996
644.159973,206.912003,439.200012
650.015991,203.007996,435.295990
651.968018,195.199997,433.343994
657.823975,189.343994,421.631989
655.872009,185.440002,407.967987
665.632019,187.391998,406.015991
675.392029,163.968002,404.063995
679.296021,162.016006,413.824005
675.392029,142.496002,415.776001
683.200012,144.447998,407.967987
691.007996,146.399994,406.015991
700.768005,124.928001,406.015991
710.528015,117.120003,407.967987
710.528015,126.879997,398.208008
714.432007,126.879997,398.208008
730.047974,117.120003,392.351990
732.000000,119.071999,386.496002
735.903992,121.024002,386.496002
755.424011,124.928001,386.496002
759.328003,134.688004,396.256012
765.184021,152.255997,400.160004
769.088013,173.727997,406.015991
780.799988,193.248001,409.920013
790.559998,199.104004,415.776001
790.559998,236.192001,427.488007
806.176025,257.664001,427.488007
808.127991,279.135986,429.440002
827.648010,269.376007,435.295990
837.408020,269.376007,447.007996
839.359985,275.231995,450.911987
849.119995,277.183990,447.007996
868.640015,275.231995,447.007996
868.640015,269.376007,447.007996
866.687988,267.424011,445.056000
884.255981,265.471985,452.864014
882.304016,271.328003,445.056000
888.159973,279.135986,464.575989
894.015991,263.519989,464.575989
892.064026,275.231995,452.864014
897.919983,261.567993,445.056000
897.919983,255.712006,443.104004
901.823975,255.712006,445.056000
915.487976,257.664001,441.152008
925.247986,263.519989,445.056000
913.536011,255.712006,433.343994
911.583984,281.088013,454.816010
962.335999,288.895996,450.911987
948.671997,218.623993,437.247986
942.815979,167.871994,435.295990
915.487976,187.391998,445.056000
897.919983,240.095993,458.720001
894.015991,361.119995,466.528015
895.968018,466.528015,460.671997
903.776001,370.880005,454.816010
915.487976,255.712006,448.959991
940.864014,359.167999,445.056000
966.239990,456.768005,450.911987
960.383972,347.455994,448.959991
972.096008,261.567993,450.911987
966.239990,351.359985,441.152008
981.856018,439.200012,447.007996
960.383972,361.119995,443.104004
958.432007,318.175995,447.007996
954.528015,380.640015,431.391998
954.528015,417.727997,435.295990
946.719971,374.783997,421.631989
954.528015,345.503998,425.536011
946.719971,365.023987,415.776001
962.335999,380.640015,415.776001
940.864014,366.976013,406.015991
950.624023,353.312012,402.112000
944.768005,329.888000,404.063995
950.624023,337.696014,400.160004
935.007996,320.127991,400.160004
936.960022,300.608002,384.544006
935.007996,304.511993,378.687988
929.151978,308.415985,372.832001
936.960022,296.704010,368.928009
940.864014,281.088013,368.928009
936.960022,273.279999,361.119995
936.960022,275.231995,353.312012
929.151978,290.847992,351.359985
935.007996,284.992004,335.743988
931.104004,294.752014,331.839996
923.296021,292.799988,331.839996
933.056030,316.223999,310.368011
929.151978,314.272003,304.511993
921.343994,324.032013,296.704010
919.392029,341.600006,288.895996
919.392029,343.552002,286.944000
915.487976,349.407990,273.279999
917.440002,355.264008,275.231995
927.200012,339.648010,259.615997
919.392029,327.936005,263.519989
917.440002,324.032013,251.807999
919.392029,318.175995,242.048004
915.487976,318.175995,238.143997
913.536011,314.272003,226.432007
905.728027,304.511993,214.720001
909.632019,308.415985,224.479996
901.823975,304.511993,210.815994
911.583984,294.752014,214.720001
905.728027,298.656006,208.863998
907.679993,281.088013,204.960007
903.776001,265.471985,204.960007
905.728027,261.567993,206.912003
913.536011,265.471985,193.248001
911.583984,259.615997,179.584000
895.968018,251.807999,179.584000
899.872009,234.240005,144.447998
919.392029,234.240005,140.544006
909.632019,236.192001,136.639999
919.392029,232.287994,126.879997
901.823975,193.248001,126.879997
925.247986,195.199997,117.120003
905.728027,228.384003,124.928001
915.487976,244.000000,122.975998
907.679993,226.432007,111.264000
917.440002,261.567993,113.216003
903.776001,318.175995,117.120003
901.823975,374.783997,126.879997
909.632019,361.119995,126.879997
915.487976,294.752014,113.216003
938.911987,240.095993,109.311996
936.960022,220.576004,119.071999
933.056030,226.432007,119.071999
942.815979,275.231995,121.024002
944.768005,298.656006,107.360001
948.671997,273.279999,126.879997
964.288025,234.240005,115.167999
970.143982,220.576004,111.264000
989.664001,220.576004,113.216003
972.096008,220.576004,115.167999
987.711975,199.104004,101.503998
1001.375977,187.391998,93.695999
974.047974,191.296005,97.599998
1028.703979,201.056000,105.407997
1003.328003,187.391998,95.648003
1040.416016,204.960007,85.888000
1040.416016,232.287994,99.552002
1059.936035,220.576004,109.311996
1054.079956,210.815994,117.120003
1095.072021,247.904007,117.120003
1081.407959,263.519989,122.975998
1112.640015,279.135986,144.447998
1098.975952,283.040009,163.968002
1108.735962,286.944000,167.871994
1124.352051,284.992004,193.248001
1138.015991,283.040009,197.151993
1138.015991,261.567993,187.391998
1110.687988,185.440002,197.151993
1022.848022,25.375999,228.384003
952.575989,-136.639999,310.368011
1083.359985,-40.992001,415.776001
1255.135986,-81.984001,447.007996
1028.703979,-150.304001,443.104004
1106.784058,-173.727997,413.824005
1184.864014,-119.071999,390.399994
1194.624023,13.664000,378.687988
1221.952026,-13.664000,376.735992
1239.520020,-247.904007,363.071991
1307.839966,-271.328003,343.552002
1364.447998,-25.375999,335.743988
1364.447998,-1.952000,322.079987
1352.735962,-185.440002,318.175995
1419.104004,-224.479996,312.320007
1448.384033,-76.127998,324.032013
1471.807983,-58.560001,347.455994
1448.384033,-105.407997,384.544006
1471.807983,-107.360001,413.824005
1485.472046,-60.512001,439.200012
1432.767944,-40.992001,464.575989
1462.047974,13.664000,530.943970
1624.063965,220.576004,597.312012
1698.239990,331.839996,659.776001
1698.239990,398.208008,710.528015
1688.479980,458.720001,767.135986
1604.543945,439.200012,784.703979
1510.848022,382.592010,790.559998
1467.904053,300.608002,792.512024
1440.576050,201.056000,796.416016
1446.432007,126.879997,800.320007
1424.959961,83.935997,804.223999
1440.576050,101.503998,813.984009
1469.855957,197.151993,835.455994
1497.183960,240.095993,868.640015
1514.751953,249.856003,862.783997
1516.703979,283.040009,868.640015
1516.703979,269.376007,874.495972
1506.943970,242.048004,882.304016
1504.991943,265.471985,880.351990
1499.135986,271.328003,854.976013
1487.423950,259.615997,856.927979
1477.663940,238.143997,833.504028
1473.760010,255.712006,825.695984
1467.904053,244.000000,806.176025
1471.807983,251.807999,786.656006
1469.855957,261.567993,757.375977
1467.904053,245.951996,745.664001
1477.663940,247.904007,728.096008
1464.000000,230.335999,691.007996
1446.432007,214.720001,655.872009
1444.479980,191.296005,638.304016
1438.624023,173.727997,605.119995
1419.104004,165.919998,577.791992
1399.583984,148.352005,558.271973
1393.728027,124.928001,532.895996
1370.303955,107.360001,507.519989
1372.255981,83.935997,482.144012
1350.784058,81.984001,464.575989
1344.927979,101.503998,437.247986
1327.359985,97.599998,415.776001
1321.504028,93.695999,392.351990
1301.984009,101.503998,384.544006
1296.128052,144.447998,345.503998
1274.656006,163.968002,329.888000
1196.576050,240.095993,341.600006
1177.056030,355.264008,509.471985
1171.199951,327.936005,610.976013
1260.991943,445.056000,534.848022
1317.599976,398.208008,470.432007
1378.112061,247.904007,466.528015
1325.407959,435.295990,507.519989
1276.608032,482.144012,503.615997
1262.943970,197.151993,435.295990
1245.375977,97.599998,325.984009
1251.232056,226.432007,238.143997
1220.000000,265.471985,179.584000
1179.008057,162.016006,160.063995
1151.680054,87.839996,128.832001
1130.208008,177.632004,95.648003
1114.592041,247.904007,87.839996
1104.832031,201.056000,80.031998
1093.119995,216.671997,87.839996
1085.312012,306.463989,91.744003
1091.167969,353.312012,99.552002
1097.024048,324.032013,101.503998
1106.784058,329.888000,115.167999
1104.832031,359.167999,115.167999
1108.735962,394.303986,119.071999
1108.735962,351.359985,128.832001
1093.119995,337.696014,122.975998
1087.264038,378.687988,107.360001
1071.647949,400.160004,87.839996
1044.319946,368.928009,70.272003
1036.511963,341.600006,60.512001
1018.943970,347.455994,42.944000
1018.943970,339.648010,23.424000
1022.848022,320.127991,17.568001
1018.943970,324.032013,7.808000
1016.992004,363.071991,-5.856000
995.520020,411.872009,-9.760000
997.471985,445.056000,-23.424000
995.520020,486.048004,-40.992001
987.711975,507.519989,-68.320000
993.567993,501.664001,-93.695999
979.903992,486.048004,-97.599998
976.000000,474.335999,-111.264000
954.528015,454.816010,-115.167999
950.624023,445.056000,-136.639999
950.624023,448.959991,-152.255997
942.815979,476.287994,-165.919998
905.728027,415.776001,-150.304001
909.632019,-80.031998,-148.352005
956.479980,-681.247986,-132.735992
960.383972,-935.007996,-117.120003
935.007996,-720.288025,-107.360001
931.104004,-183.488007,-126.879997
946.719971,443.104004,-150.304001
993.567993,892.064026,-167.871994
970.143982,1016.992004,-162.016006
942.815979,825.695984,-146.399994
919.392029,460.671997,-156.160004
931.104004,76.127998,-195.199997
935.007996,-181.535995,-218.623993
935.007996,-228.384003,-242.048004
929.151978,-60.512001,-267.424011
938.911987,25.375999,-261.567993
921.343994,-132.735992,-191.296005
935.007996,-259.615997,-122.975998
892.064026,-93.695999,-74.176003
862.783997,242.048004,-58.560001
843.263977,632.447998,-56.608002
860.831970,911.583984,-66.367996
860.831970,858.880005,-89.792000
899.872009,476.287994,-117.120003
915.487976,-97.599998,-121.024002
933.056030,-546.559998,-107.360001
936.960022,-536.799988,-122.975998
919.392029,-99.552002,-156.160004
931.104004,470.432007,-197.151993
938.911987,796.416016,-242.048004
950.624023,856.927979,-290.847992
987.711975,689.056030,-341.600006
948.671997,390.399994,-374.783997
936.960022,-25.375999,-400.160004
933.056030,-324.032013,-406.015991
903.776001,-445.056000,-452.864014
868.640015,-372.832001,-501.664001
862.783997,-93.695999,-534.848022
923.296021,796.416016,-505.567993
854.976013,1456.192017,-386.496002
843.263977,1352.735962,-314.272003
849.119995,753.471985,-257.664001
890.112000,-162.016006,-218.623993
962.335999,-1157.536011,-199.104004
1003.328003,-1848.543945,-111.264000
1231.712036,-1192.671997,-48.799999
1311.744019,228.384003,44.896000
1278.560059,1177.056030,146.399994
1335.167969,1391.776001,224.479996
1374.208008,1460.095947,242.048004
1413.248047,1665.056030,265.471985
1274.656006,1241.472046,304.511993
1243.423950,-411.872009,306.463989
1251.232056,-2049.600098,271.328003
1282.463989,-2512.224121,222.528000
1239.520020,-1667.008057,187.391998
1184.864014,204.960007,208.863998
1157.536011,2051.552002,345.503998
1206.336060,2383.392090,466.528015
1307.839966,1098.975952,493.855988
1411.296021,-755.424011,466.528015
1598.687988,-2477.087891,437.247986
1585.024048,-2853.823975,491.903992
1462.047974,-1126.303955,532.895996
1366.400024,1024.800049,521.184021
1399.583984,1881.728027,464.575989
1475.712036,1668.959961,407.967987
1413.248047,1022.848022,382.592010
1374.208008,-103.456001,304.511993
1419.104004,-1313.696045,218.623993
1430.816040,-1795.839966,163.968002
1385.920044,-1100.927979,128.832001
1331.264038,284.992004,78.080002
1262.943970,1616.255981,121.024002
1288.319946,2301.407959,150.304001
1260.991943,2151.104004,204.960007
1251.232056,812.031982,224.479996
1387.871948,-890.112000,218.623993
1497.183960,-1887.583984,212.768005
1618.208008,-2094.496094,320.127991
1934.432007,-2160.864014,1721.663940
2992.416016,-2615.679932,5145.472168
3507.743896,-1298.079956,5916.512207
3170.048096,132.735992,3794.687988
2268.224121,-224.479996,1610.400024
1807.552002,296.704010,359.167999
1639.680054,119.071999,142.496002
1493.280029,-331.839996,-173.727997
1106.784058,798.367981,-661.728027
796.416016,1040.416016,-763.231995
872.544006,1073.599976,-778.848022
1003.328003,743.711975,-361.119995
1257.088013,478.239990,199.104004
1313.696045,511.424011,165.919998
1272.703979,636.351990,-70.272003
1278.560059,601.216003,9.760000
1262.943970,384.544006,191.296005
1260.991943,109.311996,425.536011
1227.807983,-35.136002,372.832001
1114.592041,-83.935997,11.712000
1093.119995,-160.063995,-3.904000
1141.920044,-197.151993,169.824005
1161.439941,-119.071999,195.199997
1139.968018,52.703999,81.984001
1054.079956,279.135986,-197.151993
1001.375977,368.928009,-384.544006
1005.280029,269.376007,-216.671997
1032.608032,212.768005,-46.848000
1038.463989,204.960007,76.127998
1057.984009,255.712006,111.264000
1073.599976,368.928009,52.703999
1077.504028,411.872009,54.655998
1067.744019,409.920013,54.655998
1018.943970,507.519989,-1.952000
981.856018,591.455994,-60.512001
989.664001,614.880005,-66.367996
989.664001,585.599976,-21.472000
993.567993,571.935974,58.560001
987.711975,571.935974,99.552002
974.047974,577.791992,80.031998
966.239990,546.559998,37.088001
962.335999,435.295990,15.616000
950.624023,304.511993,-5.856000
931.104004,175.679993,-29.280001
923.296021,81.984001,-81.984001
919.392029,33.183998,-80.031998
921.343994,7.808000,-81.984001
931.104004,3.904000,-74.176003
925.247986,25.375999,-68.320000
919.392029,46.848000,-85.888000
901.823975,60.512001,-83.935997
907.679993,80.031998,-78.080002
903.776001,117.120003,-85.888000
907.679993,144.447998,-80.031998
903.776001,177.632004,-66.367996
901.823975,171.776001,-50.751999
903.776001,154.207993,-54.655998
911.583984,136.639999,-66.367996
909.632019,126.879997,-60.512001
913.536011,158.112000,-48.799999
909.632019,175.679993,-39.040001
901.823975,191.296005,-39.040001
907.679993,199.104004,-52.703999
882.304016,210.815994,-81.984001
882.304016,189.343994,-107.360001
892.064026,191.296005,-113.216003
876.447998,193.248001,-103.456001
888.159973,148.352005,-113.216003
876.447998,181.535995,-124.928001
888.159973,173.727997,-107.360001
903.776001,165.919998,-76.127998
901.823975,160.063995,-80.031998
899.872009,158.112000,-99.552002
882.304016,152.255997,-119.071999
882.304016,142.496002,-140.544006
892.064026,97.599998,-144.447998
882.304016,29.280001,-132.735992
862.783997,-13.664000,-126.879997
841.312012,-56.608002,-144.447998
839.359985,-105.407997,-158.112000
845.216003,-156.160004,-162.016006
860.831970,-214.720001,-144.447998
866.687988,-263.519989,-126.879997
892.064026,-283.040009,-109.311996
899.872009,-263.519989,-97.599998
899.872009,-197.151993,-72.223999
894.015991,-93.695999,-70.272003
894.015991,54.655998,-87.839996
903.776001,212.768005,-66.367996
927.200012,312.320007,-33.183998
960.383972,329.888000,-5.856000
979.903992,349.407990,15.616000
1007.231995,406.015991,11.712000
999.424011,427.488007,-7.808000
999.424011,421.631989,-33.183998
997.471985,382.592010,-60.512001
1003.328003,316.223999,-68.320000
1007.231995,234.240005,-70.272003
1011.135986,150.304001,-72.223999
1009.184021,78.080002,-62.464001
1011.135986,-3.904000,-50.751999
999.424011,-58.560001,-40.992001
993.567993,-83.935997,-52.703999
989.664001,-122.975998,-50.751999
995.520020,-148.352005,-44.896000
1009.184021,-128.832001,-29.280001
1007.231995,-121.024002,-21.472000
1024.800049,-80.031998,17.568001
1048.223999,-39.040001,66.367996
1056.031982,-13.664000,95.648003
1075.552002,3.904000,107.360001
1098.975952,23.424000,97.599998
1118.495972,35.136002,101.503998
1104.832031,68.320000,83.935997
1091.167969,111.264000,48.799999
1085.312012,140.544006,-7.808000
1079.456055,144.447998,-5.856000
1081.407959,152.255997,-13.664000
1087.264038,163.968002,-23.424000
1079.456055,173.727997,-15.616000
1067.744019,109.311996,-15.616000
1106.784058,64.416000,-5.856000
1098.975952,99.552002,44.896000
1104.832031,81.984001,95.648003
1124.352051,80.031998,115.167999
1128.255981,56.608002,115.167999
1124.352051,15.616000,111.264000
1116.543945,7.808000,91.744003
1110.687988,9.760000,54.655998
1098.975952,7.808000,27.327999
1095.072021,1.952000,27.327999
1106.784058,-1.952000,50.751999
1097.024048,23.424000,83.935997
1095.072021,15.616000,72.223999
1087.264038,3.904000,56.608002
1093.119995,7.808000,44.896000
1100.927979,52.703999,42.944000
1124.352051,76.127998,50.751999
1120.447998,83.935997,64.416000
1110.687988,72.223999,62.464001
1104.832031,146.399994,40.992001
1095.072021,124.928001,52.703999
1079.456055,107.360001,56.608002
1071.647949,107.360001,31.232000
1056.031982,111.264000,3.904000
1056.031982,99.552002,-13.664000
1036.511963,70.272003,-1.952000
1052.128052,56.608002,7.808000
1077.504028,66.367996,9.760000
1093.119995,85.888000,7.808000
1229.760010,154.207993,-5.856000
1301.984009,212.768005,-19.520000
1337.119995,257.664001,-31.232000
1231.712036,242.048004,15.616000
1173.151978,195.199997,91.744003
1128.255981,152.255997,117.120003
1065.791992,105.407997,93.695999
1018.943970,56.608002,39.040001
970.143982,-11.712000,3.904000
991.616028,-37.088001,-31.232000
1030.656006,-89.792000,-37.088001
1038.463989,-107.360001,-29.280001
1054.079956,-70.272003,-17.568001
1071.647949,5.856000,11.712000
1089.215942,64.416000,66.367996
1069.696045,124.928001,85.888000
1050.176025,175.679993,81.984001
1048.223999,197.151993,50.751999
1052.128052,181.535995,29.280001
1050.176025,177.632004,17.568001
1061.887939,181.535995,9.760000
1056.031982,183.488007,3.904000
1061.887939,160.063995,-11.712000
1056.031982,144.447998,-15.616000
1052.128052,124.928001,-13.664000
1052.128052,126.879997,-15.616000
1065.791992,132.735992,-25.375999
1056.031982,128.832001,-27.327999
1056.031982,158.112000,-40.992001
1044.319946,181.535995,-42.944000
1056.031982,179.584000,-42.944000
1042.368042,179.584000,-44.896000
1042.368042,173.727997,-39.040001
1044.319946,163.968002,-40.992001
1034.560059,156.160004,-50.751999
1036.511963,160.063995,-48.799999
1030.656006,163.968002,-52.703999
1022.848022,150.304001,-64.416000
1032.608032,142.496002,-62.464001
1030.656006,132.735992,-72.223999
1022.848022,136.639999,-76.127998
1022.848022,130.783997,-80.031998
1022.848022,144.447998,-87.839996
1016.992004,152.255997,-80.031998
1018.943970,148.352005,-83.935997
1018.943970,142.496002,-91.744003
1024.800049,134.688004,-97.599998
1034.560059,121.024002,-89.792000
1036.511963,126.879997,-83.935997
1036.511963,111.264000,-93.695999
1016.992004,101.503998,-93.695999
1016.992004,93.695999,-105.407997
1020.895996,107.360001,-113.216003
1020.895996,107.360001,-128.832001
1020.895996,97.599998,-122.975998
1013.088013,93.695999,-119.071999
1007.231995,93.695999,-126.879997
1013.088013,87.839996,-130.783997
1018.943970,76.127998,-130.783997
1020.895996,81.984001,-126.879997
1022.848022,83.935997,-122.975998
1018.943970,66.367996,-130.783997
1009.184021,74.176003,-142.496002
1016.992004,70.272003,-152.255997
1016.992004,78.080002,-146.399994
1024.800049,87.839996,-142.496002
1030.656006,87.839996,-142.496002
1026.751953,99.552002,-138.591995
1030.656006,107.360001,-136.639999
1036.511963,122.975998,-130.783997
1034.560059,119.071999,-128.832001
1040.416016,113.216003,-130.783997
1038.463989,111.264000,-128.832001
1046.271973,117.120003,-134.688004
1040.416016,119.071999,-136.639999
1038.463989,138.591995,-140.544006
1038.463989,126.879997,-138.591995
1028.703979,126.879997,-138.591995
1020.895996,128.832001,-142.496002
1028.703979,128.832001,-150.304001
1032.608032,126.879997,-158.112000
1026.751953,124.928001,-148.352005
1030.656006,124.928001,-160.063995
1030.656006,132.735992,-160.063995
1030.656006,132.735992,-158.112000
1030.656006,138.591995,-154.207993
1036.511963,128.832001,-162.016006
1036.511963,136.639999,-167.871994
1034.560059,132.735992,-169.824005
1032.608032,132.735992,-169.824005
1036.511963,121.024002,-167.871994
1048.223999,126.879997,-173.727997
1036.511963,128.832001,-177.632004
1038.463989,136.639999,-173.727997
1034.560059,132.735992,-175.679993
1034.560059,132.735992,-183.488007
1034.560059,142.496002,-179.584000
1040.416016,140.544006,-177.632004
1044.319946,140.544006,-183.488007
1042.368042,130.783997,-183.488007
1046.271973,132.735992,-177.632004
1046.271973,132.735992,-179.584000
1057.984009,124.928001,-173.727997
1059.936035,130.783997,-175.679993
1061.887939,113.216003,-175.679993
1069.696045,121.024002,-171.776001
1065.791992,121.024002,-163.968002
1067.744019,121.024002,-169.824005
1079.456055,122.975998,-162.016006
1089.215942,117.120003,-158.112000
1089.215942,117.120003,-165.919998
1100.927979,109.311996,-162.016006
1100.927979,107.360001,-160.063995
1100.927979,111.264000,-154.207993
1106.784058,97.599998,-146.399994
1104.832031,95.648003,-142.496002
1106.784058,97.599998,-140.544006
1108.735962,85.888000,-142.496002
1112.640015,89.792000,-156.160004
1114.592041,91.744003,-152.255997
1126.303955,97.599998,-138.591995
1132.160034,97.599998,-138.591995
1130.208008,101.503998,-132.735992
1145.823975,107.360001,-134.688004
1134.112061,107.360001,-140.544006
1138.015991,109.311996,-134.688004
1141.920044,103.456001,-130.783997
1143.871948,103.456001,-132.735992
1141.920044,111.264000,-124.928001
1141.920044,107.360001,-119.071999
1149.728027,107.360001,-124.928001
1151.680054,105.407997,-119.071999
1147.776001,99.552002,-113.216003
1143.871948,99.552002,-115.167999
1153.631958,103.456001,-107.360001
1149.728027,99.552002,-111.264000
1147.776001,97.599998,-105.407997
1147.776001,103.456001,-113.216003
1149.728027,95.648003,-109.311996
1143.871948,105.407997,-122.975998
1143.871948,93.695999,-115.167999
1147.776001,93.695999,-117.120003
1141.920044,87.839996,-107.360001
1139.968018,85.888000,-109.311996
1149.728027,81.984001,-113.216003
1139.968018,80.031998,-103.456001
1132.160034,74.176003,-101.503998
1138.015991,72.223999,-109.311996
1139.968018,74.176003,-103.456001
1139.968018,78.080002,-101.503998
1136.063965,68.320000,-95.648003
1136.063965,72.223999,-101.503998
1130.208008,78.080002,-95.648003
1124.352051,74.176003,-101.503998
1126.303955,76.127998,-93.695999
1124.352051,80.031998,-97.599998
1132.160034,76.127998,-95.648003
1136.063965,74.176003,-89.792000
1134.112061,87.839996,-93.695999
1122.400024,78.080002,-97.599998
1124.352051,80.031998,-97.599998
1130.208008,80.031998,-95.648003
1116.543945,76.127998,-93.695999
1122.400024,85.888000,-99.552002
1116.543945,89.792000,-91.744003
1116.543945,95.648003,-91.744003
1120.447998,101.503998,-95.648003
1122.400024,97.599998,-97.599998
1118.495972,97.599998,-93.695999
1116.543945,95.648003,-91.744003
1118.495972,99.552002,-103.456001
1116.543945,99.552002,-105.407997
1108.735962,101.503998,-101.503998
1106.784058,107.360001,-101.503998
1110.687988,111.264000,-101.503998
1100.927979,111.264000,-103.456001
1118.495972,97.599998,-107.360001
1116.543945,111.264000,-107.360001
1104.832031,103.456001,-117.120003
1102.880005,119.071999,-107.360001
1100.927979,128.832001,-109.311996
1106.784058,124.928001,-105.407997
1110.687988,126.879997,-115.167999
1106.784058,97.599998,-122.975998
1110.687988,91.744003,-121.024002
1102.880005,87.839996,-122.975998
1098.975952,85.888000,-119.071999
1102.880005,78.080002,-115.167999
1106.784058,91.744003,-122.975998
1106.784058,87.839996,-124.928001
1100.927979,85.888000,-124.928001
1097.024048,87.839996,-119.071999
1100.927979,83.935997,-136.639999
1100.927979,80.031998,-126.879997
1097.024048,72.223999,-140.544006
1095.072021,70.272003,-144.447998
1093.119995,62.464001,-138.591995
1104.832031,64.416000,-148.352005
1093.119995,68.320000,-138.591995
1097.024048,62.464001,-142.496002
1098.975952,66.367996,-156.160004
1098.975952,60.512001,-144.447998
1093.119995,60.512001,-148.352005
1095.072021,56.608002,-152.255997
1087.264038,46.848000,-150.304001
1098.975952,48.799999,-152.255997
1087.264038,44.896000,-156.160004
1085.312012,44.896000,-150.304001
1095.072021,52.703999,-154.207993
1093.119995,60.512001,-150.304001
1085.312012,52.703999,-154.207993
1085.312012,64.416000,-156.160004
1081.407959,64.416000,-156.160004
1087.264038,60.512001,-152.255997
1083.359985,54.655998,-160.063995
1087.264038,52.703999,-148.352005
1081.407959,48.799999,-152.255997
1081.407959,58.560001,-148.352005
1083.359985,56.608002,-156.160004
1081.407959,40.992001,-156.160004
1083.359985,54.655998,-152.255997
1081.407959,46.848000,-148.352005
1077.504028,56.608002,-148.352005
1081.407959,56.608002,-146.399994
1083.359985,68.320000,-138.591995
1087.264038,62.464001,-142.496002
1081.407959,54.655998,-152.255997
1073.599976,54.655998,-148.352005
1079.456055,52.703999,-138.591995
1077.504028,46.848000,-144.447998
1079.456055,50.751999,-144.447998
1091.167969,50.751999,-146.399994
1081.407959,50.751999,-144.447998
1077.504028,50.751999,-148.352005
1073.599976,52.703999,-150.304001
1075.552002,42.944000,-146.399994
1077.504028,50.751999,-150.304001
1075.552002,40.992001,-134.688004
1077.504028,40.992001,-152.255997
1075.552002,44.896000,-146.399994
1071.647949,40.992001,-140.544006
1063.839966,40.992001,-148.352005
1071.647949,40.992001,-142.496002
1061.887939,48.799999,-146.399994
1063.839966,40.992001,-142.496002
1056.031982,29.280001,-146.399994
1054.079956,33.183998,-154.207993
1054.079956,42.944000,-144.447998
1054.079956,39.040001,-150.304001
1052.128052,37.088001,-142.496002
1044.319946,42.944000,-142.496002
1044.319946,44.896000,-146.399994
1038.463989,42.944000,-160.063995
1044.319946,40.992001,-146.399994
1030.656006,42.944000,-150.304001
1038.463989,42.944000,-150.304001
1042.368042,39.040001,-152.255997
1040.416016,35.136002,-152.255997
1024.800049,35.136002,-150.304001
1030.656006,37.088001,-154.207993
1026.751953,35.136002,-160.063995
1028.703979,35.136002,-156.160004
1013.088013,46.848000,-152.255997
1016.992004,48.799999,-160.063995
1011.135986,37.088001,-154.207993
1015.039978,33.183998,-154.207993
1020.895996,37.088001,-148.352005
1015.039978,39.040001,-148.352005
1009.184021,40.992001,-152.255997
1007.231995,42.944000,-154.207993
1005.280029,40.992001,-158.112000
1015.039978,44.896000,-167.871994
1011.135986,42.944000,-158.112000
1020.895996,39.040001,-167.871994
1013.088013,42.944000,-146.399994
1016.992004,50.751999,-154.207993
1016.992004,46.848000,-156.160004
1007.231995,44.896000,-154.207993
1013.088013,48.799999,-160.063995
1007.231995,44.896000,-154.207993
1015.039978,48.799999,-162.016006
1011.135986,48.799999,-154.207993
1011.135986,50.751999,-156.160004
1007.231995,52.703999,-142.496002
1009.184021,48.799999,-150.304001
1005.280029,48.799999,-154.207993
1005.280029,46.848000,-158.112000
1007.231995,44.896000,-154.207993
1005.280029,40.992001,-150.304001
1005.280029,46.848000,-156.160004
1007.231995,48.799999,-154.207993
1013.088013,56.608002,-150.304001
1013.088013,56.608002,-156.160004
1013.088013,50.751999,-150.304001
1015.039978,50.751999,-156.160004
1007.231995,50.751999,-163.968002
1009.184021,56.608002,-156.160004
1007.231995,48.799999,-160.063995
1009.184021,50.751999,-150.304001
1016.992004,46.848000,-152.255997
1024.800049,62.464001,-142.496002
1007.231995,54.655998,-148.352005
1022.848022,50.751999,-142.496002
1018.943970,58.560001,-146.399994
1018.943970,60.512001,-152.255997
1015.039978,58.560001,-152.255997
1022.848022,64.416000,-158.112000
1020.895996,48.799999,-138.591995
1024.800049,56.608002,-140.544006
1026.751953,58.560001,-134.688004
1022.848022,64.416000,-132.735992
1024.800049,56.608002,-134.688004
1032.608032,60.512001,-134.688004
1028.703979,62.464001,-140.544006
1024.800049,56.608002,-140.544006
1030.656006,62.464001,-142.496002
1036.511963,64.416000,-138.591995
1036.511963,58.560001,-142.496002
1040.416016,60.512001,-150.304001
1028.703979,62.464001,-144.447998
1026.751953,62.464001,-136.639999
1034.560059,72.223999,-142.496002
1030.656006,62.464001,-146.399994
1028.703979,58.560001,-144.447998
1032.608032,60.512001,-134.688004
1024.800049,56.608002,-144.447998
1030.656006,56.608002,-144.447998
1036.511963,62.464001,-140.544006
1028.703979,60.512001,-144.447998
1022.848022,60.512001,-140.544006
1028.703979,56.608002,-146.399994
1026.751953,58.560001,-146.399994
1028.703979,60.512001,-146.399994
1024.800049,56.608002,-146.399994
1026.751953,62.464001,-148.352005
1022.848022,54.655998,-152.255997
1022.848022,58.560001,-146.399994
1018.943970,58.560001,-146.399994
1026.751953,62.464001,-142.496002
1016.992004,62.464001,-144.447998
1018.943970,62.464001,-146.399994
1009.184021,66.367996,-146.399994
1011.135986,56.608002,-156.160004
1007.231995,62.464001,-154.207993
1013.088013,66.367996,-146.399994
1007.231995,58.560001,-150.304001
1009.184021,62.464001,-150.304001
1007.231995,66.367996,-154.207993
1011.135986,58.560001,-150.304001
1011.135986,62.464001,-146.399994
1003.328003,72.223999,-146.399994
1007.231995,64.416000,-148.352005
1009.184021,66.367996,-152.255997
999.424011,66.367996,-156.160004
993.567993,66.367996,-150.304001
997.471985,66.367996,-150.304001
987.711975,68.320000,-158.112000
993.567993,66.367996,-156.160004
999.424011,72.223999,-160.063995
987.711975,70.272003,-160.063995
991.616028,64.416000,-163.968002
991.616028,66.367996,-162.016006
985.760010,74.176003,-154.207993
993.567993,62.464001,-163.968002
997.471985,64.416000,-163.968002
991.616028,60.512001,-158.112000
995.520020,58.560001,-154.207993
991.616028,66.367996,-158.112000
993.567993,70.272003,-160.063995
987.711975,68.320000,-171.776001
987.711975,66.367996,-160.063995
981.856018,66.367996,-171.776001
979.903992,64.416000,-162.016006
985.760010,62.464001,-154.207993
989.664001,72.223999,-163.968002
989.664001,66.367996,-165.919998
987.711975,50.751999,-160.063995
981.856018,58.560001,-156.160004
989.664001,62.464001,-156.160004
983.807983,58.560001,-156.160004
985.760010,60.512001,-156.160004
985.760010,62.464001,-150.304001
987.711975,64.416000,-150.304001
981.856018,58.560001,-150.304001
991.616028,66.367996,-154.207993
983.807983,54.655998,-148.352005
981.856018,56.608002,-148.352005
979.903992,54.655998,-150.304001
972.096008,50.751999,-150.304001
983.807983,60.512001,-154.207993
981.856018,50.751999,-158.112000
981.856018,60.512001,-150.304001
974.047974,54.655998,-156.160004
977.952026,56.608002,-156.160004
977.952026,56.608002,-156.160004
977.952026,62.464001,-156.160004
972.096008,60.512001,-158.112000
977.952026,56.608002,-160.063995
976.000000,50.751999,-154.207993
976.000000,58.560001,-154.207993
976.000000,54.655998,-162.016006
981.856018,48.799999,-158.112000
981.856018,62.464001,-160.063995
981.856018,58.560001,-167.871994
983.807983,66.367996,-165.919998
985.760010,62.464001,-152.255997
977.952026,56.608002,-160.063995
981.856018,60.512001,-156.160004
987.711975,58.560001,-148.352005
993.567993,64.416000,-154.207993
987.711975,76.127998,-160.063995
991.616028,66.367996,-154.207993
983.807983,68.320000,-150.304001
987.711975,64.416000,-148.352005
995.520020,64.416000,-152.255997
991.616028,64.416000,-154.207993
993.567993,66.367996,-150.304001
979.903992,68.320000,-152.255997
987.711975,70.272003,-150.304001
995.520020,64.416000,-154.207993
995.520020,66.367996,-156.160004
991.616028,76.127998,-148.352005
993.567993,60.512001,-146.399994
997.471985,78.080002,-160.063995
995.520020,78.080002,-154.207993
997.471985,76.127998,-154.207993
987.711975,78.080002,-156.160004
991.616028,64.416000,-156.160004
981.856018,70.272003,-156.160004
993.567993,78.080002,-158.112000
983.807983,78.080002,-156.160004
991.616028,83.935997,-154.207993
989.664001,87.839996,-158.112000
981.856018,89.792000,-156.160004
981.856018,91.744003,-156.160004
976.000000,85.888000,-160.063995
983.807983,87.839996,-167.871994
981.856018,89.792000,-156.160004
977.952026,87.839996,-160.063995
977.952026,91.744003,-160.063995
974.047974,81.984001,-158.112000
964.288025,83.935997,-160.063995
981.856018,81.984001,-160.063995
981.856018,85.888000,-163.968002
983.807983,87.839996,-162.016006
977.952026,81.984001,-162.016006
976.000000,85.888000,-169.824005
966.239990,78.080002,-162.016006
974.047974,81.984001,-165.919998
966.239990,78.080002,-162.016006
972.096008,78.080002,-165.919998
976.000000,78.080002,-162.016006
974.047974,80.031998,-162.016006
970.143982,83.935997,-154.207993
974.047974,81.984001,-160.063995
970.143982,91.744003,-154.207993
964.288025,76.127998,-150.304001
970.143982,80.031998,-150.304001
977.952026,72.223999,-152.255997
968.192017,78.080002,-160.063995
968.192017,74.176003,-154.207993
968.192017,72.223999,-156.160004
960.383972,74.176003,-142.496002
974.047974,80.031998,-152.255997
964.288025,80.031998,-142.496002
966.239990,87.839996,-142.496002
966.239990,91.744003,-152.255997
972.096008,78.080002,-146.399994
968.192017,83.935997,-156.160004
966.239990,91.744003,-148.352005
962.335999,81.984001,-152.255997
958.432007,83.935997,-152.255997
966.239990,81.984001,-144.447998
958.432007,78.080002,-156.160004
954.528015,80.031998,-152.255997
966.239990,87.839996,-152.255997
958.432007,85.888000,-150.304001
954.528015,81.984001,-152.255997
960.383972,95.648003,-152.255997
956.479980,93.695999,-152.255997
952.575989,89.792000,-154.207993
952.575989,83.935997,-160.063995
954.528015,83.935997,-152.255997
948.671997,85.888000,-156.160004
958.432007,85.888000,-154.207993
950.624023,87.839996,-160.063995
946.719971,87.839996,-163.968002
944.768005,80.031998,-154.207993
950.624023,78.080002,-152.255997
950.624023,81.984001,-167.871994
950.624023,81.984001,-160.063995
950.624023,87.839996,-156.160004
954.528015,80.031998,-154.207993
944.768005,83.935997,-146.399994
944.768005,78.080002,-152.255997
950.624023,87.839996,-154.207993
950.624023,78.080002,-152.255997
950.624023,81.984001,-162.016006
950.624023,74.176003,-158.112000
952.575989,85.888000,-150.304001
954.528015,89.792000,-144.447998
948.671997,83.935997,-148.352005
954.528015,78.080002,-148.352005
954.528015,74.176003,-154.207993
942.815979,80.031998,-160.063995
948.671997,81.984001,-154.207993
952.575989,85.888000,-154.207993
962.335999,91.744003,-146.399994
956.479980,89.792000,-140.544006
950.624023,83.935997,-142.496002
954.528015,80.031998,-154.207993
952.575989,85.888000,-148.352005
950.624023,83.935997,-152.255997
952.575989,85.888000,-156.160004
952.575989,76.127998,-140.544006
950.624023,83.935997,-138.591995
948.671997,91.744003,-130.783997
950.624023,80.031998,-140.544006
948.671997,80.031998,-154.207993
948.671997,85.888000,-148.352005
946.719971,76.127998,-146.399994
944.768005,91.744003,-148.352005
940.864014,81.984001,-150.304001
944.768005,85.888000,-144.447998
946.719971,83.935997,-146.399994
942.815979,91.744003,-150.304001
944.768005,83.935997,-148.352005
956.479980,81.984001,-158.112000
946.719971,81.984001,-150.304001
948.671997,83.935997,-144.447998
944.768005,85.888000,-150.304001
948.671997,74.176003,-152.255997
952.575989,74.176003,-146.399994
950.624023,81.984001,-156.160004
950.624023,76.127998,-144.447998
946.719971,78.080002,-146.399994
946.719971,72.223999,-148.352005
952.575989,78.080002,-144.447998
952.575989,72.223999,-140.544006
950.624023,78.080002,-140.544006
944.768005,83.935997,-138.591995
958.432007,70.272003,-138.591995
952.575989,70.272003,-134.688004
958.432007,70.272003,-134.688004
962.335999,80.031998,-136.639999
954.528015,66.367996,-130.783997
958.432007,74.176003,-140.544006
956.479980,78.080002,-136.639999
952.575989,78.080002,-130.783997
952.575989,72.223999,-134.688004
966.239990,72.223999,-128.832001
958.432007,74.176003,-140.544006
958.432007,78.080002,-134.688004
964.288025,80.031998,-144.447998
952.575989,72.223999,-140.544006
962.335999,74.176003,-136.639999
960.383972,80.031998,-138.591995
952.575989,68.320000,-142.496002
946.719971,76.127998,-140.544006
940.864014,74.176003,-138.591995
946.719971,76.127998,-146.399994
940.864014,78.080002,-140.544006
936.960022,80.031998,-142.496002
944.768005,85.888000,-138.591995
946.719971,74.176003,-134.688004
940.864014,76.127998,-146.399994
938.911987,70.272003,-148.352005
942.815979,80.031998,-152.255997
946.719971,83.935997,-144.447998
942.815979,87.839996,-144.447998
942.815979,93.695999,-140.544006
938.911987,70.272003,-150.304001
946.719971,78.080002,-146.399994
946.719971,83.935997,-146.399994
938.911987,81.984001,-150.304001
942.815979,80.031998,-132.735992
946.719971,76.127998,-134.688004
942.815979,83.935997,-136.639999
933.056030,70.272003,-144.447998
946.719971,76.127998,-144.447998
938.911987,68.320000,-144.447998
942.815979,85.888000,-142.496002
944.768005,80.031998,-134.688004
946.719971,80.031998,-134.688004
946.719971,78.080002,-140.544006
948.671997,81.984001,-136.639999
946.719971,78.080002,-140.544006
944.768005,76.127998,-132.735992
946.719971,72.223999,-134.688004
940.864014,72.223999,-140.544006
954.528015,70.272003,-130.783997
944.768005,68.320000,-132.735992
946.719971,64.416000,-134.688004
940.864014,60.512001,-128.832001
948.671997,68.320000,-132.735992
942.815979,64.416000,-130.783997
940.864014,64.416000,-128.832001
942.815979,72.223999,-130.783997
940.864014,66.367996,-132.735992
936.960022,64.416000,-128.832001
931.104004,76.127998,-124.928001
929.151978,64.416000,-134.688004
935.007996,56.608002,-144.447998
935.007996,64.416000,-132.735992
931.104004,70.272003,-136.639999
931.104004,62.464001,-140.544006
935.007996,72.223999,-136.639999
921.343994,72.223999,-134.688004
931.104004,56.608002,-142.496002
923.296021,58.560001,-138.591995
919.392029,60.512001,-136.639999
929.151978,66.367996,-134.688004
927.200012,62.464001,-142.496002
917.440002,66.367996,-148.352005
929.151978,58.560001,-134.688004
927.200012,56.608002,-130.783997
931.104004,58.560001,-144.447998
931.104004,58.560001,-134.688004
929.151978,54.655998,-124.928001
929.151978,58.560001,-132.735992
929.151978,50.751999,-130.783997
929.151978,52.703999,-128.832001
927.200012,56.608002,-128.832001
938.911987,56.608002,-128.832001
931.104004,46.848000,-132.735992
925.247986,56.608002,-138.591995
923.296021,54.655998,-130.783997
933.056030,54.655998,-121.024002
931.104004,52.703999,-124.928001
931.104004,64.416000,-124.928001
938.911987,56.608002,-132.735992
929.151978,54.655998,-132.735992
935.007996,50.751999,-140.544006
933.056030,54.655998,-126.879997
933.056030,58.560001,-132.735992
933.056030,54.655998,-126.879997
933.056030,58.560001,-128.832001
933.056030,54.655998,-132.735992
927.200012,52.703999,-134.688004
938.911987,60.512001,-126.879997
936.960022,58.560001,-132.735992
935.007996,60.512001,-142.496002
935.007996,62.464001,-134.688004
936.960022,60.512001,-140.544006
942.815979,62.464001,-140.544006
940.864014,66.367996,-132.735992
948.671997,68.320000,-132.735992
940.864014,72.223999,-134.688004
942.815979,68.320000,-132.735992
942.815979,76.127998,-128.832001
948.671997,62.464001,-130.783997
952.575989,70.272003,-138.591995
950.624023,81.984001,-130.783997
948.671997,80.031998,-121.024002
948.671997,76.127998,-115.167999
956.479980,76.127998,-124.928001
948.671997,72.223999,-122.975998
946.719971,68.320000,-126.879997
944.768005,76.127998,-132.735992
952.575989,76.127998,-121.024002
946.719971,81.984001,-128.832001
958.432007,80.031998,-124.928001
958.432007,81.984001,-119.071999
956.479980,80.031998,-115.167999
954.528015,74.176003,-121.024002
948.671997,80.031998,-122.975998
950.624023,78.080002,-121.024002
952.575989,83.935997,-132.735992
944.768005,81.984001,-130.783997
948.671997,80.031998,-122.975998
952.575989,85.888000,-128.832001
958.432007,89.792000,-132.735992
944.768005,81.984001,-132.735992
944.768005,95.648003,-142.496002
948.671997,89.792000,-136.639999
962.335999,97.599998,-130.783997
960.383972,95.648003,-134.688004
956.479980,99.552002,-134.688004
948.671997,95.648003,-136.639999
952.575989,91.744003,-138.591995
950.624023,91.744003,-136.639999
944.768005,85.888000,-138.591995
954.528015,85.888000,-144.447998
952.575989,99.552002,-130.783997
954.528015,97.599998,-136.639999
962.335999,103.456001,-130.783997
958.432007,105.407997,-130.783997
956.479980,99.552002,-128.832001
958.432007,85.888000,-132.735992
958.432007,91.744003,-130.783997
952.575989,91.744003,-136.639999
962.335999,99.552002,-140.544006
966.239990,107.360001,-132.735992
964.288025,85.888000,-132.735992
966.239990,103.456001,-130.783997
968.192017,105.407997,-132.735992
970.143982,97.599998,-128.832001
972.096008,97.599998,-121.024002
968.192017,99.552002,-128.832001
970.143982,97.599998,-126.879997
974.047974,107.360001,-128.832001
977.952026,109.311996,-132.735992
968.192017,97.599998,-126.879997
976.000000,107.360001,-124.928001
970.143982,103.456001,-121.024002
972.096008,99.552002,-119.071999
972.096008,101.503998,-124.928001
970.143982,101.503998,-117.120003
972.096008,107.360001,-117.120003
972.096008,105.407997,-122.975998
972.096008,113.216003,-126.879997
968.192017,111.264000,-122.975998
976.000000,111.264000,-122.975998
970.143982,101.503998,-119.071999
983.807983,103.456001,-122.975998
976.000000,101.503998,-128.832001
976.000000,107.360001,-122.975998
970.143982,115.167999,-126.879997
970.143982,109.311996,-128.832001
966.239990,115.167999,-119.071999
962.335999,107.360001,-122.975998
970.143982,113.216003,-126.879997
968.192017,111.264000,-121.024002
966.239990,103.456001,-128.832001
960.383972,95.648003,-122.975998
960.383972,97.599998,-122.975998
960.383972,103.456001,-128.832001
962.335999,97.599998,-128.832001
958.432007,97.599998,-124.928001
960.383972,107.360001,-136.639999
952.575989,101.503998,-119.071999
962.335999,103.456001,-128.832001
956.479980,97.599998,-124.928001
956.479980,97.599998,-128.832001
956.479980,103.456001,-124.928001
954.528015,105.407997,-122.975998
954.528015,97.599998,-119.071999
956.479980,99.552002,-126.879997
952.575989,95.648003,-132.735992
954.528015,103.456001,-132.735992
946.719971,103.456001,-132.735992
948.671997,105.407997,-132.735992
950.624023,99.552002,-126.879997
946.719971,99.552002,-122.975998
954.528015,93.695999,-122.975998
942.815979,101.503998,-126.879997
948.671997,99.552002,-126.879997
948.671997,99.552002,-128.832001
948.671997,99.552002,-122.975998
942.815979,99.552002,-132.735992
940.864014,93.695999,-122.975998
940.864014,91.744003,-126.879997
950.624023,91.744003,-128.832001
940.864014,93.695999,-124.928001
944.768005,99.552002,-122.975998
940.864014,103.456001,-134.688004
944.768005,99.552002,-126.879997
952.575989,93.695999,-117.120003
950.624023,93.695999,-124.928001
948.671997,93.695999,-121.024002
954.528015,93.695999,-121.024002
952.575989,91.744003,-124.928001
948.671997,93.695999,-128.832001
950.624023,91.744003,-136.639999
944.768005,99.552002,-132.735992
944.768005,103.456001,-132.735992
950.624023,93.695999,-124.928001
940.864014,93.695999,-122.975998
942.815979,107.360001,-121.024002
944.768005,95.648003,-119.071999
938.911987,95.648003,-121.024002
942.815979,89.792000,-121.024002
946.719971,91.744003,-130.783997
950.624023,91.744003,-124.928001
936.960022,91.744003,-115.167999
944.768005,99.552002,-122.975998
946.719971,95.648003,-121.024002
940.864014,91.744003,-119.071999
946.719971,87.839996,-119.071999
950.624023,91.744003,-124.928001
950.624023,93.695999,-126.879997
940.864014,81.984001,-128.832001
950.624023,93.695999,-124.928001
940.864014,83.935997,-115.167999
942.815979,85.888000,-111.264000
940.864014,89.792000,-128.832001
950.624023,87.839996,-119.071999
950.624023,91.744003,-119.071999
948.671997,89.792000,-111.264000
942.815979,85.888000,-117.120003
950.624023,91.744003,-119.071999
948.671997,85.888000,-111.264000
