ACC_X,ACC_Y,ACC_Z
782.752014,425.536011,448.959991
788.607971,415.776001,462.623993
784.703979,419.679993,454.816010
796.416016,419.679993,452.864014
794.463989,421.631989,458.720001
790.559998,425.536011,462.623993
794.463989,431.391998,454.816010
796.416016,423.584015,448.959991
792.512024,427.488007,454.816010
792.512024,429.440002,454.816010
794.463989,427.488007,448.959991
798.367981,433.343994,445.056000
794.463989,439.200012,456.768005
788.607971,433.343994,456.768005
796.416016,427.488007,452.864014
790.559998,425.536011,462.623993
792.512024,423.584015,458.720001
786.656006,431.391998,460.671997
788.607971,423.584015,452.864014
802.271973,437.247986,466.528015
798.367981,437.247986,447.007996
794.463989,425.536011,456.768005
800.320007,435.295990,454.816010
790.559998,429.440002,462.623993
788.607971,429.440002,445.056000
788.607971,433.343994,456.768005
790.559998,431.391998,456.768005
790.559998,425.536011,462.623993
798.367981,429.440002,448.959991
792.512024,421.631989,450.911987
784.703979,429.440002,452.864014
786.656006,427.488007,454.816010
788.607971,433.343994,454.816010
790.559998,429.440002,462.623993
788.607971,439.200012,448.959991
786.656006,435.295990,445.056000
786.656006,445.056000,452.864014
792.512024,435.295990,445.056000
780.799988,437.247986,452.864014
784.703979,439.200012,450.911987
794.463989,439.200012,456.768005
788.607971,433.343994,445.056000
786.656006,437.247986,447.007996
782.752014,435.295990,460.671997
786.656006,427.488007,456.768005
788.607971,439.200012,448.959991
792.512024,439.200012,445.056000
794.463989,439.200012,448.959991
800.320007,443.104004,450.911987
792.512024,439.200012,447.007996
788.607971,435.295990,445.056000
796.416016,443.104004,462.623993
798.367981,439.200012,448.959991
798.367981,433.343994,450.911987
802.271973,433.343994,458.720001
790.559998,441.152008,445.056000
790.559998,443.104004,445.056000
788.607971,435.295990,454.816010
782.752014,437.247986,462.623993
796.416016,441.152008,448.959991
798.367981,441.152008,456.768005
788.607971,429.440002,454.816010
798.367981,437.247986,458.720001
790.559998,435.295990,454.816010
786.656006,437.247986,456.768005
788.607971,439.200012,450.911987
796.416016,437.247986,456.768005
788.607971,439.200012,448.959991
790.559998,447.007996,448.959991
798.367981,437.247986,452.864014
796.416016,443.104004,456.768005
798.367981,437.247986,458.720001
802.271973,437.247986,456.768005
798.367981,435.295990,448.959991
790.559998,431.391998,454.816010
790.559998,437.247986,443.104004
790.559998,441.152008,450.911987
794.463989,441.152008,447.007996
794.463989,441.152008,447.007996
792.512024,439.200012,454.816010
794.463989,441.152008,458.720001
800.320007,437.247986,452.864014
792.512024,429.440002,454.816010
790.559998,433.343994,456.768005
790.559998,435.295990,445.056000
790.559998,433.343994,456.768005
794.463989,433.343994,454.816010
792.512024,433.343994,448.959991
794.463989,429.440002,448.959991
798.367981,435.295990,448.959991
790.559998,435.295990,456.768005
798.367981,433.343994,454.816010
802.271973,433.343994,458.720001
800.320007,437.247986,458.720001
798.367981,435.295990,447.007996
792.512024,439.200012,445.056000
792.512024,439.200012,448.959991
786.656006,439.200012,447.007996
782.752014,439.200012,447.007996
788.607971,431.391998,454.816010
790.559998,435.295990,456.768005
782.752014,435.295990,452.864014
792.512024,429.440002,454.816010
788.607971,433.343994,445.056000
784.703979,429.440002,450.911987
788.607971,427.488007,448.959991
786.656006,429.440002,450.911987
780.799988,431.391998,452.864014
780.799988,425.536011,448.959991
780.799988,429.440002,450.911987
778.848022,437.247986,452.864014
784.703979,429.440002,454.816010
776.895996,433.343994,450.911987
780.799988,429.440002,445.056000
780.799988,433.343994,447.007996
784.703979,433.343994,460.671997
772.992004,429.440002,458.720001
780.799988,431.391998,454.816010
780.799988,427.488007,466.528015
780.799988,425.536011,447.007996
782.752014,425.536011,450.911987
772.992004,427.488007,452.864014
772.992004,429.440002,447.007996
776.895996,431.391998,448.959991
774.943970,423.584015,450.911987
778.848022,425.536011,454.816010
776.895996,425.536011,454.816010
772.992004,427.488007,464.575989
774.943970,425.536011,452.864014
776.895996,425.536011,454.816010
778.848022,419.679993,456.768005
776.895996,431.391998,450.911987
776.895996,419.679993,454.816010
772.992004,423.584015,454.816010
778.848022,425.536011,450.911987
778.848022,437.247986,458.720001
776.895996,427.488007,460.671997
769.088013,425.536011,460.671997
772.992004,425.536011,454.816010
776.895996,419.679993,456.768005
776.895996,429.440002,458.720001
774.943970,429.440002,452.864014
771.039978,427.488007,462.623993
782.752014,419.679993,458.720001
780.799988,425.536011,458.720001
780.799988,433.343994,452.864014
778.848022,413.824005,466.528015
780.799988,421.631989,456.768005
780.799988,423.584015,460.671997
769.088013,415.776001,462.623993
778.848022,421.631989,456.768005
782.752014,419.679993,456.768005
772.992004,427.488007,458.720001
782.752014,425.536011,458.720001
776.895996,431.391998,460.671997
776.895996,421.631989,466.528015
778.848022,421.631989,462.623993
774.943970,427.488007,466.528015
776.895996,417.727997,456.768005
778.848022,421.631989,462.623993
778.848022,423.584015,454.816010
772.992004,423.584015,456.768005
774.943970,435.295990,452.864014
774.943970,421.631989,462.623993
772.992004,425.536011,454.816010
780.799988,427.488007,454.816010
778.848022,429.440002,452.864014
778.848022,431.391998,448.959991
778.848022,425.536011,450.911987
780.799988,421.631989,464.575989
776.895996,433.343994,460.671997
778.848022,425.536011,450.911987
774.943970,421.631989,456.768005
771.039978,427.488007,460.671997
774.943970,419.679993,460.671997
774.943970,427.488007,462.623993
782.752014,425.536011,450.911987
776.895996,423.584015,456.768005
784.703979,429.440002,456.768005
780.799988,425.536011,448.959991
788.607971,427.488007,454.816010
776.895996,425.536011,458.720001
776.895996,423.584015,456.768005
782.752014,421.631989,462.623993
788.607971,417.727997,464.575989
780.799988,423.584015,458.720001
780.799988,421.631989,456.768005
786.656006,425.536011,458.720001
782.752014,413.824005,456.768005
790.559998,423.584015,470.432007
788.607971,431.391998,460.671997
784.703979,427.488007,460.671997
782.752014,419.679993,458.720001
782.752014,427.488007,456.768005
782.752014,427.488007,458.720001
784.703979,421.631989,448.959991
776.895996,423.584015,462.623993
780.799988,427.488007,466.528015
784.703979,425.536011,466.528015
790.559998,417.727997,452.864014
788.607971,427.488007,456.768005
788.607971,425.536011,460.671997
790.559998,421.631989,458.720001
786.656006,427.488007,456.768005
778.848022,421.631989,464.575989
790.559998,417.727997,452.864014
786.656006,429.440002,456.768005
788.607971,419.679993,460.671997
778.848022,425.536011,458.720001
776.895996,421.631989,448.959991
780.799988,427.488007,448.959991
784.703979,437.247986,456.768005
782.752014,423.584015,454.816010
780.799988,429.440002,448.959991
778.848022,429.440002,456.768005
786.656006,435.295990,448.959991
780.799988,433.343994,450.911987
780.799988,435.295990,447.007996
782.752014,429.440002,464.575989
786.656006,433.343994,448.959991
788.607971,427.488007,448.959991
786.656006,439.200012,456.768005
786.656006,425.536011,458.720001
788.607971,429.440002,456.768005
786.656006,427.488007,456.768005
776.895996,427.488007,462.623993
792.512024,429.440002,458.720001
790.559998,425.536011,456.768005
786.656006,423.584015,458.720001
784.703979,429.440002,470.432007
788.607971,431.391998,466.528015
782.752014,431.391998,462.623993
784.703979,439.200012,460.671997
800.320007,429.440002,456.768005
792.512024,427.488007,454.816010
790.559998,427.488007,458.720001
794.463989,429.440002,452.864014
790.559998,431.391998,462.623993
788.607971,423.584015,460.671997
780.799988,423.584015,460.671997
790.559998,425.536011,462.623993
792.512024,427.488007,456.768005
786.656006,425.536011,458.720001
794.463989,423.584015,458.720001
796.416016,433.343994,462.623993
792.512024,441.152008,454.816010
794.463989,431.391998,456.768005
788.607971,435.295990,454.816010
806.176025,437.247986,450.911987
788.607971,437.247986,462.623993
794.463989,431.391998,462.623993
796.416016,433.343994,462.623993
802.271973,439.200012,466.528015
802.271973,441.152008,462.623993
796.416016,435.295990,464.575989
798.367981,431.391998,462.623993
792.512024,439.200012,456.768005
794.463989,437.247986,456.768005
794.463989,429.440002,456.768005
792.512024,437.247986,454.816010
796.416016,435.295990,460.671997
798.367981,431.391998,456.768005
796.416016,433.343994,460.671997
788.607971,435.295990,454.816010
790.559998,443.104004,462.623993
800.320007,441.152008,448.959991
794.463989,445.056000,458.720001
788.607971,439.200012,456.768005
788.607971,443.104004,458.720001
792.512024,441.152008,450.911987
784.703979,441.152008,458.720001
788.607971,433.343994,450.911987
790.559998,441.152008,454.816010
786.656006,441.152008,454.816010
788.607971,439.200012,454.816010
784.703979,441.152008,447.007996
780.799988,443.104004,452.864014
786.656006,439.200012,450.911987
792.512024,439.200012,456.768005
790.559998,437.247986,456.768005
788.607971,435.295990,454.816010
786.656006,441.152008,452.864014
776.895996,439.200012,458.720001
782.752014,435.295990,452.864014
784.703979,437.247986,456.768005
788.607971,447.007996,460.671997
784.703979,448.959991,448.959991
794.463989,441.152008,448.959991
782.752014,445.056000,454.816010
776.895996,443.104004,448.959991
784.703979,452.864014,441.152008
782.752014,452.864014,450.911987
788.607971,448.959991,441.152008
778.848022,450.911987,450.911987
778.848022,448.959991,456.768005
784.703979,448.959991,454.816010
784.703979,452.864014,447.007996
786.656006,466.528015,452.864014
784.703979,450.911987,456.768005
790.559998,458.720001,450.911987
784.703979,458.720001,452.864014
788.607971,460.671997,454.816010
788.607971,470.432007,445.056000
794.463989,460.671997,458.720001
786.656006,456.768005,448.959991
790.559998,466.528015,456.768005
786.656006,466.528015,454.816010
784.703979,468.480011,454.816010
782.752014,472.384003,447.007996
786.656006,464.575989,450.911987
788.607971,466.528015,448.959991
790.559998,466.528015,454.816010
790.559998,474.335999,454.816010
784.703979,472.384003,448.959991
784.703979,478.239990,450.911987
790.559998,470.432007,448.959991
790.559998,474.335999,443.104004
794.463989,476.287994,460.671997
794.463989,472.384003,450.911987
788.607971,486.048004,460.671997
784.703979,486.048004,445.056000
792.512024,472.384003,450.911987
794.463989,482.144012,447.007996
796.416016,482.144012,445.056000
784.703979,482.144012,445.056000
794.463989,484.096008,448.959991
782.752014,486.048004,448.959991
788.607971,489.951996,445.056000
790.559998,484.096008,454.816010
788.607971,489.951996,450.911987
790.559998,489.951996,448.959991
790.559998,489.951996,445.056000
786.656006,493.855988,445.056000
790.559998,484.096008,450.911987
784.703979,489.951996,445.056000
790.559998,484.096008,448.959991
786.656006,493.855988,447.007996
782.752014,489.951996,460.671997
782.752014,489.951996,448.959991
786.656006,493.855988,450.911987
778.848022,493.855988,447.007996
776.895996,493.855988,452.864014
782.752014,489.951996,452.864014
780.799988,499.712006,452.864014
772.992004,499.712006,447.007996
778.848022,495.808014,447.007996
776.895996,493.855988,448.959991
780.799988,499.712006,458.720001
778.848022,488.000000,452.864014
778.848022,495.808014,464.575989
776.895996,499.712006,448.959991
778.848022,499.712006,452.864014
776.895996,488.000000,450.911987
774.943970,488.000000,447.007996
774.943970,495.808014,447.007996
774.943970,488.000000,450.911987
774.943970,488.000000,458.720001
767.135986,488.000000,448.959991
769.088013,482.144012,447.007996
771.039978,480.191986,458.720001
771.039978,488.000000,445.056000
767.135986,489.951996,462.623993
774.943970,491.903992,452.864014
769.088013,484.096008,456.768005
772.992004,495.808014,458.720001
774.943970,491.903992,450.911987
769.088013,497.760010,447.007996
767.135986,495.808014,448.959991
772.992004,491.903992,464.575989
763.231995,495.808014,448.959991
769.088013,493.855988,447.007996
767.135986,493.855988,450.911987
771.039978,489.951996,448.959991
772.992004,488.000000,448.959991
769.088013,480.191986,462.623993
759.328003,484.096008,452.864014
772.992004,476.287994,448.959991
763.231995,478.239990,456.768005
765.184021,478.239990,452.864014
769.088013,480.191986,462.623993
763.231995,468.480011,456.768005
761.280029,489.951996,448.959991
774.943970,478.239990,456.768005
771.039978,476.287994,454.816010
772.992004,474.335999,454.816010
765.184021,480.191986,452.864014
761.280029,472.384003,443.104004
771.039978,478.239990,448.959991
765.184021,482.144012,452.864014
765.184021,472.384003,458.720001
767.135986,468.480011,454.816010
769.088013,480.191986,462.623993
771.039978,476.287994,454.816010
767.135986,468.480011,460.671997
771.039978,468.480011,456.768005
772.992004,464.575989,458.720001
774.943970,472.384003,462.623993
782.752014,470.432007,458.720001
778.848022,468.480011,458.720001
774.943970,462.623993,458.720001
772.992004,466.528015,452.864014
772.992004,466.528015,458.720001
769.088013,460.671997,450.911987
772.992004,466.528015,460.671997
772.992004,466.528015,458.720001
774.943970,456.768005,447.007996
771.039978,462.623993,454.816010
774.943970,462.623993,458.720001
772.992004,466.528015,460.671997
772.992004,460.671997,454.816010
767.135986,452.864014,462.623993
772.992004,460.671997,452.864014
772.992004,458.720001,460.671997
776.895996,458.720001,464.575989
772.992004,458.720001,460.671997
780.799988,447.007996,462.623993
784.703979,452.864014,458.720001
780.799988,448.959991,460.671997
780.799988,450.911987,460.671997
782.752014,448.959991,452.864014
782.752014,445.056000,456.768005
790.559998,441.152008,458.720001
790.559998,445.056000,450.911987
780.799988,441.152008,454.816010
782.752014,448.959991,452.864014
786.656006,441.152008,462.623993
784.703979,435.295990,462.623993
788.607971,433.343994,456.768005
792.512024,441.152008,456.768005
784.703979,443.104004,448.959991
790.559998,437.247986,460.671997
784.703979,439.200012,458.720001
794.463989,439.200012,448.959991
800.320007,437.247986,452.864014
802.271973,441.152008,458.720001
794.463989,429.440002,462.623993
790.559998,433.343994,460.671997
790.559998,425.536011,468.480011
784.703979,427.488007,460.671997
786.656006,423.584015,458.720001
786.656006,425.536011,464.575989
788.607971,431.391998,452.864014
794.463989,425.536011,462.623993
784.703979,431.391998,464.575989
790.559998,425.536011,462.623993
786.656006,421.631989,460.671997
790.559998,429.440002,462.623993
788.607971,419.679993,460.671997
778.848022,421.631989,456.768005
782.752014,419.679993,456.768005
776.895996,415.776001,460.671997
790.559998,415.776001,452.864014
784.703979,419.679993,454.816010
782.752014,415.776001,450.911987
788.607971,404.063995,462.623993
786.656006,413.824005,460.671997
780.799988,409.920013,462.623993
786.656006,413.824005,472.384003
790.559998,423.584015,464.575989
784.703979,406.015991,462.623993
786.656006,411.872009,454.816010
794.463989,406.015991,456.768005
782.752014,407.967987,460.671997
782.752014,404.063995,464.575989
782.752014,406.015991,462.623993
780.799988,411.872009,452.864014
786.656006,411.872009,464.575989
788.607971,394.303986,466.528015
778.848022,398.208008,458.720001
772.992004,404.063995,458.720001
776.895996,406.015991,458.720001
782.752014,407.967987,460.671997
780.799988,400.160004,447.007996
780.799988,390.399994,462.623993
776.895996,398.208008,460.671997
780.799988,404.063995,462.623993
771.039978,400.160004,468.480011
778.848022,396.256012,460.671997
776.895996,407.967987,466.528015
780.799988,398.208008,470.432007
776.895996,398.208008,458.720001
774.943970,400.160004,460.671997
772.992004,398.208008,462.623993
782.752014,398.208008,464.575989
782.752014,398.208008,466.528015
784.703979,398.208008,464.575989
778.848022,390.399994,466.528015
778.848022,394.303986,452.864014
769.088013,400.160004,458.720001
771.039978,398.208008,466.528015
778.848022,404.063995,466.528015
778.848022,396.256012,458.720001
778.848022,394.303986,452.864014
774.943970,390.399994,456.768005
772.992004,398.208008,460.671997
769.088013,388.447998,454.816010
772.992004,396.256012,462.623993
772.992004,396.256012,456.768005
769.088013,392.351990,464.575989
776.895996,396.256012,460.671997
776.895996,396.256012,460.671997
782.752014,402.112000,470.432007
778.848022,392.351990,464.575989
778.848022,392.351990,456.768005
778.848022,390.399994,462.623993
776.895996,396.256012,460.671997
772.992004,390.399994,464.575989
772.992004,402.112000,464.575989
772.992004,398.208008,458.720001
772.992004,396.256012,466.528015
778.848022,396.256012,460.671997
776.895996,390.399994,462.623993
771.039978,378.687988,460.671997
772.992004,394.303986,456.768005
776.895996,396.256012,464.575989
780.799988,388.447998,462.623993
776.895996,398.208008,460.671997
782.752014,390.399994,458.720001
769.088013,400.160004,470.432007
778.848022,398.208008,462.623993
778.848022,396.256012,462.623993
771.039978,396.256012,458.720001
778.848022,400.160004,458.720001
780.799988,398.208008,462.623993
780.799988,404.063995,458.720001
772.992004,402.112000,460.671997
772.992004,402.112000,466.528015
774.943970,390.399994,462.623993
772.992004,392.351990,456.768005
776.895996,402.112000,460.671997
771.039978,407.967987,470.432007
776.895996,407.967987,470.432007
774.943970,398.208008,460.671997
772.992004,402.112000,470.432007
772.992004,400.160004,472.384003
776.895996,407.967987,464.575989
782.752014,402.112000,460.671997
772.992004,402.112000,466.528015
772.992004,407.967987,466.528015
776.895996,398.208008,466.528015
774.943970,400.160004,460.671997
776.895996,402.112000,460.671997
778.848022,402.112000,464.575989
772.992004,398.208008,464.575989
780.799988,392.351990,464.575989
774.943970,396.256012,466.528015
765.184021,394.303986,462.623993
774.943970,392.351990,474.335999
784.703979,400.160004,464.575989
772.992004,402.112000,470.432007
778.848022,402.112000,460.671997
774.943970,398.208008,452.864014
772.992004,398.208008,460.671997
767.135986,390.399994,466.528015
769.088013,400.160004,460.671997
772.992004,400.160004,460.671997
790.559998,406.015991,462.623993
790.559998,404.063995,468.480011
776.895996,398.208008,470.432007
774.943970,402.112000,452.864014
774.943970,406.015991,458.720001
776.895996,407.967987,464.575989
776.895996,407.967987,470.432007
772.992004,409.920013,468.480011
776.895996,404.063995,466.528015
776.895996,407.967987,466.528015
782.752014,407.967987,462.623993
774.943970,409.920013,466.528015
782.752014,411.872009,468.480011
776.895996,407.967987,460.671997
776.895996,413.824005,462.623993
776.895996,421.631989,466.528015
778.848022,415.776001,462.623993
782.752014,407.967987,460.671997
784.703979,409.920013,464.575989
780.799988,409.920013,466.528015
788.607971,413.824005,464.575989
786.656006,425.536011,470.432007
788.607971,413.824005,466.528015
778.848022,415.776001,468.480011
780.799988,417.727997,468.480011
780.799988,409.920013,468.480011
778.848022,421.631989,464.575989
774.943970,421.631989,456.768005
782.752014,417.727997,468.480011
780.799988,419.679993,470.432007
788.607971,417.727997,468.480011
786.656006,417.727997,474.335999
792.512024,431.391998,468.480011
790.559998,423.584015,464.575989
780.799988,419.679993,462.623993
788.607971,425.536011,462.623993
786.656006,429.440002,474.335999
778.848022,429.440002,460.671997
774.943970,421.631989,468.480011
782.752014,423.584015,474.335999
780.799988,421.631989,468.480011
784.703979,419.679993,458.720001
778.848022,421.631989,464.575989
776.895996,419.679993,470.432007
784.703979,415.776001,464.575989
780.799988,421.631989,462.623993
786.656006,415.776001,460.671997
778.848022,421.631989,466.528015
786.656006,421.631989,462.623993
788.607971,425.536011,468.480011
784.703979,427.488007,464.575989
778.848022,427.488007,464.575989
776.895996,427.488007,470.432007
780.799988,417.727997,462.623993
782.752014,429.440002,466.528015
776.895996,433.343994,464.575989
776.895996,429.440002,460.671997
786.656006,423.584015,466.528015
784.703979,433.343994,466.528015
782.752014,435.295990,464.575989
772.992004,435.295990,460.671997
776.895996,427.488007,464.575989
774.943970,425.536011,460.671997
780.799988,423.584015,464.575989
782.752014,427.488007,464.575989
782.752014,439.200012,460.671997
776.895996,429.440002,460.671997
778.848022,435.295990,460.671997
778.848022,429.440002,460.671997
778.848022,429.440002,460.671997
778.848022,429.440002,466.528015
776.895996,429.440002,460.671997
778.848022,427.488007,462.623993
776.895996,429.440002,460.671997
782.752014,435.295990,462.623993
784.703979,431.391998,462.623993
784.703979,433.343994,464.575989
780.799988,421.631989,460.671997
776.895996,427.488007,460.671997
776.895996,429.440002,470.432007
776.895996,435.295990,464.575989
772.992004,439.200012,466.528015
776.895996,427.488007,464.575989
771.039978,439.200012,466.528015
774.943970,429.440002,470.432007
786.656006,427.488007,468.480011
782.752014,439.200012,460.671997
776.895996,439.200012,464.575989
776.895996,427.488007,460.671997
776.895996,429.440002,470.432007
778.848022,435.295990,464.575989
784.703979,429.440002,464.575989
784.703979,425.536011,464.575989
780.799988,425.536011,460.671997
782.752014,439.200012,470.432007
794.463989,431.391998,466.528015
784.703979,435.295990,470.432007
784.703979,437.247986,462.623993
790.559998,435.295990,468.480011
780.799988,427.488007,468.480011
784.703979,435.295990,474.335999
790.559998,435.295990,470.432007
782.752014,431.391998,462.623993
771.039978,435.295990,474.335999
786.656006,425.536011,472.384003
784.703979,433.343994,464.575989
784.703979,435.295990,468.480011
786.656006,427.488007,476.287994
790.559998,433.343994,462.623993
784.703979,433.343994,462.623993
784.703979,431.391998,466.528015
780.799988,441.152008,468.480011
784.703979,431.391998,468.480011
778.848022,427.488007,468.480011
776.895996,429.440002,464.575989
780.799988,429.440002,468.480011
776.895996,439.200012,460.671997
782.752014,433.343994,468.480011
776.895996,427.488007,462.623993
776.895996,433.343994,464.575989
772.992004,439.200012,460.671997
772.992004,435.295990,460.671997
778.848022,429.440002,462.623993
776.895996,439.200012,458.720001
784.703979,433.343994,466.528015
784.703979,435.295990,462.623993
782.752014,435.295990,462.623993
782.752014,431.391998,470.432007
782.752014,435.295990,464.575989
774.943970,433.343994,472.384003
771.039978,431.391998,462.623993
778.848022,419.679993,456.768005
778.848022,427.488007,462.623993
772.992004,433.343994,460.671997
774.943970,421.631989,466.528015
780.799988,425.536011,464.575989
778.848022,421.631989,466.528015
769.088013,429.440002,468.480011
778.848022,421.631989,458.720001
776.895996,429.440002,470.432007
774.943970,433.343994,472.384003
772.992004,427.488007,468.480011
772.992004,435.295990,464.575989
772.992004,435.295990,460.671997
776.895996,427.488007,468.480011
782.752014,429.440002,460.671997
774.943970,429.440002,474.335999
780.799988,429.440002,466.528015
780.799988,433.343994,472.384003
767.135986,433.343994,478.239990
774.943970,443.104004,466.528015
778.848022,433.343994,472.384003
769.088013,439.200012,464.575989
778.848022,439.200012,460.671997
772.992004,427.488007,464.575989
772.992004,435.295990,470.432007
771.039978,429.440002,470.432007
772.992004,435.295990,470.432007
774.943970,435.295990,472.384003
769.088013,439.200012,460.671997
759.328003,425.536011,466.528015
759.328003,433.343994,462.623993
774.943970,427.488007,468.480011
757.375977,431.391998,470.432007
763.231995,437.247986,462.623993
765.184021,429.440002,466.528015
765.184021,437.247986,464.575989
765.184021,437.247986,464.575989
763.231995,441.152008,472.384003
759.328003,437.247986,468.480011
759.328003,439.200012,464.575989
761.280029,443.104004,466.528015
763.231995,439.200012,478.239990
757.375977,443.104004,466.528015
755.424011,443.104004,464.575989
759.328003,437.247986,462.623993
753.471985,433.343994,470.432007
753.471985,435.295990,464.575989
759.328003,437.247986,468.480011
759.328003,425.536011,468.480011
755.424011,437.247986,470.432007
755.424011,437.247986,462.623993
763.231995,437.247986,468.480011
763.231995,437.247986,462.623993
761.280029,425.536011,464.575989
761.280029,431.391998,462.623993
757.375977,429.440002,468.480011
757.375977,431.391998,474.335999
759.328003,437.247986,466.528015
753.471985,437.247986,462.623993
759.328003,429.440002,464.575989
757.375977,433.343994,474.335999
759.328003,433.343994,462.623993
761.280029,427.488007,448.959991
757.375977,431.391998,462.623993
765.184021,429.440002,466.528015
767.135986,427.488007,466.528015
759.328003,433.343994,464.575989
757.375977,443.104004,468.480011
771.039978,427.488007,470.432007
763.231995,431.391998,462.623993
761.280029,437.247986,464.575989
765.184021,435.295990,468.480011
763.231995,431.391998,468.480011
765.184021,425.536011,464.575989
771.039978,425.536011,468.480011
765.184021,427.488007,468.480011
771.039978,425.536011,474.335999
759.328003,437.247986,462.623993
763.231995,443.104004,470.432007
767.135986,425.536011,466.528015
772.992004,429.440002,466.528015
772.992004,439.200012,458.720001
778.848022,433.343994,470.432007
765.184021,429.440002,462.623993
765.184021,425.536011,466.528015
774.943970,421.631989,464.575989
772.992004,429.440002,472.384003
772.992004,431.391998,470.432007
772.992004,425.536011,464.575989
774.943970,429.440002,468.480011
776.895996,433.343994,470.432007
776.895996,435.295990,466.528015
776.895996,433.343994,462.623993
782.752014,435.295990,464.575989
778.848022,431.391998,452.864014
782.752014,433.343994,460.671997
772.992004,439.200012,464.575989
772.992004,439.200012,460.671997
782.752014,439.200012,468.480011
776.895996,435.295990,464.575989
778.848022,429.440002,462.623993
776.895996,429.440002,460.671997
778.848022,433.343994,472.384003
772.992004,431.391998,472.384003
772.992004,433.343994,464.575989
780.799988,429.440002,472.384003
776.895996,441.152008,464.575989
782.752014,439.200012,470.432007
782.752014,429.440002,464.575989
784.703979,439.200012,460.671997
782.752014,439.200012,460.671997
776.895996,437.247986,466.528015
786.656006,447.007996,464.575989
778.848022,441.152008,470.432007
784.703979,443.104004,466.528015
776.895996,447.007996,464.575989
778.848022,448.959991,466.528015
784.703979,437.247986,466.528015
782.752014,439.200012,460.671997
778.848022,439.200012,472.384003
778.848022,441.152008,468.480011
784.703979,445.056000,462.623993
778.848022,448.959991,462.623993
776.895996,439.200012,464.575989
776.895996,445.056000,464.575989
780.799988,441.152008,468.480011
778.848022,441.152008,462.623993
772.992004,441.152008,464.575989
772.992004,447.007996,466.528015
778.848022,445.056000,468.480011
778.848022,447.007996,468.480011
776.895996,439.200012,470.432007
778.848022,447.007996,456.768005
769.088013,452.864014,462.623993
765.184021,443.104004,464.575989
769.088013,450.911987,462.623993
776.895996,441.152008,460.671997
778.848022,452.864014,462.623993
774.943970,447.007996,462.623993
778.848022,441.152008,464.575989
774.943970,450.911987,466.528015
772.992004,439.200012,466.528015
774.943970,448.959991,470.432007
778.848022,450.911987,474.335999
784.703979,448.959991,472.384003
778.848022,448.959991,468.480011
774.943970,452.864014,468.480011
782.752014,448.959991,476.287994
771.039978,452.864014,478.239990
772.992004,454.816010,476.287994
778.848022,452.864014,468.480011
769.088013,448.959991,466.528015
772.992004,445.056000,456.768005
776.895996,439.200012,470.432007
786.656006,454.816010,470.432007
780.799988,448.959991,470.432007
778.848022,447.007996,466.528015
782.752014,445.056000,476.287994
778.848022,447.007996,474.335999
774.943970,450.911987,466.528015
767.135986,445.056000,470.432007
776.895996,450.911987,466.528015
776.895996,452.864014,466.528015
778.848022,452.864014,464.575989
780.799988,441.152008,466.528015
778.848022,448.959991,462.623993
780.799988,443.104004,460.671997
780.799988,452.864014,460.671997
786.656006,445.056000,464.575989
782.752014,445.056000,462.623993
786.656006,450.911987,466.528015
784.703979,447.007996,460.671997
786.656006,445.056000,466.528015
780.799988,447.007996,466.528015
778.848022,454.816010,460.671997
786.656006,441.152008,454.816010
790.559998,452.864014,458.720001
788.607971,450.911987,450.911987
790.559998,443.104004,462.623993
790.559998,443.104004,464.575989
784.703979,445.056000,474.335999
796.416016,445.056000,474.335999
792.512024,445.056000,460.671997
792.512024,454.816010,462.623993
790.559998,456.768005,468.480011
788.607971,443.104004,460.671997
792.512024,439.200012,454.816010
790.559998,445.056000,456.768005
792.512024,447.007996,466.528015
790.559998,437.247986,462.623993
790.559998,437.247986,464.575989
792.512024,441.152008,454.816010
786.656006,443.104004,460.671997
794.463989,437.247986,462.623993
792.512024,441.152008,458.720001
794.463989,433.343994,462.623993
792.512024,441.152008,460.671997
794.463989,439.200012,462.623993
790.559998,435.295990,456.768005
796.416016,437.247986,460.671997
796.416016,433.343994,470.432007
802.271973,435.295990,460.671997
798.367981,447.007996,472.384003
796.416016,429.440002,472.384003
794.463989,437.247986,468.480011
800.320007,429.440002,454.816010
800.320007,439.200012,460.671997
802.271973,429.440002,464.575989
796.416016,431.391998,462.623993
802.271973,431.391998,464.575989
798.367981,429.440002,462.623993
806.176025,421.631989,460.671997
810.080017,415.776001,468.480011
802.271973,425.536011,462.623993
804.223999,425.536011,458.720001
800.320007,427.488007,464.575989
802.271973,427.488007,466.528015
800.320007,425.536011,458.720001
798.367981,419.679993,462.623993
810.080017,427.488007,466.528015
800.320007,421.631989,462.623993
796.416016,427.488007,464.575989
796.416016,421.631989,474.335999
798.367981,423.584015,470.432007
796.416016,427.488007,462.623993
800.320007,421.631989,466.528015
802.271973,425.536011,474.335999
792.512024,425.536011,464.575989
798.367981,427.488007,468.480011
800.320007,421.631989,466.528015
786.656006,421.631989,460.671997
784.703979,425.536011,462.623993
788.607971,423.584015,466.528015
800.320007,421.631989,462.623993
794.463989,431.391998,466.528015
788.607971,423.584015,464.575989
782.752014,427.488007,460.671997
788.607971,419.679993,466.528015
786.656006,417.727997,472.384003
780.799988,423.584015,472.384003
788.607971,427.488007,474.335999
776.895996,413.824005,476.287994
784.703979,415.776001,478.239990
782.752014,411.872009,476.287994
776.895996,413.824005,486.048004
776.895996,417.727997,474.335999
772.992004,411.872009,480.191986
771.039978,421.631989,484.096008
771.039978,413.824005,486.048004
771.039978,409.920013,489.951996
769.088013,421.631989,488.000000
765.184021,415.776001,482.144012
763.231995,409.920013,478.239990
771.039978,411.872009,480.191986
767.135986,406.015991,488.000000
765.184021,409.920013,484.096008
763.231995,415.776001,484.096008
767.135986,407.967987,484.096008
765.184021,411.872009,486.048004
757.375977,406.015991,468.480011
759.328003,406.015991,466.528015
757.375977,407.967987,456.768005
763.231995,406.015991,454.816010
743.711975,415.776001,466.528015
751.520020,398.208008,472.384003
747.616028,411.872009,456.768005
759.328003,407.967987,458.720001
751.520020,404.063995,456.768005
751.520020,407.967987,462.623993
755.424011,398.208008,452.864014
759.328003,400.160004,462.623993
761.280029,404.063995,468.480011
765.184021,407.967987,470.432007
778.848022,409.920013,474.335999
776.895996,413.824005,476.287994
776.895996,413.824005,486.048004
776.895996,415.776001,488.000000
784.703979,415.776001,484.096008
784.703979,415.776001,489.951996
788.607971,411.872009,495.808014
780.799988,409.920013,491.903992
794.463989,411.872009,495.808014
790.559998,409.920013,489.951996
792.512024,417.727997,491.903992
802.271973,409.920013,491.903992
804.223999,407.967987,493.855988
794.463989,413.824005,489.951996
806.176025,413.824005,482.144012
802.271973,411.872009,486.048004
796.416016,415.776001,478.239990
800.320007,402.112000,484.096008
806.176025,404.063995,484.096008
800.320007,400.160004,484.096008
800.320007,392.351990,489.951996
800.320007,400.160004,484.096008
806.176025,400.160004,482.144012
812.031982,402.112000,476.287994
813.984009,400.160004,486.048004
812.031982,404.063995,482.144012
759.328003,429.440002,499.712006
765.184021,376.735992,509.471985
745.664001,304.511993,523.135986
743.711975,359.167999,530.943970
733.952026,298.656006,517.280029
802.271973,277.183990,499.712006
897.919983,281.088013,431.391998
905.728027,247.904007,421.631989
817.888000,329.888000,482.144012
749.567993,382.592010,530.943970
767.135986,394.303986,519.231995
823.744019,484.096008,472.384003
841.312012,470.432007,462.623993
786.656006,503.615997,505.567993
737.856018,566.080017,536.799988
782.752014,497.760010,513.375977
839.359985,472.384003,472.384003
872.544006,437.247986,452.864014
827.648010,421.631989,486.048004
782.752014,458.720001,513.375977
774.943970,347.455994,517.280029
802.271973,290.847992,482.144012
800.320007,296.704010,476.287994
780.799988,320.127991,478.239990
757.375977,292.799988,482.144012
763.231995,220.576004,456.768005
757.375977,261.567993,448.959991
774.943970,283.040009,433.343994
759.328003,329.888000,445.056000
771.039978,357.216003,439.200012
780.799988,298.656006,427.488007
772.992004,384.544006,448.959991
749.567993,468.480011,462.623993
741.760010,489.951996,486.048004
753.471985,532.895996,491.903992
929.151978,456.768005,474.335999
841.312012,517.280029,456.768005
919.392029,544.607971,646.112000
683.200012,741.760010,780.799988
876.447998,429.440002,739.807983
874.495972,-40.992001,698.815979
964.288025,470.432007,722.239990
1046.271973,398.208008,833.504028
962.335999,99.552002,935.007996
993.567993,296.704010,974.047974
1005.280029,27.327999,940.864014
1065.791992,244.000000,841.312012
1009.184021,562.176025,767.135986
1024.800049,261.567993,757.375977
1034.560059,339.648010,767.135986
993.567993,400.160004,774.943970
972.096008,452.864014,767.135986
950.624023,679.296021,741.760010
933.056030,460.671997,722.239990
935.007996,417.727997,718.335999
935.007996,515.328003,692.960022
890.112000,525.088013,671.487976
901.823975,679.296021,653.919983
886.208008,374.783997,636.351990
876.447998,236.192001,620.736023
882.304016,429.440002,605.119995
880.351990,404.063995,609.023987
911.583984,308.415985,616.831970
899.872009,134.688004,634.400024
845.216003,140.544006,667.583984
817.888000,253.759995,679.296021
810.080017,304.511993,687.104004
806.176025,335.743988,669.536011
810.080017,228.384003,650.015991
821.791992,333.791992,609.023987
810.080017,536.799988,593.408020
810.080017,530.943970,568.031982
823.744019,575.840027,542.656006
853.023987,540.703979,511.424011
864.736023,538.752014,476.287994
880.351990,650.015991,468.480011
878.400024,616.831970,484.096008
878.400024,517.280029,499.712006
880.351990,437.247986,527.039978
878.400024,409.920013,577.791992
884.255981,454.816010,618.783997
880.351990,361.119995,640.255981
870.591980,228.384003,663.679993
882.304016,234.240005,671.487976
878.400024,259.615997,659.776001
880.351990,302.559998,651.968018
874.495972,284.992004,638.304016
874.495972,218.623993,626.591980
874.495972,298.656006,587.552002
868.640015,415.776001,571.935974
870.591980,441.152008,585.599976
872.544006,435.295990,603.168030
858.880005,409.920013,626.591980
860.831970,486.048004,634.400024
870.591980,538.752014,638.304016
866.687988,515.328003,636.351990
892.064026,488.000000,636.351990
884.255981,445.056000,640.255981
872.544006,466.528015,632.447998
866.687988,499.712006,638.304016
827.648010,462.623993,573.888000
929.151978,443.104004,450.911987
1016.992004,261.567993,359.167999
919.392029,68.320000,322.079987
913.536011,152.255997,347.455994
851.072021,271.328003,415.776001
730.047974,236.192001,511.424011
714.432007,283.040009,568.031982
712.479980,199.104004,569.984009
728.096008,288.895996,554.367981
743.711975,386.496002,540.703979
767.135986,495.808014,548.512024
749.567993,632.447998,650.015991
732.000000,407.967987,735.903992
749.567993,589.504028,737.856018
765.184021,585.599976,720.288025
757.375977,679.296021,671.487976
761.280029,843.263977,642.208008
771.039978,905.728027,618.783997
763.231995,874.495972,616.831970
728.096008,831.552002,601.216003
624.640015,421.631989,581.695984
575.840027,-218.623993,564.127991
626.591980,-277.183990,517.280029
720.288025,-56.608002,437.247986
735.903992,204.960007,355.264008
730.047974,372.832001,331.839996
718.335999,286.944000,376.735992
706.624023,60.512001,419.679993
689.056030,-17.568001,443.104004
689.056030,89.792000,462.623993
667.583984,234.240005,476.287994
659.776001,324.032013,488.000000
683.200012,388.447998,491.903992
685.151978,472.384003,499.712006
681.247986,558.271973,495.808014
712.479980,587.552002,511.424011
657.823975,-101.503998,519.231995
667.583984,-771.039978,376.735992
823.744019,-312.320007,179.584000
831.552002,224.479996,199.104004
776.895996,1075.552002,306.463989
753.471985,732.000000,425.536011
751.520020,441.152008,509.471985
745.664001,347.455994,560.223999
714.432007,429.440002,607.072021
706.624023,698.815979,640.255981
728.096008,523.135986,650.015991
722.239990,333.791992,628.544006
587.552002,304.511993,587.552002
556.320007,368.928009,536.799988
497.760010,435.295990,505.567993
527.039978,413.824005,462.623993
603.168030,320.127991,435.295990
640.255981,292.799988,402.112000
667.583984,308.415985,394.303986
675.392029,327.936005,378.687988
685.151978,353.312012,392.351990
710.528015,365.023987,409.920013
724.192017,386.496002,445.056000
720.288025,402.112000,474.335999
696.864014,366.976013,482.144012
683.200012,363.071991,513.375977
704.671997,366.976013,536.799988
732.000000,345.503998,546.559998
733.952026,294.752014,554.367981
722.239990,294.752014,558.271973
712.479980,304.511993,571.935974
704.671997,253.759995,577.791992
704.671997,201.056000,587.552002
704.671997,216.671997,589.504028
704.671997,236.192001,589.504028
710.528015,247.904007,591.455994
730.047974,245.951996,583.648010
749.567993,290.847992,597.312012
778.848022,324.032013,601.216003
796.416016,316.223999,610.976013
798.367981,357.216003,620.736023
806.176025,429.440002,618.783997
812.031982,448.959991,634.400024
831.552002,480.191986,650.015991
825.695984,484.096008,673.440002
827.648010,501.664001,694.911987
837.408020,509.471985,712.479980
802.271973,509.471985,720.288025
761.280029,486.048004,716.383972
749.567993,480.191986,710.528015
771.039978,460.671997,712.479980
808.127991,448.959991,706.624023
815.935974,488.000000,689.056030
841.312012,480.191986,651.968018
810.080017,497.760010,620.736023
720.288025,521.184021,591.455994
708.575989,495.808014,530.943970
724.192017,489.951996,488.000000
737.856018,472.384003,464.575989
757.375977,462.623993,441.152008
691.007996,320.127991,425.536011
659.776001,128.832001,413.824005
696.864014,183.488007,386.496002
747.616028,138.591995,388.447998
728.096008,52.703999,402.112000
698.815979,119.071999,411.872009
679.296021,179.584000,406.015991
667.583984,165.919998,411.872009
671.487976,169.824005,433.343994
675.392029,275.231995,458.720001
679.296021,343.552002,470.432007
689.056030,390.399994,486.048004
712.479980,417.727997,499.712006
700.768005,491.903992,527.039978
757.375977,489.951996,571.935974
771.039978,558.271973,618.783997
778.848022,558.271973,642.208008
757.375977,536.799988,675.392029
794.463989,523.135986,698.815979
837.408020,517.280029,718.335999
839.359985,525.088013,737.856018
831.552002,530.943970,737.856018
837.408020,536.799988,751.520020
843.263977,527.039978,757.375977
843.263977,521.184021,782.752014
845.216003,536.799988,782.752014
860.831970,575.840027,790.559998
907.679993,569.984009,806.176025
909.632019,542.656006,806.176025
894.015991,517.280029,810.080017
892.064026,521.184021,808.127991
909.632019,439.200012,829.599976
929.151978,409.920013,829.599976
921.343994,404.063995,812.031982
851.072021,238.143997,802.271973
767.135986,173.727997,769.088013
851.072021,347.455994,728.096008
931.104004,312.320007,712.479980
921.343994,136.639999,733.952026
888.159973,99.552002,732.000000
862.783997,109.311996,743.711975
847.168030,138.591995,751.520020
870.591980,150.304001,761.280029
880.351990,193.248001,776.895996
874.495972,314.272003,772.992004
878.400024,470.432007,774.943970
876.447998,556.320007,763.231995
907.679993,591.455994,761.280029
933.056030,622.687988,782.752014
989.664001,630.495972,790.559998
1024.800049,691.007996,815.935974
1007.231995,739.807983,849.119995
979.903992,669.536011,862.783997
788.607971,429.440002,909.632019
489.951996,234.240005,923.296021
712.479980,661.728027,845.216003
876.447998,706.624023,821.791992
972.096008,175.679993,800.320007
991.616028,-42.944000,804.223999
936.960022,-31.232000,837.408020
919.392029,-222.528000,827.648010
911.583984,-201.056000,786.656006
997.471985,87.839996,774.943970
950.624023,201.056000,788.607971
618.783997,488.000000,829.599976
466.528015,890.112000,751.520020
995.520020,646.112000,626.591980
1030.656006,767.135986,640.255981
1104.832031,681.247986,651.968018
722.239990,46.848000,706.624023
376.735992,27.327999,735.903992
687.104004,862.783997,679.296021
847.168030,790.559998,665.632019
894.015991,76.127998,657.823975
648.064026,-13.664000,650.015991
700.768005,497.760010,618.783997
628.544006,542.656006,626.591980
696.864014,93.695999,583.648010
722.239990,-76.127998,569.984009
757.375977,160.063995,579.744019
757.375977,372.832001,601.216003
726.143982,488.000000,605.119995
708.575989,616.831970,597.312012
743.711975,474.335999,575.840027
815.935974,327.936005,575.840027
827.648010,454.816010,593.408020
817.888000,566.080017,612.927979
866.687988,450.911987,624.640015
823.744019,390.399994,657.823975
767.135986,441.152008,665.632019
763.231995,421.631989,669.536011
790.559998,380.640015,669.536011
798.367981,335.743988,646.112000
718.335999,304.511993,644.159973
644.159973,310.368011,651.968018
718.335999,265.471985,669.536011
784.703979,259.615997,650.015991
767.135986,322.079987,640.255981
735.903992,343.552002,665.632019
698.815979,247.904007,681.247986
569.984009,87.839996,700.768005
644.159973,142.496002,687.104004
726.143982,304.511993,671.487976
702.719971,353.312012,687.104004
689.056030,400.160004,700.768005
661.728027,439.200012,694.911987
601.216003,642.208008,689.056030
603.168030,960.383972,616.831970
706.624023,772.992004,540.703979
741.760010,283.040009,489.951996
749.567993,189.343994,476.287994
685.151978,208.863998,501.664001
671.487976,171.776001,517.280029
708.575989,212.768005,556.320007
710.528015,296.704010,597.312012
694.911987,353.312012,632.447998
691.007996,388.447998,646.112000
651.968018,495.808014,663.679993
638.304016,667.583984,689.056030
628.544006,650.015991,722.239990
640.255981,554.367981,745.664001
618.783997,575.840027,772.992004
640.255981,603.168030,778.848022
650.015991,607.072021,776.895996
569.984009,630.495972,806.176025
636.351990,564.127991,792.512024
714.432007,527.039978,776.895996
728.096008,605.119995,774.943970
696.864014,628.544006,778.848022
661.728027,601.216003,786.656006
692.960022,569.984009,782.752014
757.375977,599.263977,788.607971
808.127991,663.679993,798.367981
798.367981,751.520020,771.039978
763.231995,663.679993,767.135986
757.375977,386.496002,751.520020
730.047974,263.519989,741.760010
655.872009,527.039978,739.807983
523.135986,735.903992,730.047974
249.856003,538.752014,722.239990
284.992004,620.736023,669.536011
521.184021,1018.943970,603.168030
640.255981,825.695984,566.080017
741.760010,331.839996,568.031982
503.615997,517.280029,620.736023
607.072021,610.976013,632.447998
737.856018,556.320007,651.968018
667.583984,569.984009,677.343994
692.960022,614.880005,704.671997
880.351990,507.519989,724.192017
901.823975,365.023987,761.280029
858.880005,284.992004,815.935974
921.343994,244.000000,868.640015
1032.608032,236.192001,890.112000
1171.199951,144.447998,929.151978
921.343994,269.376007,1018.943970
-1317.599976,872.544006,1177.056030
712.479980,1266.848022,753.471985
1015.039978,1075.552002,745.664001
474.335999,167.871994,735.903992
1022.848022,-310.368011,669.536011
534.848022,347.455994,710.528015
673.440002,841.312012,675.392029
905.728027,564.127991,651.968018
841.312012,349.407990,689.056030
540.703979,421.631989,708.575989
759.328003,519.231995,714.432007
901.823975,548.512024,712.479980
749.567993,527.039978,726.143982
806.176025,433.343994,730.047974
837.408020,427.488007,739.807983
712.479980,347.455994,794.463989
409.920013,-56.608002,849.119995
255.712006,-384.544006,851.072021
769.088013,-23.424000,821.791992
1138.015991,316.223999,823.744019
997.471985,126.879997,874.495972
706.624023,-251.807999,909.632019
302.559998,-573.888000,968.192017
68.320000,-406.015991,991.616028
962.335999,329.888000,829.599976
929.151978,413.824005,825.695984
236.192001,655.872009,839.359985
562.176025,1278.560059,798.367981
763.231995,1424.959961,778.848022
560.223999,1184.864014,776.895996
538.752014,1015.039978,780.799988
759.328003,1097.024048,769.088013
425.536011,1159.488037,808.127991
491.903992,-191.296005,759.328003
798.367981,-763.231995,735.903992
767.135986,-144.447998,786.656006
640.255981,259.615997,827.648010
624.640015,386.496002,856.927979
829.599976,302.559998,872.544006
868.640015,206.912003,907.679993
712.479980,236.192001,962.335999
620.736023,324.032013,989.664001
509.471985,169.824005,974.047974
587.552002,107.360001,936.960022
554.367981,97.599998,911.583984
404.063995,269.376007,907.679993
675.392029,452.864014,860.831970
997.471985,409.920013,831.552002
417.727997,409.920013,831.552002
169.824005,581.695984,880.351990
724.192017,730.047974,831.552002
1056.031982,819.840027,804.223999
1018.943970,802.271973,827.648010
1040.416016,175.679993,847.168030
517.280029,-671.487976,876.447998
-89.792000,-1020.895996,892.064026
-784.703979,167.871994,958.432007
236.192001,1106.784058,849.119995
2071.072021,128.832001,650.015991
347.455994,-439.200012,827.648010
87.839996,208.863998,813.984009
964.288025,628.544006,759.328003
671.487976,380.640015,804.223999
484.096008,142.496002,782.752014
154.207993,-214.720001,802.271973
35.136002,-447.007996,542.656006
730.047974,-702.719971,365.023987
890.112000,-726.143982,320.127991
948.671997,-302.559998,447.007996
952.575989,-31.232000,575.840027
849.119995,-87.839996,614.880005
726.143982,-247.904007,634.400024
605.119995,-244.000000,673.440002
528.992004,-54.655998,767.135986
568.031982,68.320000,835.455994
605.119995,-66.367996,849.119995
632.447998,-275.231995,806.176025
478.239990,-497.760010,774.943970
353.312012,-325.984009,790.559998
302.559998,517.280029,847.168030
456.768005,917.440002,899.872009
370.880005,562.176025,847.168030
308.415985,329.888000,786.656006
366.976013,519.231995,804.223999
337.696014,735.903992,835.455994
396.256012,743.711975,817.888000
421.631989,616.831970,755.424011
357.216003,585.599976,694.911987
-376.735992,2697.664062,687.104004
546.559998,3501.887939,735.903992
501.664001,1784.128052,702.719971
173.727997,-560.223999,642.208008
733.952026,-1022.848022,614.880005
687.104004,-136.639999,585.599976
312.320007,835.455994,569.984009
484.096008,1229.760010,601.216003
542.656006,710.528015,605.119995
366.976013,136.639999,595.359985
491.903992,60.512001,603.168030
450.911987,542.656006,624.640015
450.911987,694.911987,638.304016
448.959991,509.471985,646.112000
345.503998,316.223999,646.112000
476.287994,316.223999,661.728027
691.007996,448.959991,669.536011
341.600006,620.736023,653.919983
-35.136002,556.320007,673.440002
370.880005,189.343994,724.192017
484.096008,208.863998,741.760010
802.271973,335.743988,720.288025
497.760010,638.304016,669.536011
58.560001,726.143982,689.056030
-281.088013,464.575989,743.711975
521.184021,-327.936005,800.320007
331.839996,80.031998,747.616028
605.119995,616.831970,698.815979
523.135986,1003.328003,685.151978
456.768005,825.695984,657.823975
115.167999,64.416000,650.015991
404.063995,-158.112000,669.536011
312.320007,325.984009,683.200012
421.631989,624.640015,644.159973
318.175995,657.823975,599.263977
320.127991,497.760010,583.648010
247.904007,402.112000,630.495972
148.352005,314.272003,646.112000
181.535995,263.519989,620.736023
269.376007,550.463989,597.312012
255.712006,790.559998,583.648010
249.856003,646.112000,575.840027
179.584000,372.832001,581.695984
218.623993,261.567993,573.888000
228.384003,450.911987,571.935974
191.296005,689.056030,552.416016
-7.808000,706.624023,568.031982
203.007996,409.920013,595.359985
103.456001,489.951996,587.552002
87.839996,661.728027,579.744019
115.167999,704.671997,579.744019
152.255997,622.687988,569.984009
132.735992,599.263977,552.416016
189.343994,548.512024,550.463989
220.576004,511.424011,528.992004
259.615997,556.320007,499.712006
310.368011,595.359985,486.048004
343.552002,593.408020,474.335999
327.936005,589.504028,450.911987
269.376007,579.744019,443.104004
234.240005,519.231995,458.720001
232.287994,466.528015,456.768005
210.815994,489.951996,454.816010
224.479996,521.184021,454.816010
242.048004,509.471985,445.056000
230.335999,456.768005,445.056000
234.240005,441.152008,441.152008
234.240005,437.247986,437.247986
253.759995,443.104004,447.007996
249.856003,466.528015,443.104004
245.951996,454.816010,447.007996
247.904007,417.727997,447.007996
222.528000,372.832001,441.152008
220.576004,361.119995,445.056000
206.912003,370.880005,445.056000
199.104004,374.783997,441.152008
191.296005,368.928009,443.104004
197.151993,341.600006,456.768005
195.199997,320.127991,462.623993
208.863998,339.648010,468.480011
210.815994,366.976013,468.480011
220.576004,365.023987,460.671997
232.287994,343.552002,470.432007
240.095993,327.936005,472.384003
238.143997,322.079987,476.287994
234.240005,316.223999,488.000000
247.904007,294.752014,503.615997
249.856003,265.471985,538.752014
255.712006,245.951996,550.463989
255.712006,220.576004,577.791992
259.615997,204.960007,620.736023
263.519989,177.632004,650.015991
283.040009,148.352005,665.632019
292.799988,117.120003,694.911987
314.272003,89.792000,716.383972
327.936005,68.320000,749.567993
347.455994,48.799999,767.135986
355.264008,37.088001,778.848022
361.119995,23.424000,788.607971
345.503998,9.760000,794.463989
333.791992,11.712000,802.271973
318.175995,37.088001,812.031982
316.223999,81.984001,821.791992
310.368011,119.071999,817.888000
314.272003,146.399994,815.935974
294.752014,179.584000,833.504028
290.847992,222.528000,839.359985
288.895996,275.231995,847.168030
290.847992,302.559998,853.023987
304.511993,306.463989,854.976013
304.511993,333.791992,851.072021
318.175995,368.928009,872.544006
316.223999,365.023987,878.400024
318.175995,335.743988,888.159973
322.079987,353.312012,895.968018
325.984009,349.407990,905.728027
331.839996,335.743988,921.343994
327.936005,300.608002,938.911987
329.888000,308.415985,954.528015
327.936005,308.415985,960.383972
312.320007,290.847992,960.383972
320.127991,273.279999,976.000000
322.079987,261.567993,985.760010
322.079987,257.664001,991.616028
325.984009,242.048004,999.424011
329.888000,226.432007,1001.375977
327.936005,206.912003,993.567993
320.127991,199.104004,991.616028
316.223999,208.863998,983.807983
322.079987,195.199997,981.856018
320.127991,189.343994,979.903992
314.272003,187.391998,962.335999
312.320007,195.199997,940.864014
306.463989,203.007996,935.007996
306.463989,208.863998,933.056030
306.463989,210.815994,929.151978
294.752014,222.528000,913.536011
288.895996,236.192001,903.776001
277.183990,242.048004,901.823975
265.471985,236.192001,897.919983
267.424011,249.856003,892.064026
253.759995,251.807999,872.544006
249.856003,251.807999,872.544006
245.951996,251.807999,866.687988
251.807999,245.951996,870.591980
247.904007,234.240005,870.591980
245.951996,222.528000,870.591980
240.095993,224.479996,860.831970
236.192001,214.720001,851.072021
226.432007,203.007996,853.023987
226.432007,212.768005,853.023987
230.335999,206.912003,837.408020
247.904007,204.960007,849.119995
240.095993,187.391998,835.455994
228.384003,204.960007,835.455994
228.384003,210.815994,833.504028
218.623993,214.720001,823.744019
218.623993,214.720001,833.504028
224.479996,224.479996,827.648010
378.687988,255.712006,829.599976
400.160004,265.471985,815.935974
169.824005,249.856003,821.791992
249.856003,277.183990,837.408020
238.143997,331.839996,858.880005
283.040009,407.967987,858.880005
271.328003,374.783997,854.976013
230.335999,302.559998,853.023987
197.151993,382.592010,843.263977
257.664001,429.440002,843.263977
242.048004,390.399994,823.744019
259.615997,366.976013,810.080017
253.759995,347.455994,804.223999
220.576004,310.368011,798.367981
208.863998,345.503998,792.512024
195.199997,357.216003,798.367981
212.768005,281.088013,794.463989
232.287994,234.240005,788.607971
247.904007,226.432007,780.799988
234.240005,244.000000,771.039978
214.720001,204.960007,771.039978
204.960007,175.679993,767.135986
195.199997,191.296005,769.088013
201.056000,204.960007,765.184021
199.104004,201.056000,771.039978
212.768005,193.248001,763.231995
183.488007,210.815994,759.328003
193.248001,236.192001,753.471985
107.360001,210.815994,759.328003
148.352005,187.391998,769.088013
121.024002,189.343994,774.943970
167.871994,222.528000,784.703979
195.199997,234.240005,761.280029
222.528000,199.104004,759.328003
251.807999,208.863998,751.520020
251.807999,214.720001,745.664001
224.479996,236.192001,753.471985
191.296005,226.432007,763.231995
195.199997,238.143997,769.088013
232.287994,238.143997,774.943970
267.424011,232.287994,769.088013
292.799988,242.048004,763.231995
298.656006,277.183990,778.848022
308.415985,283.040009,782.752014
304.511993,265.471985,780.799988
337.696014,271.328003,776.895996
337.696014,333.791992,774.943970
331.839996,345.503998,790.559998
292.799988,335.743988,800.320007
304.511993,333.791992,813.984009
306.463989,339.648010,821.791992
314.272003,349.407990,812.031982
331.839996,339.648010,819.840027
365.023987,316.223999,821.791992
365.023987,294.752014,821.791992
361.119995,304.511993,823.744019
359.167999,314.272003,821.791992
355.264008,298.656006,815.935974
359.167999,294.752014,833.504028
366.976013,298.656006,829.599976
365.023987,292.799988,829.599976
363.071991,306.463989,833.504028
365.023987,316.223999,839.359985
361.119995,312.320007,847.168030
359.167999,327.936005,847.168030
384.544006,327.936005,864.736023
376.735992,333.791992,866.687988
386.496002,335.743988,862.783997
384.544006,329.888000,868.640015
374.783997,333.791992,874.495972
370.880005,353.312012,880.351990
372.832001,359.167999,880.351990
376.735992,351.359985,874.495972
374.783997,361.119995,866.687988
380.640015,366.976013,868.640015
380.640015,376.735992,862.783997
370.880005,376.735992,866.687988
366.976013,372.832001,866.687988
365.023987,370.880005,866.687988
372.832001,366.976013,858.880005
370.880005,361.119995,854.976013
366.976013,353.312012,858.880005
357.216003,370.880005,862.783997
339.648010,374.783997,860.831970
341.600006,361.119995,854.976013
339.648010,357.216003,849.119995
339.648010,355.264008,854.976013
337.696014,357.216003,845.216003
325.984009,349.407990,837.408020
320.127991,361.119995,835.455994
316.223999,365.023987,845.216003
310.368011,365.023987,837.408020
308.415985,359.167999,835.455994
306.463989,370.880005,825.695984
306.463989,372.832001,821.791992
281.088013,370.880005,819.840027
277.183990,376.735992,808.127991
265.471985,368.928009,812.031982
269.376007,370.880005,802.271973
257.664001,376.735992,792.512024
257.664001,366.976013,788.607971
265.471985,359.167999,782.752014
259.615997,363.071991,769.088013
255.712006,365.023987,774.943970
240.095993,361.119995,769.088013
234.240005,359.167999,765.184021
220.576004,363.071991,757.375977
220.576004,357.216003,763.231995
204.960007,361.119995,751.520020
203.007996,351.359985,747.616028
187.391998,347.455994,730.047974
189.343994,355.264008,726.143982
179.584000,349.407990,730.047974
181.535995,361.119995,728.096008
169.824005,351.359985,728.096008
169.824005,347.455994,720.288025
158.112000,345.503998,710.528015
165.919998,343.552002,712.479980
158.112000,339.648010,712.479980
163.968002,325.984009,702.719971
160.063995,337.696014,704.671997
160.063995,333.791992,708.575989
158.112000,327.936005,700.768005
152.255997,320.127991,696.864014
162.016006,333.791992,694.911987
144.447998,337.696014,696.864014
148.352005,337.696014,691.007996
152.255997,329.888000,694.911987
150.304001,324.032013,685.151978
146.399994,331.839996,679.296021
150.304001,324.032013,675.392029
150.304001,325.984009,681.247986
156.160004,322.079987,681.247986
160.063995,316.223999,671.487976
160.063995,325.984009,673.440002
169.824005,327.936005,665.632019
158.112000,320.127991,667.583984
160.063995,318.175995,663.679993
162.016006,312.320007,659.776001
167.871994,316.223999,673.440002
154.207993,316.223999,659.776001
156.160004,312.320007,659.776001
162.016006,320.127991,648.064026
156.160004,312.320007,659.776001
169.824005,312.320007,653.919983
169.824005,304.511993,644.159973
173.727997,304.511993,636.351990
167.871994,306.463989,651.968018
171.776001,304.511993,653.919983
173.727997,298.656006,651.968018
167.871994,294.752014,648.064026
165.919998,294.752014,653.919983
177.632004,288.895996,644.159973
179.584000,298.656006,642.208008
181.535995,294.752014,651.968018
179.584000,284.992004,653.919983
193.248001,281.088013,648.064026
191.296005,275.231995,650.015991
191.296005,286.944000,650.015991
193.248001,279.135986,655.872009
193.248001,284.992004,655.872009
189.343994,271.328003,651.968018
191.296005,279.135986,650.015991
191.296005,279.135986,650.015991
197.151993,275.231995,650.015991
208.863998,271.328003,648.064026
206.912003,273.279999,642.208008
210.815994,275.231995,651.968018
203.007996,279.135986,650.015991
214.720001,275.231995,646.112000
218.623993,265.471985,661.728027
214.720001,263.519989,655.872009
218.623993,269.376007,657.823975
226.432007,275.231995,659.776001
234.240005,259.615997,659.776001
247.904007,263.519989,663.679993
253.759995,257.664001,675.392029
261.567993,251.807999,663.679993
265.471985,249.856003,683.200012
283.040009,236.192001,694.911987
279.135986,224.479996,704.671997
296.704010,222.528000,710.528015
290.847992,218.623993,720.288025
296.704010,216.671997,724.192017
300.608002,218.623993,735.903992
314.272003,216.671997,751.520020
322.079987,216.671997,749.567993
324.032013,212.768005,755.424011
320.127991,224.479996,771.039978
333.791992,214.720001,772.992004
333.791992,216.671997,776.895996
339.648010,218.623993,790.559998
341.600006,232.287994,780.799988
349.407990,230.335999,782.752014
359.167999,232.287994,794.463989
361.119995,228.384003,788.607971
361.119995,234.240005,808.127991
363.071991,228.384003,798.367981
368.928009,228.384003,800.320007
376.735992,236.192001,798.367981
370.880005,224.479996,796.416016
382.592010,222.528000,792.512024
382.592010,220.576004,798.367981
378.687988,210.815994,808.127991
402.112000,201.056000,806.176025
398.208008,185.440002,815.935974
402.112000,171.776001,817.888000
411.872009,181.535995,827.648010
417.727997,171.776001,829.599976
419.679993,162.016006,835.455994
435.295990,156.160004,847.168030
439.200012,154.207993,847.168030
435.295990,165.919998,862.783997
447.007996,158.112000,856.927979
447.007996,160.063995,856.927979
454.816010,167.871994,858.880005
452.864014,169.824005,854.976013
450.911987,171.776001,853.023987
460.671997,181.535995,851.072021
462.623993,187.391998,853.023987
452.864014,197.151993,847.168030
454.816010,199.104004,845.216003
464.575989,187.391998,853.023987
472.384003,195.199997,847.168030
472.384003,187.391998,849.119995
476.287994,189.343994,851.072021
486.048004,171.776001,860.831970
482.144012,179.584000,860.831970
488.000000,173.727997,866.687988
501.664001,163.968002,888.159973
495.808014,162.016006,890.112000
499.712006,156.160004,886.208008
493.855988,152.255997,890.112000
495.808014,142.496002,892.064026
509.471985,140.544006,897.919983
505.567993,144.447998,890.112000
503.615997,140.544006,884.255981
505.567993,140.544006,899.872009
509.471985,148.352005,886.208008
509.471985,158.112000,882.304016
505.567993,158.112000,882.304016
511.424011,171.776001,886.208008
505.567993,175.679993,876.447998
501.664001,179.584000,872.544006
501.664001,179.584000,876.447998
501.664001,187.391998,874.495972
499.712006,189.343994,866.687988
499.712006,181.535995,858.880005
505.567993,185.440002,854.976013
509.471985,175.679993,868.640015
511.424011,169.824005,862.783997
503.615997,162.016006,864.736023
501.664001,171.776001,866.687988
499.712006,167.871994,872.544006
491.903992,158.112000,870.591980
501.664001,152.255997,878.400024
503.615997,158.112000,870.591980
501.664001,158.112000,866.687988
495.808014,160.063995,851.072021
499.712006,160.063995,858.880005
491.903992,163.968002,860.831970
491.903992,169.824005,862.783997
491.903992,165.919998,862.783997
491.903992,173.727997,860.831970
489.951996,167.871994,853.023987
491.903992,173.727997,856.927979
489.951996,179.584000,858.880005
484.096008,181.535995,862.783997
491.903992,189.343994,866.687988
488.000000,187.391998,856.927979
495.808014,189.343994,864.736023
486.048004,183.488007,858.880005
488.000000,189.343994,860.831970
486.048004,187.391998,864.736023
484.096008,187.391998,872.544006
486.048004,187.391998,864.736023
484.096008,187.391998,874.495972
476.287994,183.488007,872.544006
478.239990,181.535995,874.495972
470.432007,181.535995,868.640015
466.528015,177.632004,862.783997
460.671997,173.727997,854.976013
460.671997,175.679993,860.831970
456.768005,169.824005,862.783997
452.864014,169.824005,851.072021
452.864014,181.535995,841.312012
443.104004,167.871994,835.455994
448.959991,163.968002,835.455994
443.104004,169.824005,827.648010
429.440002,173.727997,817.888000
425.536011,167.871994,815.935974
427.488007,160.063995,815.935974
423.584015,160.063995,819.840027
423.584015,169.824005,806.176025
423.584015,177.632004,810.080017
413.824005,177.632004,812.031982
415.776001,175.679993,812.031982
413.824005,163.968002,808.127991
411.872009,167.871994,806.176025
415.776001,173.727997,813.984009
411.872009,165.919998,806.176025
415.776001,175.679993,817.888000
417.727997,167.871994,813.984009
417.727997,169.824005,813.984009
411.872009,171.776001,813.984009
415.776001,171.776001,815.935974
411.872009,167.871994,804.223999
409.920013,165.919998,808.127991
421.631989,162.016006,806.176025
419.679993,167.871994,821.791992
419.679993,169.824005,813.984009
417.727997,167.871994,808.127991
421.631989,160.063995,813.984009
415.776001,162.016006,817.888000
423.584015,165.919998,810.080017
413.824005,162.016006,813.984009
423.584015,162.016006,808.127991
423.584015,163.968002,808.127991
423.584015,162.016006,813.984009
419.679993,163.968002,808.127991
419.679993,163.968002,810.080017
427.488007,162.016006,810.080017
417.727997,160.063995,817.888000
423.584015,169.824005,821.791992
421.631989,173.727997,812.031982
417.727997,167.871994,808.127991
435.295990,171.776001,812.031982
433.343994,165.919998,817.888000
433.343994,171.776001,810.080017
433.343994,171.776001,806.176025
439.200012,179.584000,804.223999
437.247986,177.632004,812.031982
439.200012,181.535995,808.127991
443.104004,171.776001,810.080017
443.104004,163.968002,804.223999
435.295990,171.776001,806.176025
443.104004,173.727997,804.223999
439.200012,179.584000,796.416016
450.911987,185.440002,806.176025
452.864014,169.824005,794.463989
448.959991,163.968002,792.512024
460.671997,169.824005,794.463989
458.720001,169.824005,800.320007
452.864014,165.919998,802.271973
460.671997,163.968002,786.656006
466.528015,160.063995,802.271973
462.623993,169.824005,786.656006
482.144012,162.016006,804.223999
474.335999,152.255997,792.512024
476.287994,158.112000,792.512024
480.191986,160.063995,794.463989
488.000000,158.112000,800.320007
484.096008,163.968002,796.416016
499.712006,160.063995,798.367981
499.712006,158.112000,794.463989
491.903992,160.063995,802.271973
497.760010,154.207993,800.320007
499.712006,173.727997,804.223999
507.519989,177.632004,802.271973
515.328003,171.776001,802.271973
519.231995,179.584000,800.320007
521.184021,173.727997,800.320007
530.943970,173.727997,808.127991
528.992004,177.632004,810.080017
536.799988,173.727997,802.271973
538.752014,173.727997,808.127991
550.463989,173.727997,808.127991
538.752014,163.968002,815.935974
552.416016,169.824005,819.840027
548.512024,171.776001,812.031982
554.367981,177.632004,804.223999
566.080017,181.535995,817.888000
562.176025,169.824005,808.127991
571.935974,167.871994,821.791992
579.744019,163.968002,810.080017
583.648010,158.112000,815.935974
585.599976,163.968002,812.031982
587.552002,169.824005,810.080017
591.455994,160.063995,812.031982
595.359985,160.063995,808.127991
597.312012,154.207993,810.080017
595.359985,165.919998,810.080017
595.359985,160.063995,813.984009
607.072021,154.207993,808.127991
609.023987,148.352005,806.176025
609.023987,154.207993,806.176025
605.119995,154.207993,812.031982
614.880005,158.112000,804.223999
609.023987,146.399994,810.080017
614.880005,148.352005,808.127991
618.783997,140.544006,806.176025
607.072021,144.447998,800.320007
610.976013,142.496002,804.223999
609.023987,152.255997,810.080017
618.783997,138.591995,806.176025
616.831970,140.544006,817.888000
609.023987,142.496002,810.080017
614.880005,148.352005,808.127991
614.880005,148.352005,810.080017
607.072021,148.352005,810.080017
605.119995,136.639999,802.271973
607.072021,150.304001,806.176025
607.072021,144.447998,808.127991
603.168030,148.352005,806.176025
601.216003,142.496002,804.223999
599.263977,142.496002,806.176025
597.312012,140.544006,802.271973
595.359985,138.591995,798.367981
591.455994,130.783997,788.607971
597.312012,134.688004,800.320007
595.359985,138.591995,792.512024
603.168030,126.879997,798.367981
589.504028,130.783997,792.512024
593.408020,124.928001,794.463989
589.504028,132.735992,792.512024
593.408020,124.928001,796.416016
587.552002,130.783997,794.463989
585.599976,132.735992,798.367981
593.408020,124.928001,794.463989
585.599976,136.639999,792.512024
581.695984,128.832001,786.656006
587.552002,132.735992,792.512024
577.791992,136.639999,790.559998
583.648010,138.591995,786.656006
579.744019,136.639999,784.703979
583.648010,140.544006,782.752014
575.840027,140.544006,788.607971
575.840027,148.352005,780.799988
577.791992,146.399994,784.703979
569.984009,138.591995,784.703979
571.935974,150.304001,778.848022
575.840027,142.496002,784.703979
575.840027,146.399994,790.559998
573.888000,148.352005,784.703979
581.695984,148.352005,782.752014
577.791992,136.639999,788.607971
581.695984,150.304001,792.512024
583.648010,148.352005,784.703979
577.791992,154.207993,786.656006
589.504028,144.447998,792.512024
589.504028,148.352005,784.703979
599.263977,150.304001,784.703979
599.263977,158.112000,780.799988
593.408020,154.207993,782.752014
595.359985,158.112000,782.752014
607.072021,146.399994,790.559998
603.168030,148.352005,790.559998
603.168030,162.016006,786.656006
607.072021,160.063995,784.703979
607.072021,165.919998,786.656006
614.880005,167.871994,782.752014
616.831970,160.063995,782.752014
609.023987,156.160004,786.656006
616.831970,165.919998,778.848022
622.687988,171.776001,778.848022
624.640015,177.632004,778.848022
632.447998,173.727997,782.752014
630.495972,171.776001,774.943970
638.304016,187.391998,774.943970
640.255981,185.440002,778.848022
646.112000,187.391998,778.848022
646.112000,189.343994,784.703979
642.208008,189.343994,780.799988
648.064026,189.343994,772.992004
657.823975,183.488007,780.799988
655.872009,187.391998,782.752014
661.728027,201.056000,776.895996
661.728027,201.056000,778.848022
663.679993,195.199997,772.992004
667.583984,199.104004,778.848022
671.487976,191.296005,778.848022
667.583984,206.912003,772.992004
671.487976,199.104004,769.088013
679.296021,191.296005,772.992004
683.200012,199.104004,774.943970
683.200012,187.391998,763.231995
685.151978,206.912003,771.039978
683.200012,197.151993,767.135986
691.007996,201.056000,765.184021
692.960022,210.815994,767.135986
692.960022,206.912003,771.039978
689.056030,204.960007,763.231995
692.960022,203.007996,765.184021
694.911987,203.007996,765.184021
700.768005,208.863998,763.231995
691.007996,203.007996,771.039978
687.104004,204.960007,776.895996
696.864014,212.768005,774.943970
689.056030,214.720001,772.992004
692.960022,208.863998,767.135986
681.247986,206.912003,771.039978
689.056030,214.720001,767.135986
687.104004,220.576004,763.231995
689.056030,220.576004,765.184021
687.104004,224.479996,763.231995
689.056030,228.384003,761.280029
683.200012,226.432007,757.375977
679.296021,226.432007,749.567993
681.247986,214.720001,759.328003
685.151978,218.623993,751.520020
677.343994,224.479996,749.567993
673.440002,222.528000,755.424011
675.392029,224.479996,753.471985
671.487976,232.287994,751.520020
673.440002,236.192001,743.711975
671.487976,240.095993,745.664001
663.679993,234.240005,747.616028
665.632019,244.000000,743.711975
675.392029,238.143997,741.760010
673.440002,238.143997,739.807983
671.487976,244.000000,735.903992
679.296021,242.048004,741.760010
667.583984,238.143997,739.807983
675.392029,242.048004,732.000000
671.487976,236.192001,733.952026
681.247986,240.095993,737.856018
681.247986,238.143997,733.952026
689.056030,236.192001,726.143982
691.007996,234.240005,733.952026
691.007996,230.335999,732.000000
694.911987,244.000000,741.760010
692.960022,240.095993,732.000000
687.104004,244.000000,728.096008
687.104004,244.000000,732.000000
696.864014,234.240005,739.807983
696.864014,244.000000,737.856018
694.911987,238.143997,733.952026
700.768005,242.048004,728.096008
691.007996,234.240005,732.000000
698.815979,240.095993,726.143982
700.768005,253.759995,733.952026
708.575989,255.712006,743.711975
710.528015,263.519989,737.856018
716.383972,265.471985,726.143982
720.288025,245.951996,741.760010
726.143982,257.664001,741.760010
732.000000,257.664001,745.664001
735.903992,269.376007,741.760010
739.807983,271.328003,733.952026
737.856018,273.279999,733.952026
747.616028,265.471985,751.520020
745.664001,271.328003,745.664001
747.616028,261.567993,741.760010
716.383972,263.519989,751.520020
722.239990,259.615997,755.424011
749.567993,236.192001,751.520020
769.088013,204.960007,751.520020
776.895996,191.296005,743.711975
778.848022,204.960007,755.424011
767.135986,224.479996,759.328003
761.280029,244.000000,751.520020
761.280029,257.664001,765.184021
753.471985,251.807999,765.184021
751.520020,242.048004,771.039978
741.760010,253.759995,765.184021
739.807983,265.471985,753.471985
745.664001,267.424011,761.280029
771.039978,257.664001,757.375977
761.280029,240.095993,755.424011
767.135986,228.384003,755.424011
757.375977,251.807999,755.424011
755.424011,253.759995,767.135986
735.903992,253.759995,757.375977
728.096008,242.048004,755.424011
732.000000,226.432007,753.471985
726.143982,212.768005,755.424011
724.192017,212.768005,753.471985
724.192017,220.576004,730.047974
716.383972,210.815994,745.664001
716.383972,214.720001,741.760010
714.432007,208.863998,741.760010
710.528015,201.056000,735.903992
710.528015,193.248001,732.000000
700.768005,195.199997,728.096008
708.575989,199.104004,732.000000
708.575989,204.960007,726.143982
710.528015,191.296005,724.192017
710.528015,185.440002,726.143982
716.383972,181.535995,728.096008
698.815979,185.440002,724.192017
694.911987,187.391998,724.192017
696.864014,183.488007,716.383972
691.007996,187.391998,716.383972
689.056030,175.679993,712.479980
689.056030,175.679993,700.768005
696.864014,179.584000,698.815979
692.960022,185.440002,696.864014
700.768005,179.584000,694.911987
692.960022,181.535995,692.960022
694.911987,169.824005,689.056030
694.911987,158.112000,694.911987
696.864014,162.016006,687.104004
692.960022,167.871994,685.151978
689.056030,154.207993,681.247986
696.864014,156.160004,673.440002
689.056030,146.399994,667.583984
694.911987,152.255997,675.392029
691.007996,152.255997,681.247986
691.007996,158.112000,677.343994
679.296021,150.304001,667.583984
687.104004,150.304001,671.487976
692.960022,150.304001,659.776001
692.960022,152.255997,661.728027
687.104004,150.304001,665.632019
696.864014,142.496002,661.728027
698.815979,142.496002,659.776001
694.911987,142.496002,657.823975
700.768005,148.352005,665.632019
704.671997,144.447998,659.776001
698.815979,136.639999,657.823975
708.575989,142.496002,655.872009
708.575989,148.352005,659.776001
702.719971,148.352005,667.583984
708.575989,150.304001,659.776001
704.671997,150.304001,677.343994
704.671997,146.399994,667.583984
710.528015,142.496002,663.679993
708.575989,140.544006,665.632019
716.383972,146.399994,651.968018
716.383972,150.304001,667.583984
712.479980,148.352005,663.679993
712.479980,142.496002,665.632019
710.528015,142.496002,663.679993
716.383972,136.639999,669.536011
724.192017,126.879997,673.440002
716.383972,124.928001,673.440002
710.528015,121.024002,665.632019
708.575989,134.688004,665.632019
704.671997,128.832001,675.392029
702.719971,128.832001,671.487976
714.432007,132.735992,673.440002
712.479980,128.832001,679.296021
704.671997,136.639999,675.392029
698.815979,128.832001,675.392029
696.864014,136.639999,671.487976
692.960022,138.591995,669.536011
694.911987,138.591995,661.728027
691.007996,152.255997,653.919983
692.960022,146.399994,653.919983
694.911987,154.207993,659.776001
683.200012,152.255997,648.064026
677.343994,152.255997,644.159973
679.296021,148.352005,646.112000
679.296021,154.207993,640.255981
677.343994,148.352005,626.591980
671.487976,142.496002,638.304016
679.296021,146.399994,624.640015
677.343994,152.255997,624.640015
679.296021,148.352005,628.544006
675.392029,142.496002,628.544006
679.296021,142.496002,630.495972
691.007996,156.160004,624.640015
691.007996,144.447998,622.687988
687.104004,136.639999,628.544006
692.960022,132.735992,626.591980
696.864014,130.783997,630.495972
694.911987,138.591995,620.736023
698.815979,130.783997,628.544006
702.719971,128.832001,620.736023
704.671997,121.024002,630.495972
714.432007,121.024002,628.544006
714.432007,115.167999,626.591980
716.383972,113.216003,632.447998
724.192017,113.216003,634.400024
732.000000,113.216003,644.159973
726.143982,101.503998,646.112000
735.903992,103.456001,632.447998
730.047974,85.888000,638.304016
726.143982,91.744003,644.159973
732.000000,101.503998,640.255981
751.520020,91.744003,638.304016
763.231995,66.367996,634.400024
769.088013,64.416000,640.255981
767.135986,66.367996,632.447998
772.992004,70.272003,636.351990
757.375977,76.127998,634.400024
767.135986,76.127998,628.544006
763.231995,68.320000,630.495972
757.375977,70.272003,622.687988
759.328003,78.080002,628.544006
763.231995,93.695999,622.687988
767.135986,87.839996,612.927979
767.135986,80.031998,618.783997
780.799988,81.984001,609.023987
780.799988,89.792000,614.880005
790.559998,103.456001,628.544006
790.559998,93.695999,618.783997
794.463989,99.552002,618.783997
806.176025,97.599998,616.831970
808.127991,122.975998,626.591980
817.888000,128.832001,630.495972
821.791992,130.783997,632.447998
823.744019,126.879997,636.351990
841.312012,136.639999,646.112000
843.263977,144.447998,651.968018
847.168030,152.255997,650.015991
858.880005,148.352005,659.776001
860.831970,152.255997,663.679993
866.687988,163.968002,673.440002
880.351990,169.824005,679.296021
892.064026,163.968002,685.151978
884.255981,165.919998,689.056030
890.112000,160.063995,694.911987
897.919983,167.871994,704.671997
901.823975,163.968002,704.671997
909.632019,165.919998,708.575989
919.392029,167.871994,712.479980
913.536011,167.871994,710.528015
929.151978,167.871994,712.479980
935.007996,167.871994,712.479980
931.104004,173.727997,708.575989
927.200012,160.063995,710.528015
927.200012,171.776001,702.719971
940.864014,173.727997,706.624023
936.960022,169.824005,716.383972
942.815979,171.776001,716.383972
944.768005,177.632004,704.671997
940.864014,173.727997,708.575989
936.960022,175.679993,714.432007
942.815979,177.632004,704.671997
944.768005,179.584000,704.671997
940.864014,169.824005,698.815979
946.719971,177.632004,696.864014
942.815979,177.632004,692.960022
940.864014,167.871994,696.864014
938.911987,160.063995,691.007996
938.911987,171.776001,696.864014
933.056030,175.679993,692.960022
927.200012,167.871994,687.104004
935.007996,167.871994,685.151978
935.007996,169.824005,681.247986
933.056030,169.824005,681.247986
915.487976,171.776001,671.487976
913.536011,173.727997,677.343994
915.487976,162.016006,679.296021
907.679993,173.727997,663.679993
909.632019,169.824005,663.679993
905.728027,163.968002,671.487976
890.112000,173.727997,673.440002
890.112000,165.919998,667.583984
884.255981,165.919998,665.632019
880.351990,160.063995,661.728027
876.447998,158.112000,657.823975
880.351990,148.352005,655.872009
864.736023,158.112000,646.112000
864.736023,152.255997,650.015991
860.831970,146.399994,650.015991
847.168030,140.544006,638.304016
845.216003,140.544006,640.255981
839.359985,138.591995,632.447998
841.312012,144.447998,630.495972
831.552002,146.399994,630.495972
825.695984,140.544006,628.544006
817.888000,136.639999,624.640015
813.984009,136.639999,626.591980
804.223999,140.544006,616.831970
810.080017,150.304001,614.880005
796.416016,132.735992,605.119995
792.512024,132.735992,614.880005
784.703979,136.639999,603.168030
776.895996,126.879997,595.359985
772.992004,126.879997,589.504028
782.752014,126.879997,589.504028
772.992004,128.832001,585.599976
767.135986,128.832001,579.744019
761.280029,128.832001,579.744019
759.328003,138.591995,575.840027
761.280029,132.735992,575.840027
759.328003,136.639999,569.984009
755.424011,134.688004,573.888000
759.328003,140.544006,571.935974
743.711975,150.304001,571.935974
749.567993,142.496002,558.271973
747.616028,134.688004,560.223999
737.856018,132.735992,554.367981
733.952026,130.783997,548.512024
730.047974,142.496002,554.367981
732.000000,134.688004,554.367981
730.047974,132.735992,552.416016
735.903992,130.783997,552.416016
733.952026,128.832001,540.703979
728.096008,121.024002,544.607971
730.047974,122.975998,548.512024
724.192017,128.832001,544.607971
735.903992,126.879997,544.607971
726.143982,115.167999,536.799988
718.335999,103.456001,536.799988
724.192017,99.552002,540.703979
722.239990,103.456001,540.703979
724.192017,93.695999,534.848022
722.239990,99.552002,538.752014
728.096008,87.839996,536.799988
739.807983,87.839996,525.088013
730.047974,95.648003,517.280029
714.432007,99.552002,507.519989
706.624023,76.127998,488.000000
698.815979,29.280001,484.096008
698.815979,15.616000,480.191986
685.151978,0.000000,470.432007
679.296021,5.856000,454.816010
679.296021,-19.520000,447.007996
689.056030,-25.375999,443.104004
687.104004,-27.327999,425.536011
692.960022,-35.136002,423.584015
696.864014,-27.327999,415.776001
698.815979,-37.088001,417.727997
700.768005,-40.992001,409.920013
694.911987,-50.751999,409.920013
712.479980,-52.703999,404.063995
704.671997,-52.703999,404.063995
716.383972,-39.040001,394.303986
714.432007,-29.280001,398.208008
714.432007,-31.232000,386.496002
720.288025,-27.327999,396.256012
720.288025,-27.327999,390.399994
722.239990,-21.472000,384.544006
724.192017,-1.952000,382.592010
712.479980,-1.952000,376.735992
716.383972,11.712000,372.832001
718.335999,19.520000,359.167999
710.528015,37.088001,355.264008
706.624023,40.992001,361.119995
710.528015,50.751999,357.216003
716.383972,54.655998,359.167999
724.192017,62.464001,359.167999
722.239990,78.080002,357.216003
716.383972,93.695999,351.359985
714.432007,101.503998,349.407990
728.096008,105.407997,347.455994
708.575989,107.360001,337.696014
712.479980,105.407997,337.696014
728.096008,115.167999,327.936005
730.047974,103.456001,324.032013
749.567993,93.695999,329.888000
747.616028,101.503998,322.079987
743.711975,105.407997,310.368011
739.807983,124.928001,310.368011
757.375977,124.928001,320.127991
761.280029,124.928001,320.127991
784.703979,113.216003,325.984009
798.367981,113.216003,327.936005
817.888000,124.928001,335.743988
823.744019,119.071999,347.455994
831.552002,122.975998,359.167999
833.504028,121.024002,376.735992
839.359985,121.024002,384.544006
843.263977,122.975998,396.256012
847.168030,115.167999,409.920013
860.831970,119.071999,417.727997
858.880005,111.264000,437.247986
872.544006,101.503998,452.864014
878.400024,95.648003,460.671997
899.872009,93.695999,486.048004
903.776001,105.407997,499.712006
913.536011,115.167999,519.231995
915.487976,121.024002,530.943970
923.296021,119.071999,548.512024
921.343994,117.120003,554.367981
936.960022,109.311996,575.840027
929.151978,99.552002,581.695984
933.056030,85.888000,566.080017
919.392029,89.792000,568.031982
931.104004,99.552002,556.320007
935.007996,128.832001,552.416016
950.624023,130.783997,554.367981
948.671997,115.167999,550.463989
948.671997,97.599998,556.320007
931.104004,95.648003,540.703979
942.815979,95.648003,536.799988
938.911987,99.552002,519.231995
940.864014,95.648003,501.664001
936.960022,99.552002,489.951996
938.911987,91.744003,482.144012
948.671997,83.935997,474.335999
954.528015,80.031998,466.528015
936.960022,70.272003,460.671997
946.719971,80.031998,452.864014
946.719971,93.695999,445.056000
938.911987,91.744003,443.104004
936.960022,95.648003,452.864014
942.815979,87.839996,450.911987
944.768005,85.888000,454.816010
976.000000,95.648003,460.671997
1009.184021,107.360001,458.720001
991.616028,97.599998,462.623993
1022.848022,117.120003,468.480011
1001.375977,132.735992,462.623993
1013.088013,144.447998,472.384003
1011.135986,124.928001,472.384003
1001.375977,111.264000,486.048004
995.520020,89.792000,501.664001
993.567993,81.984001,509.471985
989.664001,78.080002,530.943970
981.856018,50.751999,562.176025
981.856018,44.896000,579.744019
979.903992,39.040001,595.359985
976.000000,35.136002,607.072021
972.096008,46.848000,636.351990
968.192017,37.088001,657.823975
974.047974,27.327999,671.487976
976.000000,15.616000,683.200012
999.424011,19.520000,708.575989
989.664001,5.856000,698.815979
983.807983,9.760000,704.671997
979.903992,19.520000,714.432007
989.664001,27.327999,714.432007
981.856018,31.232000,718.335999
962.335999,35.136002,716.383972
960.383972,37.088001,706.624023
944.768005,11.712000,710.528015
958.432007,5.856000,706.624023
946.719971,-27.327999,696.864014
942.815979,-44.896000,679.296021
942.815979,-70.272003,665.632019
935.007996,-80.031998,653.919983
927.200012,-83.935997,626.591980
929.151978,-87.839996,597.312012
919.392029,-89.792000,579.744019
890.112000,-185.440002,556.320007
895.968018,-286.944000,564.127991
866.687988,-95.648003,519.231995
892.064026,290.847992,466.528015
860.831970,413.824005,437.247986
835.455994,353.312012,406.015991
862.783997,179.584000,359.167999
858.880005,251.807999,327.936005
849.119995,413.824005,318.175995
817.888000,259.615997,316.223999
849.119995,39.040001,288.895996
847.168030,97.599998,267.424011
839.359985,175.679993,245.951996
845.216003,11.712000,259.615997
841.312012,-105.407997,257.664001
847.168030,5.856000,283.040009
833.504028,74.176003,296.704010
841.312012,-3.904000,310.368011
860.831970,-70.272003,296.704010
860.831970,-50.751999,300.608002
856.927979,-19.520000,304.511993
856.927979,-19.520000,300.608002
847.168030,-29.280001,302.559998
849.119995,-29.280001,300.608002
839.359985,-19.520000,300.608002
835.455994,-17.568001,288.895996
847.168030,-25.375999,286.944000
845.216003,-29.280001,283.040009
853.023987,-25.375999,275.231995
847.168030,-5.856000,257.664001
858.880005,-7.808000,257.664001
864.736023,-1.952000,247.904007
868.640015,-3.904000,244.000000
862.783997,3.904000,218.623993
862.783997,1.952000,199.104004
853.023987,13.664000,201.056000
853.023987,13.664000,191.296005
851.072021,17.568001,185.440002
856.927979,21.472000,171.776001
860.831970,33.183998,173.727997
860.831970,25.375999,162.016006
868.640015,15.616000,162.016006
866.687988,21.472000,156.160004
870.591980,19.520000,144.447998
882.304016,35.136002,140.544006
884.255981,33.183998,140.544006
892.064026,27.327999,142.496002
897.919983,35.136002,148.352005
913.536011,48.799999,148.352005
909.632019,44.896000,160.063995
909.632019,21.472000,144.447998
897.919983,19.520000,150.304001
913.536011,37.088001,158.112000
976.000000,62.464001,162.016006
888.159973,0.000000,150.304001
831.552002,39.040001,136.639999
829.599976,189.343994,126.879997
854.976013,201.056000,109.311996
876.447998,121.024002,97.599998
903.776001,50.751999,99.552002
882.304016,40.992001,93.695999
901.823975,128.832001,97.599998
935.007996,148.352005,105.407997
917.440002,99.552002,99.552002
907.679993,81.984001,93.695999
927.200012,117.120003,103.456001
936.960022,148.352005,99.552002
919.392029,138.591995,111.264000
936.960022,115.167999,105.407997
931.104004,111.264000,113.216003
923.296021,136.639999,111.264000
907.679993,148.352005,119.071999
987.711975,76.127998,138.591995
962.335999,117.120003,152.255997
995.520020,201.056000,158.112000
987.711975,247.904007,179.584000
991.616028,201.056000,191.296005
979.903992,158.112000,201.056000
999.424011,165.919998,216.671997
1003.328003,195.199997,226.432007
1003.328003,179.584000,249.856003
999.424011,162.016006,251.807999
1007.231995,158.112000,269.376007
1015.039978,156.160004,269.376007
1032.608032,132.735992,277.183990
1065.791992,103.456001,300.608002
1057.984009,81.984001,298.656006
763.231995,74.176003,300.608002
821.791992,165.919998,300.608002
1061.887939,203.007996,290.847992
1015.039978,66.367996,271.328003
1138.015991,35.136002,247.904007
1075.552002,132.735992,206.912003
1116.543945,206.912003,210.815994
1036.511963,144.447998,201.056000
960.383972,107.360001,206.912003
1042.368042,167.871994,216.671997
1095.072021,193.248001,222.528000
1128.255981,134.688004,224.479996
1081.407959,101.503998,245.951996
1052.128052,140.544006,259.615997
1073.599976,189.343994,277.183990
1063.839966,162.016006,298.656006
1091.167969,130.783997,310.368011
1157.536011,144.447998,322.079987
1093.119995,193.248001,357.216003
997.471985,749.567993,372.832001
1046.271973,880.351990,376.735992
1081.407959,267.424011,366.976013
1104.832031,-201.056000,365.023987
1143.871948,-83.935997,355.264008
1134.112061,179.584000,368.928009
1056.031982,384.544006,384.544006
1020.895996,351.359985,394.303986
970.143982,39.040001,388.447998
1024.800049,-165.919998,372.832001
997.471985,-134.688004,347.455994
1022.848022,156.160004,333.791992
972.096008,411.872009,329.888000
1077.504028,365.023987,337.696014
1171.199951,60.512001,318.175995
1026.751953,-87.839996,318.175995
1071.647949,91.744003,314.272003
1069.696045,329.888000,325.984009
1067.744019,265.471985,325.984009
1048.223999,19.520000,314.272003
1059.936035,-101.503998,312.320007
1040.416016,56.608002,312.320007
1026.751953,255.712006,324.032013
1220.000000,245.951996,335.743988
1139.968018,113.216003,331.839996
1145.823975,99.552002,363.071991
1233.663940,224.479996,400.160004
1241.472046,214.720001,419.679993
1069.696045,46.848000,448.959991
1286.368042,1.952000,523.135986
1442.527954,152.255997,616.831970
1387.871948,68.320000,681.247986
1458.144043,-78.080002,724.192017
1262.943970,-368.928009,796.416016
1212.192017,-382.592010,927.200012
1307.839966,-93.695999,1024.800049
1227.807983,136.639999,1075.552002
1083.359985,83.935997,1087.264038
1214.144043,-251.807999,1075.552002
1352.735962,-218.623993,1057.984009
1356.640015,-35.136002,1028.703979
1194.624023,9.760000,1013.088013
1151.680054,29.280001,966.239990
1237.567993,-89.792000,923.296021
1399.583984,-128.832001,853.023987
1325.407959,-44.896000,800.320007
1093.119995,-93.695999,769.088013
1042.368042,-427.488007,733.952026
1192.671997,-609.023987,700.768005
1424.959961,-236.192001,651.968018
1385.920044,33.183998,624.640015
1268.800049,-85.888000,610.976013
1382.015991,-185.440002,601.216003
1391.776001,-56.608002,585.599976
1352.735962,-72.223999,579.744019
1327.359985,-132.735992,568.031982
1329.312012,-97.599998,552.416016
1309.791992,-39.040001,556.320007
1307.839966,-48.799999,544.607971
1268.800049,-62.464001,523.135986
1239.520020,-56.608002,525.088013
1190.719971,-146.399994,521.184021
1182.911987,-304.511993,505.567993
1186.816040,-407.967987,505.567993
1247.328003,-411.872009,491.903992
1274.656006,-234.240005,482.144012
1266.848022,-124.928001,472.384003
1235.615967,-165.919998,458.720001
1218.047974,-230.335999,437.247986
1239.520020,-259.615997,421.631989
1235.615967,-240.095993,413.824005
1214.144043,-191.296005,392.351990
1212.192017,-167.871994,382.592010
1212.192017,-183.488007,372.832001
1212.192017,-203.007996,361.119995
1208.287964,-193.248001,349.407990
1198.527954,-167.871994,339.648010
1180.959961,-150.304001,327.936005
1180.959961,-158.112000,325.984009
1173.151978,-162.016006,316.223999
1180.959961,-191.296005,308.415985
1173.151978,-193.248001,288.895996
1153.631958,-189.343994,294.752014
1145.823975,-238.143997,283.040009
1169.248047,-339.648010,277.183990
1173.151978,-359.167999,275.231995
1163.391968,-353.312012,263.519989
1169.248047,-359.167999,255.712006
1159.488037,-388.447998,255.712006
1163.391968,-390.399994,245.951996
1147.776001,-363.071991,244.000000
1134.112061,-372.832001,232.287994
1141.920044,-407.967987,228.384003
1126.303955,-384.544006,226.432007
1134.112061,-329.888000,212.768005
1114.592041,-341.600006,216.671997
1110.687988,-333.791992,204.960007
1110.687988,-329.888000,191.296005
1100.927979,-318.175995,185.440002
1098.975952,-306.463989,169.824005
1089.215942,-294.752014,173.727997
1089.215942,-292.799988,163.968002
1095.072021,-286.944000,154.207993
1083.359985,-288.895996,148.352005
1077.504028,-271.328003,146.399994
1063.839966,-271.328003,136.639999
1069.696045,-271.328003,130.783997
1050.176025,-251.807999,111.264000
1046.271973,-230.335999,101.503998
1034.560059,-216.671997,89.792000
1026.751953,-212.768005,91.744003
1022.848022,-177.632004,83.935997
1026.751953,-144.447998,80.031998
1020.895996,-126.879997,66.367996
1018.943970,-99.552002,58.560001
1015.039978,-66.367996,48.799999
1003.328003,-33.183998,35.136002
991.616028,13.664000,40.992001
989.664001,40.992001,33.183998
985.760010,39.040001,29.280001
999.424011,35.136002,25.375999
1009.184021,40.992001,13.664000
1007.231995,33.183998,11.712000
1026.751953,17.568001,9.760000
1018.943970,-5.856000,15.616000
1001.375977,-9.760000,21.472000
977.952026,-11.712000,15.616000
946.719971,-5.856000,19.520000
946.719971,-23.424000,15.616000
935.007996,-50.751999,29.280001
919.392029,-56.608002,19.520000
952.575989,-80.031998,15.616000
954.528015,-121.024002,9.760000
913.536011,-66.367996,13.664000
905.728027,-7.808000,1.952000
862.783997,-111.264000,-17.568001
870.591980,-81.984001,-37.088001
876.447998,13.664000,-40.992001
927.200012,-64.416000,-46.848000
913.536011,-134.688004,-48.799999
1059.936035,-119.071999,-46.848000
993.567993,-242.048004,-50.751999
979.903992,-119.071999,-44.896000
909.632019,78.080002,-42.944000
792.512024,11.712000,-37.088001
808.127991,76.127998,-27.327999
886.208008,-39.040001,-15.616000
936.960022,-208.863998,-15.616000
1028.703979,1.952000,7.808000
983.807983,25.375999,37.088001
1038.463989,-136.639999,83.935997
1061.887939,-189.343994,113.216003
1030.656006,-119.071999,146.399994
981.856018,-11.712000,175.679993
919.392029,42.944000,212.768005
938.911987,29.280001,244.000000
979.903992,-72.223999,265.471985
1001.375977,-72.223999,271.328003
1009.184021,11.712000,275.231995
1005.280029,3.904000,294.752014
1005.280029,-72.223999,290.847992
927.200012,-56.608002,327.936005
761.280029,204.960007,716.383972
847.168030,-306.463989,999.424011
1093.119995,-1233.663940,819.840027
1288.319946,-585.599976,769.088013
1383.968018,107.360001,884.255981
1255.135986,-271.328003,919.392029
1294.176025,-692.960022,808.127991
1249.280029,-663.679993,788.607971
1155.583984,-443.104004,749.567993
1102.880005,-247.904007,638.304016
1106.784058,-95.648003,462.623993
1087.264038,-68.320000,322.079987
1024.800049,-91.744003,234.240005
946.719971,13.664000,154.207993
901.823975,163.968002,62.464001
878.400024,204.960007,-35.136002
872.544006,175.679993,-91.744003
872.544006,163.968002,-107.360001
856.927979,162.016006,-81.984001
866.687988,142.496002,-44.896000
884.255981,95.648003,0.000000
886.208008,31.232000,60.512001
851.072021,-11.712000,134.688004
1024.800049,-117.120003,201.056000
1056.031982,-525.088013,212.768005
995.520020,-327.936005,183.488007
888.159973,-148.352005,122.975998
704.671997,-236.192001,-1.952000
790.559998,201.056000,-122.975998
843.263977,251.807999,-171.776001
958.432007,-296.704010,-128.832001
1020.895996,-333.791992,1.952000
1116.543945,197.151993,76.127998
1112.640015,247.904007,74.176003
1079.456055,-19.520000,89.792000
1073.599976,-163.968002,52.703999
1048.223999,-160.063995,3.904000
976.000000,-72.223999,25.375999
968.192017,-74.176003,48.799999
954.528015,-80.031998,25.375999
968.192017,-3.904000,15.616000
989.664001,78.080002,31.232000
997.471985,66.367996,35.136002
946.719971,-85.888000,21.472000
966.239990,-345.503998,62.464001
987.711975,-618.783997,124.928001
1026.751953,-782.752014,140.544006
1057.984009,-655.872009,156.160004
1067.744019,-435.295990,185.440002
1056.031982,-275.231995,175.679993
1022.848022,-195.199997,146.399994
1015.039978,-167.871994,105.407997
997.471985,-160.063995,68.320000
964.288025,-142.496002,35.136002
952.575989,-140.544006,-1.952000
911.583984,-132.735992,-31.232000
901.823975,-113.216003,-54.655998
903.776001,-97.599998,-89.792000
913.536011,-83.935997,-121.024002
882.304016,-124.928001,-154.207993
880.351990,-156.160004,-191.296005
933.056030,-222.528000,-234.240005
833.504028,-255.712006,-279.135986
718.335999,-167.871994,-314.272003
833.504028,-9.760000,-378.687988
825.695984,130.783997,-386.496002
878.400024,165.919998,-378.687988
977.952026,68.320000,-366.976013
1022.848022,-113.216003,-341.600006
989.664001,-281.088013,-314.272003
999.424011,-337.696014,-310.368011
989.664001,-306.463989,-312.320007
933.056030,-181.535995,-298.656006
907.679993,-33.183998,-279.135986
894.015991,148.352005,-294.752014
895.968018,171.776001,-298.656006
929.151978,-97.599998,-281.088013
950.624023,-478.239990,-216.671997
956.479980,-599.263977,-156.160004
995.520020,-298.656006,-80.031998
1003.328003,242.048004,-29.280001
1024.800049,663.679993,7.808000
1030.656006,710.528015,39.040001
993.567993,302.559998,48.799999
1040.416016,-390.399994,64.416000
1077.504028,-935.007996,80.031998
1050.176025,-1038.463989,89.792000
1186.816040,-573.888000,46.848000
1089.215942,171.776001,29.280001
1081.407959,634.400024,-9.760000
923.296021,603.168030,-3.904000
958.432007,452.864014,-9.760000
991.616028,355.264008,-15.616000
1034.560059,113.216003,-31.232000
1077.504028,-203.007996,-3.904000
1089.215942,-384.544006,44.896000
1108.735962,-437.247986,56.608002
1108.735962,-415.776001,52.703999
1110.687988,-310.368011,27.327999
1071.647949,-132.735992,-5.856000
1036.511963,54.655998,-50.751999
970.143982,238.143997,-105.407997
935.007996,349.407990,-148.352005
897.919983,417.727997,-173.727997
905.728027,413.824005,-195.199997
911.583984,363.071991,-208.863998
909.632019,236.192001,-216.671997
923.296021,58.560001,-222.528000
964.288025,-105.407997,-222.528000
1003.328003,-173.727997,-208.863998
960.383972,115.167999,-165.919998
1005.280029,562.176025,-119.071999
1052.128052,651.968018,-99.552002
833.504028,425.536011,-56.608002
946.719971,294.752014,-78.080002
936.960022,240.095993,-50.751999
958.432007,15.616000,-37.088001
936.960022,-193.248001,-9.760000
1013.088013,-292.799988,5.856000
1130.208008,-488.000000,40.992001
1139.968018,-741.760010,111.264000
1134.112061,-628.544006,162.016006
1182.911987,-156.160004,160.063995
1186.816040,277.183990,158.112000
1167.296021,415.776001,142.496002
1143.871948,232.287994,119.071999
1075.552002,-128.832001,103.456001
1032.608032,-429.440002,95.648003
1056.031982,-486.048004,74.176003
1085.312012,-355.264008,62.464001
1100.927979,-169.824005,46.848000
1075.552002,-40.992001,21.472000
1056.031982,-37.088001,-15.616000
1040.416016,-130.783997,-52.703999
1011.135986,-240.095993,-99.552002
1005.280029,-242.048004,-156.160004
948.671997,-138.591995,-189.343994
950.624023,35.136002,-206.912003
933.056030,169.824005,-234.240005
936.960022,195.199997,-249.856003
925.247986,101.503998,-261.567993
931.104004,-31.232000,-271.328003
954.528015,-126.879997,-288.895996
972.096008,-204.960007,-304.511993
933.056030,-216.671997,-318.175995
888.159973,-111.264000,-347.455994
819.840027,48.799999,-366.976013
847.168030,187.391998,-406.015991
936.960022,324.032013,-452.864014
827.648010,495.808014,-425.536011
810.080017,595.359985,-380.640015
778.848022,587.552002,-353.312012
854.976013,380.640015,-353.312012
936.960022,0.000000,-384.544006
1022.848022,-435.295990,-357.216003
1157.536011,-870.591980,-275.231995
1132.160034,-874.495972,-154.207993
1255.135986,-351.359985,-97.599998
1134.112061,331.839996,-42.944000
1138.015991,718.335999,-31.232000
1175.104004,558.271973,-15.616000
1173.151978,-40.992001,-3.904000
1147.776001,-642.208008,27.327999
1126.303955,-866.687988,27.327999
1073.599976,-593.408020,15.616000
1071.647949,-70.272003,-21.472000
1013.088013,370.880005,-72.223999
1034.560059,552.416016,-138.591995
993.567993,681.247986,-191.296005
976.000000,935.007996,-203.007996
923.296021,1118.495972,-179.584000
1077.504028,837.408020,-232.287994
849.119995,80.031998,-216.671997
907.679993,-521.184021,-249.856003
940.864014,-642.208008,-292.799988
938.911987,-376.735992,-251.807999
1075.552002,97.599998,-218.623993
1118.495972,398.208008,-154.207993
1167.296021,226.432007,-138.591995
1149.728027,-212.768005,-160.063995
1227.807983,-663.679993,-189.343994
1251.232056,-810.080017,-193.248001
1221.952026,-587.552002,-197.151993
1143.871948,-87.839996,-197.151993
1081.407959,363.071991,-189.343994
1048.223999,577.791992,-185.440002
1081.407959,447.007996,-206.912003
1044.319946,66.367996,-251.807999
1075.552002,-288.895996,-318.175995
1032.608032,-476.287994,-283.040009
1085.312012,-488.000000,-253.759995
874.495972,27.327999,-146.399994
839.359985,659.776001,-35.136002
1020.895996,940.864014,-11.712000
1065.791992,712.479980,3.904000
1124.352051,121.024002,3.904000
1257.088013,-505.567993,-39.040001
1430.816040,-1056.031982,-103.456001
1106.784058,-1054.079956,-66.367996
804.223999,-460.671997,-50.751999
989.664001,212.768005,-187.391998
944.768005,632.447998,-232.287994
1081.407959,685.151978,-296.704010
1251.232056,540.703979,-398.208008
1253.183960,169.824005,-462.623993
1151.680054,-179.584000,-448.959991
1177.056030,-130.783997,-337.696014
1190.719971,52.703999,-191.296005
1118.495972,181.535995,-33.183998
1005.280029,80.031998,85.888000
991.616028,-130.783997,138.591995
931.104004,-185.440002,154.207993
1073.599976,-93.695999,99.552002
1143.871948,42.944000,21.472000
1169.248047,136.639999,-39.040001
1134.112061,117.120003,-85.888000
1091.167969,-5.856000,-128.832001
1149.728027,-152.255997,-191.296005
1147.776001,-247.904007,-224.479996
1085.312012,-240.095993,-245.951996
1087.264038,-128.832001,-283.040009
1044.319946,44.896000,-331.839996
1042.368042,142.496002,-380.640015
1052.128052,103.456001,-417.727997
1015.039978,-3.904000,-425.536011
1036.511963,-85.888000,-448.959991
1042.368042,-121.024002,-491.903992
1042.368042,-121.024002,-530.943970
1134.112061,-23.424000,-585.599976
1108.735962,46.848000,-593.408020
966.239990,25.375999,-560.223999
977.952026,-216.671997,-501.664001
936.960022,-441.152008,-415.776001
884.255981,-343.552002,-335.743988
812.031982,44.896000,-294.752014
853.023987,472.384003,-296.704010
833.504028,833.504028,-281.088013
946.719971,903.776001,-341.600006
1030.656006,601.216003,-378.687988
1095.072021,11.712000,-450.911987
972.096008,-609.023987,-472.384003
827.648010,-761.280029,-476.287994
880.351990,-404.063995,-538.752014
849.119995,76.127998,-560.223999
987.711975,466.528015,-626.591980
938.911987,624.640015,-630.495972
1015.039978,372.832001,-683.200012
901.823975,-126.879997,-669.536011
995.520020,-495.808014,-679.296021
1081.407959,-605.119995,-673.440002
1098.975952,-456.768005,-673.440002
1091.167969,-29.280001,-655.872009
1087.264038,349.407990,-640.255981
1036.511963,437.247986,-642.208008
1036.511963,298.656006,-642.208008
1015.039978,46.848000,-601.216003
999.424011,-234.240005,-568.031982
917.440002,-398.208008,-556.320007
1089.215942,-329.888000,-632.447998
954.528015,-218.623993,-569.984009
1063.839966,-42.944000,-583.648010
905.728027,81.984001,-519.231995
985.760010,158.112000,-482.144012
936.960022,220.576004,-382.592010
983.807983,218.623993,-249.856003
1024.800049,56.608002,-144.447998
1011.135986,-175.679993,-78.080002
1056.031982,-273.279999,-56.608002
1126.303955,-238.143997,-80.031998
1147.776001,-109.311996,-132.735992
1159.488037,9.760000,-197.151993
1167.296021,33.183998,-259.615997
1136.063965,3.904000,-286.944000
1139.968018,-25.375999,-327.936005
1132.160034,-70.272003,-347.455994
1126.303955,-85.888000,-353.312012
1136.063965,-68.320000,-374.783997
1147.776001,-70.272003,-378.687988
1157.536011,-44.896000,-406.015991
1188.767944,-19.520000,-409.920013
1214.144043,15.616000,-413.824005
1212.192017,15.616000,-415.776001
1184.864014,-9.760000,-421.631989
1184.864014,-81.984001,-396.256012
1356.640015,-154.207993,-427.488007
1237.567993,-148.352005,-390.399994
1245.375977,-5.856000,-343.552002
1210.239990,105.407997,-304.511993
1192.671997,154.207993,-284.992004
1200.479980,128.832001,-265.471985
1235.615967,48.799999,-257.664001
1264.895996,-23.424000,-247.904007
1247.328003,-70.272003,-238.143997
1259.040039,-60.512001,-222.528000
1245.375977,-11.712000,-220.576004
1257.088013,15.616000,-220.576004
1255.135986,19.520000,-193.248001
1243.423950,-9.760000,-175.679993
1132.160034,-52.703999,-119.071999
1245.375977,-23.424000,-160.063995
1309.791992,27.327999,-193.248001
1585.024048,-46.848000,-286.944000
1473.760010,-132.735992,-230.335999
1387.871948,-126.879997,-204.960007
1354.687988,-162.016006,-177.632004
1218.047974,-122.975998,-144.447998
1198.527954,-19.520000,-113.216003
1266.848022,62.464001,-130.783997
1220.000000,138.591995,-119.071999
1239.520020,140.544006,-138.591995
1245.375977,35.136002,-162.016006
1286.368042,-66.367996,-175.679993
1311.744019,-126.879997,-122.975998
1370.303955,-165.919998,-29.280001
1385.920044,-265.471985,128.832001
1430.816040,-339.648010,384.544006
1508.895996,-450.911987,694.911987
1629.920044,-609.023987,993.567993
1737.280029,-739.807983,1206.336060
1819.264038,-655.872009,1272.703979
1873.920044,-488.000000,1097.024048
1708.000000,-778.848022,862.783997
1512.800049,-784.703979,540.703979
1259.040039,-484.096008,70.272003
1054.079956,-394.303986,-458.720001
927.200012,42.944000,-882.304016
878.400024,35.136002,-1083.359985
862.783997,60.512001,-1036.511963
593.408020,208.863998,-802.271973
743.711975,15.616000,-577.791992
798.367981,-384.544006,-655.872009
960.383972,-5.856000,-890.112000
60.512001,587.552002,-439.200012
109.311996,-622.687988,242.048004
808.127991,-925.247986,-103.456001
948.671997,448.959991,-874.495972
1220.000000,1376.160034,-1391.776001
1108.735962,642.208008,-1120.447998
1360.543945,-144.447998,-755.424011
1077.504028,240.095993,-607.072021
1087.264038,-150.304001,-316.223999
919.392029,-624.640015,83.935997
1383.968018,-564.127991,-46.848000
901.823975,124.928001,-284.992004
780.799988,-329.888000,-173.727997
1081.407959,-573.888000,-226.432007
1208.287964,-136.639999,-566.080017
1106.784058,-158.112000,-610.976013
983.807983,-265.471985,-603.168030
950.624023,-142.496002,-730.047974
815.935974,-62.464001,-771.039978
909.632019,-44.896000,-747.616028
940.864014,-3.904000,-681.247986
999.424011,3.904000,-558.271973
1063.839966,-15.616000,-404.063995
1116.543945,-17.568001,-314.272003
1132.160034,11.712000,-296.704010
1116.543945,56.608002,-271.328003
1141.920044,72.223999,-302.559998
1110.687988,134.688004,-337.696014
1091.167969,187.391998,-388.447998
1044.319946,245.951996,-415.776001
1061.887939,298.656006,-458.720001
1048.223999,329.888000,-415.776001
1061.887939,343.552002,-384.544006
1073.599976,353.312012,-324.032013
1097.024048,382.592010,-306.463989
1083.359985,409.920013,-294.752014
1075.552002,402.112000,-283.040009
1085.312012,333.791992,-242.048004
1110.687988,222.528000,-183.488007
1132.160034,158.112000,-199.104004
1138.015991,52.703999,-214.720001
1122.400024,-25.375999,-238.143997
1100.927979,-60.512001,-288.895996
1079.456055,-119.071999,-324.032013
1065.791992,-212.768005,-292.799988
1048.223999,-232.287994,-331.839996
1018.943970,-210.815994,-370.880005
1005.280029,-206.912003,-376.735992
987.711975,-218.623993,-363.071991
979.903992,-146.399994,-435.295990
970.143982,-97.599998,-482.144012
952.575989,-81.984001,-486.048004
946.719971,-93.695999,-452.864014
946.719971,-85.888000,-402.112000
966.239990,-60.512001,-382.592010
993.567993,-29.280001,-372.832001
1009.184021,-15.616000,-398.208008
1007.231995,-29.280001,-357.216003
1016.992004,-42.944000,-361.119995
1011.135986,-46.848000,-370.880005
1022.848022,-68.320000,-357.216003
1028.703979,-87.839996,-341.600006
1040.416016,-68.320000,-366.976013
1030.656006,-56.608002,-404.063995
1020.895996,-44.896000,-421.631989
1005.280029,-25.375999,-445.056000
983.807983,-33.183998,-441.152008
970.143982,-44.896000,-423.584015
976.000000,-37.088001,-448.959991
946.719971,-52.703999,-472.384003
944.768005,-87.839996,-472.384003
936.960022,-119.071999,-464.575989
929.151978,-148.352005,-439.200012
954.528015,-142.496002,-466.528015
966.239990,-152.255997,-478.239990
974.047974,-154.207993,-480.191986
981.856018,-134.688004,-495.808014
979.903992,-126.879997,-505.567993
979.903992,-103.456001,-493.855988
989.664001,-80.031998,-472.384003
995.520020,-76.127998,-437.247986
1020.895996,-91.744003,-374.783997
1028.703979,-93.695999,-347.455994
1020.895996,-72.223999,-374.783997
1011.135986,-62.464001,-421.631989
977.952026,-44.896000,-458.720001
942.815979,-13.664000,-550.463989
936.960022,-37.088001,-560.223999
942.815979,-37.088001,-566.080017
952.575989,-50.751999,-525.088013
968.192017,-58.560001,-478.239990
991.616028,-81.984001,-415.776001
1003.328003,-124.928001,-374.783997
983.807983,-121.024002,-388.447998
913.536011,-87.839996,-476.287994
858.880005,-76.127998,-585.599976
827.648010,-101.503998,-601.216003
874.495972,-103.456001,-632.447998
929.151978,-134.688004,-587.552002
1007.231995,-173.727997,-470.432007
1087.264038,-167.871994,-388.447998
1139.968018,-167.871994,-327.936005
1161.439941,-113.216003,-300.608002
1116.543945,-13.664000,-353.312012
1067.744019,122.975998,-538.752014
974.047974,124.928001,-589.504028
907.679993,122.975998,-605.119995
884.255981,81.984001,-593.408020
899.872009,48.799999,-583.648010
921.343994,-37.088001,-470.432007
966.239990,-128.832001,-382.592010
995.520020,-199.104004,-361.119995
1007.231995,-234.240005,-400.160004
1001.375977,-208.863998,-462.623993
977.952026,-173.727997,-489.951996
991.616028,-113.216003,-554.367981
977.952026,-80.031998,-554.367981
989.664001,-40.992001,-532.895996
977.952026,-7.808000,-509.471985
983.807983,35.136002,-548.512024
995.520020,17.568001,-513.375977
991.616028,3.904000,-513.375977
989.664001,-31.232000,-507.519989
1013.088013,-48.799999,-509.471985
1007.231995,-23.424000,-509.471985
972.096008,9.760000,-511.424011
958.432007,50.751999,-527.039978
964.288025,70.272003,-568.031982
913.536011,72.223999,-550.463989
872.544006,48.799999,-499.712006
919.392029,0.000000,-470.432007
1009.184021,-101.503998,-450.911987
1098.975952,-144.447998,-390.399994
1124.352051,-138.591995,-382.592010
1095.072021,-89.792000,-425.536011
1026.751953,-25.375999,-523.135986
976.000000,15.616000,-540.703979
952.575989,66.367996,-603.168030
946.719971,109.311996,-589.504028
974.047974,99.552002,-538.752014
999.424011,70.272003,-478.239990
1015.039978,56.608002,-458.720001
1003.328003,17.568001,-441.152008
974.047974,-23.424000,-435.295990
966.239990,-54.655998,-484.096008
966.239990,-111.264000,-439.200012
1016.992004,-97.599998,-491.903992
1034.560059,-60.512001,-489.951996
1044.319946,-33.183998,-489.951996
1018.943970,13.664000,-478.239990
1015.039978,72.223999,-556.320007
972.096008,87.839996,-548.512024
964.288025,124.928001,-620.736023
966.239990,101.503998,-610.976013
987.711975,31.232000,-554.367981
1007.231995,-35.136002,-425.536011
1052.128052,-37.088001,-413.824005
1059.936035,-48.799999,-376.735992
1069.696045,-7.808000,-464.575989
1030.656006,-1.952000,-497.760010
1011.135986,19.520000,-509.471985
1009.184021,44.896000,-491.903992
1015.039978,62.464001,-509.471985
1009.184021,29.280001,-489.951996
1015.039978,11.712000,-505.567993
1003.328003,1.952000,-513.375977
985.760010,1.952000,-493.855988
972.096008,3.904000,-517.280029
970.143982,-21.472000,-517.280029
954.528015,-29.280001,-523.135986
946.719971,-44.896000,-511.424011
956.479980,-33.183998,-558.271973
940.864014,-48.799999,-536.799988
954.528015,-60.512001,-474.335999
985.760010,-40.992001,-466.528015
997.471985,-66.367996,-513.375977
981.856018,-95.648003,-493.855988
981.856018,-50.751999,-515.328003
964.288025,-56.608002,-499.712006
956.479980,-50.751999,-482.144012
962.335999,-97.599998,-472.384003
983.807983,-150.304001,-450.911987
997.471985,-134.688004,-384.544006
1024.800049,-62.464001,-423.584015
987.711975,-58.560001,-484.096008
948.671997,-31.232000,-513.375977
940.864014,1.952000,-536.799988
956.479980,0.000000,-589.504028
936.960022,-89.792000,-554.367981
933.056030,-80.031998,-478.239990
981.856018,-99.552002,-480.191986
991.616028,-130.783997,-499.712006
958.432007,-216.671997,-413.824005
952.575989,-171.776001,-396.256012
1005.280029,-134.688004,-448.959991
985.760010,-163.968002,-458.720001
948.671997,-144.447998,-478.239990
933.056030,-27.327999,-497.760010
942.815979,-13.664000,-556.320007
913.536011,1.952000,-651.968018
884.255981,-76.127998,-624.640015
907.679993,-58.560001,-599.263977
931.104004,-64.416000,-556.320007
950.624023,-134.688004,-462.623993
1001.375977,-162.016006,-366.976013
1034.560059,-197.151993,-357.216003
1018.943970,-169.824005,-349.407990
1003.328003,-156.160004,-462.623993
946.719971,-93.695999,-499.712006
936.960022,-54.655998,-585.599976
935.007996,-81.984001,-566.080017
921.343994,-46.848000,-517.280029
944.768005,-48.799999,-439.200012
995.520020,-58.560001,-472.384003
1003.328003,-189.343994,-540.703979
936.960022,-101.503998,-564.127991
903.776001,-152.255997,-568.031982
911.583984,-35.136002,-521.184021
944.768005,-42.944000,-460.671997
979.903992,-39.040001,-406.015991
1007.231995,-113.216003,-482.144012
968.192017,-121.024002,-569.984009
907.679993,-99.552002,-550.463989
919.392029,-27.327999,-556.320007
960.383972,-78.080002,-556.320007
946.719971,-89.792000,-450.911987
962.335999,-52.703999,-458.720001
944.768005,-115.167999,-499.712006
919.392029,-144.447998,-536.799988
899.872009,-107.360001,-616.831970
894.015991,-37.088001,-614.880005
925.247986,-35.136002,-694.911987
901.823975,-56.608002,-632.447998
872.544006,-19.520000,-431.391998
1005.280029,-1.952000,-460.671997
1016.992004,-70.272003,-468.480011
935.007996,-122.975998,-390.399994
974.047974,-64.416000,-540.703979
942.815979,-136.639999,-577.791992
903.776001,-201.056000,-407.967987
952.575989,-39.040001,-329.888000
1036.511963,-19.520000,-464.575989
964.288025,-210.815994,-501.664001
860.831970,-58.560001,-495.808014
882.304016,54.655998,-544.607971
903.776001,-52.703999,-540.703979
903.776001,-101.503998,-501.664001
938.911987,-5.856000,-507.519989
929.151978,-113.216003,-599.263977
878.400024,-232.287994,-581.695984
880.351990,17.568001,-579.744019
894.015991,21.472000,-534.848022
940.864014,-13.664000,-491.903992
976.000000,7.808000,-441.152008
954.528015,9.760000,-400.160004
962.335999,-150.304001,-423.584015
960.383972,-97.599998,-523.135986
874.495972,-33.183998,-488.000000
872.544006,-126.879997,-558.271973
894.015991,-142.496002,-564.127991
892.064026,-68.320000,-659.776001
851.072021,-56.608002,-655.872009
845.216003,-93.695999,-681.247986
897.919983,68.320000,-669.536011
894.015991,109.311996,-544.607971
933.056030,64.416000,-511.424011
995.520020,-48.799999,-540.703979
931.104004,-66.367996,-472.384003
938.911987,-76.127998,-474.335999
966.239990,-171.776001,-511.424011
952.575989,-167.871994,-456.768005
989.664001,-68.320000,-460.671997
995.520020,39.040001,-513.375977
950.624023,7.808000,-482.144012
952.575989,58.560001,-536.799988
966.239990,37.088001,-564.127991
944.768005,21.472000,-546.559998
958.432007,29.280001,-552.416016
948.671997,-87.839996,-530.943970
935.007996,-113.216003,-511.424011
956.479980,-89.792000,-536.799988
966.239990,-42.944000,-562.176025
942.815979,-62.464001,-612.927979
911.583984,-31.232000,-523.135986
958.432007,11.712000,-571.935974
977.952026,-39.040001,-527.039978
974.047974,-46.848000,-406.015991
1038.463989,68.320000,-427.488007
1044.319946,-3.904000,-460.671997
974.047974,-72.223999,-441.152008
981.856018,-23.424000,-505.567993
960.383972,-5.856000,-552.416016
935.007996,-109.311996,-519.231995
950.624023,-66.367996,-521.184021
966.239990,5.856000,-519.231995
950.624023,3.904000,-482.144012
976.000000,-5.856000,-540.703979
970.143982,-17.568001,-548.512024
935.007996,-9.760000,-585.599976
946.719971,-39.040001,-609.023987
925.247986,-42.944000,-558.271973
944.768005,-62.464001,-562.176025
966.239990,-42.944000,-515.328003
999.424011,31.232000,-534.848022
960.383972,-54.655998,-466.528015
999.424011,-1.952000,-450.911987
1030.656006,-40.992001,-466.528015
995.520020,-62.464001,-462.623993
962.335999,-204.960007,-478.239990
966.239990,-50.751999,-507.519989
981.856018,-19.520000,-636.351990
895.968018,46.848000,-687.104004
856.927979,68.320000,-622.687988
927.200012,111.264000,-507.519989
1032.608032,-21.472000,-435.295990
1050.176025,-111.264000,-374.783997
1001.375977,-68.320000,-380.640015
1011.135986,-15.616000,-593.408020
913.536011,-78.080002,-698.815979
839.359985,7.808000,-677.343994
907.679993,140.544006,-808.127991
892.064026,105.407997,-735.903992
860.831970,56.608002,-593.408020
923.296021,68.320000,-394.303986
1057.984009,-35.136002,-226.432007
1167.296021,-206.912003,-156.160004
1149.728027,-226.432007,-119.071999
1114.592041,-201.056000,-324.032013
989.664001,-183.488007,-482.144012
858.880005,-62.464001,-587.552002
835.455994,54.655998,-675.392029
847.168030,101.503998,-661.728027
890.112000,91.744003,-638.304016
899.872009,9.760000,-558.271973
905.728027,-85.888000,-314.272003
1054.079956,-5.856000,-298.656006
1104.832031,-33.183998,-464.575989
944.768005,-107.360001,-593.408020
841.312012,33.183998,-800.320007
759.328003,193.248001,-825.695984
753.471985,99.552002,-677.343994
851.072021,-46.848000,-443.104004
1005.280029,-132.735992,-236.192001
1098.975952,-296.704010,-81.984001
1106.784058,-294.752014,-93.695999
1054.079956,-232.287994,-267.424011
972.096008,-154.207993,-523.135986
872.544006,15.616000,-679.296021
813.984009,181.535995,-706.624023
806.176025,195.199997,-683.200012
802.271973,152.255997,-585.599976
827.648010,68.320000,-423.584015
913.536011,-42.944000,-318.175995
1001.375977,-210.815994,-337.696014
960.383972,-269.376007,-302.559998
923.296021,-226.432007,-343.552002
917.440002,-105.407997,-566.080017
812.031982,-74.176003,-673.440002
724.192017,95.648003,-753.471985
712.479980,146.399994,-716.383972
761.280029,138.591995,-569.984009
888.159973,78.080002,-521.184021
927.200012,-27.327999,-466.528015
884.255981,-158.112000,-339.648010
936.960022,-103.456001,-505.567993
901.823975,-72.223999,-612.927979
798.367981,7.808000,-673.440002
765.184021,113.216003,-714.432007
774.943970,228.384003,-540.703979
905.728027,93.695999,-519.231995
946.719971,23.424000,-456.768005
917.440002,1.952000,-345.503998
989.664001,-7.808000,-396.256012
995.520020,-48.799999,-433.343994
935.007996,-89.792000,-402.112000
913.536011,-5.856000,-507.519989
886.208008,37.088001,-575.840027
804.223999,42.944000,-595.359985
774.943970,187.391998,-626.591980
771.039978,117.120003,-661.728027
782.752014,9.760000,-591.455994
843.263977,39.040001,-591.455994
886.208008,39.040001,-552.416016
876.447998,-44.896000,-499.712006
894.015991,-7.808000,-462.623993
894.015991,27.327999,-478.239990
858.880005,-119.071999,-517.280029
849.119995,-206.912003,-497.760010
907.679993,193.248001,-552.416016
878.400024,240.095993,-480.191986
853.023987,-19.520000,-359.167999
907.679993,-230.335999,-372.832001
919.392029,-50.751999,-398.208008
897.919983,64.416000,-478.239990
856.927979,31.232000,-499.712006
821.791992,13.664000,-540.703979
810.080017,9.760000,-513.375977
825.695984,40.992001,-458.720001
864.736023,42.944000,-454.816010
892.064026,0.000000,-460.671997
878.400024,-39.040001,-447.007996
882.304016,-7.808000,-497.760010
897.919983,-85.888000,-517.280029
884.255981,-93.695999,-458.720001
888.159973,-70.272003,-427.488007
903.776001,-27.327999,-499.712006
882.304016,68.320000,-689.056030
806.176025,206.912003,-671.487976
800.320007,54.655998,-464.575989
903.776001,-122.975998,-435.295990
960.383972,-76.127998,-470.432007
905.728027,-1.952000,-337.696014
903.776001,0.000000,-267.424011
931.104004,-91.744003,-312.320007
927.200012,-185.440002,-376.735992
897.919983,-173.727997,-365.023987
903.776001,-226.432007,-384.544006
917.440002,-203.007996,-417.727997
888.159973,-121.024002,-509.471985
841.312012,-70.272003,-595.359985
808.127991,-3.904000,-622.687988
772.992004,160.063995,-560.223999
819.840027,85.888000,-433.343994
878.400024,-31.232000,-249.856003
974.047974,-52.703999,-236.192001
966.239990,-68.320000,-300.608002
872.544006,-160.063995,-439.200012
812.031982,-58.560001,-726.143982
691.007996,39.040001,-860.831970
618.783997,148.352005,-798.367981
659.776001,91.744003,-683.200012
796.416016,35.136002,-571.935974
851.072021,-156.160004,-372.832001
913.536011,-80.031998,-296.704010
946.719971,-212.768005,-327.936005
942.815979,-171.776001,-476.287994
868.640015,-46.848000,-642.208008
759.328003,150.304001,-626.591980
759.328003,134.688004,-528.992004
853.023987,150.304001,-521.184021
895.968018,33.183998,-505.567993
841.312012,-5.856000,-402.112000
905.728027,21.472000,-491.903992
929.151978,-7.808000,-544.607971
894.015991,-87.839996,-556.320007
878.400024,185.440002,-636.351990
874.495972,128.832001,-607.072021
825.695984,48.799999,-622.687988
767.135986,-85.888000,-677.343994
755.424011,-37.088001,-747.616028
763.231995,40.992001,-810.080017
780.799988,52.703999,-794.463989
813.984009,113.216003,-759.328003
847.168030,156.160004,-685.151978
872.544006,150.304001,-558.271973
872.544006,171.776001,-519.231995
894.015991,109.311996,-499.712006
903.776001,44.896000,-458.720001
901.823975,66.367996,-474.335999
882.304016,33.183998,-452.864014
890.112000,-173.727997,-341.600006
923.296021,-450.911987,-203.007996
981.856018,-525.088013,-179.584000
1009.184021,-386.496002,-206.912003
995.520020,-160.063995,-224.479996
1001.375977,-21.472000,-238.143997
993.567993,60.512001,-333.791992
954.528015,13.664000,-337.696014
905.728027,0.000000,-331.839996
899.872009,1.952000,-327.936005
890.112000,-15.616000,-374.783997
888.159973,-15.616000,-441.152008
882.304016,-27.327999,-435.295990
882.304016,-15.616000,-499.712006
866.687988,-64.416000,-501.664001
854.976013,-160.063995,-495.808014
874.495972,-216.671997,-503.615997
872.544006,-160.063995,-542.656006
847.168030,-95.648003,-536.799988
829.599976,-101.503998,-511.424011
845.216003,-58.560001,-540.703979
862.783997,-33.183998,-579.744019
872.544006,13.664000,-534.848022
870.591980,122.975998,-534.848022
874.495972,154.207993,-577.791992
870.591980,163.968002,-597.312012
849.119995,134.688004,-601.216003
813.984009,58.560001,-589.504028
804.223999,-25.375999,-546.559998
821.791992,-103.456001,-538.752014
831.552002,-175.679993,-515.328003
858.880005,-193.248001,-507.519989
860.831970,-148.352005,-517.280029
858.880005,-72.223999,-476.287994
862.783997,31.232000,-507.519989
854.976013,99.552002,-538.752014
845.216003,124.928001,-548.512024
815.935974,122.975998,-542.656006
796.416016,101.503998,-552.416016
