ACC_X,ACC_Y,ACC_Z
880.351990,-113.216003,491.903992
880.351990,-115.167999,495.808014
870.591980,-107.360001,499.712006
880.351990,-121.024002,495.808014
884.255981,-122.975998,493.855988
884.255981,-115.167999,491.903992
878.400024,-121.024002,495.808014
880.351990,-117.120003,501.664001
882.304016,-111.264000,495.808014
880.351990,-117.120003,501.664001
880.351990,-117.120003,491.903992
880.351990,-111.264000,497.760010
874.495972,-121.024002,491.903992
872.544006,-115.167999,488.000000
882.304016,-115.167999,493.855988
874.495972,-115.167999,489.951996
884.255981,-111.264000,491.903992
884.255981,-117.120003,493.855988
880.351990,-111.264000,499.712006
884.255981,-119.071999,499.712006
884.255981,-117.120003,493.855988
882.304016,-113.216003,495.808014
882.304016,-107.360001,495.808014
894.015991,-109.311996,499.712006
892.064026,-111.264000,495.808014
890.112000,-111.264000,501.664001
890.112000,-107.360001,499.712006
894.015991,-109.311996,497.760010
886.208008,-107.360001,501.664001
882.304016,-105.407997,491.903992
892.064026,-107.360001,491.903992
892.064026,-111.264000,493.855988
890.112000,-107.360001,488.000000
895.968018,-113.216003,489.951996
886.208008,-107.360001,497.760010
890.112000,-113.216003,489.951996
895.968018,-109.311996,497.760010
886.208008,-107.360001,493.855988
895.968018,-109.311996,489.951996
895.968018,-101.503998,491.903992
892.064026,-99.552002,488.000000
890.112000,-109.311996,489.951996
894.015991,-99.552002,489.951996
895.968018,-101.503998,491.903992
894.015991,-99.552002,491.903992
895.968018,-95.648003,501.664001
899.872009,-105.407997,497.760010
890.112000,-103.456001,489.951996
897.919983,-95.648003,491.903992
897.919983,-101.503998,495.808014
894.015991,-91.744003,499.712006
899.872009,-109.311996,493.855988
897.919983,-87.839996,505.567993
899.872009,-93.695999,501.664001
903.776001,-103.456001,505.567993
897.919983,-95.648003,495.808014
897.919983,-93.695999,501.664001
897.919983,-101.503998,501.664001
897.919983,-91.744003,491.903992
903.776001,-97.599998,503.615997
911.583984,-105.407997,497.760010
899.872009,-107.360001,493.855988
901.823975,-95.648003,495.808014
903.776001,-83.935997,493.855988
903.776001,-95.648003,501.664001
903.776001,-87.839996,495.808014
901.823975,-95.648003,489.951996
903.776001,-101.503998,501.664001
909.632019,-95.648003,495.808014
909.632019,-95.648003,497.760010
905.728027,-87.839996,495.808014
901.823975,-87.839996,505.567993
909.632019,-95.648003,497.760010
915.487976,-95.648003,493.855988
901.823975,-101.503998,489.951996
911.583984,-95.648003,488.000000
909.632019,-95.648003,491.903992
913.536011,-91.744003,488.000000
909.632019,-101.503998,503.615997
913.536011,-95.648003,488.000000
899.872009,-97.599998,493.855988
907.679993,-103.456001,501.664001
901.823975,-91.744003,501.664001
915.487976,-93.695999,497.760010
901.823975,-97.599998,491.903992
909.632019,-93.695999,488.000000
913.536011,-91.744003,488.000000
907.679993,-87.839996,488.000000
917.440002,-85.888000,491.903992
907.679993,-97.599998,488.000000
911.583984,-95.648003,488.000000
897.919983,-91.744003,499.712006
911.583984,-93.695999,491.903992
907.679993,-93.695999,495.808014
901.823975,-91.744003,497.760010
911.583984,-89.792000,495.808014
905.728027,-91.744003,493.855988
903.776001,-93.695999,489.951996
907.679993,-91.744003,491.903992
897.919983,-97.599998,497.760010
897.919983,-97.599998,495.808014
901.823975,-97.599998,495.808014
905.728027,-93.695999,503.615997
903.776001,-97.599998,491.903992
892.064026,-105.407997,493.855988
899.872009,-91.744003,493.855988
882.304016,-107.360001,497.760010
888.159973,-95.648003,497.760010
888.159973,-99.552002,493.855988
897.919983,-101.503998,495.808014
888.159973,-97.599998,493.855988
895.968018,-95.648003,491.903992
890.112000,-91.744003,489.951996
890.112000,-87.839996,488.000000
888.159973,-105.407997,495.808014
894.015991,-93.695999,489.951996
878.400024,-105.407997,486.048004
892.064026,-95.648003,484.096008
888.159973,-99.552002,488.000000
890.112000,-97.599998,491.903992
884.255981,-97.599998,488.000000
878.400024,-101.503998,489.951996
878.400024,-103.456001,484.096008
876.447998,-105.407997,480.191986
874.495972,-99.552002,489.951996
876.447998,-101.503998,491.903992
884.255981,-105.407997,486.048004
876.447998,-101.503998,489.951996
868.640015,-105.407997,482.144012
874.495972,-109.311996,488.000000
874.495972,-99.552002,484.096008
866.687988,-105.407997,486.048004
870.591980,-107.360001,486.048004
864.736023,-107.360001,484.096008
868.640015,-101.503998,489.951996
866.687988,-103.456001,489.951996
858.880005,-105.407997,489.951996
862.783997,-101.503998,489.951996
860.831970,-107.360001,489.951996
866.687988,-107.360001,480.191986
858.880005,-99.552002,486.048004
854.976013,-107.360001,491.903992
864.736023,-99.552002,493.855988
860.831970,-105.407997,489.951996
864.736023,-109.311996,486.048004
858.880005,-109.311996,486.048004
856.927979,-105.407997,488.000000
851.072021,-105.407997,489.951996
851.072021,-107.360001,493.855988
851.072021,-109.311996,486.048004
854.976013,-103.456001,486.048004
843.263977,-113.216003,488.000000
851.072021,-109.311996,484.096008
843.263977,-115.167999,493.855988
849.119995,-115.167999,486.048004
847.168030,-117.120003,486.048004
847.168030,-111.264000,489.951996
847.168030,-115.167999,484.096008
847.168030,-105.407997,486.048004
847.168030,-109.311996,484.096008
856.927979,-117.120003,484.096008
847.168030,-115.167999,480.191986
839.359985,-117.120003,486.048004
839.359985,-107.360001,486.048004
839.359985,-117.120003,488.000000
841.312012,-121.024002,486.048004
841.312012,-117.120003,486.048004
845.216003,-111.264000,486.048004
843.263977,-117.120003,486.048004
839.359985,-117.120003,486.048004
841.312012,-124.928001,486.048004
847.168030,-121.024002,484.096008
843.263977,-121.024002,486.048004
839.359985,-119.071999,482.144012
845.216003,-117.120003,482.144012
835.455994,-119.071999,486.048004
843.263977,-121.024002,486.048004
849.119995,-117.120003,491.903992
839.359985,-111.264000,486.048004
843.263977,-117.120003,484.096008
839.359985,-122.975998,491.903992
837.408020,-128.832001,489.951996
841.312012,-126.879997,484.096008
839.359985,-124.928001,484.096008
839.359985,-126.879997,491.903992
845.216003,-122.975998,489.951996
839.359985,-128.832001,489.951996
839.359985,-126.879997,489.951996
843.263977,-132.735992,493.855988
847.168030,-130.783997,493.855988
839.359985,-132.735992,491.903992
847.168030,-130.783997,499.712006
847.168030,-121.024002,497.760010
845.216003,-124.928001,495.808014
847.168030,-130.783997,491.903992
845.216003,-134.688004,495.808014
839.359985,-126.879997,491.903992
849.119995,-134.688004,491.903992
853.023987,-128.832001,495.808014
845.216003,-130.783997,493.855988
845.216003,-134.688004,489.951996
843.263977,-126.879997,491.903992
835.455994,-128.832001,495.808014
845.216003,-126.879997,491.903992
835.455994,-128.832001,491.903992
843.263977,-134.688004,493.855988
835.455994,-134.688004,489.951996
837.408020,-134.688004,488.000000
839.359985,-128.832001,501.664001
831.552002,-132.735992,488.000000
843.263977,-134.688004,493.855988
835.455994,-132.735992,491.903992
835.455994,-138.591995,491.903992
841.312012,-132.735992,484.096008
835.455994,-121.024002,489.951996
837.408020,-132.735992,489.951996
837.408020,-134.688004,493.855988
837.408020,-134.688004,488.000000
841.312012,-136.639999,489.951996
839.359985,-130.783997,484.096008
835.455994,-124.928001,489.951996
841.312012,-126.879997,484.096008
835.455994,-121.024002,491.903992
837.408020,-134.688004,488.000000
835.455994,-126.879997,501.664001
833.504028,-126.879997,491.903992
843.263977,-124.928001,489.951996
835.455994,-132.735992,489.951996
837.408020,-132.735992,491.903992
841.312012,-134.688004,493.855988
835.455994,-121.024002,491.903992
835.455994,-119.071999,480.191986
845.216003,-128.832001,491.903992
835.455994,-126.879997,491.903992
843.263977,-136.639999,489.951996
845.216003,-128.832001,491.903992
845.216003,-122.975998,491.903992
839.359985,-122.975998,489.951996
843.263977,-119.071999,491.903992
845.216003,-128.832001,499.712006
843.263977,-128.832001,501.664001
845.216003,-119.071999,486.048004
837.408020,-124.928001,484.096008
835.455994,-121.024002,501.664001
845.216003,-122.975998,491.903992
847.168030,-126.879997,501.664001
841.312012,-122.975998,491.903992
849.119995,-121.024002,488.000000
845.216003,-119.071999,488.000000
835.455994,-111.264000,488.000000
845.216003,-121.024002,491.903992
843.263977,-113.216003,497.760010
835.455994,-121.024002,501.664001
843.263977,-122.975998,491.903992
849.119995,-115.167999,495.808014
849.119995,-122.975998,488.000000
841.312012,-117.120003,493.855988
849.119995,-119.071999,491.903992
841.312012,-105.407997,489.951996
839.359985,-111.264000,493.855988
843.263977,-109.311996,493.855988
847.168030,-126.879997,489.951996
853.023987,-115.167999,503.615997
849.119995,-119.071999,491.903992
845.216003,-121.024002,491.903992
849.119995,-119.071999,495.808014
835.455994,-107.360001,486.048004
845.216003,-121.024002,491.903992
849.119995,-111.264000,493.855988
849.119995,-107.360001,489.951996
845.216003,-109.311996,503.615997
856.927979,-124.928001,493.855988
847.168030,-119.071999,493.855988
845.216003,-121.024002,488.000000
839.359985,-121.024002,497.760010
856.927979,-115.167999,491.903992
851.072021,-109.311996,489.951996
843.263977,-113.216003,491.903992
839.359985,-111.264000,491.903992
854.976013,-111.264000,491.903992
851.072021,-107.360001,491.903992
853.023987,-113.216003,491.903992
860.831970,-113.216003,491.903992
854.976013,-115.167999,489.951996
856.927979,-105.407997,495.808014
854.976013,-109.311996,501.664001
851.072021,-117.120003,495.808014
851.072021,-109.311996,501.664001
851.072021,-105.407997,501.664001
860.831970,-105.407997,495.808014
860.831970,-107.360001,501.664001
860.831970,-113.216003,491.903992
864.736023,-99.552002,505.567993
860.831970,-105.407997,497.760010
864.736023,-105.407997,505.567993
866.687988,-97.599998,495.808014
851.072021,-107.360001,497.760010
860.831970,-105.407997,495.808014
860.831970,-99.552002,501.664001
853.023987,-95.648003,499.712006
856.927979,-97.599998,497.760010
860.831970,-103.456001,495.808014
860.831970,-105.407997,497.760010
864.736023,-99.552002,497.760010
864.736023,-91.744003,503.615997
864.736023,-101.503998,497.760010
862.783997,-109.311996,495.808014
864.736023,-97.599998,503.615997
868.640015,-95.648003,501.664001
868.640015,-105.407997,503.615997
868.640015,-95.648003,501.664001
866.687988,-91.744003,495.808014
870.591980,-91.744003,497.760010
866.687988,-97.599998,495.808014
864.736023,-83.935997,497.760010
866.687988,-91.744003,497.760010
870.591980,-91.744003,501.664001
862.783997,-93.695999,489.951996
868.640015,-95.648003,489.951996
868.640015,-101.503998,499.712006
872.544006,-113.216003,499.712006
870.591980,-101.503998,495.808014
872.544006,-105.407997,505.567993
870.591980,-101.503998,491.903992
876.447998,-107.360001,493.855988
874.495972,-109.311996,495.808014
872.544006,-91.744003,491.903992
868.640015,-91.744003,491.903992
866.687988,-99.552002,495.808014
866.687988,-103.456001,491.903992
866.687988,-91.744003,495.808014
870.591980,-101.503998,503.615997
866.687988,-101.503998,497.760010
870.591980,-105.407997,505.567993
872.544006,-99.552002,501.664001
870.591980,-97.599998,501.664001
866.687988,-109.311996,493.855988
876.447998,-97.599998,497.760010
876.447998,-101.503998,501.664001
868.640015,-95.648003,501.664001
874.495972,-101.503998,499.712006
872.544006,-105.407997,507.519989
888.159973,-103.456001,503.615997
874.495972,-99.552002,509.471985
870.591980,-95.648003,505.567993
870.591980,-97.599998,501.664001
870.591980,-101.503998,495.808014
882.304016,-105.407997,491.903992
884.255981,-99.552002,493.855988
888.159973,-99.552002,493.855988
874.495972,-101.503998,499.712006
880.351990,-101.503998,497.760010
878.400024,-101.503998,501.664001
882.304016,-107.360001,497.760010
878.400024,-99.552002,497.760010
882.304016,-101.503998,499.712006
878.400024,-95.648003,493.855988
882.304016,-93.695999,493.855988
878.400024,-95.648003,493.855988
884.255981,-99.552002,497.760010
890.112000,-101.503998,489.951996
882.304016,-107.360001,501.664001
884.255981,-99.552002,505.567993
884.255981,-101.503998,505.567993
882.304016,-101.503998,507.519989
878.400024,-103.456001,503.615997
882.304016,-97.599998,507.519989
880.351990,-97.599998,499.712006
884.255981,-95.648003,499.712006
878.400024,-101.503998,501.664001
874.495972,-105.407997,495.808014
872.544006,-101.503998,505.567993
886.208008,-99.552002,491.903992
880.351990,-113.216003,501.664001
876.447998,-95.648003,495.808014
876.447998,-99.552002,493.855988
872.544006,-95.648003,507.519989
870.591980,-97.599998,495.808014
876.447998,-105.407997,493.855988
882.304016,-107.360001,497.760010
880.351990,-103.456001,507.519989
878.400024,-91.744003,488.000000
880.351990,-107.360001,491.903992
872.544006,-103.456001,493.855988
876.447998,-101.503998,491.903992
878.400024,-101.503998,493.855988
868.640015,-103.456001,497.760010
868.640015,-97.599998,497.760010
870.591980,-97.599998,499.712006
864.736023,-105.407997,497.760010
870.591980,-101.503998,491.903992
870.591980,-103.456001,497.760010
872.544006,-109.311996,497.760010
870.591980,-111.264000,488.000000
870.591980,-105.407997,493.855988
866.687988,-101.503998,491.903992
872.544006,-105.407997,484.096008
872.544006,-103.456001,493.855988
870.591980,-103.456001,491.903992
870.591980,-105.407997,484.096008
872.544006,-103.456001,491.903992
874.495972,-105.407997,484.096008
876.447998,-99.552002,489.951996
870.591980,-113.216003,497.760010
876.447998,-103.456001,495.808014
880.351990,-107.360001,491.903992
874.495972,-109.311996,495.808014
878.400024,-99.552002,493.855988
878.400024,-105.407997,497.760010
874.495972,-107.360001,493.855988
870.591980,-113.216003,497.760010
866.687988,-101.503998,491.903992
874.495972,-105.407997,499.712006
876.447998,-99.552002,493.855988
876.447998,-95.648003,495.808014
874.495972,-101.503998,501.664001
880.351990,-105.407997,495.808014
880.351990,-107.360001,497.760010
882.304016,-111.264000,491.903992
880.351990,-107.360001,495.808014
880.351990,-99.552002,495.808014
880.351990,-109.311996,499.712006
882.304016,-105.407997,497.760010
884.255981,-105.407997,493.855988
890.112000,-95.648003,493.855988
886.208008,-107.360001,491.903992
886.208008,-107.360001,489.951996
882.304016,-101.503998,486.048004
884.255981,-99.552002,493.855988
874.495972,-111.264000,495.808014
882.304016,-105.407997,495.808014
884.255981,-99.552002,493.855988
886.208008,-103.456001,486.048004
888.159973,-105.407997,493.855988
874.495972,-107.360001,495.808014
880.351990,-109.311996,497.760010
880.351990,-99.552002,495.808014
878.400024,-95.648003,495.808014
882.304016,-107.360001,497.760010
886.208008,-111.264000,497.760010
884.255981,-105.407997,495.808014
882.304016,-107.360001,497.760010
884.255981,-105.407997,493.855988
886.208008,-109.311996,484.096008
888.159973,-99.552002,495.808014
886.208008,-117.120003,497.760010
880.351990,-107.360001,501.664001
882.304016,-111.264000,491.903992
890.112000,-117.120003,491.903992
882.304016,-113.216003,491.903992
882.304016,-113.216003,499.712006
886.208008,-105.407997,503.615997
882.304016,-113.216003,501.664001
894.015991,-107.360001,501.664001
886.208008,-107.360001,489.951996
884.255981,-111.264000,503.615997
880.351990,-117.120003,501.664001
882.304016,-113.216003,501.664001
880.351990,-107.360001,503.615997
895.968018,-115.167999,501.664001
892.064026,-107.360001,503.615997
892.064026,-115.167999,491.903992
892.064026,-109.311996,495.808014
882.304016,-121.024002,505.567993
892.064026,-115.167999,495.808014
890.112000,-117.120003,505.567993
894.015991,-115.167999,505.567993
897.919983,-121.024002,503.615997
890.112000,-117.120003,513.375977
894.015991,-119.071999,509.471985
895.968018,-121.024002,509.471985
895.968018,-117.120003,507.519989
894.015991,-121.024002,517.280029
901.823975,-109.311996,511.424011
894.015991,-111.264000,505.567993
899.872009,-109.311996,517.280029
895.968018,-111.264000,513.375977
892.064026,-113.216003,505.567993
897.919983,-107.360001,507.519989
897.919983,-117.120003,505.567993
897.919983,-117.120003,507.519989
897.919983,-113.216003,507.519989
894.015991,-119.071999,509.471985
894.015991,-111.264000,503.615997
899.872009,-117.120003,507.519989
899.872009,-113.216003,507.519989
895.968018,-115.167999,507.519989
895.968018,-111.264000,507.519989
892.064026,-117.120003,509.471985
899.872009,-124.928001,513.375977
897.919983,-117.120003,509.471985
895.968018,-111.264000,517.280029
897.919983,-119.071999,509.471985
897.919983,-117.120003,511.424011
888.159973,-109.311996,513.375977
903.776001,-117.120003,507.519989
890.112000,-115.167999,513.375977
897.919983,-117.120003,505.567993
892.064026,-117.120003,503.615997
892.064026,-121.024002,507.519989
886.208008,-122.975998,507.519989
886.208008,-121.024002,499.712006
882.304016,-113.216003,501.664001
886.208008,-121.024002,505.567993
892.064026,-119.071999,503.615997
888.159973,-117.120003,495.808014
894.015991,-119.071999,509.471985
884.255981,-117.120003,501.664001
882.304016,-117.120003,495.808014
882.304016,-119.071999,495.808014
886.208008,-117.120003,495.808014
880.351990,-113.216003,501.664001
882.304016,-117.120003,501.664001
880.351990,-111.264000,499.712006
880.351990,-115.167999,499.712006
886.208008,-119.071999,503.615997
882.304016,-111.264000,501.664001
882.304016,-117.120003,497.760010
882.304016,-119.071999,501.664001
876.447998,-124.928001,505.567993
880.351990,-117.120003,501.664001
882.304016,-122.975998,507.519989
878.400024,-115.167999,501.664001
884.255981,-119.071999,505.567993
882.304016,-122.975998,499.712006
880.351990,-119.071999,499.712006
866.687988,-119.071999,507.519989
884.255981,-121.024002,493.855988
876.447998,-115.167999,503.615997
870.591980,-115.167999,501.664001
874.495972,-115.167999,493.855988
884.255981,-126.879997,495.808014
878.400024,-130.783997,499.712006
882.304016,-113.216003,501.664001
876.447998,-121.024002,501.664001
870.591980,-121.024002,495.808014
868.640015,-121.024002,497.760010
876.447998,-122.975998,491.903992
866.687988,-126.879997,493.855988
870.591980,-122.975998,501.664001
864.736023,-126.879997,495.808014
864.736023,-122.975998,495.808014
862.783997,-124.928001,489.951996
878.400024,-122.975998,497.760010
872.544006,-117.120003,493.855988
866.687988,-117.120003,486.048004
866.687988,-121.024002,495.808014
872.544006,-122.975998,495.808014
868.640015,-117.120003,499.712006
864.736023,-117.120003,505.567993
862.783997,-117.120003,495.808014
864.736023,-117.120003,499.712006
868.640015,-115.167999,497.760010
868.640015,-122.975998,499.712006
864.736023,-128.832001,491.903992
858.880005,-124.928001,499.712006
866.687988,-115.167999,493.855988
866.687988,-128.832001,495.808014
868.640015,-119.071999,489.951996
876.447998,-128.832001,497.760010
864.736023,-115.167999,501.664001
862.783997,-117.120003,493.855988
864.736023,-128.832001,503.615997
864.736023,-126.879997,497.760010
864.736023,-122.975998,499.712006
862.783997,-128.832001,501.664001
870.591980,-126.879997,491.903992
866.687988,-121.024002,503.615997
864.736023,-126.879997,503.615997
874.495972,-119.071999,503.615997
870.591980,-121.024002,501.664001
870.591980,-126.879997,501.664001
872.544006,-122.975998,499.712006
868.640015,-124.928001,509.471985
876.447998,-122.975998,497.760010
872.544006,-121.024002,495.808014
870.591980,-121.024002,495.808014
868.640015,-122.975998,495.808014
872.544006,-130.783997,509.471985
874.495972,-115.167999,505.567993
870.591980,-124.928001,491.903992
864.736023,-122.975998,503.615997
868.640015,-128.832001,503.615997
868.640015,-124.928001,503.615997
872.544006,-128.832001,503.615997
872.544006,-130.783997,503.615997
870.591980,-132.735992,495.808014
862.783997,-109.311996,493.855988
876.447998,-124.928001,493.855988
872.544006,-126.879997,495.808014
876.447998,-128.832001,497.760010
872.544006,-124.928001,509.471985
872.544006,-122.975998,495.808014
882.304016,-126.879997,499.712006
870.591980,-121.024002,503.615997
878.400024,-124.928001,497.760010
872.544006,-113.216003,495.808014
872.544006,-115.167999,499.712006
876.447998,-119.071999,505.567993
874.495972,-121.024002,499.712006
876.447998,-119.071999,499.712006
874.495972,-119.071999,509.471985
870.591980,-119.071999,507.519989
882.304016,-119.071999,501.664001
878.400024,-115.167999,509.471985
868.640015,-115.167999,505.567993
876.447998,-115.167999,499.712006
878.400024,-117.120003,509.471985
878.400024,-113.216003,499.712006
876.447998,-111.264000,507.519989
880.351990,-111.264000,499.712006
870.591980,-121.024002,497.760010
870.591980,-121.024002,497.760010
868.640015,-115.167999,495.808014
872.544006,-115.167999,499.712006
876.447998,-132.735992,501.664001
872.544006,-115.167999,497.760010
864.736023,-132.735992,497.760010
874.495972,-121.024002,503.615997
870.591980,-124.928001,497.760010
876.447998,-121.024002,501.664001
874.495972,-115.167999,499.712006
872.544006,-111.264000,497.760010
868.640015,-115.167999,495.808014
872.544006,-107.360001,507.519989
872.544006,-117.120003,505.567993
866.687988,-111.264000,509.471985
872.544006,-117.120003,493.855988
864.736023,-122.975998,497.760010
864.736023,-111.264000,499.712006
862.783997,-119.071999,491.903992
866.687988,-111.264000,507.519989
862.783997,-115.167999,497.760010
860.831970,-117.120003,503.615997
854.976013,-111.264000,501.664001
868.640015,-111.264000,501.664001
854.976013,-111.264000,491.903992
858.880005,-121.024002,489.951996
868.640015,-115.167999,493.855988
860.831970,-115.167999,495.808014
860.831970,-113.216003,493.855988
862.783997,-111.264000,499.712006
851.072021,-113.216003,495.808014
860.831970,-117.120003,493.855988
856.927979,-107.360001,484.096008
853.023987,-109.311996,489.951996
854.976013,-111.264000,491.903992
854.976013,-113.216003,489.951996
851.072021,-107.360001,495.808014
851.072021,-107.360001,495.808014
853.023987,-99.552002,493.855988
854.976013,-111.264000,491.903992
856.927979,-107.360001,491.903992
854.976013,-107.360001,501.664001
853.023987,-107.360001,495.808014
854.976013,-111.264000,491.903992
849.119995,-105.407997,493.855988
856.927979,-103.456001,489.951996
851.072021,-107.360001,491.903992
851.072021,-105.407997,491.903992
853.023987,-109.311996,489.951996
858.880005,-99.552002,495.808014
858.880005,-105.407997,497.760010
854.976013,-101.503998,486.048004
854.976013,-107.360001,503.615997
854.976013,-103.456001,493.855988
860.831970,-103.456001,488.000000
856.927979,-97.599998,488.000000
851.072021,-103.456001,491.903992
860.831970,-95.648003,493.855988
854.976013,-111.264000,495.808014
858.880005,-99.552002,495.808014
851.072021,-103.456001,491.903992
864.736023,-99.552002,493.855988
860.831970,-101.503998,493.855988
858.880005,-99.552002,497.760010
856.927979,-99.552002,497.760010
854.976013,-105.407997,495.808014
862.783997,-103.456001,497.760010
860.831970,-105.407997,491.903992
864.736023,-95.648003,491.903992
858.880005,-97.599998,497.760010
856.927979,-95.648003,493.855988
860.831970,-105.407997,495.808014
860.831970,-105.407997,489.951996
854.976013,-111.264000,491.903992
866.687988,-109.311996,488.000000
864.736023,-103.456001,489.951996
868.640015,-109.311996,493.855988
866.687988,-107.360001,493.855988
866.687988,-101.503998,491.903992
868.640015,-113.216003,488.000000
862.783997,-109.311996,493.855988
858.880005,-103.456001,488.000000
866.687988,-97.599998,489.951996
862.783997,-107.360001,491.903992
872.544006,-109.311996,493.855988
866.687988,-101.503998,491.903992
876.447998,-107.360001,486.048004
868.640015,-103.456001,493.855988
868.640015,-103.456001,497.760010
866.687988,-105.407997,488.000000
872.544006,-107.360001,497.760010
876.447998,-105.407997,493.855988
870.591980,-103.456001,499.712006
870.591980,-111.264000,497.760010
880.351990,-103.456001,488.000000
874.495972,-109.311996,501.664001
870.591980,-105.407997,507.519989
870.591980,-95.648003,501.664001
876.447998,-95.648003,493.855988
880.351990,-105.407997,491.903992
880.351990,-105.407997,501.664001
872.544006,-109.311996,501.664001
876.447998,-99.552002,497.760010
876.447998,-105.407997,497.760010
874.495972,-105.407997,495.808014
880.351990,-99.552002,503.615997
884.255981,-99.552002,497.760010
880.351990,-105.407997,491.903992
872.544006,-109.311996,493.855988
884.255981,-101.503998,495.808014
884.255981,-105.407997,499.712006
878.400024,-105.407997,505.567993
880.351990,-109.311996,495.808014
888.159973,-99.552002,495.808014
880.351990,-97.599998,503.615997
886.208008,-105.407997,497.760010
888.159973,-107.360001,491.903992
884.255981,-105.407997,495.808014
884.255981,-99.552002,497.760010
884.255981,-99.552002,505.567993
876.447998,-103.456001,503.615997
884.255981,-109.311996,509.471985
892.064026,-103.456001,509.471985
892.064026,-107.360001,503.615997
882.304016,-105.407997,493.855988
888.159973,-103.456001,499.712006
890.112000,-99.552002,495.808014
884.255981,-99.552002,493.855988
882.304016,-107.360001,495.808014
880.351990,-99.552002,495.808014
888.159973,-103.456001,503.615997
884.255981,-111.264000,509.471985
888.159973,-103.456001,509.471985
884.255981,-107.360001,501.664001
882.304016,-111.264000,503.615997
878.400024,-103.456001,501.664001
888.159973,-105.407997,499.712006
884.255981,-105.407997,493.855988
874.495972,-109.311996,493.855988
882.304016,-101.503998,499.712006
880.351990,-111.264000,497.760010
886.208008,-107.360001,495.808014
876.447998,-107.360001,505.567993
876.447998,-103.456001,495.808014
874.495972,-113.216003,493.855988
880.351990,-109.311996,497.760010
872.544006,-109.311996,493.855988
876.447998,-101.503998,501.664001
882.304016,-117.120003,491.903992
866.687988,-115.167999,497.760010
872.544006,-113.216003,493.855988
872.544006,-117.120003,484.096008
872.544006,-107.360001,491.903992
872.544006,-115.167999,493.855988
866.687988,-115.167999,493.855988
862.783997,-111.264000,493.855988
870.591980,-117.120003,484.096008
868.640015,-117.120003,489.951996
872.544006,-111.264000,488.000000
864.736023,-115.167999,484.096008
864.736023,-115.167999,489.951996
864.736023,-119.071999,488.000000
868.640015,-111.264000,497.760010
868.640015,-115.167999,486.048004
866.687988,-113.216003,488.000000
866.687988,-121.024002,491.903992
868.640015,-113.216003,493.855988
868.640015,-115.167999,488.000000
870.591980,-122.975998,491.903992
864.736023,-115.167999,491.903992
866.687988,-121.024002,491.903992
876.447998,-122.975998,491.903992
866.687988,-126.879997,491.903992
874.495972,-115.167999,488.000000
872.544006,-117.120003,493.855988
872.544006,-119.071999,484.096008
874.495972,-113.216003,493.855988
876.447998,-115.167999,484.096008
870.591980,-113.216003,486.048004
870.591980,-115.167999,493.855988
874.495972,-117.120003,491.903992
874.495972,-119.071999,489.951996
878.400024,-128.832001,493.855988
872.544006,-115.167999,495.808014
880.351990,-113.216003,495.808014
870.591980,-111.264000,499.712006
868.640015,-122.975998,499.712006
868.640015,-115.167999,501.664001
868.640015,-119.071999,503.615997
866.687988,-126.879997,501.664001
878.400024,-128.832001,505.567993
874.495972,-109.311996,505.567993
880.351990,-115.167999,505.567993
880.351990,-117.120003,501.664001
870.591980,-107.360001,507.519989
868.640015,-107.360001,505.567993
872.544006,-111.264000,505.567993
872.544006,-113.216003,495.808014
880.351990,-113.216003,493.855988
866.687988,-121.024002,501.664001
858.880005,-115.167999,491.903992
876.447998,-113.216003,489.951996
866.687988,-117.120003,486.048004
860.831970,-103.456001,478.239990
864.736023,-111.264000,478.239990
870.591980,-117.120003,488.000000
868.640015,-124.928001,484.096008
856.927979,-115.167999,484.096008
862.783997,-122.975998,486.048004
868.640015,-124.928001,484.096008
870.591980,-124.928001,480.191986
862.783997,-124.928001,484.096008
864.736023,-117.120003,486.048004
868.640015,-113.216003,488.000000
864.736023,-109.311996,493.855988
862.783997,-103.456001,493.855988
860.831970,-113.216003,499.712006
864.736023,-115.167999,501.664001
872.544006,-103.456001,505.567993
860.831970,-103.456001,507.519989
858.880005,-105.407997,507.519989
858.880005,-107.360001,515.328003
860.831970,-101.503998,507.519989
866.687988,-101.503998,503.615997
858.880005,-101.503998,495.808014
856.927979,-103.456001,505.567993
854.976013,-103.456001,488.000000
860.831970,-113.216003,489.951996
853.023987,-109.311996,489.951996
847.168030,-109.311996,480.191986
853.023987,-113.216003,484.096008
856.927979,-109.311996,478.239990
845.216003,-107.360001,480.191986
845.216003,-117.120003,480.191986
833.504028,-117.120003,480.191986
841.312012,-117.120003,478.239990
835.455994,-107.360001,482.144012
841.312012,-105.407997,478.239990
835.455994,-105.407997,476.287994
835.455994,-105.407997,486.048004
837.408020,-105.407997,484.096008
837.408020,-99.552002,491.903992
839.359985,-103.456001,493.855988
841.312012,-103.456001,488.000000
839.359985,-101.503998,497.760010
831.552002,-101.503998,493.855988
841.312012,-103.456001,495.808014
843.263977,-103.456001,493.855988
835.455994,-89.792000,493.855988
829.599976,-101.503998,505.567993
835.455994,-97.599998,491.903992
839.359985,-95.648003,489.951996
833.504028,-101.503998,491.903992
835.455994,-103.456001,495.808014
835.455994,-103.456001,493.855988
833.504028,-103.456001,484.096008
825.695984,-103.456001,484.096008
831.552002,-99.552002,484.096008
827.648010,-93.695999,482.144012
823.744019,-109.311996,478.239990
825.695984,-101.503998,478.239990
825.695984,-109.311996,480.191986
833.504028,-99.552002,486.048004
835.455994,-105.407997,486.048004
839.359985,-95.648003,491.903992
831.552002,-99.552002,484.096008
837.408020,-95.648003,484.096008
841.312012,-91.744003,489.951996
837.408020,-99.552002,489.951996
845.216003,-103.456001,497.760010
849.119995,-107.360001,495.808014
845.216003,-103.456001,491.903992
843.263977,-105.407997,491.903992
843.263977,-105.407997,509.471985
851.072021,-101.503998,507.519989
845.216003,-95.648003,501.664001
851.072021,-105.407997,501.664001
841.312012,-107.360001,491.903992
849.119995,-109.311996,497.760010
851.072021,-107.360001,501.664001
853.023987,-105.407997,497.760010
847.168030,-105.407997,493.855988
849.119995,-105.407997,491.903992
845.216003,-99.552002,495.808014
849.119995,-107.360001,491.903992
851.072021,-101.503998,505.567993
853.023987,-99.552002,499.712006
839.359985,-103.456001,501.664001
849.119995,-111.264000,495.808014
847.168030,-107.360001,497.760010
845.216003,-103.456001,489.951996
847.168030,-113.216003,495.808014
841.312012,-115.167999,501.664001
849.119995,-109.311996,509.471985
847.168030,-115.167999,503.615997
849.119995,-109.311996,501.664001
853.023987,-107.360001,509.471985
853.023987,-113.216003,503.615997
849.119995,-121.024002,505.567993
845.216003,-117.120003,499.712006
849.119995,-113.216003,493.855988
849.119995,-111.264000,497.760010
851.072021,-107.360001,491.903992
854.976013,-111.264000,491.903992
851.072021,-105.407997,484.096008
854.976013,-109.311996,480.191986
845.216003,-115.167999,482.144012
841.312012,-117.120003,476.287994
839.359985,-107.360001,474.335999
841.312012,-115.167999,468.480011
847.168030,-111.264000,476.287994
845.216003,-121.024002,472.384003
849.119995,-113.216003,468.480011
845.216003,-119.071999,480.191986
847.168030,-119.071999,474.335999
845.216003,-107.360001,482.144012
851.072021,-113.216003,489.951996
843.263977,-117.120003,491.903992
843.263977,-115.167999,497.760010
856.927979,-117.120003,497.760010
849.119995,-109.311996,503.615997
847.168030,-107.360001,499.712006
862.783997,-105.407997,497.760010
851.072021,-113.216003,501.664001
851.072021,-115.167999,503.615997
847.168030,-119.071999,503.615997
851.072021,-117.120003,495.808014
853.023987,-119.071999,505.567993
856.927979,-115.167999,503.615997
854.976013,-107.360001,495.808014
860.831970,-111.264000,488.000000
851.072021,-122.975998,488.000000
854.976013,-121.024002,486.048004
847.168030,-115.167999,482.144012
854.976013,-121.024002,480.191986
853.023987,-111.264000,482.144012
847.168030,-121.024002,484.096008
851.072021,-132.735992,486.048004
856.927979,-124.928001,497.760010
858.880005,-124.928001,486.048004
853.023987,-132.735992,486.048004
864.736023,-115.167999,484.096008
856.927979,-126.879997,493.855988
853.023987,-119.071999,499.712006
856.927979,-119.071999,488.000000
862.783997,-128.832001,491.903992
856.927979,-119.071999,499.712006
864.736023,-121.024002,491.903992
860.831970,-119.071999,499.712006
858.880005,-124.928001,493.855988
851.072021,-113.216003,495.808014
854.976013,-111.264000,503.615997
860.831970,-119.071999,503.615997
860.831970,-121.024002,493.855988
853.023987,-128.832001,493.855988
858.880005,-130.783997,493.855988
856.927979,-124.928001,493.855988
866.687988,-132.735992,484.096008
866.687988,-130.783997,486.048004
872.544006,-119.071999,484.096008
868.640015,-126.879997,484.096008
862.783997,-132.735992,486.048004
862.783997,-126.879997,488.000000
853.023987,-128.832001,480.191986
862.783997,-126.879997,489.951996
862.783997,-124.928001,484.096008
851.072021,-122.975998,488.000000
860.831970,-119.071999,484.096008
858.880005,-121.024002,484.096008
856.927979,-124.928001,493.855988
864.736023,-128.832001,493.855988
864.736023,-124.928001,497.760010
862.783997,-132.735992,497.760010
866.687988,-122.975998,491.903992
864.736023,-119.071999,495.808014
862.783997,-117.120003,491.903992
872.544006,-124.928001,509.471985
860.831970,-119.071999,501.664001
856.927979,-126.879997,495.808014
851.072021,-119.071999,497.760010
856.927979,-117.120003,499.712006
864.736023,-122.975998,497.760010
864.736023,-130.783997,505.567993
864.736023,-122.975998,491.903992
864.736023,-132.735992,491.903992
858.880005,-128.832001,488.000000
858.880005,-124.928001,488.000000
862.783997,-130.783997,484.096008
870.591980,-128.832001,484.096008
868.640015,-124.928001,484.096008
864.736023,-119.071999,488.000000
864.736023,-128.832001,493.855988
872.544006,-119.071999,484.096008
876.447998,-124.928001,488.000000
866.687988,-128.832001,495.808014
870.591980,-124.928001,501.664001
878.400024,-126.879997,503.615997
876.447998,-124.928001,497.760010
866.687988,-130.783997,503.615997
880.351990,-124.928001,509.471985
878.400024,-132.735992,497.760010
882.304016,-124.928001,507.519989
880.351990,-126.879997,517.280029
878.400024,-126.879997,495.808014
880.351990,-124.928001,503.615997
878.400024,-117.120003,507.519989
878.400024,-121.024002,503.615997
874.495972,-122.975998,505.567993
882.304016,-117.120003,495.808014
878.400024,-124.928001,501.664001
884.255981,-124.928001,499.712006
882.304016,-121.024002,499.712006
884.255981,-119.071999,497.760010
884.255981,-122.975998,497.760010
890.112000,-128.832001,501.664001
892.064026,-111.264000,491.903992
884.255981,-126.879997,499.712006
884.255981,-117.120003,499.712006
888.159973,-124.928001,497.760010
884.255981,-117.120003,499.712006
882.304016,-122.975998,507.519989
890.112000,-128.832001,501.664001
884.255981,-122.975998,499.712006
880.351990,-130.783997,503.615997
884.255981,-124.928001,497.760010
886.208008,-107.360001,501.664001
880.351990,-111.264000,495.808014
882.304016,-107.360001,495.808014
882.304016,-109.311996,505.567993
878.400024,-119.071999,495.808014
878.400024,-119.071999,497.760010
890.112000,-121.024002,491.903992
886.208008,-117.120003,491.903992
878.400024,-122.975998,491.903992
888.159973,-113.216003,491.903992
882.304016,-117.120003,491.903992
882.304016,-117.120003,501.664001
882.304016,-119.071999,503.615997
886.208008,-117.120003,495.808014
882.304016,-119.071999,501.664001
886.208008,-111.264000,491.903992
882.304016,-115.167999,501.664001
882.304016,-111.264000,495.808014
880.351990,-109.311996,495.808014
884.255981,-121.024002,505.567993
880.351990,-122.975998,509.471985
882.304016,-117.120003,501.664001
882.304016,-121.024002,509.471985
872.544006,-111.264000,495.808014
884.255981,-119.071999,499.712006
882.304016,-117.120003,499.712006
880.351990,-117.120003,503.615997
878.400024,-113.216003,509.471985
876.447998,-109.311996,495.808014
874.495972,-111.264000,497.760010
872.544006,-113.216003,493.855988
874.495972,-107.360001,501.664001
882.304016,-107.360001,497.760010
886.208008,-113.216003,491.903992
882.304016,-101.503998,509.471985
876.447998,-101.503998,503.615997
876.447998,-105.407997,493.855988
876.447998,-115.167999,493.855988
884.255981,-113.216003,489.951996
880.351990,-117.120003,491.903992
870.591980,-103.456001,489.951996
882.304016,-111.264000,495.808014
874.495972,-113.216003,493.855988
876.447998,-117.120003,501.664001
882.304016,-113.216003,501.664001
882.304016,-119.071999,495.808014
876.447998,-115.167999,489.951996
882.304016,-113.216003,501.664001
878.400024,-109.311996,491.903992
886.208008,-111.264000,491.903992
884.255981,-111.264000,501.664001
886.208008,-113.216003,509.471985
886.208008,-119.071999,489.951996
886.208008,-111.264000,491.903992
888.159973,-105.407997,495.808014
882.304016,-115.167999,503.615997
882.304016,-124.928001,507.519989
882.304016,-119.071999,491.903992
882.304016,-119.071999,497.760010
884.255981,-122.975998,488.000000
894.015991,-119.071999,501.664001
892.064026,-111.264000,503.615997
882.304016,-117.120003,495.808014
894.015991,-117.120003,503.615997
888.159973,-107.360001,503.615997
884.255981,-124.928001,505.567993
894.015991,-121.024002,507.519989
895.968018,-121.024002,495.808014
894.015991,-115.167999,505.567993
899.872009,-115.167999,499.712006
895.968018,-111.264000,513.375977
897.919983,-122.975998,501.664001
897.919983,-115.167999,505.567993
890.112000,-111.264000,513.375977
903.776001,-119.071999,509.471985
895.968018,-121.024002,503.615997
894.015991,-121.024002,507.519989
899.872009,-117.120003,499.712006
894.015991,-119.071999,503.615997
884.255981,-121.024002,509.471985
886.208008,-117.120003,503.615997
892.064026,-119.071999,509.471985
890.112000,-119.071999,505.567993
895.968018,-119.071999,509.471985
895.968018,-124.928001,499.712006
895.968018,-115.167999,505.567993
894.015991,-115.167999,499.712006
901.823975,-111.264000,507.519989
892.064026,-117.120003,501.664001
895.968018,-111.264000,499.712006
899.872009,-109.311996,499.712006
894.015991,-117.120003,503.615997
892.064026,-115.167999,507.519989
895.968018,-115.167999,513.375977
882.304016,-117.120003,505.567993
894.015991,-117.120003,499.712006
886.208008,-117.120003,501.664001
888.159973,-113.216003,503.615997
880.351990,-115.167999,497.760010
884.255981,-113.216003,509.471985
886.208008,-121.024002,509.471985
880.351990,-119.071999,501.664001
880.351990,-115.167999,503.615997
888.159973,-117.120003,503.615997
884.255981,-115.167999,503.615997
886.208008,-117.120003,503.615997
874.495972,-113.216003,499.712006
884.255981,-109.311996,503.615997
878.400024,-121.024002,495.808014
880.351990,-119.071999,503.615997
878.400024,-126.879997,501.664001
886.208008,-122.975998,499.712006
874.495972,-115.167999,499.712006
878.400024,-124.928001,499.712006
876.447998,-121.024002,495.808014
878.400024,-121.024002,501.664001
888.159973,-124.928001,505.567993
878.400024,-115.167999,491.903992
878.400024,-126.879997,497.760010
880.351990,-119.071999,491.903992
866.687988,-121.024002,491.903992
876.447998,-122.975998,501.664001
878.400024,-121.024002,503.615997
874.495972,-111.264000,495.808014
866.687988,-121.024002,491.903992
876.447998,-121.024002,491.903992
880.351990,-113.216003,499.712006
874.495972,-121.024002,497.760010
874.495972,-115.167999,495.808014
870.591980,-121.024002,495.808014
872.544006,-115.167999,495.808014
872.544006,-121.024002,491.903992
884.255981,-117.120003,495.808014
872.544006,-121.024002,499.712006
876.447998,-115.167999,501.664001
866.687988,-113.216003,499.712006
868.640015,-119.071999,495.808014
862.783997,-122.975998,507.519989
858.880005,-117.120003,509.471985
868.640015,-124.928001,509.471985
862.783997,-128.832001,503.615997
870.591980,-132.735992,495.808014
868.640015,-126.879997,503.615997
866.687988,-124.928001,491.903992
864.736023,-119.071999,493.855988
868.640015,-121.024002,505.567993
866.687988,-122.975998,491.903992
864.736023,-122.975998,501.664001
862.783997,-115.167999,495.808014
872.544006,-126.879997,484.096008
870.591980,-122.975998,491.903992
864.736023,-122.975998,491.903992
866.687988,-126.879997,501.664001
866.687988,-122.975998,495.808014
870.591980,-132.735992,501.664001
862.783997,-126.879997,503.615997
858.880005,-128.832001,501.664001
872.544006,-124.928001,509.471985
876.447998,-122.975998,503.615997
866.687988,-119.071999,499.712006
870.591980,-126.879997,501.664001
878.400024,-122.975998,501.664001
878.400024,-121.024002,503.615997
878.400024,-115.167999,503.615997
876.447998,-111.264000,503.615997
878.400024,-121.024002,517.280029
878.400024,-119.071999,505.567993
874.495972,-136.639999,495.808014
878.400024,-121.024002,495.808014
888.159973,-119.071999,499.712006
880.351990,-119.071999,509.471985
880.351990,-124.928001,509.471985
874.495972,-128.832001,511.424011
876.447998,-122.975998,501.664001
882.304016,-119.071999,503.615997
880.351990,-122.975998,507.519989
868.640015,-119.071999,511.424011
878.400024,-126.879997,509.471985
878.400024,-126.879997,499.712006
882.304016,-122.975998,505.567993
884.255981,-124.928001,505.567993
884.255981,-126.879997,499.712006
884.255981,-113.216003,509.471985
880.351990,-121.024002,507.519989
888.159973,-126.879997,495.808014
872.544006,-121.024002,499.712006
880.351990,-121.024002,497.760010
880.351990,-121.024002,505.567993
882.304016,-119.071999,505.567993
884.255981,-113.216003,513.375977
872.544006,-111.264000,505.567993
874.495972,-119.071999,509.471985
878.400024,-111.264000,507.519989
878.400024,-122.975998,503.615997
874.495972,-124.928001,503.615997
878.400024,-124.928001,499.712006
884.255981,-117.120003,497.760010
878.400024,-117.120003,509.471985
878.400024,-119.071999,501.664001
878.400024,-119.071999,507.519989
876.447998,-111.264000,505.567993
878.400024,-121.024002,501.664001
876.447998,-119.071999,505.567993
874.495972,-115.167999,497.760010
870.591980,-128.832001,501.664001
876.447998,-126.879997,495.808014
870.591980,-121.024002,495.808014
874.495972,-117.120003,505.567993
878.400024,-117.120003,495.808014
878.400024,-119.071999,499.712006
872.544006,-113.216003,495.808014
866.687988,-111.264000,507.519989
872.544006,-113.216003,497.760010
868.640015,-115.167999,497.760010
884.255981,-113.216003,491.903992
880.351990,-115.167999,495.808014
866.687988,-119.071999,507.519989
866.687988,-105.407997,505.567993
870.591980,-117.120003,507.519989
870.591980,-109.311996,507.519989
870.591980,-109.311996,497.760010
872.544006,-109.311996,495.808014
868.640015,-113.216003,493.855988
872.544006,-109.311996,493.855988
864.736023,-113.216003,507.519989
868.640015,-109.311996,495.808014
860.831970,-107.360001,491.903992
866.687988,-109.311996,497.760010
868.640015,-103.456001,495.808014
862.783997,-109.311996,493.855988
854.976013,-105.407997,493.855988
864.736023,-101.503998,497.760010
858.880005,-99.552002,493.855988
858.880005,-95.648003,491.903992
868.640015,-103.456001,495.808014
858.880005,-101.503998,491.903992
862.783997,-93.695999,489.951996
853.023987,-97.599998,493.855988
851.072021,-107.360001,497.760010
853.023987,-103.456001,489.951996
853.023987,-101.503998,491.903992
854.976013,-107.360001,495.808014
853.023987,-99.552002,497.760010
853.023987,-97.599998,497.760010
853.023987,-99.552002,499.712006
854.976013,-87.839996,501.664001
853.023987,-109.311996,484.096008
856.927979,-99.552002,493.855988
851.072021,-107.360001,491.903992
845.216003,-97.599998,493.855988
853.023987,-93.695999,497.760010
858.880005,-99.552002,488.000000
847.168030,-97.599998,486.048004
851.072021,-89.792000,480.191986
849.119995,-97.599998,489.951996
853.023987,-93.695999,497.760010
851.072021,-87.839996,491.903992
841.312012,-85.888000,488.000000
843.263977,-89.792000,493.855988
845.216003,-97.599998,497.760010
847.168030,-87.839996,493.855988
847.168030,-89.792000,489.951996
853.023987,-93.695999,488.000000
854.976013,-93.695999,488.000000
854.976013,-87.839996,489.951996
841.312012,-83.935997,493.855988
849.119995,-83.935997,493.855988
851.072021,-87.839996,497.760010
843.263977,-80.031998,491.903992
843.263977,-83.935997,488.000000
841.312012,-85.888000,491.903992
843.263977,-80.031998,493.855988
841.312012,-89.792000,491.903992
843.263977,-93.695999,491.903992
835.455994,-89.792000,491.903992
847.168030,-83.935997,489.951996
843.263977,-93.695999,489.951996
835.455994,-91.744003,489.951996
849.119995,-91.744003,486.048004
837.408020,-93.695999,484.096008
841.312012,-87.839996,484.096008
841.312012,-93.695999,484.096008
845.216003,-89.792000,484.096008
839.359985,-81.984001,486.048004
839.359985,-85.888000,482.144012
841.312012,-93.695999,484.096008
843.263977,-97.599998,484.096008
845.216003,-87.839996,486.048004
841.312012,-83.935997,489.951996
853.023987,-78.080002,484.096008
839.359985,-83.935997,488.000000
835.455994,-81.984001,488.000000
851.072021,-85.888000,489.951996
851.072021,-85.888000,497.760010
841.312012,-89.792000,493.855988
839.359985,-80.031998,486.048004
835.455994,-87.839996,488.000000
835.455994,-85.888000,488.000000
841.312012,-93.695999,484.096008
845.216003,-91.744003,491.903992
843.263977,-89.792000,489.951996
845.216003,-85.888000,486.048004
849.119995,-85.888000,497.760010
837.408020,-91.744003,488.000000
835.455994,-101.503998,489.951996
835.455994,-97.599998,491.903992
849.119995,-85.888000,489.951996
845.216003,-91.744003,491.903992
841.312012,-97.599998,489.951996
845.216003,-87.839996,488.000000
841.312012,-89.792000,493.855988
853.023987,-95.648003,495.808014
833.504028,-95.648003,495.808014
835.455994,-97.599998,489.951996
837.408020,-103.456001,488.000000
835.455994,-101.503998,491.903992
839.359985,-97.599998,493.855988
839.359985,-97.599998,489.951996
839.359985,-97.599998,484.096008
835.455994,-105.407997,488.000000
847.168030,-97.599998,488.000000
845.216003,-101.503998,493.855988
841.312012,-109.311996,488.000000
837.408020,-111.264000,493.855988
845.216003,-105.407997,493.855988
833.504028,-111.264000,486.048004
841.312012,-115.167999,493.855988
843.263977,-113.216003,488.000000
849.119995,-109.311996,493.855988
843.263977,-105.407997,491.903992
847.168030,-115.167999,489.951996
839.359985,-121.024002,491.903992
839.359985,-121.024002,491.903992
839.359985,-115.167999,497.760010
851.072021,-113.216003,491.903992
843.263977,-115.167999,497.760010
845.216003,-122.975998,489.951996
837.408020,-122.975998,493.855988
839.359985,-124.928001,489.951996
837.408020,-128.832001,482.144012
839.359985,-126.879997,489.951996
845.216003,-122.975998,491.903992
835.455994,-126.879997,491.903992
849.119995,-134.688004,493.855988
841.312012,-124.928001,489.951996
845.216003,-126.879997,493.855988
839.359985,-134.688004,495.808014
845.216003,-132.735992,497.760010
841.312012,-121.024002,493.855988
835.455994,-130.783997,491.903992
853.023987,-128.832001,488.000000
853.023987,-124.928001,493.855988
833.504028,-130.783997,499.712006
841.312012,-132.735992,499.712006
845.216003,-132.735992,501.664001
847.168030,-148.352005,491.903992
837.408020,-134.688004,493.855988
841.312012,-140.544006,493.855988
837.408020,-142.496002,501.664001
837.408020,-134.688004,493.855988
835.455994,-138.591995,488.000000
839.359985,-144.447998,497.760010
839.359985,-142.496002,493.855988
835.455994,-146.399994,491.903992
843.263977,-136.639999,491.903992
831.552002,-140.544006,499.712006
837.408020,-134.688004,495.808014
829.599976,-136.639999,484.096008
837.408020,-140.544006,493.855988
835.455994,-132.735992,489.951996
837.408020,-138.591995,486.048004
835.455994,-140.544006,486.048004
835.455994,-132.735992,491.903992
833.504028,-130.783997,489.951996
841.312012,-134.688004,488.000000
827.648010,-128.832001,491.903992
835.455994,-136.639999,486.048004
835.455994,-132.735992,495.808014
837.408020,-124.928001,491.903992
825.695984,-126.879997,488.000000
833.504028,-128.832001,491.903992
835.455994,-132.735992,495.808014
835.455994,-122.975998,495.808014
839.359985,-122.975998,501.664001
837.408020,-121.024002,493.855988
835.455994,-121.024002,491.903992
835.455994,-122.975998,497.760010
841.312012,-115.167999,493.855988
841.312012,-121.024002,489.951996
835.455994,-117.120003,488.000000
831.552002,-124.928001,489.951996
837.408020,-122.975998,493.855988
835.455994,-121.024002,491.903992
841.312012,-121.024002,488.000000
835.455994,-115.167999,491.903992
837.408020,-117.120003,489.951996
843.263977,-117.120003,491.903992
841.312012,-113.216003,493.855988
845.216003,-113.216003,489.951996
837.408020,-117.120003,493.855988
843.263977,-113.216003,497.760010
845.216003,-121.024002,489.951996
841.312012,-103.456001,495.808014
831.552002,-105.407997,484.096008
841.312012,-105.407997,488.000000
845.216003,-99.552002,484.096008
843.263977,-101.503998,488.000000
845.216003,-95.648003,489.951996
841.312012,-99.552002,484.096008
851.072021,-99.552002,491.903992
845.216003,-101.503998,484.096008
841.312012,-91.744003,484.096008
845.216003,-95.648003,493.855988
847.168030,-101.503998,497.760010
841.312012,-95.648003,497.760010
845.216003,-89.792000,491.903992
845.216003,-89.792000,489.951996
841.312012,-83.935997,488.000000
845.216003,-95.648003,491.903992
843.263977,-89.792000,488.000000
845.216003,-85.888000,486.048004
858.880005,-83.935997,484.096008
843.263977,-87.839996,484.096008
843.263977,-85.888000,489.951996
847.168030,-81.984001,482.144012
847.168030,-81.984001,478.239990
841.312012,-81.984001,482.144012
845.216003,-85.888000,488.000000
851.072021,-76.127998,482.144012
845.216003,-80.031998,480.191986
853.023987,-83.935997,484.096008
849.119995,-89.792000,480.191986
847.168030,-83.935997,482.144012
851.072021,-80.031998,486.048004
851.072021,-95.648003,480.191986
853.023987,-83.935997,482.144012
853.023987,-78.080002,484.096008
854.976013,-89.792000,480.191986
854.976013,-89.792000,482.144012
860.831970,-89.792000,486.048004
856.927979,-83.935997,484.096008
866.687988,-87.839996,488.000000
864.736023,-80.031998,488.000000
864.736023,-85.888000,486.048004
868.640015,-80.031998,488.000000
868.640015,-85.888000,493.855988
862.783997,-81.984001,488.000000
862.783997,-80.031998,488.000000
868.640015,-81.984001,488.000000
866.687988,-80.031998,488.000000
872.544006,-85.888000,488.000000
868.640015,-83.935997,493.855988
874.495972,-89.792000,488.000000
868.640015,-80.031998,493.855988
872.544006,-80.031998,491.903992
866.687988,-83.935997,491.903992
872.544006,-89.792000,505.567993
874.495972,-85.888000,497.760010
872.544006,-83.935997,495.808014
862.783997,-80.031998,493.855988
870.591980,-89.792000,497.760010
872.544006,-85.888000,491.903992
868.640015,-89.792000,499.712006
872.544006,-89.792000,495.808014
874.495972,-76.127998,489.951996
866.687988,-80.031998,486.048004
872.544006,-89.792000,493.855988
872.544006,-89.792000,493.855988
868.640015,-83.935997,493.855988
872.544006,-97.599998,491.903992
866.687988,-80.031998,486.048004
872.544006,-83.935997,497.760010
874.495972,-83.935997,499.712006
868.640015,-83.935997,488.000000
872.544006,-89.792000,493.855988
862.783997,-83.935997,488.000000
876.447998,-76.127998,488.000000
872.544006,-89.792000,491.903992
866.687988,-81.984001,493.855988
868.640015,-76.127998,488.000000
864.736023,-81.984001,480.191986
868.640015,-85.888000,488.000000
866.687988,-76.127998,488.000000
868.640015,-80.031998,493.855988
864.736023,-89.792000,484.096008
862.783997,-83.935997,493.855988
868.640015,-81.984001,486.048004
864.736023,-78.080002,489.951996
868.640015,-85.888000,484.096008
862.783997,-89.792000,482.144012
864.736023,-80.031998,488.000000
866.687988,-81.984001,488.000000
858.880005,-85.888000,486.048004
858.880005,-81.984001,486.048004
862.783997,-78.080002,493.855988
858.880005,-89.792000,484.096008
864.736023,-78.080002,488.000000
866.687988,-72.223999,489.951996
872.544006,-93.695999,484.096008
866.687988,-76.127998,488.000000
870.591980,-80.031998,488.000000
870.591980,-83.935997,489.951996
862.783997,-80.031998,497.760010
868.640015,-95.648003,489.951996
884.255981,-87.839996,488.000000
882.304016,-85.888000,495.808014
884.255981,-93.695999,493.855988
872.544006,-91.744003,491.903992
872.544006,-80.031998,493.855988
866.687988,-85.888000,488.000000
870.591980,-81.984001,486.048004
866.687988,-78.080002,489.951996
880.351990,-76.127998,495.808014
876.447998,-74.176003,489.951996
876.447998,-83.935997,484.096008
880.351990,-95.648003,486.048004
874.495972,-97.599998,484.096008
870.591980,-93.695999,489.951996
886.208008,-95.648003,486.048004
876.447998,-97.599998,491.903992
876.447998,-93.695999,493.855988
878.400024,-101.503998,491.903992
866.687988,-89.792000,497.760010
884.255981,-99.552002,493.855988
890.112000,-101.503998,495.808014
884.255981,-107.360001,499.712006
880.351990,-107.360001,501.664001
880.351990,-109.311996,499.712006
882.304016,-117.120003,503.615997
888.159973,-105.407997,505.567993
882.304016,-111.264000,501.664001
878.400024,-99.552002,499.712006
882.304016,-107.360001,501.664001
878.400024,-107.360001,501.664001
878.400024,-99.552002,505.567993
882.304016,-103.456001,507.519989
886.208008,-109.311996,503.615997
886.208008,-99.552002,509.471985
882.304016,-107.360001,499.712006
874.495972,-113.216003,501.664001
874.495972,-113.216003,497.760010
880.351990,-121.024002,497.760010
870.591980,-119.071999,489.951996
872.544006,-121.024002,491.903992
882.304016,-126.879997,488.000000
880.351990,-136.639999,491.903992
882.304016,-128.832001,489.951996
880.351990,-134.688004,499.712006
874.495972,-130.783997,497.760010
888.159973,-130.783997,497.760010
878.400024,-122.975998,489.951996
870.591980,-134.688004,491.903992
882.304016,-140.544006,491.903992
876.447998,-132.735992,495.808014
876.447998,-140.544006,491.903992
874.495972,-138.591995,499.712006
874.495972,-130.783997,501.664001
880.351990,-138.591995,491.903992
876.447998,-146.399994,495.808014
872.544006,-138.591995,497.760010
870.591980,-136.639999,486.048004
880.351990,-138.591995,491.903992
882.304016,-140.544006,489.951996
880.351990,-144.447998,491.903992
880.351990,-148.352005,491.903992
878.400024,-140.544006,489.951996
870.591980,-152.255997,489.951996
870.591980,-150.304001,480.191986
876.447998,-156.160004,488.000000
876.447998,-162.016006,488.000000
874.495972,-158.112000,486.048004
868.640015,-152.255997,493.855988
866.687988,-167.871994,486.048004
870.591980,-163.968002,489.951996
874.495972,-156.160004,491.903992
876.447998,-154.207993,497.760010
884.255981,-150.304001,493.855988
866.687988,-154.207993,491.903992
884.255981,-152.255997,484.096008
876.447998,-152.255997,491.903992
872.544006,-154.207993,488.000000
884.255981,-156.160004,497.760010
878.400024,-154.207993,493.855988
884.255981,-160.063995,495.808014
876.447998,-160.063995,491.903992
888.159973,-156.160004,493.855988
882.304016,-154.207993,493.855988
878.400024,-154.207993,495.808014
884.255981,-160.063995,497.760010
882.304016,-163.968002,499.712006
886.208008,-169.824005,503.615997
888.159973,-171.776001,507.519989
888.159973,-169.824005,497.760010
882.304016,-169.824005,497.760010
884.255981,-175.679993,501.664001
886.208008,-167.871994,499.712006
886.208008,-169.824005,495.808014
876.447998,-163.968002,495.808014
884.255981,-167.871994,493.855988
882.304016,-167.871994,495.808014
890.112000,-163.968002,495.808014
890.112000,-158.112000,493.855988
878.400024,-163.968002,491.903992
894.015991,-163.968002,505.567993
888.159973,-160.063995,495.808014
890.112000,-160.063995,493.855988
888.159973,-158.112000,493.855988
895.968018,-156.160004,499.712006
886.208008,-158.112000,499.712006
892.064026,-167.871994,503.615997
894.015991,-162.016006,509.471985
886.208008,-165.919998,507.519989
899.872009,-156.160004,515.328003
894.015991,-173.727997,497.760010
892.064026,-167.871994,503.615997
886.208008,-162.016006,505.567993
897.919983,-158.112000,509.471985
895.968018,-163.968002,503.615997
903.776001,-160.063995,513.375977
886.208008,-148.352005,501.664001
897.919983,-154.207993,501.664001
894.015991,-156.160004,509.471985
895.968018,-152.255997,491.903992
894.015991,-146.399994,493.855988
897.919983,-146.399994,505.567993
888.159973,-160.063995,495.808014
888.159973,-150.304001,489.951996
899.872009,-150.304001,489.951996
899.872009,-156.160004,491.903992
884.255981,-150.304001,497.760010
890.112000,-150.304001,497.760010
888.159973,-150.304001,495.808014
890.112000,-156.160004,499.712006
899.872009,-142.496002,495.808014
895.968018,-160.063995,491.903992
888.159973,-156.160004,497.760010
886.208008,-160.063995,497.760010
894.015991,-146.399994,493.855988
882.304016,-138.591995,501.664001
894.015991,-138.591995,501.664001
903.776001,-144.447998,497.760010
897.919983,-140.544006,503.615997
894.015991,-134.688004,505.567993
897.919983,-136.639999,507.519989
894.015991,-138.591995,501.664001
890.112000,-124.928001,497.760010
899.872009,-126.879997,497.760010
890.112000,-130.783997,497.760010
890.112000,-128.832001,495.808014
892.064026,-136.639999,489.951996
899.872009,-130.783997,509.471985
901.823975,-132.735992,489.951996
888.159973,-128.832001,488.000000
888.159973,-128.832001,493.855988
897.919983,-132.735992,491.903992
897.919983,-130.783997,486.048004
894.015991,-124.928001,484.096008
899.872009,-126.879997,484.096008
890.112000,-122.975998,491.903992
886.208008,-126.879997,480.191986
890.112000,-124.928001,486.048004
882.304016,-126.879997,480.191986
895.968018,-119.071999,482.144012
894.015991,-122.975998,486.048004
892.064026,-119.071999,484.096008
892.064026,-119.071999,482.144012
886.208008,-122.975998,486.048004
894.015991,-119.071999,484.096008
895.968018,-121.024002,489.951996
894.015991,-121.024002,488.000000
897.919983,-111.264000,488.000000
897.919983,-121.024002,491.903992
897.919983,-121.024002,493.855988
899.872009,-113.216003,495.808014
899.872009,-109.311996,493.855988
903.776001,-121.024002,497.760010
899.872009,-113.216003,493.855988
899.872009,-115.167999,493.855988
894.015991,-119.071999,503.615997
901.823975,-109.311996,501.664001
899.872009,-113.216003,497.760010
899.872009,-115.167999,493.855988
905.728027,-111.264000,497.760010
899.872009,-109.311996,495.808014
907.679993,-95.648003,501.664001
899.872009,-109.311996,497.760010
899.872009,-111.264000,493.855988
899.872009,-109.311996,499.712006
901.823975,-103.456001,497.760010
901.823975,-103.456001,493.855988
899.872009,-91.744003,501.664001
901.823975,-101.503998,491.903992
894.015991,-113.216003,493.855988
897.919983,-91.744003,495.808014
901.823975,-91.744003,493.855988
901.823975,-99.552002,501.664001
905.728027,-105.407997,491.903992
905.728027,-105.407997,491.903992
890.112000,-107.360001,495.808014
895.968018,-91.744003,497.760010
897.919983,-101.503998,495.808014
897.919983,-95.648003,491.903992
899.872009,-83.935997,497.760010
901.823975,-97.599998,489.951996
894.015991,-109.311996,493.855988
892.064026,-95.648003,489.951996
892.064026,-95.648003,486.048004
894.015991,-91.744003,486.048004
892.064026,-89.792000,488.000000
892.064026,-95.648003,486.048004
892.064026,-97.599998,486.048004
897.919983,-89.792000,489.951996
892.064026,-97.599998,482.144012
894.015991,-93.695999,478.239990
888.159973,-97.599998,486.048004
899.872009,-87.839996,480.191986
897.919983,-87.839996,480.191986
888.159973,-93.695999,488.000000
894.015991,-97.599998,486.048004
894.015991,-93.695999,484.096008
882.304016,-89.792000,486.048004
882.304016,-87.839996,489.951996
888.159973,-89.792000,484.096008
884.255981,-89.792000,478.239990
890.112000,-81.984001,484.096008
890.112000,-85.888000,482.144012
888.159973,-87.839996,493.855988
882.304016,-89.792000,486.048004
886.208008,-89.792000,486.048004
882.304016,-81.984001,484.096008
884.255981,-81.984001,480.191986
882.304016,-80.031998,495.808014
878.400024,-76.127998,488.000000
884.255981,-78.080002,484.096008
886.208008,-78.080002,486.048004
874.495972,-78.080002,488.000000
878.400024,-72.223999,491.903992
888.159973,-76.127998,491.903992
890.112000,-83.935997,489.951996
884.255981,-80.031998,484.096008
878.400024,-78.080002,484.096008
870.591980,-76.127998,486.048004
878.400024,-81.984001,489.951996
880.351990,-81.984001,488.000000
876.447998,-76.127998,486.048004
884.255981,-83.935997,484.096008
872.544006,-74.176003,484.096008
874.495972,-74.176003,486.048004
868.640015,-68.320000,478.239990
864.736023,-76.127998,486.048004
862.783997,-68.320000,484.096008
864.736023,-68.320000,486.048004
853.023987,-72.223999,486.048004
868.640015,-78.080002,488.000000
860.831970,-70.272003,482.144012
854.976013,-60.512001,480.191986
853.023987,-60.512001,488.000000
851.072021,-60.512001,486.048004
849.119995,-68.320000,484.096008
851.072021,-68.320000,486.048004
849.119995,-64.416000,482.144012
847.168030,-72.223999,480.191986
843.263977,-74.176003,482.144012
843.263977,-78.080002,474.335999
839.359985,-74.176003,474.335999
843.263977,-68.320000,472.384003
841.312012,-72.223999,462.623993
839.359985,-70.272003,470.432007
835.455994,-60.512001,464.575989
841.312012,-70.272003,466.528015
835.455994,-80.031998,462.623993
827.648010,-72.223999,458.720001
833.504028,-76.127998,460.671997
829.599976,-72.223999,462.623993
833.504028,-74.176003,468.480011
835.455994,-72.223999,460.671997
827.648010,-72.223999,460.671997
823.744019,-74.176003,466.528015
829.599976,-78.080002,464.575989
831.552002,-78.080002,464.575989
833.504028,-72.223999,470.432007
831.552002,-74.176003,476.287994
841.312012,-76.127998,478.239990
835.455994,-93.695999,478.239990
833.504028,-80.031998,484.096008
833.504028,-72.223999,478.239990
837.408020,-74.176003,472.384003
825.695984,-72.223999,482.144012
825.695984,-72.223999,482.144012
821.791992,-81.984001,478.239990
823.744019,-66.367996,476.287994
825.695984,-72.223999,482.144012
821.791992,-83.935997,478.239990
821.791992,-78.080002,482.144012
821.791992,-74.176003,466.528015
821.791992,-80.031998,470.432007
813.984009,-72.223999,474.335999
815.935974,-64.416000,456.768005
812.031982,-81.984001,460.671997
810.080017,-85.888000,456.768005
808.127991,-83.935997,456.768005
810.080017,-78.080002,462.623993
808.127991,-80.031998,454.816010
813.984009,-85.888000,445.056000
810.080017,-85.888000,448.959991
810.080017,-74.176003,450.911987
806.176025,-85.888000,448.959991
808.127991,-87.839996,445.056000
806.176025,-87.839996,447.007996
802.271973,-81.984001,452.864014
802.271973,-87.839996,447.007996
794.463989,-81.984001,450.911987
802.271973,-76.127998,448.959991
806.176025,-78.080002,454.816010
802.271973,-85.888000,445.056000
804.223999,-85.888000,445.056000
792.512024,-87.839996,439.200012
794.463989,-74.176003,431.391998
798.367981,-81.984001,429.440002
786.656006,-80.031998,439.200012
790.559998,-78.080002,441.152008
788.607971,-80.031998,439.200012
788.607971,-80.031998,429.440002
788.607971,-76.127998,439.200012
790.559998,-81.984001,427.488007
788.607971,-76.127998,429.440002
784.703979,-78.080002,439.200012
790.559998,-85.888000,439.200012
788.607971,-81.984001,433.343994
780.799988,-74.176003,441.152008
786.656006,-70.272003,456.768005
790.559998,-78.080002,452.864014
790.559998,-74.176003,462.623993
788.607971,-76.127998,464.575989
784.703979,-66.367996,470.432007
794.463989,-56.608002,474.335999
796.416016,-60.512001,489.951996
792.512024,-56.608002,486.048004
794.463989,-50.751999,484.096008
786.656006,-44.896000,491.903992
784.703979,-50.751999,480.191986
790.559998,-42.944000,488.000000
782.752014,-40.992001,482.144012
790.559998,-46.848000,472.384003
790.559998,-44.896000,468.480011
772.992004,-40.992001,466.528015
780.799988,-50.751999,460.671997
772.992004,-54.655998,454.816010
769.088013,-46.848000,437.247986
771.039978,-44.896000,437.247986
767.135986,-50.751999,425.536011
759.328003,-48.799999,421.631989
759.328003,-50.751999,419.679993
757.375977,-52.703999,407.967987
759.328003,-56.608002,411.872009
763.231995,-56.608002,406.015991
759.328003,-64.416000,413.824005
759.328003,-52.703999,421.631989
753.471985,-52.703999,417.727997
759.328003,-46.848000,423.584015
757.375977,-50.751999,417.727997
765.184021,-40.992001,427.488007
763.231995,-42.944000,437.247986
753.471985,-39.040001,439.200012
753.471985,-39.040001,441.152008
757.375977,-37.088001,431.391998
757.375977,-44.896000,433.343994
753.471985,-33.183998,437.247986
745.664001,-37.088001,441.152008
757.375977,-39.040001,443.104004
745.664001,-29.280001,429.440002
745.664001,-35.136002,429.440002
745.664001,-42.944000,425.536011
743.711975,-37.088001,427.488007
747.616028,-37.088001,421.631989
737.856018,-35.136002,423.584015
737.856018,-35.136002,415.776001
737.856018,-37.088001,415.776001
730.047974,-42.944000,407.967987
733.952026,-46.848000,409.920013
733.952026,-42.944000,404.063995
730.047974,-44.896000,404.063995
728.096008,-48.799999,415.776001
728.096008,-48.799999,406.015991
718.335999,-46.848000,402.112000
722.239990,-40.992001,407.967987
724.192017,-42.944000,402.112000
728.096008,-33.183998,406.015991
733.952026,-40.992001,407.967987
732.000000,-35.136002,413.824005
728.096008,-44.896000,415.776001
735.903992,-35.136002,419.679993
733.952026,-40.992001,413.824005
737.856018,-37.088001,419.679993
735.903992,-35.136002,419.679993
732.000000,-39.040001,413.824005
737.856018,-31.232000,413.824005
743.711975,-35.136002,419.679993
743.711975,-42.944000,427.488007
745.664001,-42.944000,419.679993
751.520020,-50.751999,413.824005
751.520020,-39.040001,407.967987
747.616028,-40.992001,411.872009
751.520020,-44.896000,417.727997
755.424011,-39.040001,417.727997
755.424011,-46.848000,425.536011
757.375977,-40.992001,423.584015
763.231995,-46.848000,423.584015
763.231995,-58.560001,419.679993
765.184021,-46.848000,417.727997
763.231995,-39.040001,415.776001
761.280029,-40.992001,413.824005
765.184021,-48.799999,421.631989
774.943970,-40.992001,431.391998
767.135986,-40.992001,425.536011
769.088013,-40.992001,425.536011
769.088013,-44.896000,421.631989
776.895996,-44.896000,419.679993
774.943970,-56.608002,417.727997
778.848022,-60.512001,415.776001
776.895996,-56.608002,423.584015
790.559998,-48.799999,427.488007
790.559998,-50.751999,423.584015
794.463989,-56.608002,425.536011
794.463989,-52.703999,421.631989
806.176025,-42.944000,423.584015
804.223999,-39.040001,429.440002
808.127991,-35.136002,429.440002
823.744019,-29.280001,429.440002
853.023987,-40.992001,427.488007
870.591980,-27.327999,429.440002
860.831970,7.808000,427.488007
847.168030,33.183998,419.679993
843.263977,3.904000,423.584015
843.263977,9.760000,413.824005
835.455994,33.183998,415.776001
843.263977,15.616000,411.872009
845.216003,-27.327999,423.584015
854.976013,-64.416000,411.872009
851.072021,-50.751999,407.967987
856.927979,-74.176003,394.303986
866.687988,-89.792000,378.687988
858.880005,-97.599998,376.735992
853.023987,-87.839996,372.832001
833.504028,-78.080002,374.783997
813.984009,-68.320000,380.640015
780.799988,-72.223999,380.640015
784.703979,-83.935997,384.544006
769.088013,-70.272003,407.967987
767.135986,-74.176003,407.967987
771.039978,-97.599998,402.112000
772.992004,-128.832001,404.063995
792.512024,-117.120003,400.160004
808.127991,-91.744003,404.063995
823.744019,-121.024002,406.015991
817.888000,-140.544006,400.160004
810.080017,-105.407997,406.015991
813.984009,-78.080002,417.727997
806.176025,-101.503998,419.679993
813.984009,-109.311996,421.631989
808.127991,-93.695999,427.488007
821.791992,-76.127998,421.631989
808.127991,-81.984001,425.536011
819.840027,-62.464001,433.343994
819.840027,-76.127998,429.440002
804.223999,-72.223999,435.295990
813.984009,-70.272003,447.007996
815.935974,-64.416000,450.911987
815.935974,-111.264000,458.720001
823.744019,-111.264000,472.384003
821.791992,-103.456001,472.384003
827.648010,-117.120003,484.096008
837.408020,-136.639999,489.951996
819.840027,-140.544006,491.903992
819.840027,-132.735992,493.855988
821.791992,-138.591995,505.567993
831.552002,-150.304001,489.951996
817.888000,-150.304001,486.048004
823.744019,-136.639999,489.951996
819.840027,-124.928001,486.048004
823.744019,-124.928001,468.480011
835.455994,-134.688004,466.528015
831.552002,-109.311996,460.671997
841.312012,-93.695999,454.816010
835.455994,-87.839996,448.959991
839.359985,-101.503998,439.200012
837.408020,-101.503998,429.440002
837.408020,-80.031998,421.631989
847.168030,-83.935997,427.488007
847.168030,-91.744003,421.631989
843.263977,-113.216003,427.488007
841.312012,-105.407997,417.727997
841.312012,-93.695999,419.679993
819.840027,-115.167999,407.967987
837.408020,-124.928001,419.679993
837.408020,-115.167999,404.063995
819.840027,-128.832001,376.735992
837.408020,-140.544006,372.832001
819.840027,-138.591995,365.023987
829.599976,-152.255997,372.832001
829.599976,-163.968002,355.264008
819.840027,-163.968002,343.552002
821.791992,-163.968002,318.175995
823.744019,-163.968002,320.127991
815.935974,-163.968002,308.415985
819.840027,-175.679993,304.511993
813.984009,-171.776001,290.847992
819.840027,-165.919998,288.895996
813.984009,-177.632004,288.895996
810.080017,-187.391998,290.847992
796.416016,-156.160004,283.040009
780.799988,-152.255997,267.424011
778.848022,-150.304001,261.567993
802.271973,-173.727997,253.759995
808.127991,-183.488007,247.904007
821.791992,-187.391998,245.951996
825.695984,-175.679993,240.095993
829.599976,-171.776001,222.528000
831.552002,-195.199997,226.432007
835.455994,-179.584000,226.432007
854.976013,-160.063995,226.432007
868.640015,-189.343994,206.912003
872.544006,-228.384003,195.199997
878.400024,-169.824005,189.343994
882.304016,-183.488007,177.632004
894.015991,-244.000000,179.584000
892.064026,-212.768005,183.488007
890.112000,-171.776001,175.679993
890.112000,-165.919998,191.296005
884.255981,-187.391998,193.248001
876.447998,-150.304001,191.296005
864.736023,-85.888000,195.199997
931.104004,-56.608002,216.671997
966.239990,-89.792000,255.712006
1001.375977,-121.024002,283.040009
979.903992,-62.464001,316.223999
917.440002,9.760000,333.791992
878.400024,15.616000,337.696014
868.640015,1.952000,368.928009
868.640015,-9.760000,394.303986
806.176025,-220.576004,501.664001
741.760010,-404.063995,991.616028
911.583984,-119.071999,1307.839966
979.903992,-115.167999,1260.991943
1202.432007,-148.352005,1179.008057
1198.527954,-228.384003,1157.536011
1190.719971,-335.743988,1134.112061
1190.719971,-48.799999,1046.271973
1145.823975,-165.919998,970.143982
1114.592041,-324.032013,899.872009
1087.264038,-40.992001,772.992004
1054.079956,-50.751999,632.447998
1011.135986,-126.879997,511.424011
977.952026,48.799999,413.824005
935.007996,93.695999,314.272003
907.679993,46.848000,232.287994
888.159973,13.664000,191.296005
858.880005,31.232000,189.343994
866.687988,9.760000,218.623993
870.591980,-144.447998,265.471985
911.583984,-204.960007,308.415985
966.239990,-232.287994,361.119995
954.528015,-318.175995,402.112000
974.047974,-327.936005,439.200012
974.047974,-325.984009,466.528015
976.000000,-324.032013,470.432007
997.471985,-322.079987,472.384003
997.471985,-318.175995,456.768005
985.760010,-212.768005,433.343994
968.192017,-154.207993,415.776001
954.528015,-111.264000,409.920013
942.815979,-25.375999,402.112000
936.960022,27.327999,378.687988
952.575989,-1.952000,390.399994
940.864014,-37.088001,402.112000
944.768005,-62.464001,415.776001
944.768005,-111.264000,427.488007
952.575989,-148.352005,466.528015
968.192017,-181.535995,484.096008
972.096008,-204.960007,503.615997
974.047974,-220.576004,515.328003
964.288025,-203.007996,517.280029
964.288025,-160.063995,497.760010
970.143982,-136.639999,456.768005
950.624023,-175.679993,427.488007
948.671997,-212.768005,390.399994
940.864014,-208.863998,374.783997
935.007996,-179.584000,347.455994
925.247986,-140.544006,335.743988
921.343994,-128.832001,335.743988
923.296021,-140.544006,316.223999
954.528015,-154.207993,322.079987
913.536011,-201.056000,318.175995
851.072021,-224.479996,327.936005
915.487976,-187.391998,337.696014
927.200012,-140.544006,335.743988
933.056030,-206.912003,335.743988
901.823975,-294.752014,347.455994
870.591980,-284.992004,357.216003
886.208008,-247.904007,355.264008
907.679993,-257.664001,345.503998
897.919983,-255.712006,361.119995
909.632019,-257.664001,363.071991
905.728027,-306.463989,361.119995
903.776001,-343.552002,357.216003
890.112000,-325.984009,353.312012
895.968018,-329.888000,345.503998
892.064026,-329.888000,339.648010
892.064026,-290.847992,335.743988
888.159973,-228.384003,337.696014
894.015991,-214.720001,329.888000
892.064026,-222.528000,322.079987
892.064026,-220.576004,308.415985
899.872009,-247.904007,310.368011
894.015991,-275.231995,312.320007
899.872009,-286.944000,298.656006
895.968018,-279.135986,304.511993
888.159973,-255.712006,300.608002
886.208008,-249.856003,308.415985
876.447998,-220.576004,314.272003
888.159973,-208.863998,322.079987
884.255981,-224.479996,318.175995
880.351990,-236.192001,310.368011
876.447998,-251.807999,300.608002
872.544006,-261.567993,292.799988
876.447998,-271.328003,288.895996
880.351990,-253.759995,283.040009
880.351990,-218.623993,267.424011
876.447998,-197.151993,253.759995
858.880005,-185.440002,245.951996
864.736023,-203.007996,234.240005
856.927979,-245.951996,208.863998
862.783997,-284.992004,201.056000
866.687988,-284.992004,197.151993
872.544006,-251.807999,175.679993
864.736023,-189.343994,167.871994
851.072021,-152.255997,167.871994
853.023987,-134.688004,156.160004
860.831970,-150.304001,146.399994
851.072021,-179.584000,148.352005
858.880005,-201.056000,150.304001
860.831970,-251.807999,146.399994
854.976013,-267.424011,146.399994
854.976013,-247.904007,148.352005
853.023987,-189.343994,138.591995
843.263977,-146.399994,132.735992
854.976013,-167.871994,124.928001
868.640015,-214.720001,91.744003
860.831970,-279.135986,66.367996
813.984009,-296.704010,52.703999
778.848022,-245.951996,37.088001
763.231995,-146.399994,31.232000
800.320007,-119.071999,54.655998
837.408020,-163.968002,66.367996
854.976013,-261.567993,103.456001
858.880005,-310.368011,132.735992
884.255981,-345.503998,121.024002
894.015991,-339.648010,113.216003
903.776001,-347.455994,115.167999
905.728027,-310.368011,117.120003
882.304016,-240.095993,130.783997
872.544006,-230.335999,121.024002
862.783997,-257.664001,115.167999
872.544006,-267.424011,113.216003
899.872009,-279.135986,113.216003
878.400024,-257.664001,122.975998
894.015991,-216.671997,132.735992
901.823975,-171.776001,144.447998
923.296021,42.944000,167.871994
942.815979,335.743988,234.240005
946.719971,329.888000,294.752014
954.528015,27.327999,337.696014
952.575989,-361.119995,359.167999
940.864014,-597.312012,374.783997
938.911987,-564.127991,361.119995
948.671997,-322.079987,353.312012
954.528015,-31.232000,335.743988
954.528015,122.975998,296.704010
927.200012,21.472000,273.279999
1071.647949,-249.856003,201.056000
991.616028,-499.712006,171.776001
854.976013,-550.463989,162.016006
827.648010,-429.440002,132.735992
804.223999,-206.912003,78.080002
854.976013,9.760000,19.520000
864.736023,-40.992001,3.904000
899.872009,-353.312012,23.424000
917.440002,-646.112000,97.599998
976.000000,-704.671997,150.304001
981.856018,-493.855988,165.919998
946.719971,-121.024002,173.727997
895.968018,162.016006,158.112000
868.640015,271.328003,128.832001
884.255981,122.975998,91.744003
892.064026,-191.296005,54.655998
927.200012,-493.855988,31.232000
962.335999,-618.783997,1.952000
1005.280029,-505.567993,-25.375999
1003.328003,-322.079987,-58.560001
958.432007,-132.735992,-113.216003
1102.880005,50.751999,-144.447998
1097.024048,146.399994,-162.016006
925.247986,-33.183998,-99.552002
856.927979,-290.847992,-64.416000
903.776001,-417.727997,-85.888000
946.719971,-419.679993,-83.935997
1024.800049,-288.895996,-81.984001
1015.039978,-130.783997,-39.040001
974.047974,27.327999,9.760000
987.711975,103.456001,42.944000
1063.839966,208.863998,87.839996
1036.511963,318.175995,156.160004
1030.656006,298.656006,228.384003
1065.791992,3.904000,240.095993
1061.887939,-368.928009,224.479996
1069.696045,-614.880005,179.584000
1071.647949,-628.544006,158.112000
1132.160034,-433.343994,146.399994
1153.631958,-286.944000,134.688004
1114.592041,-370.880005,165.919998
1206.336060,-450.911987,177.632004
1128.255981,-353.312012,214.720001
1038.463989,-25.375999,222.528000
1083.359985,283.040009,181.535995
1141.920044,308.415985,119.071999
1079.456055,111.264000,70.272003
1011.135986,-121.024002,40.992001
1026.751953,-267.424011,-9.760000
1011.135986,-236.192001,-58.560001
1036.511963,-99.552002,-109.311996
1024.800049,68.320000,-148.352005
1024.800049,140.544006,-167.871994
997.471985,105.407997,-185.440002
1005.280029,37.088001,-226.432007
1015.039978,-13.664000,-238.143997
1018.943970,-68.320000,-224.479996
1050.176025,-89.792000,-218.623993
1056.031982,-37.088001,-216.671997
1095.072021,19.520000,-220.576004
1087.264038,173.727997,-197.151993
1122.400024,296.704010,-165.919998
1136.063965,411.872009,-136.639999
1143.871948,480.191986,-66.367996
1161.439941,493.855988,3.904000
1112.640015,411.872009,64.416000
1132.160034,165.919998,97.599998
1139.968018,-83.935997,95.648003
1227.807983,-273.279999,78.080002
1247.328003,-392.351990,124.928001
1188.767944,-290.847992,191.296005
1190.719971,62.464001,214.720001
1243.423950,357.216003,203.007996
1262.943970,419.679993,191.296005
1143.871948,226.432007,171.776001
1098.975952,-115.167999,93.695999
1050.176025,-366.976013,25.375999
1145.823975,-365.023987,-81.984001
1149.728027,-240.095993,-148.352005
1221.952026,-124.928001,-249.856003
1204.384033,-60.512001,-292.799988
1165.343994,17.568001,-288.895996
1286.368042,35.136002,-304.511993
1208.287964,181.535995,-265.471985
1423.008057,497.760010,-154.207993
1350.784058,525.088013,-7.808000
1106.784058,52.703999,128.832001
1022.848022,-562.176025,152.255997
1138.015991,-843.263977,117.120003
1038.463989,-661.728027,115.167999
974.047974,-267.424011,80.031998
1138.015991,185.440002,-27.327999
1020.895996,452.864014,-87.839996
1305.887939,786.656006,-245.951996
1423.008057,933.056030,-218.623993
1315.647949,579.744019,-148.352005
1378.112061,-134.688004,-101.503998
1259.040039,-847.168030,146.399994
1229.760010,-1180.959961,386.496002
1223.904053,-886.208008,540.703979
1206.336060,-167.871994,579.744019
1190.719971,550.463989,540.703979
1163.391968,800.320007,474.335999
1149.728027,521.184021,380.640015
1220.000000,-33.183998,247.904007
1221.952026,-503.615997,156.160004
1294.176025,-573.888000,74.176003
1497.183960,-265.471985,-56.608002
1122.400024,70.272003,-58.560001
1114.592041,390.399994,-115.167999
1175.104004,482.144012,-146.399994
1165.343994,204.960007,-201.056000
1083.359985,-167.871994,-193.248001
1143.871948,-318.175995,-218.623993
1157.536011,-318.175995,-251.807999
1202.432007,-263.519989,-294.752014
1200.479980,-138.591995,-300.608002
1233.663940,72.223999,-316.223999
1165.343994,244.000000,-308.415985
1165.343994,222.528000,-296.704010
1225.855957,33.183998,-302.559998
1100.927979,-206.912003,-265.471985
1253.183960,-351.359985,-314.272003
1145.823975,-501.664001,-228.384003
1220.000000,-579.744019,-146.399994
1091.167969,-564.127991,-17.568001
1048.223999,-17.568001,128.832001
935.007996,772.992004,271.328003
952.575989,1126.303955,306.463989
862.783997,763.231995,294.752014
1274.656006,-58.560001,70.272003
960.383972,-864.736023,33.183998
1218.047974,-1093.119995,-150.304001
962.335999,-741.760010,-171.776001
1239.520020,37.088001,-349.407990
960.383972,573.888000,-365.023987
933.056030,700.768005,-443.104004
911.583984,447.007996,-489.951996
940.864014,-48.799999,-538.752014
966.239990,-546.559998,-595.359985
868.640015,-849.119995,-634.400024
782.752014,-856.927979,-657.823975
1360.543945,-392.351990,-823.744019
819.840027,560.223999,-464.575989
858.880005,1311.744019,-333.791992
778.848022,1329.312012,-253.759995
788.607971,517.280029,-320.127991
972.096008,-665.632019,-474.335999
892.064026,-1415.199951,-560.223999
901.823975,-1360.543945,-648.064026
899.872009,-657.823975,-732.000000
829.599976,130.783997,-771.039978
851.072021,579.744019,-794.463989
851.072021,591.455994,-786.656006
897.919983,437.247986,-821.791992
907.679993,298.656006,-671.487976
788.607971,5.856000,-415.776001
771.039978,-521.184021,-335.743988
868.640015,-862.783997,-396.256012
1145.823975,-780.799988,-536.799988
1280.511963,-538.752014,-575.840027
1134.112061,-279.135986,-495.808014
1054.079956,64.416000,-400.160004
979.903992,341.600006,-259.615997
987.711975,370.880005,-160.063995
981.856018,154.207993,-66.367996
1034.560059,119.071999,103.456001
1134.112061,25.375999,454.816010
1409.343994,-558.271973,1104.832031
1829.024048,-1325.407959,2055.456055
2365.823975,-1719.712036,3310.592041
3000.224121,-1344.927979,4598.912109
3638.528076,181.535995,5227.456055
4442.751953,853.023987,5151.328125
5020.543945,195.199997,5004.928223
5065.439941,-286.944000,4636.000000
4159.711914,-212.768005,3736.127930
3117.343994,304.511993,2404.864014
2201.855957,-238.143997,1085.312012
1506.943970,-411.872009,105.407997
976.000000,247.904007,-663.679993
552.416016,160.063995,-1198.527954
247.904007,99.552002,-1512.800049
81.984001,-40.992001,-1754.848022
-312.320007,-111.264000,-1793.887939
-409.920013,23.424000,-1786.079956
-275.231995,232.287994,-1752.895996
-171.776001,179.584000,-1569.407959
244.000000,-54.655998,-1257.088013
583.648010,-489.951996,-765.184021
944.768005,-862.783997,-230.335999
1184.864014,-966.239990,251.807999
1220.000000,-895.968018,616.831970
1163.391968,-769.088013,835.455994
1089.215942,-687.104004,831.552002
1108.735962,-630.495972,624.640015
1136.063965,-603.168030,312.320007
1239.520020,-601.216003,46.848000
1378.112061,-692.960022,-126.879997
1514.751953,-776.895996,-257.664001
1319.552002,-696.864014,-314.272003
1141.920044,-544.607971,-445.056000
989.664001,-290.847992,-530.943970
874.495972,54.655998,-579.744019
689.056030,554.367981,-462.623993
642.208008,997.471985,-310.368011
624.640015,1159.488037,-195.199997
655.872009,1126.303955,-146.399994
798.367981,981.856018,-203.007996
927.200012,765.184021,-286.944000
1054.079956,542.656006,-318.175995
1143.871948,308.415985,-292.799988
1102.880005,-423.584015,-148.352005
1186.816040,-1426.911987,-122.975998
1175.104004,-1873.920044,-286.944000
1083.359985,-1626.015991,-521.184021
1007.231995,-1071.647949,-630.495972
620.736023,-634.400024,-593.408020
528.992004,-191.296005,-560.223999
450.911987,331.839996,-472.384003
704.671997,464.575989,-472.384003
1061.887939,240.095993,-411.872009
665.632019,242.048004,-27.327999
1102.880005,-302.559998,-163.968002
970.143982,-800.320007,-312.320007
-46.848000,-234.240005,-122.975998
-148.352005,-856.927979,-366.976013
244.000000,-1321.504028,-882.304016
892.064026,-772.992004,-1149.728027
1161.439941,-626.591980,-948.671997
1631.871948,-776.895996,-671.487976
1124.352051,-720.288025,-269.376007
571.935974,-292.799988,-115.167999
769.088013,-238.143997,-372.832001
1301.984009,-353.312012,-618.783997
1108.735962,-13.664000,-374.783997
751.520020,111.264000,-19.520000
1024.800049,9.760000,-27.327999
1159.488037,480.191986,7.808000
1102.880005,1073.599976,62.464001
1202.432007,1208.287964,-78.080002
1286.368042,1118.495972,-259.615997
1354.687988,1079.456055,-370.880005
1362.495972,870.591980,-345.503998
1413.248047,575.840027,-255.712006
1536.223999,283.040009,-191.296005
1600.640015,-35.136002,-156.160004
1518.656006,-335.743988,-136.639999
1262.943970,-417.727997,-259.615997
936.960022,-480.191986,-450.911987
790.559998,-1059.936035,-663.679993
767.135986,-1565.504028,-839.359985
706.624023,-1520.608032,-909.632019
650.015991,-1034.560059,-936.960022
566.080017,-564.127991,-782.752014
636.351990,-363.071991,-548.512024
732.000000,-290.847992,-339.648010
907.679993,-173.727997,-245.951996
981.856018,95.648003,-199.104004
981.856018,417.727997,-179.584000
950.624023,821.791992,-171.776001
1241.472046,936.960022,-191.296005
1540.128052,831.552002,-165.919998
1545.984009,1020.895996,-72.223999
1307.839966,1015.039978,-39.040001
1161.439941,185.440002,-113.216003
1108.735962,140.544006,-316.223999
788.607971,302.559998,-357.216003
1081.407959,-165.919998,-345.503998
1118.495972,-1288.319946,-148.352005
991.616028,-1819.264038,-312.320007
765.184021,-1715.807983,-765.184021
657.823975,-1153.631958,-1126.303955
564.127991,-605.119995,-1091.167969
564.127991,-185.440002,-765.184021
732.000000,132.735992,-388.447998
854.976013,302.559998,-52.703999
989.664001,425.536011,162.016006
1108.735962,525.088013,212.768005
1159.488037,650.015991,128.832001
1231.712036,702.719971,3.904000
1270.751953,825.695984,-44.896000
1319.552002,972.096008,-64.416000
1372.255981,866.687988,-74.176003
1382.015991,486.048004,-101.503998
1313.696045,35.136002,-177.632004
1153.631958,-224.479996,-366.976013
1007.231995,-357.216003,-544.607971
876.447998,-493.855988,-577.791992
833.504028,-482.144012,-503.615997
829.599976,-441.152008,-368.928009
860.831970,-396.256012,-292.799988
892.064026,-240.095993,-277.183990
931.104004,-74.176003,-267.424011
956.479980,87.839996,-226.432007
1075.552002,-275.231995,-222.528000
1071.647949,-1079.456055,-325.984009
981.856018,-507.519989,-702.719971
831.552002,-445.056000,-706.624023
853.023987,-407.967987,-450.911987
935.007996,-245.951996,-177.632004
1022.848022,-44.896000,-72.223999
1091.167969,76.127998,-91.744003
1134.112061,134.688004,-144.447998
1136.063965,169.824005,-210.815994
1110.687988,171.776001,-259.615997
1085.312012,163.968002,-300.608002
1069.696045,138.591995,-324.032013
1052.128052,107.360001,-339.648010
1046.271973,95.648003,-333.791992
1028.703979,93.695999,-331.839996
1011.135986,103.456001,-325.984009
1024.800049,113.216003,-327.936005
1022.848022,109.311996,-316.223999
1022.848022,87.839996,-312.320007
1048.223999,56.608002,-331.839996
1063.839966,33.183998,-343.552002
1069.696045,33.183998,-325.984009
1100.927979,35.136002,-331.839996
1116.543945,48.799999,-325.984009
1134.112061,46.848000,-322.079987
1134.112061,48.799999,-316.223999
1132.160034,39.040001,-322.079987
1104.832031,21.472000,-337.696014
1102.880005,15.616000,-365.023987
1114.592041,17.568001,-359.167999
1122.400024,31.232000,-341.600006
1138.015991,44.896000,-322.079987
1171.199951,54.655998,-294.752014
1173.151978,52.703999,-273.279999
1179.008057,37.088001,-269.376007
1192.671997,37.088001,-284.992004
1173.151978,23.424000,-288.895996
1147.776001,31.232000,-314.272003
1134.112061,40.992001,-345.503998
1112.640015,42.944000,-355.264008
1104.832031,44.896000,-353.312012
1091.167969,33.183998,-331.839996
1081.407959,40.992001,-314.272003
1079.456055,29.280001,-300.608002
1067.744019,29.280001,-294.752014
1071.647949,23.424000,-306.463989
1075.552002,33.183998,-312.320007
1075.552002,40.992001,-300.608002
1083.359985,35.136002,-288.895996
1077.504028,15.616000,-296.704010
1079.456055,19.520000,-310.368011
1073.599976,11.712000,-314.272003
1077.504028,7.808000,-310.368011
1075.552002,-3.904000,-302.559998
1075.552002,-7.808000,-290.847992
1069.696045,-9.760000,-304.511993
1079.456055,-19.520000,-316.223999
1079.456055,-17.568001,-322.079987
1073.599976,1.952000,-329.888000
1075.552002,7.808000,-306.463989
1071.647949,29.280001,-292.799988
1071.647949,13.664000,-302.559998
1061.887939,15.616000,-320.127991
1061.887939,1.952000,-343.552002
1054.079956,3.904000,-351.359985
1046.271973,0.000000,-337.696014
1044.319946,13.664000,-333.791992
1054.079956,7.808000,-329.888000
1052.128052,3.904000,-343.552002
1052.128052,1.952000,-341.600006
1030.656006,11.712000,-337.696014
1022.848022,-7.808000,-347.455994
1018.943970,-13.664000,-359.167999
1013.088013,-15.616000,-363.071991
1001.375977,-21.472000,-365.023987
993.567993,-25.375999,-363.071991
981.856018,-13.664000,-366.976013
981.856018,-5.856000,-374.783997
966.239990,-5.856000,-390.399994
962.335999,-7.808000,-390.399994
958.432007,-7.808000,-402.112000
960.383972,-7.808000,-402.112000
952.575989,-1.952000,-400.160004
958.432007,-9.760000,-407.967987
950.624023,-27.327999,-413.824005
954.528015,-27.327999,-409.920013
942.815979,-27.327999,-406.015991
944.768005,-40.992001,-419.679993
936.960022,-50.751999,-431.391998
950.624023,-64.416000,-445.056000
942.815979,-62.464001,-460.671997
940.864014,-48.799999,-464.575989
917.440002,-44.896000,-472.384003
905.728027,-56.608002,-472.384003
903.776001,-64.416000,-484.096008
903.776001,-68.320000,-495.808014
892.064026,-78.080002,-499.712006
899.872009,-83.935997,-505.567993
911.583984,-85.888000,-509.471985
897.919983,-80.031998,-511.424011
911.583984,-83.935997,-507.519989
917.440002,-85.888000,-515.328003
905.728027,-91.744003,-519.231995
909.632019,-87.839996,-513.375977
917.440002,-97.599998,-530.943970
907.679993,-93.695999,-525.088013
903.776001,-85.888000,-523.135986
903.776001,-83.935997,-536.799988
899.872009,-97.599998,-546.559998
897.919983,-103.456001,-532.895996
907.679993,-103.456001,-530.943970
890.112000,-95.648003,-528.992004
894.015991,-111.264000,-536.799988
886.208008,-105.407997,-532.895996
880.351990,-111.264000,-540.703979
897.919983,-113.216003,-542.656006
901.823975,-119.071999,-552.416016
919.392029,-113.216003,-550.463989
923.296021,-99.552002,-521.184021
915.487976,-103.456001,-523.135986
899.872009,-91.744003,-540.703979
895.968018,-99.552002,-548.512024
901.823975,-109.311996,-560.223999
897.919983,-119.071999,-548.512024
894.015991,-142.496002,-523.135986
897.919983,-130.783997,-513.375977
890.112000,-124.928001,-528.992004
884.255981,-134.688004,-525.088013
849.119995,-115.167999,-523.135986
819.840027,-132.735992,-536.799988
774.943970,-162.016006,-538.752014
692.960022,-150.304001,-538.752014
718.335999,-337.696014,-546.559998
722.239990,-214.720001,-589.504028
751.520020,-409.920013,-499.712006
751.520020,-443.104004,-437.247986
767.135986,-501.664001,-448.959991
833.504028,-497.760010,-456.768005
882.304016,-550.463989,-441.152008
884.255981,-413.824005,-464.575989
917.440002,-372.832001,-439.200012
958.432007,-368.928009,-417.727997
991.616028,-357.216003,-411.872009
1001.375977,-431.391998,-394.303986
1034.560059,-536.799988,-392.351990
1057.984009,-603.168030,-353.312012
1081.407959,-661.728027,-329.888000
1102.880005,-702.719971,-325.984009
1098.975952,-702.719971,-324.032013
1095.072021,-708.575989,-353.312012
1102.880005,-642.208008,-417.727997
1106.784058,-519.231995,-468.480011
1087.264038,-333.791992,-523.135986
1046.271973,-169.824005,-550.463989
1007.231995,-37.088001,-577.791992
995.520020,15.616000,-605.119995
1059.936035,11.712000,-626.591980
1116.543945,-13.664000,-636.351990
1122.400024,-33.183998,-626.591980
1095.072021,-42.944000,-638.304016
1042.368042,-13.664000,-663.679993
999.424011,17.568001,-708.575989
987.711975,42.944000,-718.335999
1001.375977,93.695999,-704.671997
1044.319946,130.783997,-659.776001
1085.312012,156.160004,-618.783997
1126.303955,115.167999,-597.312012
1138.015991,39.040001,-585.599976
1145.823975,-17.568001,-599.263977
1128.255981,-40.992001,-609.023987
1130.208008,3.904000,-616.831970
1120.447998,103.456001,-607.072021
1128.255981,197.151993,-599.263977
1126.303955,255.712006,-573.888000
1134.112061,281.088013,-554.367981
1151.680054,259.615997,-558.271973
1155.583984,206.912003,-562.176025
1149.728027,183.488007,-566.080017
1151.680054,162.016006,-540.703979
1161.439941,156.160004,-519.231995
1157.536011,144.447998,-493.855988
1155.583984,128.832001,-499.712006
1151.680054,115.167999,-503.615997
1139.968018,87.839996,-495.808014
1149.728027,50.751999,-478.239990
1153.631958,33.183998,-478.239990
1136.063965,11.712000,-476.287994
1097.024048,-158.112000,-435.295990
1093.119995,-206.912003,-480.191986
1138.015991,-126.879997,-511.424011
1130.208008,-152.255997,-458.720001
1136.063965,5.856000,-439.200012
1118.495972,50.751999,-437.247986
1095.072021,83.935997,-474.335999
1071.647949,33.183998,-511.424011
1061.887939,-19.520000,-515.328003
1077.504028,-85.888000,-509.471985
1102.880005,-111.264000,-470.432007
1106.784058,-113.216003,-452.864014
1097.024048,-89.792000,-464.575989
1071.647949,-85.888000,-503.615997
1052.128052,-81.984001,-513.375977
1034.560059,-89.792000,-515.328003
1026.751953,-87.839996,-517.280029
1032.608032,-122.975998,-503.615997
1032.608032,-142.496002,-515.328003
1018.943970,-158.112000,-523.135986
1013.088013,-162.016006,-536.799988
1005.280029,-158.112000,-550.463989
1001.375977,-146.399994,-538.752014
991.616028,-156.160004,-546.559998
991.616028,-163.968002,-538.752014
983.807983,-197.151993,-540.703979
987.711975,-224.479996,-558.271973
991.616028,-226.432007,-562.176025
991.616028,-203.007996,-554.367981
991.616028,-187.391998,-552.416016
991.616028,-171.776001,-548.512024
991.616028,-169.824005,-554.367981
993.567993,-171.776001,-564.127991
989.664001,-189.343994,-562.176025
989.664001,-183.488007,-552.416016
997.471985,-173.727997,-548.512024
1005.280029,-150.304001,-546.559998
997.471985,-128.832001,-548.512024
985.760010,-124.928001,-544.607971
983.807983,-132.735992,-548.512024
989.664001,-140.544006,-550.463989
1003.328003,-130.783997,-534.848022
1009.184021,-119.071999,-525.088013
1020.895996,-111.264000,-519.231995
1024.800049,-113.216003,-534.848022
1013.088013,-107.360001,-528.992004
1011.135986,-99.552002,-530.943970
1020.895996,-99.552002,-523.135986
1016.992004,-99.552002,-519.231995
1013.088013,-109.311996,-521.184021
1013.088013,-109.311996,-519.231995
1018.943970,-105.407997,-517.280029
1020.895996,-103.456001,-521.184021
1009.184021,-113.216003,-515.328003
1011.135986,-109.311996,-517.280029
1001.375977,-111.264000,-525.088013
1003.328003,-107.360001,-525.088013
1001.375977,-117.120003,-515.328003
1009.184021,-121.024002,-515.328003
1007.231995,-122.975998,-517.280029
1009.184021,-140.544006,-521.184021
995.520020,-148.352005,-513.375977
989.664001,-150.304001,-519.231995
997.471985,-152.255997,-523.135986
983.807983,-158.112000,-525.088013
981.856018,-165.919998,-523.135986
983.807983,-160.063995,-528.992004
979.903992,-169.824005,-528.992004
974.047974,-173.727997,-527.039978
979.903992,-179.584000,-528.992004
974.047974,-181.535995,-527.039978
981.856018,-187.391998,-523.135986
976.000000,-185.440002,-523.135986
977.952026,-201.056000,-530.943970
966.239990,-203.007996,-532.895996
964.288025,-195.199997,-538.752014
950.624023,-197.151993,-552.416016
942.815979,-203.007996,-550.463989
944.768005,-210.815994,-558.271973
950.624023,-208.863998,-546.559998
954.528015,-212.768005,-546.559998
954.528015,-214.720001,-544.607971
950.624023,-212.768005,-536.799988
940.864014,-204.960007,-538.752014
946.719971,-197.151993,-546.559998
946.719971,-197.151993,-546.559998
954.528015,-197.151993,-542.656006
944.768005,-199.104004,-530.943970
940.864014,-201.056000,-540.703979
933.056030,-204.960007,-542.656006
940.864014,-191.296005,-542.656006
933.056030,-191.296005,-540.703979
938.911987,-189.343994,-534.848022
940.864014,-181.535995,-530.943970
938.911987,-187.391998,-530.943970
940.864014,-179.584000,-530.943970
942.815979,-173.727997,-528.992004
933.056030,-165.919998,-528.992004
935.007996,-171.776001,-530.943970
929.151978,-163.968002,-528.992004
942.815979,-169.824005,-530.943970
942.815979,-154.207993,-523.135986
933.056030,-160.063995,-527.039978
933.056030,-162.016006,-527.039978
929.151978,-163.968002,-527.039978
931.104004,-165.919998,-534.848022
931.104004,-160.063995,-527.039978
929.151978,-158.112000,-528.992004
929.151978,-152.255997,-528.992004
938.911987,-163.968002,-536.799988
942.815979,-158.112000,-546.559998
956.479980,-146.399994,-556.320007
948.671997,-134.688004,-562.176025
923.296021,-156.160004,-554.367981
872.544006,-179.584000,-544.607971
821.791992,-222.528000,-560.223999
788.607971,-247.904007,-583.648010
794.463989,-228.384003,-595.359985
833.504028,-140.544006,-579.744019
897.919983,-99.552002,-525.088013
946.719971,-105.407997,-493.855988
954.528015,-162.016006,-488.000000
935.007996,-251.807999,-501.664001
907.679993,-298.656006,-527.039978
888.159973,-283.040009,-546.559998
866.687988,-222.528000,-528.992004
876.447998,-156.160004,-532.895996
882.304016,-142.496002,-532.895996
878.400024,-142.496002,-515.328003
874.495972,-162.016006,-511.424011
853.023987,-156.160004,-513.375977
845.216003,-134.688004,-511.424011
849.119995,-119.071999,-515.328003
872.544006,-126.879997,-503.615997
895.968018,-134.688004,-488.000000
921.343994,-150.304001,-470.432007
938.911987,-167.871994,-452.864014
946.719971,-171.776001,-452.864014
933.056030,-163.968002,-466.528015
909.632019,-146.399994,-478.239990
901.823975,-138.591995,-491.903992
901.823975,-132.735992,-495.808014
905.728027,-130.783997,-488.000000
909.632019,-113.216003,-478.239990
892.064026,-119.071999,-489.951996
894.015991,-126.879997,-486.048004
886.208008,-136.639999,-503.615997
882.304016,-148.352005,-497.760010
884.255981,-150.304001,-503.615997
890.112000,-130.783997,-499.712006
899.872009,-144.447998,-493.855988
890.112000,-138.591995,-493.855988
894.015991,-148.352005,-497.760010
890.112000,-140.544006,-507.519989
890.112000,-126.879997,-495.808014
884.255981,-119.071999,-507.519989
878.400024,-117.120003,-505.567993
862.783997,-103.456001,-513.375977
866.687988,-113.216003,-513.375977
866.687988,-117.120003,-517.280029
880.351990,-124.928001,-509.471985
874.495972,-113.216003,-499.712006
884.255981,-103.456001,-493.855988
878.400024,-101.503998,-507.519989
882.304016,-105.407997,-507.519989
884.255981,-99.552002,-505.567993
882.304016,-113.216003,-497.760010
884.255981,-105.407997,-495.808014
888.159973,-107.360001,-491.903992
888.159973,-109.311996,-495.808014
878.400024,-121.024002,-495.808014
886.208008,-103.456001,-489.951996
876.447998,-99.552002,-493.855988
880.351990,-103.456001,-491.903992
874.495972,-105.407997,-486.048004
870.591980,-117.120003,-482.144012
880.351990,-119.071999,-474.335999
874.495972,-122.975998,-482.144012
874.495972,-128.832001,-484.096008
872.544006,-126.879997,-478.239990
874.495972,-117.120003,-478.239990
862.783997,-111.264000,-493.855988
856.927979,-103.456001,-489.951996
854.976013,-105.407997,-497.760010
854.976013,-107.360001,-497.760010
851.072021,-107.360001,-497.760010
843.263977,-109.311996,-501.664001
841.312012,-109.311996,-505.567993
847.168030,-105.407997,-501.664001
847.168030,-95.648003,-507.519989
853.023987,-87.839996,-511.424011
851.072021,-97.599998,-511.424011
851.072021,-95.648003,-513.375977
841.312012,-93.695999,-515.328003
841.312012,-85.888000,-519.231995
841.312012,-87.839996,-515.328003
847.168030,-76.127998,-505.567993
839.359985,-85.888000,-511.424011
847.168030,-81.984001,-515.328003
853.023987,-78.080002,-515.328003
835.455994,-80.031998,-511.424011
847.168030,-80.031998,-513.375977
853.023987,-76.127998,-501.664001
851.072021,-72.223999,-505.567993
856.927979,-68.320000,-505.567993
860.831970,-60.512001,-501.664001
862.783997,-62.464001,-515.328003
864.736023,-66.367996,-501.664001
872.544006,-68.320000,-503.615997
870.591980,-64.416000,-495.808014
870.591980,-58.560001,-497.760010
868.640015,-64.416000,-486.048004
862.783997,-56.608002,-495.808014
864.736023,-56.608002,-499.712006
866.687988,-60.512001,-501.664001
876.447998,-52.703999,-499.712006
884.255981,-52.703999,-488.000000
882.304016,-60.512001,-486.048004
872.544006,-62.464001,-484.096008
884.255981,-60.512001,-491.903992
876.447998,-60.512001,-499.712006
866.687988,-48.799999,-489.951996
872.544006,-46.848000,-499.712006
866.687988,-50.751999,-503.615997
864.736023,-37.088001,-499.712006
864.736023,-35.136002,-501.664001
868.640015,-40.992001,-511.424011
872.544006,-37.088001,-509.471985
864.736023,-40.992001,-509.471985
862.783997,-44.896000,-509.471985
872.544006,-37.088001,-515.328003
868.640015,-31.232000,-515.328003
866.687988,-29.280001,-509.471985
862.783997,-29.280001,-511.424011
872.544006,-37.088001,-515.328003
862.783997,-33.183998,-507.519989
860.831970,-33.183998,-513.375977
860.831970,-31.232000,-509.471985
864.736023,-33.183998,-501.664001
870.591980,-39.040001,-503.615997
872.544006,-31.232000,-507.519989
866.687988,-35.136002,-509.471985
868.640015,-33.183998,-497.760010
872.544006,-42.944000,-491.903992
870.591980,-39.040001,-497.760010
866.687988,-29.280001,-497.760010
870.591980,-27.327999,-497.760010
872.544006,-27.327999,-503.615997
870.591980,-33.183998,-507.519989
866.687988,-27.327999,-497.760010
868.640015,-21.472000,-493.855988
880.351990,-37.088001,-484.096008
886.208008,-33.183998,-493.855988
878.400024,-37.088001,-493.855988
880.351990,-35.136002,-493.855988
888.159973,-35.136002,-491.903992
886.208008,-40.992001,-491.903992
880.351990,-42.944000,-489.951996
888.159973,-39.040001,-486.048004
884.255981,-52.703999,-489.951996
870.591980,-42.944000,-493.855988
884.255981,-42.944000,-499.712006
888.159973,-44.896000,-495.808014
886.208008,-48.799999,-497.760010
878.400024,-33.183998,-493.855988
878.400024,-35.136002,-509.471985
884.255981,-44.896000,-509.471985
878.400024,-33.183998,-505.567993
878.400024,-37.088001,-503.615997
882.304016,-44.896000,-497.760010
872.544006,-50.751999,-503.615997
868.640015,-46.848000,-505.567993
864.736023,-58.560001,-503.615997
862.783997,-44.896000,-507.519989
872.544006,-40.992001,-501.664001
872.544006,-40.992001,-505.567993
878.400024,-44.896000,-491.903992
874.495972,-54.655998,-501.664001
853.023987,-62.464001,-499.712006
858.880005,-42.944000,-513.375977
858.880005,-54.655998,-501.664001
858.880005,-42.944000,-499.712006
872.544006,-48.799999,-499.712006
866.687988,-60.512001,-497.760010
860.831970,-52.703999,-505.567993
864.736023,-54.655998,-513.375977
862.783997,-52.703999,-503.615997
864.736023,-60.512001,-497.760010
860.831970,-50.751999,-497.760010
864.736023,-58.560001,-497.760010
858.880005,-70.272003,-497.760010
851.072021,-74.176003,-497.760010
858.880005,-68.320000,-499.712006
858.880005,-62.464001,-499.712006
856.927979,-62.464001,-497.760010
858.880005,-62.464001,-491.903992
864.736023,-64.416000,-497.760010
851.072021,-66.367996,-501.664001
856.927979,-64.416000,-503.615997
847.168030,-64.416000,-499.712006
856.927979,-66.367996,-499.712006
853.023987,-68.320000,-499.712006
868.640015,-72.223999,-499.712006
854.976013,-66.367996,-505.567993
858.880005,-74.176003,-503.615997
856.927979,-68.320000,-507.519989
860.831970,-78.080002,-505.567993
851.072021,-70.272003,-491.903992
864.736023,-72.223999,-505.567993
858.880005,-68.320000,-503.615997
858.880005,-74.176003,-501.664001
854.976013,-78.080002,-501.664001
847.168030,-74.176003,-511.424011
864.736023,-80.031998,-503.615997
862.783997,-78.080002,-499.712006
868.640015,-81.984001,-493.855988
860.831970,-78.080002,-495.808014
862.783997,-81.984001,-499.712006
860.831970,-80.031998,-501.664001
854.976013,-85.888000,-497.760010
854.976013,-87.839996,-495.808014
858.880005,-87.839996,-499.712006
860.831970,-91.744003,-486.048004
851.072021,-85.888000,-501.664001
856.927979,-87.839996,-493.855988
864.736023,-80.031998,-495.808014
854.976013,-81.984001,-503.615997
854.976013,-85.888000,-497.760010
868.640015,-93.695999,-497.760010
870.591980,-81.984001,-503.615997
868.640015,-89.792000,-497.760010
864.736023,-91.744003,-497.760010
866.687988,-93.695999,-501.664001
868.640015,-83.935997,-499.712006
872.544006,-81.984001,-499.712006
874.495972,-85.888000,-497.760010
874.495972,-89.792000,-499.712006
874.495972,-89.792000,-499.712006
872.544006,-89.792000,-497.760010
878.400024,-87.839996,-503.615997
880.351990,-87.839996,-505.567993
880.351990,-85.888000,-499.712006
880.351990,-89.792000,-499.712006
872.544006,-83.935997,-499.712006
880.351990,-93.695999,-495.808014
882.304016,-80.031998,-497.760010
880.351990,-91.744003,-499.712006
890.112000,-93.695999,-491.903992
884.255981,-93.695999,-499.712006
882.304016,-87.839996,-495.808014
872.544006,-81.984001,-480.191986
874.495972,-87.839996,-482.144012
884.255981,-83.935997,-488.000000
874.495972,-89.792000,-480.191986
882.304016,-91.744003,-482.144012
882.304016,-95.648003,-486.048004
882.304016,-89.792000,-482.144012
880.351990,-93.695999,-488.000000
882.304016,-89.792000,-482.144012
874.495972,-99.552002,-478.239990
880.351990,-99.552002,-476.287994
884.255981,-93.695999,-476.287994
880.351990,-91.744003,-484.096008
878.400024,-101.503998,-466.528015
876.447998,-101.503998,-478.239990
880.351990,-97.599998,-480.191986
872.544006,-109.311996,-480.191986
878.400024,-107.360001,-482.144012
876.447998,-105.407997,-484.096008
872.544006,-103.456001,-472.384003
880.351990,-107.360001,-476.287994
874.495972,-109.311996,-472.384003
876.447998,-105.407997,-480.191986
880.351990,-111.264000,-468.480011
872.544006,-105.407997,-464.575989
880.351990,-113.216003,-466.528015
872.544006,-113.216003,-468.480011
882.304016,-107.360001,-472.384003
872.544006,-109.311996,-472.384003
872.544006,-115.167999,-460.671997
870.591980,-113.216003,-460.671997
872.544006,-113.216003,-462.623993
862.783997,-113.216003,-468.480011
860.831970,-122.975998,-462.623993
866.687988,-128.832001,-470.432007
858.880005,-117.120003,-468.480011
858.880005,-126.879997,-462.623993
868.640015,-124.928001,-458.720001
860.831970,-126.879997,-464.575989
854.976013,-128.832001,-454.816010
858.880005,-128.832001,-464.575989
853.023987,-134.688004,-458.720001
854.976013,-134.688004,-450.911987
851.072021,-136.639999,-464.575989
854.976013,-134.688004,-454.816010
845.216003,-138.591995,-454.816010
849.119995,-138.591995,-458.720001
835.455994,-148.352005,-454.816010
839.359985,-138.591995,-454.816010
837.408020,-138.591995,-460.671997
837.408020,-130.783997,-458.720001
835.455994,-138.591995,-454.816010
847.168030,-138.591995,-450.911987
837.408020,-146.399994,-460.671997
839.359985,-156.160004,-454.816010
827.648010,-146.399994,-452.864014
835.455994,-142.496002,-450.911987
823.744019,-140.544006,-458.720001
827.648010,-144.447998,-448.959991
825.695984,-146.399994,-452.864014
825.695984,-165.919998,-452.864014
829.599976,-156.160004,-450.911987
819.840027,-160.063995,-450.911987
819.840027,-152.255997,-450.911987
825.695984,-156.160004,-448.959991
823.744019,-154.207993,-450.911987
812.031982,-158.112000,-448.959991
808.127991,-154.207993,-447.007996
812.031982,-154.207993,-448.959991
815.935974,-169.824005,-452.864014
821.791992,-150.304001,-441.152008
815.935974,-162.016006,-443.104004
817.888000,-175.679993,-445.056000
817.888000,-177.632004,-441.152008
812.031982,-171.776001,-443.104004
806.176025,-165.919998,-443.104004
802.271973,-158.112000,-441.152008
800.320007,-167.871994,-447.007996
806.176025,-169.824005,-447.007996
800.320007,-173.727997,-439.200012
800.320007,-171.776001,-441.152008
806.176025,-163.968002,-437.247986
792.512024,-169.824005,-435.295990
794.463989,-165.919998,-447.007996
790.559998,-167.871994,-439.200012
790.559998,-162.016006,-443.104004
786.656006,-169.824005,-445.056000
786.656006,-169.824005,-443.104004
790.559998,-171.776001,-448.959991
786.656006,-177.632004,-448.959991
786.656006,-171.776001,-435.295990
794.463989,-173.727997,-447.007996
786.656006,-169.824005,-445.056000
786.656006,-177.632004,-443.104004
786.656006,-177.632004,-443.104004
790.559998,-162.016006,-443.104004
786.656006,-175.679993,-435.295990
784.703979,-173.727997,-439.200012
788.607971,-175.679993,-445.056000
784.703979,-173.727997,-443.104004
786.656006,-171.776001,-445.056000
792.512024,-167.871994,-447.007996
790.559998,-163.968002,-452.864014
784.703979,-167.871994,-439.200012
786.656006,-165.919998,-439.200012
794.463989,-163.968002,-445.056000
802.271973,-162.016006,-443.104004
800.320007,-171.776001,-443.104004
794.463989,-158.112000,-450.911987
794.463989,-162.016006,-443.104004
804.223999,-160.063995,-445.056000
796.416016,-156.160004,-443.104004
796.416016,-160.063995,-439.200012
804.223999,-154.207993,-433.343994
802.271973,-152.255997,-435.295990
804.223999,-158.112000,-441.152008
804.223999,-152.255997,-437.247986
804.223999,-163.968002,-435.295990
808.127991,-163.968002,-443.104004
813.984009,-163.968002,-435.295990
810.080017,-163.968002,-443.104004
802.271973,-160.063995,-439.200012
794.463989,-150.304001,-443.104004
800.320007,-156.160004,-447.007996
806.176025,-152.255997,-443.104004
804.223999,-150.304001,-448.959991
792.512024,-158.112000,-448.959991
794.463989,-148.352005,-441.152008
792.512024,-148.352005,-447.007996
786.656006,-146.399994,-448.959991
798.367981,-144.447998,-441.152008
790.559998,-142.496002,-452.864014
788.607971,-142.496002,-452.864014
792.512024,-130.783997,-447.007996
788.607971,-132.735992,-448.959991
792.512024,-132.735992,-450.911987
792.512024,-128.832001,-452.864014
790.559998,-140.544006,-447.007996
790.559998,-140.544006,-452.864014
792.512024,-136.639999,-448.959991
798.367981,-132.735992,-454.816010
788.607971,-134.688004,-456.768005
782.752014,-126.879997,-448.959991
786.656006,-132.735992,-460.671997
788.607971,-132.735992,-450.911987
784.703979,-132.735992,-447.007996
796.416016,-138.591995,-464.575989
788.607971,-132.735992,-460.671997
796.416016,-142.496002,-454.816010
808.127991,-142.496002,-450.911987
808.127991,-130.783997,-450.911987
810.080017,-134.688004,-448.959991
808.127991,-130.783997,-452.864014
810.080017,-130.783997,-447.007996
800.320007,-117.120003,-456.768005
808.127991,-117.120003,-460.671997
810.080017,-126.879997,-454.816010
810.080017,-124.928001,-460.671997
813.984009,-130.783997,-454.816010
819.840027,-121.024002,-450.911987
829.599976,-115.167999,-460.671997
833.504028,-124.928001,-454.816010
823.744019,-126.879997,-462.623993
825.695984,-126.879997,-460.671997
823.744019,-115.167999,-452.864014
837.408020,-111.264000,-447.007996
833.504028,-111.264000,-452.864014
829.599976,-111.264000,-464.575989
833.504028,-115.167999,-454.816010
835.455994,-111.264000,-462.623993
847.168030,-115.167999,-456.768005
845.216003,-111.264000,-454.816010
845.216003,-117.120003,-450.911987
843.263977,-107.360001,-452.864014
845.216003,-107.360001,-454.816010
839.359985,-117.120003,-454.816010
843.263977,-109.311996,-468.480011
853.023987,-121.024002,-456.768005
845.216003,-111.264000,-450.911987
853.023987,-107.360001,-454.816010
843.263977,-101.503998,-458.720001
854.976013,-101.503998,-450.911987
856.927979,-99.552002,-462.623993
854.976013,-109.311996,-464.575989
858.880005,-115.167999,-458.720001
856.927979,-122.975998,-454.816010
864.736023,-111.264000,-456.768005
858.880005,-107.360001,-456.768005
862.783997,-109.311996,-462.623993
858.880005,-95.648003,-464.575989
860.831970,-91.744003,-462.623993
854.976013,-105.407997,-464.575989
854.976013,-99.552002,-454.816010
849.119995,-101.503998,-458.720001
858.880005,-97.599998,-454.816010
868.640015,-101.503998,-458.720001
866.687988,-101.503998,-472.384003
866.687988,-95.648003,-466.528015
868.640015,-93.695999,-464.575989
868.640015,-101.503998,-466.528015
864.736023,-103.456001,-466.528015
860.831970,-101.503998,-468.480011
862.783997,-95.648003,-466.528015
866.687988,-109.311996,-468.480011
862.783997,-99.552002,-464.575989
860.831970,-97.599998,-454.816010
853.023987,-91.744003,-460.671997
856.927979,-95.648003,-468.480011
862.783997,-93.695999,-458.720001
860.831970,-103.456001,-456.768005
860.831970,-87.839996,-464.575989
860.831970,-97.599998,-460.671997
868.640015,-97.599998,-454.816010
860.831970,-99.552002,-460.671997
854.976013,-95.648003,-462.623993
856.927979,-101.503998,-468.480011
858.880005,-85.888000,-464.575989
856.927979,-93.695999,-456.768005
854.976013,-93.695999,-460.671997
856.927979,-87.839996,-458.720001
854.976013,-99.552002,-462.623993
851.072021,-99.552002,-472.384003
851.072021,-85.888000,-464.575989
853.023987,-97.599998,-462.623993
854.976013,-89.792000,-447.007996
851.072021,-97.599998,-452.864014
849.119995,-91.744003,-460.671997
851.072021,-89.792000,-450.911987
856.927979,-95.648003,-456.768005
854.976013,-93.695999,-460.671997
851.072021,-103.456001,-462.623993
843.263977,-97.599998,-450.911987
851.072021,-101.503998,-454.816010
849.119995,-101.503998,-462.623993
843.263977,-87.839996,-456.768005
841.312012,-95.648003,-464.575989
853.023987,-97.599998,-468.480011
845.216003,-105.407997,-468.480011
845.216003,-101.503998,-466.528015
845.216003,-105.407997,-468.480011
841.312012,-105.407997,-468.480011
841.312012,-93.695999,-454.816010
841.312012,-103.456001,-460.671997
841.312012,-87.839996,-458.720001
835.455994,-89.792000,-448.959991
837.408020,-95.648003,-454.816010
827.648010,-95.648003,-462.623993
841.312012,-97.599998,-464.575989
829.599976,-103.456001,-460.671997
827.648010,-93.695999,-466.528015
827.648010,-95.648003,-468.480011
833.504028,-101.503998,-458.720001
831.552002,-101.503998,-466.528015
821.791992,-99.552002,-468.480011
821.791992,-97.599998,-462.623993
821.791992,-101.503998,-462.623993
821.791992,-95.648003,-468.480011
821.791992,-99.552002,-468.480011
821.791992,-97.599998,-468.480011
831.552002,-97.599998,-464.575989
823.744019,-97.599998,-460.671997
827.648010,-101.503998,-464.575989
825.695984,-87.839996,-466.528015
829.599976,-85.888000,-472.384003
819.840027,-85.888000,-466.528015
823.744019,-81.984001,-466.528015
819.840027,-89.792000,-462.623993
812.031982,-83.935997,-468.480011
821.791992,-76.127998,-472.384003
823.744019,-76.127998,-474.335999
819.840027,-76.127998,-466.528015
825.695984,-78.080002,-464.575989
821.791992,-85.888000,-470.432007
823.744019,-72.223999,-470.432007
821.791992,-76.127998,-470.432007
819.840027,-74.176003,-470.432007
823.744019,-80.031998,-472.384003
819.840027,-78.080002,-462.623993
817.888000,-76.127998,-466.528015
825.695984,-74.176003,-476.287994
825.695984,-78.080002,-478.239990
827.648010,-70.272003,-468.480011
829.599976,-72.223999,-456.768005
833.504028,-78.080002,-450.911987
823.744019,-70.272003,-450.911987
821.791992,-72.223999,-460.671997
829.599976,-78.080002,-462.623993
821.791992,-83.935997,-456.768005
825.695984,-80.031998,-450.911987
815.935974,-78.080002,-452.864014
821.791992,-78.080002,-458.720001
825.695984,-80.031998,-464.575989
823.744019,-76.127998,-462.623993
825.695984,-68.320000,-462.623993
819.840027,-72.223999,-460.671997
827.648010,-74.176003,-450.911987
827.648010,-83.935997,-454.816010
823.744019,-85.888000,-456.768005
827.648010,-78.080002,-454.816010
823.744019,-76.127998,-466.528015
827.648010,-74.176003,-460.671997
833.504028,-85.888000,-460.671997
829.599976,-83.935997,-466.528015
823.744019,-78.080002,-466.528015
823.744019,-72.223999,-462.623993
827.648010,-64.416000,-464.575989
827.648010,-64.416000,-464.575989
829.599976,-60.512001,-462.623993
837.408020,-68.320000,-458.720001
833.504028,-83.935997,-462.623993
833.504028,-80.031998,-460.671997
835.455994,-87.839996,-462.623993
837.408020,-78.080002,-470.432007
833.504028,-74.176003,-462.623993
841.312012,-78.080002,-468.480011
835.455994,-76.127998,-460.671997
843.263977,-78.080002,-468.480011
831.552002,-80.031998,-462.623993
841.312012,-72.223999,-468.480011
835.455994,-78.080002,-470.432007
839.359985,-78.080002,-466.528015
845.216003,-74.176003,-454.816010
839.359985,-76.127998,-460.671997
839.359985,-72.223999,-464.575989
841.312012,-80.031998,-470.432007
837.408020,-78.080002,-472.384003
837.408020,-81.984001,-468.480011
837.408020,-87.839996,-452.864014
837.408020,-70.272003,-450.911987
839.359985,-80.031998,-470.432007
835.455994,-80.031998,-462.623993
835.455994,-81.984001,-450.911987
835.455994,-76.127998,-462.623993
839.359985,-70.272003,-458.720001
845.216003,-78.080002,-458.720001
845.216003,-80.031998,-462.623993
843.263977,-80.031998,-466.528015
847.168030,-93.695999,-468.480011
849.119995,-85.888000,-466.528015
849.119995,-76.127998,-464.575989
849.119995,-76.127998,-464.575989
837.408020,-76.127998,-462.623993
853.023987,-81.984001,-464.575989
843.263977,-78.080002,-460.671997
843.263977,-83.935997,-468.480011
849.119995,-85.888000,-464.575989
845.216003,-83.935997,-464.575989
854.976013,-78.080002,-460.671997
851.072021,-81.984001,-464.575989
853.023987,-78.080002,-458.720001
856.927979,-83.935997,-452.864014
853.023987,-80.031998,-464.575989
854.976013,-83.935997,-456.768005
860.831970,-91.744003,-454.816010
851.072021,-89.792000,-460.671997
854.976013,-91.744003,-460.671997
862.783997,-89.792000,-462.623993
858.880005,-83.935997,-454.816010
860.831970,-89.792000,-454.816010
853.023987,-93.695999,-464.575989
849.119995,-97.599998,-462.623993
851.072021,-95.648003,-462.623993
853.023987,-99.552002,-468.480011
847.168030,-91.744003,-464.575989
860.831970,-89.792000,-462.623993
856.927979,-95.648003,-468.480011
853.023987,-97.599998,-462.623993
853.023987,-99.552002,-468.480011
849.119995,-101.503998,-462.623993
854.976013,-101.503998,-450.911987
851.072021,-103.456001,-464.575989
845.216003,-107.360001,-462.623993
853.023987,-99.552002,-468.480011
851.072021,-105.407997,-466.528015
841.312012,-105.407997,-474.335999
845.216003,-105.407997,-474.335999
854.976013,-111.264000,-474.335999
853.023987,-117.120003,-470.432007
841.312012,-109.311996,-460.671997
847.168030,-107.360001,-460.671997
856.927979,-107.360001,-466.528015
854.976013,-113.216003,-470.432007
860.831970,-111.264000,-470.432007
851.072021,-115.167999,-458.720001
851.072021,-113.216003,-462.623993
851.072021,-107.360001,-476.287994
856.927979,-117.120003,-466.528015
860.831970,-119.071999,-466.528015
856.927979,-115.167999,-464.575989
856.927979,-119.071999,-470.432007
858.880005,-124.928001,-468.480011
856.927979,-117.120003,-466.528015
862.783997,-115.167999,-462.623993
866.687988,-113.216003,-462.623993
862.783997,-117.120003,-464.575989
860.831970,-124.928001,-458.720001
872.544006,-124.928001,-464.575989
874.495972,-121.024002,-468.480011
872.544006,-126.879997,-466.528015
864.736023,-126.879997,-464.575989
862.783997,-121.024002,-468.480011
872.544006,-136.639999,-460.671997
874.495972,-132.735992,-458.720001
876.447998,-136.639999,-454.816010
866.687988,-138.591995,-458.720001
870.591980,-132.735992,-464.575989
876.447998,-128.832001,-466.528015
870.591980,-132.735992,-464.575989
876.447998,-130.783997,-450.911987
880.351990,-128.832001,-462.623993
876.447998,-138.591995,-454.816010
874.495972,-140.544006,-462.623993
876.447998,-132.735992,-466.528015
876.447998,-136.639999,-460.671997
880.351990,-146.399994,-468.480011
874.495972,-142.496002,-462.623993
880.351990,-144.447998,-468.480011
886.208008,-138.591995,-466.528015
884.255981,-130.783997,-462.623993
884.255981,-134.688004,-464.575989
880.351990,-136.639999,-468.480011
882.304016,-138.591995,-466.528015
882.304016,-136.639999,-466.528015
894.015991,-126.879997,-460.671997
886.208008,-134.688004,-462.623993
892.064026,-138.591995,-456.768005
876.447998,-144.447998,-450.911987
884.255981,-142.496002,-450.911987
890.112000,-136.639999,-450.911987
897.919983,-140.544006,-458.720001
884.255981,-138.591995,-466.528015
886.208008,-152.255997,-450.911987
897.919983,-144.447998,-452.864014
895.968018,-136.639999,-460.671997
888.159973,-146.399994,-447.007996
897.919983,-150.304001,-443.104004
894.015991,-146.399994,-450.911987
888.159973,-146.399994,-452.864014
884.255981,-146.399994,-460.671997
897.919983,-148.352005,-450.911987
892.064026,-146.399994,-456.768005
886.208008,-154.207993,-450.911987
884.255981,-144.447998,-447.007996
888.159973,-154.207993,-448.959991
878.400024,-154.207993,-458.720001
878.400024,-148.352005,-450.911987
884.255981,-154.207993,-450.911987
874.495972,-154.207993,-448.959991
882.304016,-152.255997,-454.816010
874.495972,-156.160004,-452.864014
874.495972,-152.255997,-450.911987
870.591980,-148.352005,-450.911987
866.687988,-156.160004,-447.007996
872.544006,-162.016006,-456.768005
868.640015,-158.112000,-452.864014
868.640015,-162.016006,-450.911987
862.783997,-156.160004,-456.768005
856.927979,-160.063995,-450.911987
854.976013,-154.207993,-450.911987
858.880005,-162.016006,-448.959991
854.976013,-167.871994,-450.911987
851.072021,-158.112000,-448.959991
860.831970,-154.207993,-448.959991
858.880005,-160.063995,-447.007996
860.831970,-163.968002,-450.911987
856.927979,-160.063995,-448.959991
862.783997,-162.016006,-445.056000
858.880005,-165.919998,-445.056000
853.023987,-162.016006,-441.152008
856.927979,-169.824005,-452.864014
851.072021,-163.968002,-450.911987
851.072021,-169.824005,-437.247986
860.831970,-175.679993,-443.104004
851.072021,-175.679993,-435.295990
854.976013,-167.871994,-433.343994
856.927979,-167.871994,-437.247986
