ACC_X,ACC_Y,ACC_Z
751.520020,366.976013,562.176025
745.664001,368.928009,554.367981
753.471985,368.928009,560.223999
747.616028,365.023987,550.463989
741.760010,372.832001,552.416016
743.711975,366.976013,554.367981
741.760010,372.832001,554.367981
747.616028,366.976013,558.271973
745.664001,366.976013,564.127991
745.664001,376.735992,560.223999
745.664001,370.880005,554.367981
751.520020,374.783997,556.320007
747.616028,374.783997,552.416016
741.760010,370.880005,554.367981
749.567993,370.880005,554.367981
751.520020,368.928009,554.367981
745.664001,370.880005,554.367981
745.664001,370.880005,558.271973
745.664001,366.976013,554.367981
741.760010,374.783997,552.416016
743.711975,378.687988,560.223999
743.711975,368.928009,552.416016
751.520020,365.023987,554.367981
741.760010,370.880005,558.271973
751.520020,376.735992,554.367981
747.616028,372.832001,552.416016
745.664001,366.976013,558.271973
753.471985,380.640015,552.416016
745.664001,380.640015,546.559998
755.424011,372.832001,552.416016
751.520020,376.735992,554.367981
747.616028,376.735992,564.127991
751.520020,363.071991,568.031982
743.711975,372.832001,552.416016
751.520020,376.735992,562.176025
749.567993,378.687988,564.127991
753.471985,378.687988,564.127991
747.616028,378.687988,558.271973
755.424011,380.640015,554.367981
745.664001,380.640015,552.416016
747.616028,384.544006,562.176025
755.424011,376.735992,560.223999
747.616028,384.544006,568.031982
741.760010,376.735992,554.367981
745.664001,384.544006,562.176025
749.567993,388.447998,568.031982
749.567993,378.687988,568.031982
745.664001,378.687988,560.223999
751.520020,378.687988,564.127991
745.664001,376.735992,560.223999
745.664001,386.496002,560.223999
749.567993,384.544006,562.176025
747.616028,384.544006,556.320007
747.616028,376.735992,546.559998
747.616028,388.447998,556.320007
745.664001,382.592010,571.935974
743.711975,378.687988,562.176025
747.616028,378.687988,556.320007
741.760010,384.544006,556.320007
737.856018,384.544006,548.512024
741.760010,382.592010,548.512024
739.807983,390.399994,546.559998
743.711975,386.496002,556.320007
737.856018,384.544006,552.416016
747.616028,388.447998,552.416016
747.616028,382.592010,548.512024
745.664001,380.640015,550.463989
739.807983,376.735992,558.271973
741.760010,382.592010,550.463989
737.856018,388.447998,548.512024
743.711975,392.351990,556.320007
747.616028,374.783997,546.559998
743.711975,378.687988,556.320007
751.520020,374.783997,556.320007
757.375977,392.351990,552.416016
749.567993,384.544006,556.320007
749.567993,382.592010,560.223999
745.664001,384.544006,554.367981
743.711975,386.496002,556.320007
757.375977,392.351990,554.367981
755.424011,388.447998,560.223999
757.375977,394.303986,564.127991
757.375977,386.496002,558.271973
751.520020,396.256012,552.416016
757.375977,388.447998,554.367981
757.375977,388.447998,554.367981
761.280029,392.351990,554.367981
767.135986,392.351990,564.127991
759.328003,380.640015,562.176025
763.231995,388.447998,558.271973
767.135986,388.447998,558.271973
761.280029,384.544006,564.127991
767.135986,388.447998,558.271973
755.424011,390.399994,562.176025
763.231995,392.351990,554.367981
757.375977,388.447998,566.080017
767.135986,396.256012,568.031982
767.135986,392.351990,554.367981
761.280029,382.592010,558.271973
761.280029,394.303986,560.223999
772.992004,400.160004,562.176025
761.280029,392.351990,564.127991
763.231995,402.112000,564.127991
761.280029,394.303986,571.935974
765.184021,390.399994,566.080017
757.375977,386.496002,566.080017
767.135986,388.447998,564.127991
767.135986,384.544006,564.127991
767.135986,392.351990,558.271973
759.328003,390.399994,566.080017
765.184021,382.592010,554.367981
759.328003,388.447998,558.271973
759.328003,380.640015,556.320007
761.280029,382.592010,564.127991
767.135986,384.544006,560.223999
761.280029,382.592010,558.271973
757.375977,388.447998,554.367981
761.280029,386.496002,554.367981
769.088013,392.351990,556.320007
761.280029,392.351990,562.176025
761.280029,386.496002,566.080017
757.375977,392.351990,558.271973
763.231995,388.447998,562.176025
767.135986,386.496002,564.127991
769.088013,388.447998,562.176025
772.992004,390.399994,560.223999
767.135986,386.496002,560.223999
761.280029,388.447998,546.559998
767.135986,388.447998,560.223999
771.039978,382.592010,569.984009
763.231995,394.303986,564.127991
763.231995,386.496002,558.271973
761.280029,386.496002,566.080017
761.280029,392.351990,566.080017
767.135986,398.208008,568.031982
767.135986,388.447998,579.744019
771.039978,380.640015,568.031982
761.280029,392.351990,566.080017
755.424011,392.351990,566.080017
765.184021,386.496002,568.031982
765.184021,388.447998,562.176025
772.992004,394.303986,568.031982
765.184021,386.496002,569.984009
772.992004,388.447998,568.031982
772.992004,384.544006,566.080017
769.088013,394.303986,571.935974
759.328003,390.399994,575.840027
757.375977,396.256012,571.935974
761.280029,386.496002,573.888000
763.231995,396.256012,575.840027
757.375977,386.496002,575.840027
765.184021,390.399994,575.840027
757.375977,390.399994,575.840027
759.328003,386.496002,571.935974
759.328003,390.399994,566.080017
765.184021,390.399994,575.840027
749.567993,398.208008,573.888000
753.471985,394.303986,562.176025
753.471985,388.447998,566.080017
747.616028,384.544006,562.176025
755.424011,388.447998,562.176025
751.520020,392.351990,569.984009
745.664001,384.544006,558.271973
755.424011,392.351990,566.080017
747.616028,386.496002,562.176025
751.520020,386.496002,568.031982
749.567993,390.399994,568.031982
747.616028,384.544006,564.127991
741.760010,392.351990,568.031982
741.760010,398.208008,558.271973
743.711975,386.496002,560.223999
751.520020,398.208008,554.367981
747.616028,388.447998,564.127991
739.807983,394.303986,562.176025
743.711975,390.399994,560.223999
747.616028,390.399994,560.223999
741.760010,382.592010,562.176025
743.711975,392.351990,558.271973
733.952026,386.496002,566.080017
745.664001,384.544006,566.080017
733.952026,386.496002,560.223999
733.952026,392.351990,554.367981
743.711975,386.496002,556.320007
737.856018,396.256012,556.320007
741.760010,392.351990,573.888000
741.760010,396.256012,558.271973
737.856018,396.256012,560.223999
747.616028,388.447998,560.223999
739.807983,390.399994,564.127991
737.856018,388.447998,558.271973
743.711975,388.447998,560.223999
743.711975,388.447998,562.176025
745.664001,388.447998,569.984009
743.711975,384.544006,554.367981
747.616028,388.447998,562.176025
743.711975,378.687988,558.271973
732.000000,386.496002,558.271973
743.711975,384.544006,558.271973
739.807983,382.592010,560.223999
747.616028,388.447998,568.031982
737.856018,388.447998,560.223999
741.760010,386.496002,560.223999
735.903992,386.496002,554.367981
743.711975,384.544006,556.320007
737.856018,392.351990,564.127991
743.711975,384.544006,568.031982
732.000000,380.640015,556.320007
739.807983,370.880005,556.320007
741.760010,378.687988,556.320007
737.856018,386.496002,558.271973
741.760010,378.687988,554.367981
741.760010,376.735992,560.223999
737.856018,378.687988,556.320007
743.711975,386.496002,562.176025
747.616028,384.544006,562.176025
735.903992,386.496002,562.176025
737.856018,382.592010,558.271973
732.000000,376.735992,556.320007
745.664001,378.687988,550.463989
737.856018,380.640015,554.367981
733.952026,378.687988,552.416016
732.000000,374.783997,560.223999
728.096008,374.783997,562.176025
732.000000,376.735992,562.176025
735.903992,388.447998,564.127991
728.096008,380.640015,556.320007
726.143982,376.735992,556.320007
733.952026,374.783997,558.271973
739.807983,370.880005,552.416016
732.000000,372.832001,556.320007
732.000000,372.832001,556.320007
732.000000,368.928009,560.223999
733.952026,365.023987,552.416016
732.000000,363.071991,556.320007
739.807983,378.687988,558.271973
732.000000,370.880005,558.271973
728.096008,374.783997,550.463989
730.047974,368.928009,556.320007
728.096008,370.880005,556.320007
733.952026,372.832001,558.271973
733.952026,365.023987,554.367981
726.143982,368.928009,554.367981
726.143982,370.880005,550.463989
726.143982,374.783997,554.367981
722.239990,374.783997,556.320007
724.192017,363.071991,554.367981
728.096008,374.783997,560.223999
728.096008,374.783997,554.367981
732.000000,365.023987,554.367981
733.952026,370.880005,564.127991
735.903992,365.023987,556.320007
726.143982,368.928009,556.320007
726.143982,370.880005,550.463989
732.000000,370.880005,560.223999
730.047974,368.928009,566.080017
728.096008,374.783997,562.176025
732.000000,368.928009,562.176025
728.096008,370.880005,556.320007
730.047974,370.880005,550.463989
733.952026,370.880005,552.416016
732.000000,363.071991,558.271973
732.000000,368.928009,558.271973
728.096008,361.119995,554.367981
730.047974,363.071991,554.367981
730.047974,363.071991,554.367981
732.000000,372.832001,556.320007
735.903992,361.119995,556.320007
730.047974,363.071991,554.367981
730.047974,380.640015,560.223999
730.047974,370.880005,562.176025
726.143982,361.119995,564.127991
728.096008,368.928009,558.271973
739.807983,366.976013,554.367981
739.807983,376.735992,554.367981
732.000000,363.071991,558.271973
732.000000,363.071991,556.320007
739.807983,366.976013,556.320007
735.903992,361.119995,558.271973
737.856018,361.119995,558.271973
732.000000,363.071991,558.271973
733.952026,363.071991,556.320007
732.000000,368.928009,560.223999
732.000000,368.928009,556.320007
735.903992,366.976013,569.984009
728.096008,370.880005,558.271973
732.000000,363.071991,554.367981
728.096008,368.928009,556.320007
733.952026,370.880005,564.127991
730.047974,376.735992,562.176025
737.856018,380.640015,558.271973
733.952026,374.783997,558.271973
733.952026,370.880005,560.223999
732.000000,372.832001,556.320007
728.096008,374.783997,558.271973
722.239990,372.832001,554.367981
710.528015,372.832001,554.367981
720.288025,376.735992,566.080017
726.143982,376.735992,556.320007
726.143982,382.592010,558.271973
728.096008,370.880005,560.223999
730.047974,382.592010,558.271973
722.239990,372.832001,550.463989
726.143982,376.735992,542.656006
726.143982,370.880005,550.463989
726.143982,374.783997,556.320007
726.143982,370.880005,556.320007
720.288025,376.735992,558.271973
722.239990,372.832001,556.320007
720.288025,376.735992,554.367981
735.903992,382.592010,554.367981
720.288025,374.783997,556.320007
718.335999,374.783997,554.367981
728.096008,378.687988,552.416016
735.903992,388.447998,554.367981
735.903992,374.783997,552.416016
722.239990,372.832001,554.367981
730.047974,374.783997,556.320007
732.000000,374.783997,562.176025
730.047974,384.544006,564.127991
733.952026,380.640015,556.320007
733.952026,378.687988,544.607971
735.903992,365.023987,548.512024
737.856018,372.832001,556.320007
733.952026,374.783997,550.463989
728.096008,374.783997,556.320007
733.952026,366.976013,552.416016
733.952026,374.783997,556.320007
730.047974,378.687988,556.320007
726.143982,376.735992,548.512024
722.239990,380.640015,556.320007
722.239990,372.832001,556.320007
732.000000,380.640015,556.320007
732.000000,382.592010,564.127991
735.903992,382.592010,558.271973
741.760010,382.592010,556.320007
737.856018,382.592010,546.559998
735.903992,382.592010,560.223999
737.856018,390.399994,550.463989
730.047974,380.640015,554.367981
732.000000,380.640015,560.223999
730.047974,382.592010,554.367981
726.143982,382.592010,554.367981
732.000000,388.447998,560.223999
735.903992,384.544006,552.416016
735.903992,380.640015,552.416016
732.000000,382.592010,540.703979
730.047974,382.592010,554.367981
730.047974,388.447998,554.367981
730.047974,384.544006,554.367981
732.000000,382.592010,552.416016
732.000000,386.496002,552.416016
722.239990,378.687988,544.607971
728.096008,382.592010,552.416016
732.000000,384.544006,544.607971
732.000000,378.687988,546.559998
724.192017,372.832001,546.559998
732.000000,378.687988,546.559998
730.047974,376.735992,550.463989
730.047974,378.687988,548.512024
730.047974,384.544006,544.607971
730.047974,378.687988,548.512024
728.096008,384.544006,544.607971
728.096008,382.592010,542.656006
735.903992,374.783997,546.559998
739.807983,380.640015,556.320007
733.952026,370.880005,556.320007
741.760010,388.447998,548.512024
747.616028,372.832001,544.607971
739.807983,372.832001,552.416016
741.760010,372.832001,552.416016
749.567993,374.783997,558.271973
743.711975,370.880005,554.367981
745.664001,376.735992,554.367981
745.664001,378.687988,554.367981
741.760010,376.735992,558.271973
753.471985,374.783997,556.320007
751.520020,378.687988,558.271973
749.567993,380.640015,560.223999
755.424011,374.783997,556.320007
753.471985,368.928009,568.031982
741.760010,372.832001,560.223999
745.664001,370.880005,556.320007
747.616028,378.687988,568.031982
753.471985,378.687988,566.080017
759.328003,372.832001,568.031982
751.520020,370.880005,564.127991
757.375977,368.928009,558.271973
761.280029,370.880005,558.271973
747.616028,380.640015,566.080017
757.375977,380.640015,566.080017
757.375977,380.640015,564.127991
759.328003,374.783997,560.223999
767.135986,378.687988,560.223999
759.328003,374.783997,562.176025
755.424011,382.592010,560.223999
757.375977,380.640015,562.176025
759.328003,388.447998,566.080017
763.231995,388.447998,566.080017
757.375977,386.496002,564.127991
755.424011,378.687988,569.984009
755.424011,382.592010,564.127991
759.328003,390.399994,571.935974
759.328003,384.544006,566.080017
757.375977,382.592010,558.271973
753.471985,380.640015,562.176025
755.424011,386.496002,566.080017
751.520020,392.351990,568.031982
753.471985,384.544006,566.080017
757.375977,392.351990,560.223999
749.567993,382.592010,560.223999
753.471985,378.687988,558.271973
755.424011,380.640015,571.935974
747.616028,386.496002,562.176025
755.424011,392.351990,560.223999
747.616028,392.351990,568.031982
745.664001,392.351990,562.176025
737.856018,396.256012,560.223999
743.711975,396.256012,562.176025
741.760010,390.399994,556.320007
743.711975,390.399994,556.320007
737.856018,394.303986,573.888000
743.711975,388.447998,568.031982
747.616028,390.399994,562.176025
743.711975,388.447998,562.176025
739.807983,396.256012,564.127991
733.952026,390.399994,571.935974
737.856018,396.256012,558.271973
743.711975,390.399994,562.176025
743.711975,398.208008,564.127991
735.903992,390.399994,556.320007
733.952026,398.208008,554.367981
732.000000,402.112000,560.223999
735.903992,394.303986,571.935974
732.000000,400.160004,560.223999
730.047974,394.303986,558.271973
739.807983,396.256012,554.367981
737.856018,390.399994,550.463989
733.952026,398.208008,560.223999
726.143982,394.303986,562.176025
739.807983,400.160004,560.223999
735.903992,392.351990,560.223999
732.000000,392.351990,558.271973
745.664001,404.063995,554.367981
732.000000,394.303986,556.320007
733.952026,394.303986,558.271973
735.903992,392.351990,564.127991
733.952026,396.256012,571.935974
743.711975,398.208008,562.176025
732.000000,404.063995,556.320007
747.616028,390.399994,564.127991
737.856018,390.399994,556.320007
733.952026,404.063995,556.320007
733.952026,402.112000,558.271973
733.952026,394.303986,554.367981
730.047974,394.303986,554.367981
739.807983,406.015991,556.320007
737.856018,406.015991,558.271973
735.903992,394.303986,558.271973
728.096008,402.112000,556.320007
730.047974,398.208008,550.463989
722.239990,398.208008,566.080017
735.903992,386.496002,558.271973
726.143982,400.160004,556.320007
730.047974,394.303986,558.271973
730.047974,392.351990,558.271973
733.952026,394.303986,556.320007
730.047974,396.256012,550.463989
726.143982,388.447998,552.416016
730.047974,390.399994,554.367981
728.096008,404.063995,562.176025
733.952026,394.303986,558.271973
730.047974,394.303986,552.416016
732.000000,392.351990,554.367981
739.807983,404.063995,554.367981
730.047974,384.544006,548.512024
724.192017,394.303986,552.416016
726.143982,392.351990,552.416016
732.000000,396.256012,550.463989
728.096008,396.256012,564.127991
732.000000,398.208008,560.223999
732.000000,394.303986,556.320007
730.047974,390.399994,542.656006
735.903992,398.208008,550.463989
737.856018,390.399994,560.223999
735.903992,388.447998,552.416016
732.000000,390.399994,552.416016
732.000000,382.592010,556.320007
739.807983,390.399994,554.367981
737.856018,392.351990,554.367981
737.856018,384.544006,550.463989
741.760010,384.544006,552.416016
737.856018,392.351990,558.271973
741.760010,392.351990,556.320007
739.807983,390.399994,554.367981
737.856018,394.303986,554.367981
741.760010,396.256012,558.271973
745.664001,384.544006,552.416016
737.856018,392.351990,552.416016
733.952026,376.735992,552.416016
737.856018,388.447998,550.463989
741.760010,378.687988,560.223999
749.567993,378.687988,554.367981
743.711975,390.399994,562.176025
743.711975,378.687988,560.223999
745.664001,376.735992,560.223999
743.711975,384.544006,554.367981
751.520020,376.735992,554.367981
749.567993,376.735992,556.320007
749.567993,372.832001,544.607971
747.616028,368.928009,552.416016
751.520020,378.687988,554.367981
753.471985,384.544006,554.367981
747.616028,384.544006,558.271973
741.760010,392.351990,556.320007
749.567993,384.544006,560.223999
743.711975,378.687988,556.320007
747.616028,376.735992,564.127991
751.520020,374.783997,560.223999
747.616028,384.544006,558.271973
757.375977,380.640015,560.223999
763.231995,374.783997,556.320007
747.616028,376.735992,556.320007
755.424011,380.640015,558.271973
759.328003,368.928009,560.223999
747.616028,366.976013,560.223999
757.375977,380.640015,554.367981
759.328003,372.832001,564.127991
753.471985,372.832001,562.176025
759.328003,374.783997,558.271973
751.520020,376.735992,554.367981
757.375977,374.783997,554.367981
759.328003,374.783997,562.176025
753.471985,370.880005,556.320007
757.375977,368.928009,560.223999
753.471985,370.880005,560.223999
759.328003,376.735992,558.271973
757.375977,382.592010,566.080017
749.567993,380.640015,566.080017
749.567993,380.640015,571.935974
751.520020,388.447998,566.080017
757.375977,382.592010,566.080017
757.375977,376.735992,569.984009
753.471985,374.783997,558.271973
759.328003,372.832001,562.176025
759.328003,380.640015,558.271973
763.231995,378.687988,562.176025
757.375977,370.880005,568.031982
751.520020,378.687988,566.080017
755.424011,372.832001,573.888000
753.471985,370.880005,562.176025
759.328003,372.832001,568.031982
755.424011,368.928009,566.080017
757.375977,380.640015,564.127991
757.375977,380.640015,566.080017
755.424011,374.783997,562.176025
749.567993,366.976013,562.176025
753.471985,370.880005,568.031982
749.567993,370.880005,569.984009
751.520020,380.640015,569.984009
757.375977,384.544006,568.031982
755.424011,384.544006,564.127991
749.567993,382.592010,566.080017
757.375977,390.399994,566.080017
753.471985,384.544006,564.127991
749.567993,388.447998,560.223999
745.664001,378.687988,560.223999
755.424011,380.640015,564.127991
745.664001,378.687988,564.127991
749.567993,378.687988,564.127991
751.520020,376.735992,554.367981
753.471985,382.592010,556.320007
745.664001,376.735992,564.127991
755.424011,382.592010,566.080017
759.328003,380.640015,556.320007
753.471985,374.783997,550.463989
745.664001,376.735992,554.367981
745.664001,366.976013,564.127991
755.424011,378.687988,560.223999
751.520020,378.687988,558.271973
747.616028,370.880005,550.463989
745.664001,376.735992,554.367981
749.567993,386.496002,556.320007
747.616028,372.832001,554.367981
745.664001,384.544006,562.176025
749.567993,382.592010,554.367981
743.711975,388.447998,556.320007
747.616028,384.544006,562.176025
747.616028,384.544006,560.223999
749.567993,388.447998,554.367981
751.520020,378.687988,554.367981
753.471985,388.447998,564.127991
755.424011,388.447998,564.127991
753.471985,382.592010,571.935974
747.616028,384.544006,568.031982
749.567993,378.687988,568.031982
753.471985,378.687988,560.223999
749.567993,392.351990,566.080017
753.471985,388.447998,569.984009
743.711975,386.496002,568.031982
741.760010,378.687988,560.223999
741.760010,388.447998,562.176025
749.567993,388.447998,552.416016
745.664001,386.496002,556.320007
751.520020,396.256012,564.127991
747.616028,378.687988,562.176025
747.616028,390.399994,560.223999
743.711975,384.544006,562.176025
751.520020,386.496002,560.223999
747.616028,386.496002,569.984009
747.616028,380.640015,566.080017
743.711975,386.496002,558.271973
743.711975,386.496002,560.223999
747.616028,384.544006,560.223999
745.664001,384.544006,558.271973
735.903992,380.640015,558.271973
739.807983,374.783997,556.320007
737.856018,382.592010,554.367981
733.952026,388.447998,554.367981
733.952026,384.544006,554.367981
732.000000,392.351990,554.367981
735.903992,390.399994,550.463989
739.807983,382.592010,544.607971
743.711975,386.496002,550.463989
730.047974,370.880005,542.656006
743.711975,388.447998,548.512024
735.903992,376.735992,548.512024
735.903992,382.592010,552.416016
733.952026,390.399994,552.416016
739.807983,376.735992,544.607971
732.000000,376.735992,542.656006
735.903992,378.687988,550.463989
735.903992,384.544006,542.656006
735.903992,382.592010,540.703979
735.903992,388.447998,556.320007
735.903992,384.544006,550.463989
735.903992,380.640015,554.367981
732.000000,384.544006,552.416016
733.952026,384.544006,552.416016
743.711975,374.783997,552.416016
733.952026,374.783997,548.512024
739.807983,380.640015,550.463989
739.807983,368.928009,556.320007
737.856018,374.783997,546.559998
743.711975,376.735992,554.367981
747.616028,376.735992,546.559998
747.616028,384.544006,558.271973
747.616028,386.496002,558.271973
753.471985,382.592010,552.416016
745.664001,376.735992,554.367981
749.567993,376.735992,556.320007
761.280029,370.880005,554.367981
749.567993,372.832001,558.271973
757.375977,374.783997,564.127991
749.567993,370.880005,548.512024
753.471985,372.832001,554.367981
755.424011,380.640015,554.367981
759.328003,378.687988,548.512024
757.375977,382.592010,554.367981
757.375977,380.640015,556.320007
753.471985,380.640015,550.463989
757.375977,380.640015,554.367981
751.520020,374.783997,562.176025
757.375977,384.544006,564.127991
759.328003,374.783997,560.223999
767.135986,380.640015,566.080017
757.375977,374.783997,558.271973
761.280029,380.640015,564.127991
763.231995,380.640015,568.031982
761.280029,386.496002,554.367981
757.375977,388.447998,560.223999
759.328003,378.687988,560.223999
759.328003,380.640015,568.031982
759.328003,386.496002,566.080017
749.567993,390.399994,562.176025
749.567993,376.735992,560.223999
759.328003,380.640015,558.271973
755.424011,388.447998,558.271973
755.424011,384.544006,554.367981
751.520020,380.640015,550.463989
749.567993,378.687988,560.223999
745.664001,376.735992,560.223999
741.760010,376.735992,554.367981
747.616028,370.880005,550.463989
747.616028,384.544006,560.223999
747.616028,366.976013,554.367981
749.567993,370.880005,548.512024
741.760010,384.544006,554.367981
747.616028,384.544006,556.320007
745.664001,380.640015,552.416016
739.807983,376.735992,558.271973
739.807983,378.687988,560.223999
733.952026,374.783997,556.320007
737.856018,382.592010,552.416016
739.807983,390.399994,546.559998
741.760010,388.447998,546.559998
741.760010,384.544006,554.367981
739.807983,376.735992,552.416016
733.952026,380.640015,550.463989
732.000000,380.640015,556.320007
728.096008,370.880005,556.320007
732.000000,380.640015,562.176025
733.952026,382.592010,552.416016
735.903992,384.544006,550.463989
739.807983,374.783997,550.463989
733.952026,382.592010,556.320007
732.000000,378.687988,546.559998
728.096008,388.447998,546.559998
726.143982,380.640015,552.416016
735.903992,394.303986,560.223999
732.000000,378.687988,546.559998
728.096008,378.687988,548.512024
735.903992,382.592010,560.223999
735.903992,386.496002,554.367981
733.952026,384.544006,566.080017
739.807983,390.399994,554.367981
728.096008,388.447998,552.416016
726.143982,382.592010,558.271973
737.856018,382.592010,568.031982
730.047974,386.496002,558.271973
728.096008,394.303986,564.127991
743.711975,386.496002,558.271973
737.856018,380.640015,554.367981
735.903992,394.303986,560.223999
732.000000,394.303986,562.176025
735.903992,388.447998,566.080017
733.952026,382.592010,568.031982
735.903992,386.496002,560.223999
733.952026,394.303986,558.271973
726.143982,386.496002,558.271973
737.856018,390.399994,562.176025
730.047974,392.351990,564.127991
735.903992,394.303986,554.367981
733.952026,394.303986,568.031982
735.903992,390.399994,564.127991
732.000000,394.303986,560.223999
730.047974,392.351990,558.271973
733.952026,396.256012,552.416016
735.903992,392.351990,554.367981
733.952026,394.303986,558.271973
735.903992,394.303986,558.271973
735.903992,390.399994,562.176025
730.047974,386.496002,566.080017
735.903992,386.496002,556.320007
737.856018,390.399994,558.271973
735.903992,392.351990,552.416016
735.903992,382.592010,558.271973
737.856018,382.592010,554.367981
741.760010,376.735992,554.367981
737.856018,386.496002,556.320007
735.903992,384.544006,558.271973
745.664001,390.399994,550.463989
737.856018,390.399994,558.271973
739.807983,394.303986,542.656006
733.952026,396.256012,554.367981
737.856018,388.447998,556.320007
741.760010,384.544006,556.320007
743.711975,382.592010,556.320007
743.711975,382.592010,562.176025
741.760010,390.399994,556.320007
751.520020,378.687988,558.271973
743.711975,378.687988,568.031982
737.856018,380.640015,560.223999
743.711975,380.640015,554.367981
741.760010,366.976013,558.271973
745.664001,378.687988,554.367981
741.760010,378.687988,558.271973
749.567993,382.592010,560.223999
747.616028,370.880005,558.271973
747.616028,370.880005,554.367981
743.711975,376.735992,556.320007
741.760010,376.735992,554.367981
751.520020,372.832001,556.320007
743.711975,370.880005,554.367981
739.807983,366.976013,558.271973
743.711975,386.496002,560.223999
739.807983,378.687988,554.367981
739.807983,366.976013,564.127991
735.903992,374.783997,564.127991
745.664001,372.832001,556.320007
741.760010,370.880005,558.271973
739.807983,370.880005,554.367981
741.760010,378.687988,552.416016
737.856018,372.832001,550.463989
745.664001,376.735992,554.367981
739.807983,366.976013,556.320007
733.952026,370.880005,560.223999
733.952026,363.071991,556.320007
739.807983,365.023987,550.463989
737.856018,365.023987,558.271973
732.000000,365.023987,550.463989
739.807983,365.023987,554.367981
739.807983,372.832001,554.367981
743.711975,365.023987,556.320007
745.664001,370.880005,546.559998
743.711975,366.976013,552.416016
733.952026,368.928009,556.320007
739.807983,376.735992,564.127991
739.807983,376.735992,552.416016
737.856018,365.023987,550.463989
733.952026,357.216003,546.559998
743.711975,363.071991,556.320007
741.760010,363.071991,550.463989
745.664001,370.880005,546.559998
745.664001,366.976013,560.223999
751.520020,368.928009,562.176025
747.616028,366.976013,560.223999
751.520020,366.976013,554.367981
745.664001,370.880005,554.367981
745.664001,370.880005,554.367981
747.616028,366.976013,558.271973
745.664001,372.832001,554.367981
749.567993,363.071991,554.367981
745.664001,366.976013,564.127991
743.711975,372.832001,564.127991
751.520020,372.832001,554.367981
751.520020,368.928009,560.223999
741.760010,366.976013,554.367981
751.520020,372.832001,560.223999
749.567993,366.976013,556.320007
747.616028,370.880005,552.416016
751.520020,372.832001,558.271973
751.520020,370.880005,556.320007
749.567993,363.071991,558.271973
745.664001,370.880005,564.127991
751.520020,372.832001,554.367981
753.471985,368.928009,550.463989
745.664001,366.976013,552.416016
757.375977,366.976013,542.656006
749.567993,365.023987,556.320007
747.616028,359.167999,556.320007
755.424011,368.928009,566.080017
757.375977,376.735992,550.463989
753.471985,366.976013,554.367981
753.471985,368.928009,558.271973
751.520020,366.976013,558.271973
755.424011,363.071991,560.223999
755.424011,365.023987,556.320007
751.520020,372.832001,566.080017
753.471985,372.832001,562.176025
753.471985,370.880005,560.223999
753.471985,368.928009,560.223999
759.328003,374.783997,550.463989
749.567993,376.735992,556.320007
761.280029,363.071991,554.367981
755.424011,380.640015,552.416016
753.471985,370.880005,554.367981
755.424011,380.640015,562.176025
747.616028,380.640015,552.416016
753.471985,380.640015,550.463989
747.616028,366.976013,554.367981
755.424011,380.640015,558.271973
753.471985,370.880005,556.320007
745.664001,376.735992,556.320007
759.328003,374.783997,558.271973
751.520020,376.735992,560.223999
751.520020,370.880005,562.176025
745.664001,376.735992,564.127991
753.471985,374.783997,554.367981
747.616028,376.735992,560.223999
751.520020,372.832001,554.367981
751.520020,372.832001,558.271973
741.760010,376.735992,546.559998
749.567993,378.687988,556.320007
747.616028,378.687988,550.463989
747.616028,378.687988,564.127991
737.856018,388.447998,554.367981
745.664001,376.735992,564.127991
743.711975,374.783997,560.223999
745.664001,378.687988,554.367981
751.520020,384.544006,560.223999
745.664001,378.687988,554.367981
747.616028,384.544006,560.223999
745.664001,382.592010,562.176025
743.711975,378.687988,556.320007
745.664001,376.735992,556.320007
743.711975,384.544006,556.320007
745.664001,378.687988,554.367981
745.664001,376.735992,554.367981
743.711975,378.687988,560.223999
743.711975,384.544006,560.223999
751.520020,374.783997,556.320007
755.424011,386.496002,554.367981
747.616028,384.544006,550.463989
743.711975,378.687988,568.031982
743.711975,390.399994,558.271973
737.856018,390.399994,554.367981
741.760010,390.399994,554.367981
741.760010,392.351990,548.512024
737.856018,388.447998,552.416016
739.807983,394.303986,550.463989
743.711975,388.447998,562.176025
737.856018,382.592010,554.367981
741.760010,384.544006,550.463989
735.903992,378.687988,554.367981
739.807983,382.592010,550.463989
739.807983,374.783997,556.320007
739.807983,374.783997,556.320007
737.856018,378.687988,558.271973
732.000000,378.687988,552.416016
730.047974,382.592010,552.416016
732.000000,380.640015,554.367981
735.903992,380.640015,560.223999
730.047974,388.447998,564.127991
735.903992,378.687988,556.320007
737.856018,390.399994,556.320007
741.760010,378.687988,554.367981
735.903992,380.640015,558.271973
735.903992,390.399994,556.320007
732.000000,380.640015,562.176025
732.000000,374.783997,560.223999
743.711975,376.735992,560.223999
732.000000,370.880005,556.320007
730.047974,382.592010,554.367981
732.000000,380.640015,560.223999
732.000000,374.783997,550.463989
737.856018,382.592010,556.320007
730.047974,388.447998,560.223999
730.047974,382.592010,556.320007
733.952026,378.687988,552.416016
735.903992,374.783997,558.271973
741.760010,370.880005,556.320007
732.000000,372.832001,550.463989
730.047974,380.640015,552.416016
730.047974,370.880005,554.367981
743.711975,378.687988,562.176025
739.807983,380.640015,562.176025
741.760010,376.735992,558.271973
733.952026,370.880005,556.320007
735.903992,382.592010,564.127991
728.096008,372.832001,560.223999
730.047974,368.928009,556.320007
739.807983,370.880005,560.223999
733.952026,370.880005,558.271973
739.807983,366.976013,564.127991
737.856018,363.071991,552.416016
733.952026,376.735992,556.320007
737.856018,378.687988,556.320007
743.711975,365.023987,558.271973
739.807983,372.832001,558.271973
737.856018,368.928009,564.127991
735.903992,365.023987,571.935974
739.807983,376.735992,564.127991
739.807983,376.735992,554.367981
741.760010,374.783997,554.367981
741.760010,372.832001,554.367981
743.711975,370.880005,558.271973
745.664001,365.023987,554.367981
737.856018,374.783997,546.559998
739.807983,366.976013,562.176025
743.711975,366.976013,562.176025
741.760010,366.976013,558.271973
745.664001,366.976013,562.176025
743.711975,365.023987,562.176025
751.520020,365.023987,560.223999
741.760010,372.832001,558.271973
743.711975,365.023987,558.271973
747.616028,376.735992,554.367981
751.520020,365.023987,560.223999
753.471985,372.832001,556.320007
753.471985,368.928009,554.367981
749.567993,361.119995,564.127991
747.616028,370.880005,554.367981
747.616028,366.976013,558.271973
745.664001,357.216003,556.320007
741.760010,365.023987,554.367981
747.616028,365.023987,556.320007
753.471985,363.071991,556.320007
753.471985,365.023987,566.080017
761.280029,372.832001,560.223999
751.520020,372.832001,560.223999
751.520020,366.976013,558.271973
753.471985,370.880005,554.367981
759.328003,368.928009,554.367981
745.664001,365.023987,560.223999
747.616028,359.167999,558.271973
759.328003,363.071991,560.223999
751.520020,363.071991,558.271973
759.328003,361.119995,564.127991
757.375977,361.119995,558.271973
757.375977,363.071991,558.271973
759.328003,363.071991,560.223999
757.375977,361.119995,554.367981
757.375977,363.071991,554.367981
751.520020,366.976013,560.223999
745.664001,366.976013,558.271973
761.280029,363.071991,556.320007
757.375977,368.928009,560.223999
755.424011,359.167999,562.176025
757.375977,355.264008,564.127991
761.280029,361.119995,564.127991
755.424011,368.928009,568.031982
755.424011,366.976013,548.512024
753.471985,368.928009,558.271973
759.328003,365.023987,566.080017
753.471985,368.928009,556.320007
759.328003,366.976013,558.271973
757.375977,372.832001,568.031982
759.328003,366.976013,548.512024
745.664001,363.071991,556.320007
751.520020,355.264008,550.463989
745.664001,365.023987,554.367981
753.471985,366.976013,554.367981
755.424011,361.119995,558.271973
755.424011,355.264008,552.416016
753.471985,363.071991,556.320007
755.424011,361.119995,558.271973
755.424011,363.071991,552.416016
745.664001,366.976013,554.367981
759.328003,372.832001,560.223999
749.567993,365.023987,556.320007
751.520020,365.023987,554.367981
753.471985,374.783997,560.223999
745.664001,365.023987,554.367981
759.328003,366.976013,552.416016
753.471985,372.832001,558.271973
741.760010,376.735992,554.367981
741.760010,366.976013,554.367981
745.664001,370.880005,554.367981
755.424011,366.976013,562.176025
753.471985,374.783997,562.176025
753.471985,372.832001,564.127991
749.567993,384.544006,560.223999
749.567993,378.687988,556.320007
757.375977,376.735992,556.320007
749.567993,378.687988,558.271973
741.760010,376.735992,552.416016
749.567993,384.544006,556.320007
741.760010,370.880005,554.367981
741.760010,386.496002,550.463989
755.424011,378.687988,550.463989
749.567993,386.496002,556.320007
747.616028,378.687988,550.463989
745.664001,390.399994,554.367981
749.567993,386.496002,562.176025
747.616028,384.544006,558.271973
747.616028,390.399994,558.271973
743.711975,384.544006,568.031982
743.711975,384.544006,560.223999
747.616028,386.496002,560.223999
747.616028,384.544006,556.320007
743.711975,388.447998,562.176025
749.567993,392.351990,554.367981
747.616028,388.447998,562.176025
745.664001,392.351990,556.320007
743.711975,386.496002,566.080017
737.856018,386.496002,556.320007
747.616028,388.447998,558.271973
739.807983,390.399994,568.031982
741.760010,398.208008,554.367981
737.856018,390.399994,560.223999
737.856018,392.351990,554.367981
741.760010,396.256012,564.127991
743.711975,386.496002,556.320007
739.807983,396.256012,554.367981
743.711975,388.447998,556.320007
741.760010,396.256012,554.367981
737.856018,386.496002,556.320007
737.856018,392.351990,554.367981
737.856018,382.592010,548.512024
739.807983,392.351990,550.463989
735.903992,392.351990,552.416016
735.903992,390.399994,550.463989
747.616028,390.399994,556.320007
737.856018,390.399994,558.271973
737.856018,400.160004,558.271973
741.760010,392.351990,550.463989
735.903992,400.160004,554.367981
733.952026,406.015991,556.320007
741.760010,398.208008,564.127991
741.760010,407.967987,560.223999
739.807983,407.967987,558.271973
735.903992,394.303986,556.320007
741.760010,394.303986,550.463989
735.903992,398.208008,566.080017
745.664001,396.256012,554.367981
733.952026,396.256012,554.367981
735.903992,394.303986,558.271973
741.760010,392.351990,550.463989
737.856018,406.015991,552.416016
741.760010,396.256012,554.367981
737.856018,394.303986,552.416016
735.903992,404.063995,550.463989
741.760010,392.351990,550.463989
733.952026,402.112000,556.320007
733.952026,396.256012,560.223999
735.903992,390.399994,556.320007
735.903992,402.112000,550.463989
733.952026,396.256012,554.367981
722.239990,404.063995,558.271973
732.000000,394.303986,562.176025
743.711975,390.399994,556.320007
739.807983,396.256012,554.367981
735.903992,382.592010,554.367981
737.856018,392.351990,558.271973
741.760010,390.399994,556.320007
741.760010,392.351990,550.463989
732.000000,392.351990,556.320007
737.856018,388.447998,554.367981
743.711975,386.496002,560.223999
735.903992,390.399994,550.463989
726.143982,386.496002,552.416016
741.760010,382.592010,550.463989
735.903992,382.592010,554.367981
739.807983,376.735992,554.367981
735.903992,388.447998,556.320007
747.616028,384.544006,548.512024
735.903992,386.496002,554.367981
730.047974,390.399994,552.416016
735.903992,386.496002,556.320007
741.760010,394.303986,542.656006
730.047974,392.351990,560.223999
735.903992,378.687988,542.656006
735.903992,382.592010,554.367981
739.807983,384.544006,552.416016
732.000000,374.783997,550.463989
730.047974,388.447998,554.367981
735.903992,388.447998,554.367981
739.807983,394.303986,560.223999
735.903992,388.447998,560.223999
733.952026,388.447998,552.416016
733.952026,382.592010,542.656006
735.903992,370.880005,550.463989
743.711975,374.783997,554.367981
745.664001,384.544006,560.223999
741.760010,376.735992,560.223999
732.000000,372.832001,556.320007
735.903992,382.592010,554.367981
741.760010,378.687988,558.271973
739.807983,378.687988,564.127991
737.856018,380.640015,564.127991
745.664001,376.735992,558.271973
743.711975,384.544006,562.176025
743.711975,386.496002,560.223999
745.664001,378.687988,558.271973
737.856018,384.544006,560.223999
747.616028,386.496002,556.320007
745.664001,378.687988,564.127991
741.760010,372.832001,554.367981
745.664001,372.832001,552.416016
741.760010,378.687988,550.463989
745.664001,382.592010,568.031982
745.664001,376.735992,560.223999
753.471985,384.544006,566.080017
745.664001,370.880005,558.271973
751.520020,376.735992,558.271973
741.760010,380.640015,556.320007
751.520020,366.976013,560.223999
745.664001,376.735992,554.367981
751.520020,366.976013,564.127991
759.328003,372.832001,560.223999
743.711975,365.023987,558.271973
741.760010,366.976013,558.271973
751.520020,374.783997,558.271973
745.664001,376.735992,554.367981
741.760010,378.687988,562.176025
745.664001,370.880005,554.367981
751.520020,376.735992,558.271973
745.664001,378.687988,560.223999
741.760010,376.735992,554.367981
751.520020,368.928009,558.271973
747.616028,384.544006,554.367981
755.424011,380.640015,558.271973
747.616028,388.447998,556.320007
749.567993,384.544006,554.367981
751.520020,380.640015,556.320007
747.616028,378.687988,560.223999
751.520020,366.976013,558.271973
753.471985,370.880005,556.320007
753.471985,378.687988,560.223999
763.231995,378.687988,564.127991
761.280029,380.640015,564.127991
761.280029,382.592010,558.271973
745.664001,376.735992,560.223999
745.664001,376.735992,564.127991
755.424011,378.687988,556.320007
753.471985,376.735992,558.271973
757.375977,382.592010,554.367981
753.471985,380.640015,560.223999
759.328003,374.783997,562.176025
755.424011,380.640015,554.367981
751.520020,388.447998,566.080017
747.616028,386.496002,562.176025
755.424011,384.544006,562.176025
759.328003,374.783997,560.223999
755.424011,382.592010,560.223999
755.424011,380.640015,560.223999
759.328003,382.592010,566.080017
757.375977,384.544006,554.367981
755.424011,380.640015,552.416016
749.567993,382.592010,560.223999
751.520020,382.592010,556.320007
759.328003,392.351990,556.320007
759.328003,386.496002,554.367981
755.424011,386.496002,550.463989
745.664001,376.735992,554.367981
755.424011,390.399994,562.176025
749.567993,374.783997,558.271973
741.760010,376.735992,554.367981
747.616028,378.687988,556.320007
745.664001,386.496002,564.127991
755.424011,384.544006,560.223999
747.616028,376.735992,560.223999
761.280029,384.544006,554.367981
751.520020,384.544006,564.127991
745.664001,376.735992,560.223999
745.664001,382.592010,562.176025
751.520020,376.735992,554.367981
749.567993,378.687988,564.127991
757.375977,382.592010,558.271973
755.424011,382.592010,554.367981
751.520020,376.735992,562.176025
757.375977,382.592010,554.367981
757.375977,388.447998,558.271973
747.616028,384.544006,558.271973
749.567993,384.544006,558.271973
749.567993,378.687988,550.463989
755.424011,384.544006,556.320007
755.424011,386.496002,558.271973
749.567993,388.447998,556.320007
747.616028,390.399994,560.223999
741.760010,376.735992,560.223999
751.520020,384.544006,554.367981
749.567993,384.544006,556.320007
751.520020,384.544006,546.559998
751.520020,378.687988,552.416016
751.520020,384.544006,560.223999
747.616028,396.256012,554.367981
747.616028,394.303986,562.176025
749.567993,388.447998,560.223999
747.616028,384.544006,548.512024
741.760010,380.640015,550.463989
747.616028,386.496002,550.463989
747.616028,386.496002,556.320007
751.520020,390.399994,564.127991
749.567993,382.592010,560.223999
749.567993,390.399994,556.320007
737.856018,382.592010,560.223999
741.760010,382.592010,562.176025
749.567993,392.351990,564.127991
739.807983,400.160004,556.320007
747.616028,388.447998,546.559998
747.616028,388.447998,550.463989
743.711975,392.351990,556.320007
743.711975,388.447998,550.463989
747.616028,390.399994,548.512024
741.760010,392.351990,556.320007
737.856018,396.256012,556.320007
753.471985,390.399994,546.559998
743.711975,396.256012,558.271973
745.664001,392.351990,556.320007
747.616028,390.399994,556.320007
743.711975,396.256012,556.320007
739.807983,390.399994,546.559998
745.664001,392.351990,550.463989
737.856018,392.351990,558.271973
747.616028,386.496002,558.271973
747.616028,390.399994,560.223999
749.567993,392.351990,554.367981
745.664001,390.399994,554.367981
743.711975,390.399994,556.320007
739.807983,404.063995,556.320007
743.711975,396.256012,562.176025
745.664001,390.399994,556.320007
735.903992,390.399994,550.463989
747.616028,392.351990,550.463989
745.664001,386.496002,560.223999
743.711975,390.399994,556.320007
747.616028,392.351990,562.176025
743.711975,390.399994,554.367981
743.711975,390.399994,558.271973
741.760010,392.351990,568.031982
751.520020,404.063995,560.223999
741.760010,398.208008,552.416016
747.616028,390.399994,558.271973
749.567993,398.208008,564.127991
741.760010,402.112000,558.271973
743.711975,388.447998,568.031982
747.616028,396.256012,564.127991
749.567993,398.208008,562.176025
743.711975,396.256012,562.176025
745.664001,404.063995,564.127991
749.567993,396.256012,560.223999
741.760010,402.112000,552.416016
739.807983,400.160004,562.176025
743.711975,404.063995,554.367981
741.760010,396.256012,560.223999
743.711975,396.256012,560.223999
741.760010,402.112000,560.223999
737.856018,394.303986,564.127991
743.711975,404.063995,569.984009
741.760010,404.063995,558.271973
739.807983,402.112000,554.367981
735.903992,398.208008,556.320007
741.760010,407.967987,558.271973
747.616028,400.160004,546.559998
743.711975,404.063995,560.223999
737.856018,402.112000,550.463989
733.952026,406.015991,558.271973
733.952026,402.112000,558.271973
743.711975,388.447998,562.176025
739.807983,406.015991,556.320007
747.616028,402.112000,558.271973
741.760010,400.160004,554.367981
735.903992,394.303986,556.320007
733.952026,402.112000,554.367981
743.711975,396.256012,560.223999
733.952026,396.256012,550.463989
728.096008,400.160004,556.320007
735.903992,394.303986,556.320007
743.711975,396.256012,556.320007
747.616028,396.256012,556.320007
732.000000,400.160004,556.320007
733.952026,394.303986,550.463989
733.952026,396.256012,558.271973
739.807983,398.208008,558.271973
739.807983,396.256012,560.223999
730.047974,392.351990,560.223999
743.711975,396.256012,550.463989
743.711975,386.496002,550.463989
735.903992,384.544006,560.223999
732.000000,392.351990,554.367981
737.856018,396.256012,562.176025
737.856018,382.592010,556.320007
741.760010,382.592010,550.463989
735.903992,394.303986,558.271973
730.047974,382.592010,558.271973
735.903992,394.303986,562.176025
747.616028,390.399994,556.320007
741.760010,396.256012,560.223999
730.047974,394.303986,560.223999
743.711975,388.447998,562.176025
743.711975,390.399994,558.271973
743.711975,390.399994,556.320007
743.711975,390.399994,558.271973
743.711975,390.399994,556.320007
737.856018,386.496002,556.320007
737.856018,384.544006,564.127991
755.424011,386.496002,564.127991
743.711975,378.687988,558.271973
743.711975,384.544006,560.223999
739.807983,384.544006,560.223999
747.616028,390.399994,568.031982
747.616028,378.687988,560.223999
745.664001,384.544006,562.176025
749.567993,396.256012,558.271973
743.711975,384.544006,562.176025
743.711975,390.399994,568.031982
745.664001,378.687988,564.127991
737.856018,388.447998,562.176025
743.711975,386.496002,568.031982
755.424011,382.592010,564.127991
743.711975,386.496002,556.320007
733.952026,386.496002,562.176025
743.711975,378.687988,562.176025
732.000000,370.880005,556.320007
737.856018,374.783997,569.984009
737.856018,386.496002,558.271973
739.807983,370.880005,556.320007
743.711975,384.544006,568.031982
739.807983,384.544006,564.127991
735.903992,376.735992,569.984009
732.000000,378.687988,566.080017
737.856018,382.592010,554.367981
739.807983,372.832001,558.271973
733.952026,376.735992,560.223999
732.000000,380.640015,558.271973
735.903992,380.640015,558.271973
728.096008,374.783997,558.271973
732.000000,374.783997,556.320007
735.903992,376.735992,568.031982
733.952026,380.640015,558.271973
732.000000,378.687988,564.127991
733.952026,374.783997,550.463989
732.000000,376.735992,544.607971
732.000000,382.592010,554.367981
730.047974,374.783997,560.223999
728.096008,368.928009,558.271973
733.952026,370.880005,560.223999
728.096008,374.783997,556.320007
722.239990,374.783997,556.320007
732.000000,380.640015,558.271973
733.952026,374.783997,558.271973
730.047974,372.832001,560.223999
732.000000,372.832001,562.176025
718.335999,378.687988,558.271973
728.096008,370.880005,560.223999
730.047974,374.783997,556.320007
722.239990,374.783997,560.223999
722.239990,376.735992,558.271973
722.239990,374.783997,560.223999
728.096008,374.783997,558.271973
722.239990,370.880005,560.223999
728.096008,372.832001,558.271973
722.239990,372.832001,556.320007
726.143982,372.832001,568.031982
720.288025,370.880005,554.367981
722.239990,372.832001,556.320007
720.288025,366.976013,558.271973
722.239990,366.976013,560.223999
728.096008,372.832001,554.367981
732.000000,378.687988,560.223999
724.192017,380.640015,560.223999
720.288025,374.783997,556.320007
720.288025,370.880005,554.367981
724.192017,378.687988,556.320007
726.143982,370.880005,562.176025
722.239990,374.783997,556.320007
722.239990,370.880005,556.320007
718.335999,374.783997,552.416016
724.192017,374.783997,554.367981
718.335999,372.832001,550.463989
728.096008,370.880005,560.223999
724.192017,376.735992,550.463989
732.000000,374.783997,558.271973
722.239990,368.928009,550.463989
730.047974,370.880005,556.320007
728.096008,372.832001,560.223999
733.952026,368.928009,556.320007
728.096008,372.832001,558.271973
730.047974,366.976013,556.320007
720.288025,372.832001,558.271973
732.000000,363.071991,558.271973
728.096008,374.783997,562.176025
732.000000,370.880005,562.176025
718.335999,370.880005,569.984009
722.239990,368.928009,562.176025
722.239990,363.071991,556.320007
720.288025,366.976013,558.271973
722.239990,366.976013,564.127991
720.288025,368.928009,556.320007
720.288025,365.023987,554.367981
722.239990,374.783997,556.320007
720.288025,368.928009,558.271973
724.192017,370.880005,552.416016
722.239990,378.687988,554.367981
730.047974,380.640015,558.271973
728.096008,374.783997,556.320007
732.000000,366.976013,558.271973
730.047974,370.880005,548.512024
726.143982,355.264008,554.367981
728.096008,363.071991,558.271973
728.096008,368.928009,556.320007
728.096008,363.071991,556.320007
726.143982,365.023987,550.463989
728.096008,368.928009,560.223999
722.239990,372.832001,546.559998
726.143982,376.735992,548.512024
724.192017,370.880005,550.463989
728.096008,363.071991,556.320007
730.047974,366.976013,550.463989
722.239990,363.071991,550.463989
730.047974,363.071991,554.367981
726.143982,366.976013,550.463989
732.000000,368.928009,550.463989
722.239990,376.735992,554.367981
732.000000,368.928009,556.320007
733.952026,368.928009,556.320007
730.047974,368.928009,552.416016
735.903992,365.023987,550.463989
741.760010,370.880005,556.320007
741.760010,374.783997,550.463989
741.760010,370.880005,554.367981
745.664001,368.928009,554.367981
741.760010,361.119995,550.463989
743.711975,365.023987,558.271973
741.760010,366.976013,554.367981
745.664001,372.832001,550.463989
747.616028,366.976013,552.416016
747.616028,365.023987,554.367981
755.424011,365.023987,558.271973
757.375977,363.071991,564.127991
751.520020,370.880005,558.271973
745.664001,365.023987,560.223999
741.760010,376.735992,552.416016
741.760010,366.976013,556.320007
751.520020,370.880005,558.271973
751.520020,372.832001,554.367981
759.328003,372.832001,562.176025
753.471985,359.167999,566.080017
747.616028,368.928009,552.416016
759.328003,368.928009,560.223999
753.471985,368.928009,560.223999
751.520020,372.832001,558.271973
751.520020,368.928009,560.223999
751.520020,366.976013,558.271973
753.471985,378.687988,558.271973
753.471985,372.832001,556.320007
757.375977,374.783997,560.223999
745.664001,376.735992,554.367981
753.471985,374.783997,558.271973
751.520020,376.735992,558.271973
745.664001,366.976013,554.367981
753.471985,374.783997,556.320007
755.424011,380.640015,554.367981
751.520020,370.880005,556.320007
743.711975,366.976013,554.367981
745.664001,374.783997,546.559998
751.520020,376.735992,554.367981
743.711975,376.735992,556.320007
745.664001,366.976013,554.367981
741.760010,372.832001,552.416016
743.711975,382.592010,554.367981
751.520020,376.735992,558.271973
745.664001,376.735992,554.367981
749.567993,384.544006,550.463989
741.760010,374.783997,554.367981
751.520020,368.928009,560.223999
745.664001,378.687988,554.367981
749.567993,378.687988,546.559998
747.616028,378.687988,560.223999
745.664001,378.687988,554.367981
743.711975,378.687988,560.223999
743.711975,380.640015,552.416016
745.664001,380.640015,556.320007
743.711975,374.783997,552.416016
745.664001,384.544006,550.463989
749.567993,374.783997,544.607971
747.616028,378.687988,550.463989
747.616028,380.640015,554.367981
737.856018,376.735992,562.176025
749.567993,374.783997,558.271973
757.375977,380.640015,564.127991
751.520020,366.976013,558.271973
751.520020,378.687988,554.367981
751.520020,374.783997,558.271973
757.375977,372.832001,560.223999
755.424011,378.687988,562.176025
757.375977,378.687988,556.320007
753.471985,374.783997,560.223999
757.375977,388.447998,554.367981
761.280029,380.640015,558.271973
753.471985,378.687988,562.176025
747.616028,388.447998,560.223999
755.424011,382.592010,556.320007
759.328003,380.640015,562.176025
751.520020,384.544006,558.271973
751.520020,388.447998,558.271973
745.664001,394.303986,558.271973
757.375977,382.592010,556.320007
759.328003,384.544006,546.559998
755.424011,392.351990,560.223999
753.471985,394.303986,560.223999
755.424011,388.447998,550.463989
755.424011,382.592010,554.367981
755.424011,382.592010,554.367981
757.375977,392.351990,554.367981
757.375977,392.351990,560.223999
749.567993,386.496002,558.271973
755.424011,384.544006,558.271973
755.424011,388.447998,564.127991
753.471985,394.303986,558.271973
749.567993,382.592010,556.320007
745.664001,392.351990,550.463989
745.664001,402.112000,554.367981
747.616028,396.256012,554.367981
743.711975,388.447998,556.320007
743.711975,390.399994,556.320007
747.616028,386.496002,548.512024
745.664001,384.544006,556.320007
751.520020,376.735992,554.367981
749.567993,386.496002,550.463989
749.567993,392.351990,552.416016
745.664001,382.592010,550.463989
747.616028,386.496002,550.463989
747.616028,390.399994,562.176025
749.567993,388.447998,552.416016
747.616028,390.399994,556.320007
745.664001,400.160004,558.271973
747.616028,390.399994,556.320007
749.567993,392.351990,550.463989
747.616028,386.496002,556.320007
743.711975,396.256012,556.320007
747.616028,384.544006,556.320007
739.807983,390.399994,554.367981
743.711975,390.399994,558.271973
737.856018,386.496002,562.176025
737.856018,388.447998,560.223999
739.807983,396.256012,552.416016
747.616028,398.208008,560.223999
745.664001,396.256012,554.367981
741.760010,386.496002,550.463989
747.616028,390.399994,556.320007
743.711975,396.256012,558.271973
747.616028,384.544006,556.320007
743.711975,388.447998,562.176025
743.711975,390.399994,556.320007
739.807983,392.351990,562.176025
733.952026,388.447998,552.416016
735.903992,400.160004,566.080017
743.711975,382.592010,562.176025
743.711975,386.496002,562.176025
745.664001,392.351990,568.031982
747.616028,396.256012,560.223999
743.711975,396.256012,556.320007
743.711975,390.399994,562.176025
745.664001,386.496002,560.223999
743.711975,390.399994,556.320007
745.664001,388.447998,560.223999
741.760010,392.351990,550.463989
737.856018,396.256012,562.176025
743.711975,388.447998,562.176025
737.856018,392.351990,558.271973
739.807983,392.351990,556.320007
737.856018,384.544006,562.176025
743.711975,388.447998,560.223999
743.711975,388.447998,564.127991
737.856018,380.640015,558.271973
737.856018,386.496002,560.223999
741.760010,378.687988,564.127991
743.711975,386.496002,562.176025
741.760010,396.256012,560.223999
737.856018,386.496002,562.176025
739.807983,396.256012,554.367981
737.856018,388.447998,558.271973
737.856018,386.496002,560.223999
743.711975,386.496002,556.320007
741.760010,386.496002,556.320007
749.567993,390.399994,556.320007
749.567993,388.447998,556.320007
743.711975,384.544006,564.127991
745.664001,386.496002,562.176025
747.616028,386.496002,558.271973
745.664001,384.544006,562.176025
743.711975,382.592010,556.320007
743.711975,384.544006,558.271973
747.616028,384.544006,558.271973
739.807983,378.687988,564.127991
733.952026,378.687988,554.367981
741.760010,376.735992,554.367981
743.711975,378.687988,556.320007
745.664001,376.735992,556.320007
737.856018,370.880005,552.416016
739.807983,376.735992,554.367981
739.807983,372.832001,554.367981
743.711975,376.735992,554.367981
745.664001,366.976013,558.271973
741.760010,376.735992,554.367981
733.952026,374.783997,560.223999
741.760010,378.687988,554.367981
745.664001,376.735992,556.320007
741.760010,378.687988,554.367981
733.952026,380.640015,556.320007
747.616028,378.687988,552.416016
741.760010,376.735992,556.320007
741.760010,370.880005,554.367981
747.616028,378.687988,558.271973
735.903992,374.783997,560.223999
745.664001,378.687988,554.367981
743.711975,378.687988,556.320007
743.711975,378.687988,558.271973
749.567993,376.735992,564.127991
741.760010,376.735992,554.367981
745.664001,378.687988,554.367981
751.520020,372.832001,560.223999
743.711975,374.783997,552.416016
745.664001,366.976013,554.367981
745.664001,378.687988,552.416016
741.760010,376.735992,558.271973
751.520020,370.880005,562.176025
747.616028,376.735992,554.367981
749.567993,363.071991,552.416016
741.760010,370.880005,558.271973
751.520020,374.783997,558.271973
749.567993,374.783997,566.080017
745.664001,378.687988,558.271973
745.664001,372.832001,554.367981
749.567993,380.640015,568.031982
745.664001,376.735992,558.271973
741.760010,384.544006,554.367981
745.664001,378.687988,564.127991
751.520020,374.783997,556.320007
749.567993,384.544006,558.271973
753.471985,374.783997,560.223999
747.616028,380.640015,552.416016
745.664001,376.735992,564.127991
755.424011,384.544006,558.271973
745.664001,384.544006,558.271973
747.616028,382.592010,571.935974
749.567993,376.735992,568.031982
741.760010,384.544006,568.031982
741.760010,376.735992,558.271973
749.567993,378.687988,564.127991
755.424011,384.544006,566.080017
747.616028,376.735992,558.271973
751.520020,376.735992,564.127991
753.471985,370.880005,558.271973
747.616028,366.976013,564.127991
741.760010,384.544006,569.984009
751.520020,378.687988,564.127991
755.424011,390.399994,558.271973
751.520020,376.735992,554.367981
745.664001,376.735992,560.223999
745.664001,376.735992,564.127991
747.616028,384.544006,562.176025
741.760010,382.592010,569.984009
737.856018,382.592010,558.271973
743.711975,390.399994,560.223999
741.760010,390.399994,562.176025
743.711975,388.447998,562.176025
745.664001,382.592010,564.127991
743.711975,388.447998,562.176025
737.856018,386.496002,556.320007
747.616028,388.447998,558.271973
743.711975,382.592010,560.223999
735.903992,382.592010,560.223999
747.616028,386.496002,560.223999
741.760010,378.687988,562.176025
741.760010,378.687988,558.271973
737.856018,382.592010,564.127991
737.856018,392.351990,558.271973
749.567993,388.447998,558.271973
737.856018,384.544006,560.223999
737.856018,390.399994,562.176025
735.903992,392.351990,560.223999
735.903992,392.351990,564.127991
730.047974,388.447998,554.367981
737.856018,384.544006,562.176025
732.000000,388.447998,564.127991
737.856018,392.351990,560.223999
743.711975,394.303986,554.367981
743.711975,384.544006,556.320007
733.952026,390.399994,558.271973
732.000000,390.399994,564.127991
743.711975,396.256012,560.223999
735.903992,388.447998,552.416016
730.047974,392.351990,558.271973
732.000000,388.447998,554.367981
735.903992,390.399994,550.463989
733.952026,392.351990,558.271973
737.856018,390.399994,562.176025
741.760010,386.496002,542.656006
735.903992,390.399994,556.320007
741.760010,398.208008,554.367981
739.807983,396.256012,554.367981
741.760010,394.303986,562.176025
741.760010,396.256012,560.223999
730.047974,388.447998,554.367981
743.711975,396.256012,558.271973
737.856018,390.399994,556.320007
733.952026,394.303986,560.223999
737.856018,386.496002,554.367981
739.807983,396.256012,554.367981
741.760010,392.351990,550.463989
743.711975,394.303986,552.416016
737.856018,392.351990,558.271973
745.664001,394.303986,548.512024
737.856018,390.399994,560.223999
743.711975,396.256012,558.271973
747.616028,392.351990,560.223999
743.711975,396.256012,564.127991
743.711975,390.399994,556.320007
743.711975,384.544006,556.320007
743.711975,390.399994,556.320007
735.903992,392.351990,554.367981
737.856018,390.399994,550.463989
733.952026,394.303986,558.271973
741.760010,396.256012,560.223999
745.664001,402.112000,558.271973
743.711975,388.447998,560.223999
730.047974,392.351990,560.223999
743.711975,384.544006,556.320007
737.856018,392.351990,560.223999
737.856018,388.447998,552.416016
745.664001,384.544006,554.367981
749.567993,384.544006,562.176025
747.616028,388.447998,556.320007
735.903992,390.399994,558.271973
739.807983,386.496002,556.320007
735.903992,392.351990,562.176025
733.952026,400.160004,560.223999
739.807983,380.640015,560.223999
743.711975,384.544006,556.320007
743.711975,384.544006,556.320007
737.856018,382.592010,554.367981
739.807983,392.351990,548.512024
741.760010,378.687988,554.367981
737.856018,386.496002,556.320007
739.807983,378.687988,554.367981
737.856018,388.447998,554.367981
737.856018,392.351990,556.320007
732.000000,388.447998,552.416016
735.903992,384.544006,554.367981
735.903992,378.687988,556.320007
728.096008,374.783997,556.320007
733.952026,368.928009,548.512024
733.952026,366.976013,556.320007
730.047974,374.783997,546.559998
737.856018,370.880005,542.656006
732.000000,374.783997,556.320007
739.807983,374.783997,560.223999
739.807983,380.640015,556.320007
735.903992,378.687988,554.367981
730.047974,368.928009,558.271973
735.903992,363.071991,560.223999
733.952026,374.783997,556.320007
733.952026,374.783997,560.223999
730.047974,374.783997,560.223999
735.903992,366.976013,548.512024
732.000000,366.976013,552.416016
739.807983,376.735992,554.367981
741.760010,370.880005,554.367981
743.711975,365.023987,568.031982
733.952026,370.880005,564.127991
739.807983,370.880005,568.031982
733.952026,366.976013,558.271973
735.903992,370.880005,568.031982
735.903992,370.880005,562.176025
735.903992,363.071991,558.271973
739.807983,370.880005,568.031982
733.952026,370.880005,564.127991
739.807983,372.832001,564.127991
733.952026,368.928009,560.223999
739.807983,372.832001,556.320007
745.664001,372.832001,568.031982
745.664001,372.832001,564.127991
741.760010,363.071991,569.984009
737.856018,370.880005,571.935974
739.807983,365.023987,564.127991
737.856018,363.071991,566.080017
733.952026,370.880005,560.223999
733.952026,370.880005,558.271973
733.952026,368.928009,560.223999
741.760010,370.880005,560.223999
730.047974,365.023987,568.031982
739.807983,372.832001,564.127991
745.664001,366.976013,566.080017
732.000000,368.928009,562.176025
735.903992,376.735992,575.840027
733.952026,366.976013,562.176025
732.000000,370.880005,568.031982
739.807983,382.592010,562.176025
733.952026,374.783997,554.367981
728.096008,363.071991,550.463989
739.807983,365.023987,560.223999
732.000000,372.832001,562.176025
733.952026,374.783997,560.223999
732.000000,374.783997,556.320007
728.096008,372.832001,556.320007
728.096008,370.880005,556.320007
730.047974,372.832001,556.320007
739.807983,372.832001,564.127991
726.143982,368.928009,560.223999
732.000000,374.783997,560.223999
730.047974,380.640015,560.223999
730.047974,378.687988,564.127991
735.903992,380.640015,558.271973
728.096008,374.783997,560.223999
732.000000,370.880005,560.223999
724.192017,376.735992,550.463989
728.096008,363.071991,554.367981
732.000000,372.832001,562.176025
733.952026,365.023987,554.367981
724.192017,365.023987,560.223999
726.143982,374.783997,556.320007
730.047974,374.783997,560.223999
728.096008,370.880005,550.463989
735.903992,368.928009,554.367981
732.000000,370.880005,550.463989
732.000000,368.928009,560.223999
722.239990,372.832001,558.271973
730.047974,370.880005,556.320007
730.047974,368.928009,554.367981
732.000000,374.783997,562.176025
733.952026,380.640015,550.463989
730.047974,380.640015,560.223999
730.047974,374.783997,558.271973
730.047974,372.832001,556.320007
733.952026,370.880005,562.176025
726.143982,374.783997,556.320007
728.096008,368.928009,556.320007
739.807983,376.735992,556.320007
739.807983,376.735992,558.271973
732.000000,372.832001,560.223999
737.856018,382.592010,554.367981
730.047974,380.640015,554.367981
730.047974,380.640015,554.367981
728.096008,374.783997,562.176025
732.000000,374.783997,556.320007
739.807983,376.735992,564.127991
741.760010,372.832001,564.127991
730.047974,372.832001,556.320007
737.856018,378.687988,554.367981
739.807983,370.880005,556.320007
732.000000,380.640015,554.367981
739.807983,376.735992,564.127991
733.952026,380.640015,558.271973
741.760010,376.735992,554.367981
743.711975,378.687988,560.223999
735.903992,368.928009,552.416016
741.760010,376.735992,560.223999
743.711975,372.832001,566.080017
735.903992,380.640015,564.127991
743.711975,374.783997,564.127991
743.711975,378.687988,560.223999
743.711975,378.687988,558.271973
733.952026,370.880005,558.271973
743.711975,378.687988,560.223999
743.711975,378.687988,560.223999
735.903992,388.447998,560.223999
739.807983,374.783997,562.176025
741.760010,376.735992,564.127991
743.711975,374.783997,564.127991
741.760010,376.735992,558.271973
741.760010,376.735992,564.127991
745.664001,376.735992,564.127991
737.856018,378.687988,568.031982
745.664001,384.544006,568.031982
741.760010,372.832001,552.416016
741.760010,384.544006,560.223999
737.856018,378.687988,560.223999
733.952026,374.783997,568.031982
743.711975,386.496002,562.176025
743.711975,384.544006,560.223999
743.711975,390.399994,560.223999
741.760010,378.687988,564.127991
737.856018,370.880005,552.416016
743.711975,386.496002,564.127991
743.711975,378.687988,568.031982
739.807983,376.735992,558.271973
743.711975,378.687988,556.320007
733.952026,374.783997,550.463989
739.807983,378.687988,546.559998
739.807983,384.544006,554.367981
737.856018,378.687988,556.320007
737.856018,382.592010,556.320007
730.047974,392.351990,550.463989
737.856018,380.640015,550.463989
737.856018,374.783997,552.416016
735.903992,388.447998,554.367981
735.903992,382.592010,556.320007
735.903992,386.496002,556.320007
739.807983,380.640015,562.176025
739.807983,376.735992,564.127991
745.664001,376.735992,558.271973
737.856018,376.735992,550.463989
741.760010,380.640015,556.320007
745.664001,376.735992,564.127991
733.952026,374.783997,560.223999
737.856018,380.640015,556.320007
747.616028,388.447998,556.320007
751.520020,380.640015,558.271973
745.664001,378.687988,552.416016
739.807983,382.592010,550.463989
737.856018,378.687988,556.320007
733.952026,380.640015,560.223999
743.711975,384.544006,564.127991
745.664001,382.592010,568.031982
737.856018,384.544006,556.320007
743.711975,378.687988,560.223999
741.760010,372.832001,560.223999
743.711975,384.544006,562.176025
745.664001,376.735992,566.080017
745.664001,376.735992,566.080017
741.760010,376.735992,564.127991
741.760010,376.735992,554.367981
755.424011,384.544006,556.320007
747.616028,378.687988,560.223999
737.856018,374.783997,560.223999
741.760010,378.687988,564.127991
747.616028,388.447998,556.320007
743.711975,378.687988,562.176025
743.711975,384.544006,560.223999
745.664001,378.687988,560.223999
741.760010,384.544006,548.512024
739.807983,382.592010,556.320007
737.856018,388.447998,558.271973
743.711975,378.687988,556.320007
745.664001,376.735992,554.367981
755.424011,384.544006,556.320007
751.520020,376.735992,554.367981
751.520020,368.928009,542.656006
745.664001,378.687988,554.367981
745.664001,376.735992,554.367981
747.616028,384.544006,560.223999
747.616028,378.687988,556.320007
755.424011,384.544006,554.367981
753.471985,374.783997,556.320007
749.567993,384.544006,556.320007
745.664001,378.687988,556.320007
741.760010,376.735992,554.367981
745.664001,378.687988,556.320007
749.567993,378.687988,560.223999
749.567993,384.544006,556.320007
755.424011,388.447998,558.271973
747.616028,384.544006,556.320007
743.711975,378.687988,560.223999
755.424011,372.832001,556.320007
753.471985,366.976013,554.367981
751.520020,370.880005,556.320007
745.664001,372.832001,560.223999
753.471985,370.880005,560.223999
751.520020,374.783997,558.271973
745.664001,376.735992,564.127991
755.424011,376.735992,562.176025
755.424011,382.592010,558.271973
757.375977,368.928009,556.320007
751.520020,374.783997,568.031982
753.471985,374.783997,556.320007
751.520020,370.880005,554.367981
745.664001,376.735992,558.271973
751.520020,378.687988,564.127991
753.471985,372.832001,554.367981
755.424011,378.687988,562.176025
753.471985,376.735992,558.271973
751.520020,374.783997,558.271973
749.567993,384.544006,562.176025
755.424011,380.640015,554.367981
747.616028,382.592010,560.223999
753.471985,378.687988,564.127991
751.520020,372.832001,556.320007
741.760010,376.735992,554.367981
751.520020,378.687988,566.080017
741.760010,378.687988,558.271973
743.711975,378.687988,556.320007
737.856018,378.687988,562.176025
747.616028,378.687988,556.320007
755.424011,384.544006,556.320007
755.424011,376.735992,569.984009
741.760010,372.832001,564.127991
741.760010,370.880005,566.080017
743.711975,366.976013,560.223999
745.664001,366.976013,558.271973
745.664001,376.735992,560.223999
745.664001,366.976013,560.223999
747.616028,372.832001,552.416016
747.616028,374.783997,542.656006
741.760010,370.880005,558.271973
741.760010,366.976013,552.416016
743.711975,372.832001,544.607971
737.856018,370.880005,546.559998
737.856018,386.496002,556.320007
745.664001,376.735992,558.271973
739.807983,366.976013,554.367981
741.760010,378.687988,554.367981
741.760010,372.832001,554.367981
737.856018,376.735992,550.463989
733.952026,370.880005,560.223999
745.664001,380.640015,548.512024
745.664001,368.928009,554.367981
747.616028,372.832001,550.463989
739.807983,359.167999,554.367981
747.616028,366.976013,554.367981
745.664001,366.976013,546.559998
745.664001,366.976013,554.367981
749.567993,374.783997,552.416016
741.760010,376.735992,558.271973
739.807983,370.880005,554.367981
739.807983,370.880005,554.367981
745.664001,365.023987,554.367981
733.952026,363.071991,556.320007
745.664001,366.976013,554.367981
745.664001,365.023987,566.080017
743.711975,366.976013,550.463989
751.520020,372.832001,554.367981
743.711975,368.928009,544.607971
743.711975,372.832001,552.416016
741.760010,376.735992,554.367981
741.760010,372.832001,560.223999
741.760010,368.928009,560.223999
747.616028,368.928009,560.223999
735.903992,366.976013,550.463989
739.807983,363.071991,550.463989
739.807983,361.119995,550.463989
759.328003,363.071991,556.320007
743.711975,370.880005,552.416016
741.760010,366.976013,554.367981
745.664001,384.544006,554.367981
737.856018,370.880005,564.127991
751.520020,370.880005,562.176025
751.520020,376.735992,554.367981
751.520020,366.976013,554.367981
745.664001,370.880005,554.367981
747.616028,366.976013,554.367981
741.760010,366.976013,554.367981
745.664001,370.880005,560.223999
741.760010,376.735992,558.271973
745.664001,380.640015,546.559998
753.471985,374.783997,558.271973
745.664001,376.735992,554.367981
751.520020,372.832001,556.320007
751.520020,366.976013,560.223999
747.616028,366.976013,560.223999
751.520020,376.735992,558.271973
745.664001,376.735992,558.271973
751.520020,380.640015,556.320007
747.616028,388.447998,564.127991
753.471985,374.783997,554.367981
749.567993,372.832001,560.223999
749.567993,378.687988,560.223999
755.424011,376.735992,550.463989
755.424011,376.735992,548.512024
745.664001,376.735992,552.416016
751.520020,382.592010,550.463989
747.616028,363.071991,552.416016
745.664001,374.783997,546.559998
743.711975,384.544006,556.320007
757.375977,382.592010,554.367981
745.664001,392.351990,550.463989
749.567993,384.544006,550.463989
753.471985,380.640015,538.752014
741.760010,388.447998,550.463989
753.471985,384.544006,552.416016
749.567993,384.544006,554.367981
745.664001,378.687988,556.320007
759.328003,370.880005,554.367981
753.471985,386.496002,552.416016
755.424011,386.496002,550.463989
753.471985,382.592010,548.512024
753.471985,384.544006,546.559998
745.664001,376.735992,554.367981
757.375977,382.592010,558.271973
757.375977,378.687988,556.320007
761.280029,386.496002,558.271973
749.567993,380.640015,558.271973
757.375977,380.640015,554.367981
753.471985,392.351990,548.512024
745.664001,388.447998,556.320007
759.328003,388.447998,558.271973
757.375977,386.496002,554.367981
755.424011,388.447998,552.416016
761.280029,392.351990,554.367981
755.424011,392.351990,552.416016
757.375977,392.351990,558.271973
755.424011,382.592010,554.367981
757.375977,386.496002,558.271973
755.424011,388.447998,554.367981
755.424011,392.351990,560.223999
763.231995,388.447998,554.367981
751.520020,392.351990,568.031982
753.471985,390.399994,552.416016
755.424011,386.496002,556.320007
761.280029,392.351990,554.367981
755.424011,392.351990,554.367981
745.664001,396.256012,560.223999
749.567993,392.351990,564.127991
747.616028,396.256012,554.367981
757.375977,390.399994,552.416016
753.471985,386.496002,548.512024
749.567993,388.447998,554.367981
745.664001,396.256012,552.416016
749.567993,390.399994,554.367981
759.328003,386.496002,552.416016
751.520020,394.303986,550.463989
747.616028,400.160004,552.416016
755.424011,390.399994,558.271973
759.328003,400.160004,550.463989
753.471985,386.496002,552.416016
749.567993,386.496002,554.367981
747.616028,382.592010,548.512024
747.616028,388.447998,544.607971
751.520020,388.447998,548.512024
753.471985,390.399994,552.416016
749.567993,400.160004,544.607971
745.664001,394.303986,548.512024
749.567993,392.351990,550.463989
749.567993,400.160004,546.559998
751.520020,382.592010,552.416016
753.471985,382.592010,550.463989
745.664001,392.351990,542.656006
755.424011,396.256012,548.512024
759.328003,384.544006,552.416016
755.424011,386.496002,552.416016
761.280029,384.544006,552.416016
745.664001,388.447998,550.463989
749.567993,382.592010,546.559998
755.424011,374.783997,552.416016
747.616028,380.640015,546.559998
755.424011,384.544006,544.607971
757.375977,382.592010,554.367981
751.520020,384.544006,546.559998
751.520020,376.735992,554.367981
755.424011,382.592010,554.367981
757.375977,380.640015,552.416016
761.280029,386.496002,558.271973
753.471985,382.592010,552.416016
749.567993,386.496002,556.320007
753.471985,374.783997,548.512024
751.520020,372.832001,562.176025
763.231995,378.687988,552.416016
759.328003,376.735992,550.463989
753.471985,376.735992,554.367981
759.328003,372.832001,560.223999
755.424011,374.783997,548.512024
753.471985,368.928009,556.320007
749.567993,374.783997,564.127991
751.520020,376.735992,554.367981
745.664001,376.735992,558.271973
751.520020,374.783997,556.320007
751.520020,376.735992,558.271973
745.664001,372.832001,558.271973
741.760010,370.880005,560.223999
745.664001,363.071991,550.463989
745.664001,376.735992,560.223999
745.664001,365.023987,560.223999
751.520020,372.832001,560.223999
749.567993,374.783997,564.127991
753.471985,372.832001,560.223999
749.567993,365.023987,562.176025
741.760010,370.880005,564.127991
755.424011,374.783997,562.176025
745.664001,372.832001,558.271973
751.520020,366.976013,554.367981
753.471985,359.167999,552.416016
757.375977,368.928009,558.271973
747.616028,378.687988,558.271973
755.424011,370.880005,552.416016
745.664001,370.880005,560.223999
751.520020,368.928009,560.223999
751.520020,376.735992,564.127991
741.760010,376.735992,558.271973
751.520020,370.880005,566.080017
759.328003,363.071991,568.031982
751.520020,372.832001,562.176025
755.424011,376.735992,562.176025
751.520020,366.976013,558.271973
749.567993,359.167999,562.176025
743.711975,359.167999,556.320007
747.616028,359.167999,560.223999
745.664001,368.928009,554.367981
751.520020,363.071991,560.223999
745.664001,368.928009,548.512024
755.424011,365.023987,562.176025
751.520020,365.023987,554.367981
747.616028,357.216003,556.320007
743.711975,365.023987,556.320007
743.711975,365.023987,556.320007
749.567993,361.119995,558.271973
747.616028,365.023987,560.223999
751.520020,366.976013,558.271973
739.807983,366.976013,558.271973
747.616028,359.167999,556.320007
743.711975,365.023987,554.367981
741.760010,361.119995,550.463989
743.711975,363.071991,568.031982
747.616028,366.976013,554.367981
741.760010,365.023987,554.367981
745.664001,366.976013,554.367981
737.856018,368.928009,566.080017
741.760010,372.832001,558.271973
745.664001,366.976013,560.223999
745.664001,372.832001,566.080017
741.760010,370.880005,564.127991
741.760010,378.687988,564.127991
741.760010,370.880005,556.320007
745.664001,376.735992,560.223999
741.760010,376.735992,564.127991
745.664001,365.023987,562.176025
749.567993,366.976013,558.271973
751.520020,366.976013,558.271973
745.664001,374.783997,554.367981
759.328003,370.880005,556.320007
749.567993,374.783997,564.127991
741.760010,366.976013,564.127991
737.856018,378.687988,556.320007
739.807983,368.928009,562.176025
747.616028,372.832001,558.271973
751.520020,370.880005,560.223999
751.520020,365.023987,552.416016
747.616028,366.976013,556.320007
737.856018,368.928009,546.559998
741.760010,372.832001,558.271973
745.664001,366.976013,560.223999
745.664001,372.832001,564.127991
741.760010,372.832001,556.320007
751.520020,378.687988,554.367981
753.471985,366.976013,556.320007
753.471985,370.880005,560.223999
751.520020,376.735992,554.367981
751.520020,376.735992,560.223999
751.520020,372.832001,554.367981
745.664001,368.928009,552.416016
751.520020,374.783997,556.320007
743.711975,370.880005,554.367981
741.760010,376.735992,564.127991
743.711975,366.976013,554.367981
737.856018,378.687988,550.463989
735.903992,380.640015,552.416016
735.903992,366.976013,550.463989
733.952026,368.928009,556.320007
733.952026,365.023987,546.559998
728.096008,380.640015,552.416016
730.047974,378.687988,550.463989
732.000000,382.592010,544.607971
732.000000,370.880005,558.271973
726.143982,378.687988,542.656006
733.952026,388.447998,548.512024
728.096008,390.399994,540.703979
732.000000,384.544006,544.607971
728.096008,390.399994,534.848022
730.047974,396.256012,544.607971
732.000000,390.399994,542.656006
730.047974,390.399994,550.463989
739.807983,390.399994,546.559998
739.807983,390.399994,554.367981
741.760010,394.303986,542.656006
741.760010,386.496002,550.463989
743.711975,390.399994,550.463989
749.567993,376.735992,542.656006
741.760010,382.592010,548.512024
741.760010,376.735992,558.271973
745.664001,386.496002,560.223999
751.520020,384.544006,566.080017
751.520020,386.496002,556.320007
757.375977,382.592010,554.367981
759.328003,374.783997,560.223999
761.280029,382.592010,560.223999
757.375977,382.592010,564.127991
763.231995,392.351990,564.127991
757.375977,394.303986,564.127991
769.088013,392.351990,554.367981
757.375977,382.592010,564.127991
763.231995,382.592010,550.463989
763.231995,390.399994,552.416016
755.424011,384.544006,552.416016
753.471985,384.544006,544.607971
767.135986,382.592010,560.223999
757.375977,390.399994,554.367981
761.280029,386.496002,546.559998
763.231995,386.496002,544.607971
759.328003,388.447998,542.656006
755.424011,392.351990,554.367981
749.567993,392.351990,554.367981
747.616028,390.399994,556.320007
745.664001,384.544006,566.080017
743.711975,396.256012,558.271973
735.903992,392.351990,554.367981
737.856018,394.303986,552.416016
739.807983,400.160004,550.463989
743.711975,406.015991,552.416016
743.711975,411.872009,540.703979
747.616028,419.679993,544.607971
743.711975,431.391998,552.416016
741.760010,429.440002,554.367981
737.856018,425.536011,571.935974
743.711975,421.631989,556.320007
743.711975,431.391998,571.935974
749.567993,437.247986,577.791992
751.520020,427.488007,577.791992
751.520020,415.776001,583.648010
753.471985,423.584015,581.695984
759.328003,419.679993,573.888000
755.424011,400.160004,573.888000
771.039978,390.399994,566.080017
767.135986,382.592010,566.080017
753.471985,390.399994,564.127991
757.375977,392.351990,554.367981
747.616028,388.447998,548.512024
745.664001,400.160004,540.703979
743.711975,398.208008,536.799988
743.711975,407.967987,515.328003
743.711975,409.920013,517.280029
741.760010,419.679993,499.712006
730.047974,423.584015,495.808014
733.952026,423.584015,486.048004
739.807983,423.584015,493.855988
739.807983,417.727997,480.191986
737.856018,415.776001,493.855988
739.807983,421.631989,501.664001
755.424011,404.063995,507.519989
757.375977,386.496002,503.615997
771.039978,382.592010,511.424011
761.280029,386.496002,528.992004
757.375977,386.496002,532.895996
767.135986,392.351990,534.848022
757.375977,398.208008,544.607971
759.328003,396.256012,540.703979
761.280029,406.015991,542.656006
757.375977,409.920013,538.752014
759.328003,417.727997,544.607971
763.231995,417.727997,534.848022
767.135986,437.247986,530.943970
761.280029,443.104004,534.848022
767.135986,431.391998,530.943970
771.039978,439.200012,534.848022
761.280029,447.007996,546.559998
771.039978,435.295990,556.320007
776.895996,421.631989,564.127991
784.703979,413.824005,573.888000
790.559998,407.967987,577.791992
802.271973,394.303986,587.552002
806.176025,378.687988,589.504028
813.984009,370.880005,585.599976
815.935974,372.832001,591.455994
817.888000,355.264008,585.599976
823.744019,349.407990,587.552002
829.599976,353.312012,587.552002
835.455994,349.407990,579.744019
825.695984,361.119995,571.935974
808.127991,363.071991,581.695984
800.320007,386.496002,591.455994
802.271973,394.303986,591.455994
806.176025,388.447998,579.744019
815.935974,392.351990,571.935974
817.888000,409.920013,579.744019
815.935974,398.208008,575.840027
819.840027,378.687988,575.840027
821.791992,384.544006,571.935974
806.176025,400.160004,577.791992
802.271973,386.496002,577.791992
806.176025,376.735992,583.648010
784.703979,374.783997,579.744019
774.943970,384.544006,560.223999
784.703979,366.976013,554.367981
802.271973,353.312012,544.607971
798.367981,349.407990,532.895996
798.367981,351.359985,528.992004
802.271973,343.552002,536.799988
800.320007,345.503998,552.416016
796.416016,355.264008,560.223999
794.463989,368.928009,568.031982
800.320007,366.976013,581.695984
806.176025,366.976013,599.263977
790.559998,380.640015,597.312012
794.463989,390.399994,603.168030
806.176025,374.783997,601.216003
810.080017,366.976013,589.504028
804.223999,372.832001,585.599976
810.080017,374.783997,577.791992
792.512024,368.928009,573.888000
800.320007,365.023987,569.984009
794.463989,363.071991,573.888000
782.752014,359.167999,571.935974
786.656006,353.312012,568.031982
776.895996,349.407990,569.984009
776.895996,355.264008,556.320007
769.088013,345.503998,568.031982
780.799988,343.552002,571.935974
780.799988,343.552002,583.648010
786.656006,337.696014,585.599976
790.559998,341.600006,599.263977
794.463989,335.743988,601.216003
786.656006,341.600006,601.216003
786.656006,351.359985,605.119995
776.895996,361.119995,601.216003
786.656006,370.880005,605.119995
778.848022,368.928009,603.168030
782.752014,382.592010,599.263977
778.848022,384.544006,599.263977
782.752014,388.447998,603.168030
776.895996,384.544006,591.455994
771.039978,370.880005,585.599976
774.943970,359.167999,587.552002
778.848022,359.167999,587.552002
774.943970,357.216003,587.552002
772.992004,349.407990,579.744019
774.943970,333.791992,577.791992
774.943970,331.839996,573.888000
772.992004,331.839996,569.984009
771.039978,320.127991,579.744019
772.992004,318.175995,579.744019
771.039978,318.175995,595.359985
774.943970,324.032013,591.455994
771.039978,345.503998,589.504028
776.895996,345.503998,595.359985
771.039978,351.359985,597.312012
771.039978,359.167999,601.216003
765.184021,366.976013,595.359985
763.231995,374.783997,589.504028
767.135986,374.783997,593.408020
763.231995,374.783997,579.744019
757.375977,376.735992,581.695984
765.184021,372.832001,591.455994
761.280029,368.928009,579.744019
759.328003,359.167999,569.984009
741.760010,349.407990,581.695984
747.616028,341.600006,573.888000
741.760010,345.503998,583.648010
747.616028,331.839996,575.840027
747.616028,331.839996,583.648010
747.616028,341.600006,575.840027
747.616028,331.839996,577.791992
741.760010,335.743988,583.648010
745.664001,333.791992,583.648010
737.856018,327.936005,585.599976
741.760010,345.503998,585.599976
747.616028,339.648010,577.791992
739.807983,353.312012,583.648010
741.760010,359.167999,581.695984
739.807983,365.023987,573.888000
745.664001,365.023987,585.599976
737.856018,368.928009,583.648010
737.856018,370.880005,575.840027
735.903992,363.071991,585.599976
730.047974,361.119995,591.455994
728.096008,361.119995,595.359985
733.952026,361.119995,595.359985
733.952026,353.312012,589.504028
747.616028,335.743988,591.455994
747.616028,335.743988,587.552002
743.711975,333.791992,585.599976
735.903992,329.888000,595.359985
737.856018,327.936005,587.552002
735.903992,339.648010,585.599976
735.903992,353.312012,593.408020
733.952026,343.552002,591.455994
722.239990,349.407990,587.552002
724.192017,355.264008,581.695984
722.239990,363.071991,579.744019
720.288025,370.880005,571.935974
720.288025,361.119995,573.888000
716.383972,374.783997,577.791992
702.719971,386.496002,579.744019
712.479980,384.544006,577.791992
704.671997,380.640015,583.648010
712.479980,382.592010,579.744019
694.911987,376.735992,579.744019
698.815979,368.928009,573.888000
700.768005,363.071991,568.031982
698.815979,366.976013,571.935974
691.007996,363.071991,568.031982
683.200012,363.071991,568.031982
683.200012,372.832001,558.271973
683.200012,370.880005,558.271973
677.343994,370.880005,554.367981
669.536011,370.880005,552.416016
667.583984,380.640015,552.416016
667.583984,392.351990,552.416016
663.679993,382.592010,552.416016
661.728027,390.399994,548.512024
659.776001,394.303986,556.320007
657.823975,396.256012,554.367981
661.728027,390.399994,560.223999
667.583984,386.496002,552.416016
665.632019,394.303986,550.463989
663.679993,411.872009,554.367981
665.632019,404.063995,558.271973
659.776001,407.967987,558.271973
651.968018,407.967987,554.367981
650.015991,409.920013,562.176025
646.112000,402.112000,566.080017
648.064026,407.967987,558.271973
644.159973,404.063995,544.607971
648.064026,406.015991,552.416016
653.919983,404.063995,546.559998
648.064026,400.160004,546.559998
646.112000,402.112000,550.463989
655.872009,394.303986,548.512024
659.776001,392.351990,552.416016
657.823975,404.063995,562.176025
673.440002,402.112000,569.984009
675.392029,407.967987,577.791992
681.247986,417.727997,568.031982
685.151978,413.824005,569.984009
683.200012,423.584015,569.984009
689.056030,417.727997,569.984009
691.007996,421.631989,571.935974
696.864014,435.295990,568.031982
694.911987,431.391998,568.031982
696.864014,431.391998,562.176025
692.960022,439.200012,568.031982
696.864014,433.343994,560.223999
683.200012,441.152008,554.367981
694.911987,435.295990,550.463989
694.911987,427.488007,540.703979
696.864014,427.488007,540.703979
691.007996,423.584015,542.656006
694.911987,427.488007,550.463989
700.768005,419.679993,552.416016
702.719971,415.776001,540.703979
696.864014,423.584015,556.320007
698.815979,421.631989,562.176025
698.815979,423.584015,552.416016
710.528015,429.440002,554.367981
706.624023,427.488007,556.320007
708.575989,427.488007,546.559998
716.383972,425.536011,538.752014
712.479980,445.056000,544.607971
710.528015,441.152008,534.848022
704.671997,441.152008,538.752014
716.383972,437.247986,532.895996
714.432007,441.152008,527.039978
714.432007,445.056000,538.752014
706.624023,452.864014,530.943970
712.479980,447.007996,528.992004
698.815979,454.816010,523.135986
698.815979,445.056000,530.943970
706.624023,425.536011,534.848022
708.575989,425.536011,532.895996
700.768005,421.631989,540.703979
704.671997,421.631989,546.559998
700.768005,419.679993,540.703979
702.719971,415.776001,540.703979
694.911987,413.824005,552.416016
700.768005,417.727997,544.607971
700.768005,421.631989,546.559998
704.671997,425.536011,542.656006
694.911987,435.295990,550.463989
696.864014,447.007996,552.416016
691.007996,439.200012,558.271973
683.200012,443.104004,544.607971
692.960022,437.247986,544.607971
687.104004,433.343994,540.703979
689.056030,443.104004,538.752014
685.151978,437.247986,540.703979
667.583984,429.440002,542.656006
671.487976,427.488007,546.559998
677.343994,409.920013,540.703979
675.392029,409.920013,530.943970
677.343994,400.160004,534.848022
667.583984,402.112000,536.799988
665.632019,396.256012,536.799988
669.536011,394.303986,527.039978
667.583984,396.256012,540.703979
667.583984,402.112000,542.656006
667.583984,398.208008,542.656006
667.583984,404.063995,538.752014
661.728027,407.967987,544.607971
663.679993,398.208008,538.752014
659.776001,409.920013,540.703979
659.776001,411.872009,548.512024
669.536011,415.776001,542.656006
665.632019,400.160004,550.463989
667.583984,409.920013,550.463989
663.679993,411.872009,554.367981
667.583984,394.303986,554.367981
661.728027,392.351990,554.367981
665.632019,392.351990,556.320007
665.632019,370.880005,550.463989
665.632019,368.928009,556.320007
673.440002,365.023987,562.176025
675.392029,355.264008,546.559998
675.392029,351.359985,558.271973
683.200012,339.648010,558.271973
685.151978,341.600006,566.080017
692.960022,339.648010,569.984009
691.007996,349.407990,562.176025
696.864014,349.407990,558.271973
696.864014,353.312012,583.648010
691.007996,357.216003,577.791992
708.575989,353.312012,577.791992
706.624023,347.455994,587.552002
716.383972,357.216003,589.504028
716.383972,349.407990,583.648010
718.335999,353.312012,587.552002
720.288025,347.455994,585.599976
718.335999,343.552002,589.504028
728.096008,341.600006,585.599976
728.096008,331.839996,591.455994
726.143982,331.839996,589.504028
739.807983,316.223999,595.359985
730.047974,314.272003,591.455994
732.000000,308.415985,591.455994
741.760010,304.511993,595.359985
733.952026,308.415985,593.408020
735.903992,310.368011,601.216003
741.760010,310.368011,597.312012
741.760010,312.320007,603.168030
730.047974,314.272003,610.976013
745.664001,312.320007,607.072021
747.616028,310.368011,607.072021
745.664001,308.415985,607.072021
753.471985,324.032013,601.216003
753.471985,322.079987,609.023987
761.280029,302.559998,610.976013
757.375977,288.895996,609.023987
767.135986,310.368011,612.927979
778.848022,296.704010,612.927979
784.703979,288.895996,610.976013
784.703979,288.895996,605.119995
790.559998,284.992004,614.880005
790.559998,281.088013,618.783997
786.656006,286.944000,616.831970
792.512024,294.752014,626.591980
794.463989,288.895996,628.544006
810.080017,286.944000,630.495972
802.271973,284.992004,638.304016
810.080017,292.799988,630.495972
817.888000,290.847992,630.495972
821.791992,296.704010,634.400024
821.791992,296.704010,636.351990
835.455994,298.656006,630.495972
835.455994,300.608002,638.304016
837.408020,312.320007,636.351990
849.119995,306.463989,640.255981
845.216003,304.511993,648.064026
839.359985,314.272003,648.064026
847.168030,318.175995,642.208008
841.312012,318.175995,646.112000
837.408020,316.223999,642.208008
843.263977,320.127991,640.255981
849.119995,327.936005,644.159973
847.168030,322.079987,646.112000
839.359985,335.743988,640.255981
849.119995,331.839996,628.544006
837.408020,337.696014,634.400024
841.312012,331.839996,626.591980
833.504028,333.791992,618.783997
831.552002,333.791992,620.736023
827.648010,337.696014,626.591980
821.791992,339.648010,624.640015
819.840027,347.455994,632.447998
819.840027,343.552002,648.064026
819.840027,345.503998,663.679993
829.599976,343.552002,671.487976
827.648010,347.455994,694.911987
823.744019,363.071991,718.335999
831.552002,359.167999,724.192017
829.599976,343.552002,728.096008
837.408020,357.216003,735.903992
823.744019,357.216003,714.432007
819.840027,365.023987,722.239990
806.176025,378.687988,712.479980
796.416016,376.735992,708.575989
790.559998,370.880005,685.151978
780.799988,376.735992,655.872009
776.895996,388.447998,636.351990
765.184021,382.592010,646.112000
753.471985,384.544006,638.304016
747.616028,392.351990,636.351990
733.952026,392.351990,632.447998
737.856018,382.592010,618.783997
730.047974,384.544006,605.119995
735.903992,404.063995,603.168030
733.952026,468.480011,614.880005
700.768005,376.735992,618.783997
704.671997,353.312012,599.263977
704.671997,402.112000,575.840027
691.007996,376.735992,566.080017
694.911987,396.256012,569.984009
691.007996,384.544006,583.648010
673.440002,427.488007,577.791992
638.304016,462.623993,575.840027
605.119995,464.575989,554.367981
607.072021,419.679993,534.848022
605.119995,419.679993,534.848022
609.023987,460.671997,542.656006
626.591980,448.959991,550.463989
810.080017,392.351990,560.223999
757.375977,519.231995,610.976013
511.424011,583.648010,681.247986
837.408020,480.191986,704.671997
622.687988,409.920013,790.559998
774.943970,488.000000,829.599976
755.424011,351.359985,854.976013
763.231995,365.023987,874.495972
735.903992,499.712006,872.544006
735.903992,349.407990,866.687988
726.143982,339.648010,849.119995
769.088013,491.903992,831.552002
726.143982,505.567993,823.744019
888.159973,380.640015,812.031982
1001.375977,544.607971,810.080017
886.208008,528.992004,843.263977
1013.088013,452.864014,878.400024
819.840027,689.056030,942.815979
710.528015,685.151978,1003.328003
599.263977,614.880005,1061.887939
843.263977,513.375977,1057.984009
985.760010,368.928009,1057.984009
895.968018,404.063995,1079.456055
800.320007,462.623993,1067.744019
858.880005,378.687988,1018.943970
909.632019,284.992004,997.471985
894.015991,257.664001,968.192017
940.864014,163.968002,942.815979
1016.992004,111.264000,935.007996
1015.039978,208.863998,976.000000
938.911987,421.631989,999.424011
888.159973,491.903992,1018.943970
751.520020,521.184021,1040.416016
728.096008,636.351990,1016.992004
907.679993,632.447998,968.192017
954.528015,320.127991,938.911987
1013.088013,17.568001,911.583984
999.424011,17.568001,905.728027
997.471985,204.960007,905.728027
1028.703979,220.576004,899.872009
1024.800049,179.584000,911.583984
1022.848022,275.231995,913.536011
1001.375977,437.247986,931.104004
1005.280029,556.320007,931.104004
1108.735962,603.168030,958.432007
1210.239990,610.976013,968.192017
1243.423950,575.840027,983.807983
1223.904053,466.528015,1013.088013
1186.816040,355.264008,1032.608032
1141.920044,384.544006,1065.791992
1290.271973,447.007996,1069.696045
1549.887939,366.976013,1069.696045
1575.264038,171.776001,1138.015991
890.112000,-607.072021,1251.232056
448.959991,-1214.144043,1333.215942
581.695984,-853.023987,1288.319946
849.119995,1218.047974,1128.255981
1760.703979,1920.767944,985.760010
1557.696045,1184.864014,1054.079956
433.343994,1157.536011,1202.432007
1038.463989,1596.735962,1100.927979
1391.776001,466.528015,1005.280029
1696.287964,-573.888000,952.575989
1350.784058,-195.199997,999.424011
1319.552002,46.848000,1036.511963
1329.312012,113.216003,1057.984009
1048.223999,33.183998,1093.119995
478.239990,-357.216003,1134.112061
583.648010,-245.951996,1095.072021
1436.671997,310.368011,995.520020
1811.456055,450.911987,938.911987
831.552002,-439.200012,1063.839966
-468.480011,-1475.712036,1153.631958
1333.215942,-692.960022,921.343994
1774.368042,-85.888000,954.528015
542.656006,197.151993,1087.264038
1218.047974,349.407990,974.047974
1372.255981,-21.472000,954.528015
804.223999,39.040001,1052.128052
1106.784058,614.880005,1056.031982
1912.959961,689.056030,977.952026
1370.303955,290.847992,997.471985
962.335999,177.632004,1030.656006
1009.184021,126.879997,1028.703979
107.360001,-7.808000,1026.751953
48.799999,341.600006,1046.271973
464.575989,778.848022,1087.264038
841.312012,1057.984009,1030.656006
1827.072021,1223.904053,882.304016
1774.368042,1268.800049,923.296021
1473.760010,1350.784058,964.288025
1374.208008,1200.479980,892.064026
119.071999,958.432007,909.632019
-253.759995,275.231995,936.960022
-439.200012,-1073.599976,942.815979
517.280029,-901.823975,843.263977
1231.712036,-70.272003,759.328003
2172.575928,421.631989,622.687988
642.208008,154.207993,765.184021
-179.584000,325.984009,888.159973
491.903992,419.679993,685.151978
907.679993,-296.704010,441.152008
882.304016,-679.296021,363.071991
1016.992004,-232.287994,460.671997
915.487976,204.960007,542.656006
1214.144043,275.231995,542.656006
630.495972,-316.223999,433.343994
595.359985,-562.176025,409.920013
1018.943970,-298.656006,454.816010
847.168030,-400.160004,472.384003
648.064026,-587.552002,448.959991
763.231995,-653.919983,423.584015
737.856018,-747.616028,392.351990
593.408020,-663.679993,398.208008
341.600006,206.912003,530.943970
1208.287964,1079.456055,644.159973
404.063995,595.359985,575.840027
167.871994,48.799999,441.152008
429.440002,306.463989,396.256012
605.119995,974.047974,425.536011
1311.744019,1549.887939,448.959991
-286.944000,4023.072021,335.743988
-173.727997,3431.615967,298.656006
249.856003,472.384003,372.832001
630.495972,-560.223999,452.864014
1214.144043,-515.328003,474.335999
837.408020,-575.840027,439.200012
935.007996,-329.888000,423.584015
482.144012,-267.424011,441.152008
964.288025,130.783997,486.048004
771.039978,203.007996,493.855988
605.119995,87.839996,462.623993
609.023987,115.167999,441.152008
573.888000,54.655998,447.007996
821.791992,283.040009,454.816010
566.080017,107.360001,468.480011
575.840027,238.143997,454.816010
593.408020,206.912003,452.864014
601.216003,206.912003,433.343994
497.760010,310.368011,413.824005
491.903992,558.271973,394.303986
452.864014,456.768005,372.832001
610.976013,245.951996,368.928009
573.888000,91.744003,359.167999
318.175995,-50.751999,337.696014
474.335999,56.608002,345.503998
404.063995,83.935997,333.791992
365.023987,222.528000,331.839996
327.936005,244.000000,320.127991
175.679993,191.296005,300.608002
335.743988,101.503998,316.223999
370.880005,-29.280001,312.320007
105.407997,-128.832001,306.463989
363.071991,62.464001,306.463989
374.783997,171.776001,300.608002
218.623993,201.056000,298.656006
277.183990,130.783997,296.704010
204.960007,17.568001,300.608002
286.944000,5.856000,294.752014
341.600006,19.520000,294.752014
325.984009,91.744003,284.992004
296.704010,134.688004,281.088013
142.496002,146.399994,279.135986
222.528000,193.248001,288.895996
300.608002,214.720001,304.511993
277.183990,216.671997,304.511993
341.600006,244.000000,308.415985
347.455994,257.664001,300.608002
265.471985,226.432007,298.656006
255.712006,224.479996,296.704010
257.664001,171.776001,296.704010
312.320007,58.560001,365.023987
337.696014,-203.007996,402.112000
236.192001,-162.016006,368.928009
310.368011,160.063995,333.791992
341.600006,247.904007,333.791992
206.912003,427.488007,337.696014
277.183990,603.168030,316.223999
366.976013,491.903992,318.175995
271.328003,132.735992,322.079987
343.552002,-46.848000,322.079987
357.216003,42.944000,322.079987
320.127991,224.479996,322.079987
296.704010,372.832001,327.936005
271.328003,398.208008,351.359985
271.328003,279.135986,370.880005
284.992004,163.968002,406.015991
294.752014,148.352005,421.631989
288.895996,218.623993,421.631989
284.992004,316.223999,415.776001
304.511993,355.264008,423.584015
304.511993,308.415985,425.536011
341.600006,220.576004,437.247986
454.816010,162.016006,441.152008
413.824005,245.951996,443.104004
240.095993,343.552002,425.536011
284.992004,380.640015,423.584015
292.799988,484.096008,417.727997
269.376007,507.519989,423.584015
298.656006,419.679993,435.295990
318.175995,345.503998,447.007996
322.079987,310.368011,464.575989
324.032013,322.079987,476.287994
322.079987,366.976013,489.951996
320.127991,388.447998,493.855988
337.696014,376.735992,513.375977
351.359985,392.351990,534.848022
341.600006,419.679993,540.703979
347.455994,458.720001,548.512024
345.503998,491.903992,552.416016
343.552002,493.855988,562.176025
351.359985,421.631989,573.888000
310.368011,411.872009,579.744019
271.328003,538.752014,589.504028
267.424011,702.719971,607.072021
251.807999,704.671997,628.544006
257.664001,607.072021,630.495972
228.384003,665.632019,614.880005
234.240005,911.583984,595.359985
284.992004,1067.744019,579.744019
275.231995,1009.184021,568.031982
277.183990,948.671997,571.935974
279.135986,1075.552002,587.552002
294.752014,1157.536011,620.736023
308.415985,1106.784058,673.440002
306.463989,1030.656006,732.000000
306.463989,968.192017,771.039978
331.839996,853.023987,780.799988
349.407990,753.471985,802.271973
347.455994,691.007996,829.599976
331.839996,540.703979,858.880005
331.839996,386.496002,882.304016
327.936005,320.127991,895.968018
324.032013,298.656006,917.440002
292.799988,257.664001,917.440002
279.135986,173.727997,905.728027
273.279999,113.216003,901.823975
267.424011,95.648003,880.351990
263.519989,89.792000,860.831970
245.951996,87.839996,849.119995
247.904007,85.888000,827.648010
234.240005,54.655998,810.080017
240.095993,44.896000,788.607971
242.048004,40.992001,771.039978
245.951996,60.512001,733.952026
238.143997,70.272003,716.383972
232.287994,58.560001,698.815979
224.479996,78.080002,683.200012
201.056000,101.503998,653.919983
189.343994,130.783997,642.208008
175.679993,134.688004,614.880005
169.824005,162.016006,591.455994
154.207993,193.248001,569.984009
142.496002,204.960007,552.416016
130.783997,206.912003,532.895996
140.544006,201.056000,513.375977
138.591995,208.863998,507.519989
144.447998,226.432007,491.903992
136.639999,214.720001,486.048004
136.639999,210.815994,486.048004
134.688004,203.007996,484.096008
136.639999,195.199997,480.191986
136.639999,199.104004,489.951996
144.447998,183.488007,486.048004
142.496002,171.776001,488.000000
142.496002,162.016006,497.760010
140.544006,146.399994,497.760010
154.207993,140.544006,505.567993
154.207993,132.735992,513.375977
152.255997,130.783997,513.375977
150.304001,128.832001,527.039978
165.919998,113.216003,530.943970
160.063995,119.071999,536.799988
160.063995,119.071999,536.799988
165.919998,119.071999,544.607971
165.919998,117.120003,550.463989
171.776001,119.071999,556.320007
185.440002,107.360001,550.463989
181.535995,122.975998,552.416016
185.440002,117.120003,566.080017
204.960007,111.264000,577.791992
206.912003,122.975998,573.888000
199.104004,136.639999,603.168030
204.960007,150.304001,614.880005
220.576004,171.776001,620.736023
218.623993,193.248001,636.351990
222.528000,210.815994,651.968018
236.192001,242.048004,663.679993
240.095993,259.615997,679.296021
247.904007,271.328003,679.296021
255.712006,275.231995,702.719971
261.567993,283.040009,706.624023
273.279999,286.944000,724.192017
279.135986,283.040009,728.096008
286.944000,281.088013,733.952026
284.992004,255.712006,730.047974
288.895996,255.712006,741.760010
302.559998,245.951996,733.952026
296.704010,226.432007,732.000000
300.608002,210.815994,737.856018
302.559998,203.007996,732.000000
318.175995,187.391998,728.096008
320.127991,181.535995,728.096008
325.984009,169.824005,728.096008
331.839996,165.919998,718.335999
331.839996,165.919998,702.719971
337.696014,162.016006,700.768005
335.743988,169.824005,704.671997
335.743988,173.727997,704.671997
339.648010,181.535995,700.768005
349.407990,185.440002,696.864014
345.503998,199.104004,692.960022
351.359985,206.912003,689.056030
353.312012,212.768005,692.960022
359.167999,222.528000,696.864014
368.928009,240.095993,689.056030
372.832001,238.143997,683.200012
376.735992,240.095993,691.007996
378.687988,238.143997,692.960022
380.640015,247.904007,700.768005
382.592010,245.951996,700.768005
394.303986,245.951996,704.671997
394.303986,249.856003,704.671997
398.208008,251.807999,708.575989
413.824005,240.095993,702.719971
411.872009,234.240005,712.479980
425.536011,226.432007,708.575989
427.488007,222.528000,714.432007
437.247986,234.240005,712.479980
433.343994,234.240005,712.479980
441.152008,238.143997,708.575989
452.864014,238.143997,700.768005
454.816010,251.807999,698.815979
462.623993,249.856003,708.575989
472.384003,257.664001,704.671997
476.287994,265.471985,708.575989
488.000000,267.424011,708.575989
489.951996,281.088013,708.575989
497.760010,292.799988,706.624023
513.375977,292.799988,700.768005
513.375977,298.656006,708.575989
511.424011,308.415985,706.624023
523.135986,302.559998,716.383972
528.992004,298.656006,726.143982
534.848022,298.656006,726.143982
538.752014,302.559998,726.143982
546.559998,304.511993,732.000000
550.463989,312.320007,735.903992
556.320007,310.368011,728.096008
554.367981,310.368011,739.807983
554.367981,310.368011,745.664001
554.367981,308.415985,741.760010
558.271973,325.984009,755.424011
568.031982,329.888000,747.616028
569.984009,324.032013,753.471985
571.935974,322.079987,759.328003
564.127991,325.984009,759.328003
558.271973,329.888000,757.375977
573.888000,339.648010,765.184021
566.080017,327.936005,763.231995
564.127991,343.552002,772.992004
569.984009,351.359985,772.992004
569.984009,347.455994,761.280029
579.744019,353.312012,772.992004
571.935974,351.359985,776.895996
581.695984,359.167999,782.752014
589.504028,357.216003,788.607971
585.599976,357.216003,776.895996
589.504028,351.359985,778.848022
601.216003,359.167999,774.943970
605.119995,361.119995,782.752014
610.976013,365.023987,774.943970
609.023987,365.023987,782.752014
609.023987,365.023987,790.559998
618.783997,376.735992,780.799988
616.831970,366.976013,772.992004
620.736023,366.976013,772.992004
620.736023,378.687988,774.943970
632.447998,366.976013,769.088013
628.544006,374.783997,769.088013
630.495972,363.071991,765.184021
630.495972,374.783997,759.328003
628.544006,378.687988,765.184021
624.640015,363.071991,765.184021
628.544006,361.119995,763.231995
636.351990,361.119995,765.184021
638.304016,353.312012,763.231995
638.304016,353.312012,763.231995
636.351990,343.552002,761.280029
632.447998,339.648010,757.375977
650.015991,331.839996,759.328003
632.447998,333.791992,759.328003
642.208008,331.839996,761.280029
634.400024,322.079987,749.567993
636.351990,312.320007,747.616028
646.112000,312.320007,747.616028
642.208008,302.559998,737.856018
638.304016,302.559998,726.143982
644.159973,302.559998,732.000000
642.208008,296.704010,724.192017
646.112000,296.704010,720.288025
650.015991,294.752014,712.479980
632.447998,290.847992,710.528015
636.351990,286.944000,708.575989
650.015991,286.944000,702.719971
634.400024,281.088013,706.624023
640.255981,281.088013,716.383972
648.064026,273.279999,708.575989
657.823975,269.376007,712.479980
663.679993,267.424011,710.528015
663.679993,253.759995,704.671997
669.536011,249.856003,718.335999
663.679993,247.904007,716.383972
667.583984,249.856003,720.288025
671.487976,247.904007,722.239990
665.632019,245.951996,718.335999
671.487976,245.951996,724.192017
675.392029,234.240005,724.192017
681.247986,234.240005,718.335999
673.440002,230.335999,720.288025
677.343994,240.095993,714.432007
681.247986,236.192001,714.432007
683.200012,247.904007,710.528015
683.200012,230.335999,704.671997
683.200012,245.951996,714.432007
696.864014,242.048004,698.815979
689.056030,238.143997,698.815979
687.104004,242.048004,694.911987
687.104004,247.904007,700.768005
696.864014,234.240005,696.864014
692.960022,240.095993,681.247986
687.104004,230.335999,689.056030
694.911987,236.192001,679.296021
687.104004,226.432007,677.343994
691.007996,224.479996,681.247986
700.768005,228.384003,677.343994
702.719971,220.576004,681.247986
700.768005,226.432007,687.104004
702.719971,214.720001,679.296021
704.671997,226.432007,683.200012
696.864014,218.623993,692.960022
716.383972,216.671997,691.007996
724.192017,214.720001,698.815979
706.624023,212.768005,712.479980
710.528015,214.720001,714.432007
726.143982,208.863998,714.432007
735.903992,214.720001,724.192017
737.856018,214.720001,726.143982
726.143982,216.671997,726.143982
739.807983,228.384003,733.952026
733.952026,224.479996,737.856018
747.616028,228.384003,747.616028
741.760010,220.576004,733.952026
737.856018,234.240005,743.711975
745.664001,236.192001,730.047974
743.711975,226.432007,737.856018
749.567993,228.384003,737.856018
745.664001,232.287994,730.047974
757.375977,228.384003,728.096008
741.760010,242.048004,722.239990
745.664001,232.287994,726.143982
747.616028,228.384003,718.335999
745.664001,228.384003,714.432007
741.760010,228.384003,718.335999
755.424011,228.384003,716.383972
739.807983,228.384003,712.479980
739.807983,210.815994,720.288025
749.567993,208.863998,706.624023
741.760010,212.768005,702.719971
749.567993,224.479996,720.288025
741.760010,214.720001,722.239990
751.520020,204.960007,724.192017
741.760010,224.479996,726.143982
747.616028,226.432007,722.239990
737.856018,224.479996,722.239990
737.856018,218.623993,733.952026
743.711975,226.432007,732.000000
741.760010,232.287994,733.952026
741.760010,226.432007,726.143982
739.807983,236.192001,724.192017
739.807983,238.143997,726.143982
735.903992,228.384003,716.383972
735.903992,220.576004,724.192017
730.047974,232.287994,720.288025
735.903992,238.143997,710.528015
730.047974,232.287994,710.528015
739.807983,220.576004,710.528015
732.000000,214.720001,718.335999
722.239990,218.623993,712.479980
730.047974,214.720001,712.479980
728.096008,218.623993,712.479980
728.096008,216.671997,706.624023
720.288025,204.960007,706.624023
718.335999,206.912003,698.815979
722.239990,208.863998,694.911987
728.096008,199.104004,696.864014
722.239990,199.104004,692.960022
722.239990,210.815994,683.200012
726.143982,206.912003,685.151978
716.383972,208.863998,694.911987
724.192017,199.104004,683.200012
720.288025,201.056000,685.151978
724.192017,206.912003,683.200012
722.239990,212.768005,685.151978
716.383972,204.960007,683.200012
720.288025,210.815994,691.007996
702.719971,210.815994,689.056030
698.815979,206.912003,687.104004
692.960022,210.815994,692.960022
692.960022,206.912003,689.056030
685.151978,199.104004,681.247986
683.200012,191.296005,675.392029
689.056030,212.768005,663.679993
679.296021,210.815994,671.487976
681.247986,212.768005,669.536011
663.679993,204.960007,648.064026
665.632019,201.056000,657.823975
665.632019,183.488007,642.208008
648.064026,199.104004,636.351990
665.632019,187.391998,622.687988
651.968018,177.632004,628.544006
648.064026,181.535995,620.736023
653.919983,179.584000,610.976013
642.208008,183.488007,612.927979
638.304016,167.871994,607.072021
630.495972,160.063995,607.072021
618.783997,167.871994,593.408020
610.976013,163.968002,589.504028
597.312012,162.016006,587.552002
607.072021,146.399994,569.984009
591.455994,144.447998,566.080017
597.312012,140.544006,571.935974
589.504028,142.496002,562.176025
583.648010,128.832001,546.559998
569.984009,138.591995,552.416016
569.984009,128.832001,540.703979
550.463989,136.639999,528.992004
552.416016,128.832001,523.135986
540.703979,124.928001,497.760010
540.703979,138.591995,484.096008
536.799988,128.832001,484.096008
528.992004,126.879997,472.384003
530.943970,122.975998,470.432007
525.088013,122.975998,458.720001
525.088013,130.783997,452.864014
530.943970,132.735992,445.056000
530.943970,124.928001,447.007996
527.039978,138.591995,456.768005
527.039978,142.496002,448.959991
527.039978,130.783997,456.768005
532.895996,132.735992,456.768005
534.848022,134.688004,458.720001
542.656006,124.928001,460.671997
532.895996,117.120003,460.671997
546.559998,105.407997,470.432007
538.752014,105.407997,482.144012
550.463989,97.599998,476.287994
552.416016,101.503998,484.096008
556.320007,85.888000,486.048004
558.271973,78.080002,488.000000
577.791992,76.127998,480.191986
581.695984,74.176003,472.384003
618.783997,54.655998,448.959991
593.408020,70.272003,421.631989
562.176025,167.871994,384.544006
513.375977,242.048004,357.216003
513.375977,259.615997,325.984009
517.280029,247.904007,316.223999
501.664001,255.712006,304.511993
495.808014,279.135986,302.559998
507.519989,267.424011,312.320007
534.848022,224.479996,343.552002
569.984009,115.167999,378.687988
587.552002,23.424000,390.399994
597.312012,0.000000,407.967987
605.119995,42.944000,413.824005
607.072021,54.655998,396.256012
597.312012,27.327999,382.592010
612.927979,29.280001,361.119995
603.168030,80.031998,351.359985
605.119995,99.552002,339.648010
616.831970,74.176003,335.743988
616.831970,40.992001,329.888000
628.544006,46.848000,325.984009
630.495972,60.512001,325.984009
644.159973,48.799999,322.079987
650.015991,35.136002,312.320007
642.208008,50.751999,296.704010
642.208008,78.080002,275.231995
636.351990,107.360001,257.664001
646.112000,121.024002,247.904007
663.679993,126.879997,232.287994
685.151978,119.071999,230.335999
692.960022,105.407997,218.623993
710.528015,113.216003,204.960007
724.192017,132.735992,197.151993
747.616028,144.447998,195.199997
817.888000,169.824005,191.296005
874.495972,154.207993,195.199997
864.736023,109.311996,183.488007
927.200012,132.735992,179.584000
886.208008,150.304001,179.584000
899.872009,167.871994,212.768005
892.064026,171.776001,232.287994
843.263977,165.919998,261.567993
833.504028,181.535995,294.752014
821.791992,199.104004,329.888000
813.984009,193.248001,355.264008
802.271973,142.496002,378.687988
815.935974,136.639999,407.967987
823.744019,146.399994,423.584015
819.840027,130.783997,441.152008
841.312012,107.360001,478.239990
858.880005,50.751999,493.855988
864.736023,29.280001,503.615997
819.840027,29.280001,513.375977
958.432007,48.799999,525.088013
911.583984,60.512001,540.703979
909.632019,60.512001,548.512024
933.056030,60.512001,564.127991
948.671997,35.136002,585.599976
974.047974,7.808000,589.504028
964.288025,-7.808000,603.168030
958.432007,40.992001,599.263977
968.192017,115.167999,612.927979
962.335999,128.832001,630.495972
979.903992,113.216003,644.159973
997.471985,103.456001,650.015991
983.807983,89.792000,651.968018
1028.703979,83.935997,642.208008
1044.319946,70.272003,638.304016
1042.368042,46.848000,636.351990
1061.887939,50.751999,638.304016
1069.696045,35.136002,632.447998
1069.696045,40.992001,630.495972
1134.112061,56.608002,624.640015
1180.959961,-7.808000,620.736023
1024.800049,15.616000,597.312012
860.831970,441.152008,597.312012
970.143982,562.176025,597.312012
960.383972,304.511993,581.695984
1065.791992,54.655998,575.840027
1163.391968,81.984001,577.791992
1206.336060,89.792000,595.359985
1171.199951,111.264000,605.119995
1175.104004,111.264000,622.687988
1167.296021,78.080002,650.015991
1202.432007,60.512001,657.823975
1221.952026,40.992001,665.632019
1206.336060,21.472000,679.296021
1253.183960,44.896000,681.247986
1143.871948,23.424000,691.007996
1132.160034,89.792000,694.911987
1112.640015,103.456001,708.575989
1091.167969,85.888000,728.096008
1143.871948,27.327999,741.760010
1173.151978,-78.080002,759.328003
1179.008057,-203.007996,780.799988
1190.719971,-199.104004,823.744019
1227.807983,312.320007,854.976013
1292.223999,556.320007,884.255981
1186.816040,85.888000,897.919983
1243.423950,-322.079987,938.911987
1274.656006,-320.127991,950.624023
1198.527954,-203.007996,974.047974
1184.864014,21.472000,987.711975
1182.911987,107.360001,1016.992004
1163.391968,-42.944000,1032.608032
1171.199951,-251.807999,1038.463989
1175.104004,-288.895996,1036.511963
1163.391968,-171.776001,1034.560059
1157.536011,-15.616000,1032.608032
1132.160034,11.712000,1038.463989
1134.112061,-126.879997,1028.703979
1153.631958,-244.000000,983.807983
1126.303955,-224.479996,950.624023
1151.680054,-81.984001,936.960022
1118.495972,-11.712000,917.440002
1110.687988,-70.272003,894.015991
1112.640015,-171.776001,880.351990
1104.832031,-175.679993,860.831970
1100.927979,-113.216003,835.455994
1073.599976,-37.088001,817.888000
1056.031982,-33.183998,796.416016
1073.599976,-91.744003,769.088013
1059.936035,-126.879997,732.000000
1052.128052,-113.216003,737.856018
1057.984009,-60.512001,728.096008
1040.416016,-42.944000,722.239990
1030.656006,-76.127998,708.575989
1052.128052,-111.264000,700.768005
1059.936035,-119.071999,687.104004
1071.647949,-136.639999,685.151978
1056.031982,-142.496002,665.632019
1003.328003,-148.352005,653.919983
960.383972,-95.648003,616.831970
917.440002,-21.472000,597.312012
915.487976,15.616000,562.176025
931.104004,9.760000,536.799988
915.487976,-11.712000,521.184021
1069.696045,-19.520000,530.943970
1108.735962,-52.703999,538.752014
1083.359985,-107.360001,530.943970
1132.160034,-121.024002,536.799988
1110.687988,-99.552002,538.752014
1095.072021,-54.655998,542.656006
1036.511963,-52.703999,540.703979
970.143982,-132.735992,552.416016
983.807983,-199.104004,577.791992
979.903992,-169.824005,632.447998
983.807983,-13.664000,708.575989
1046.271973,7.808000,765.184021
1016.992004,-158.112000,790.559998
1056.031982,-160.063995,767.135986
1054.079956,-46.848000,732.000000
1030.656006,-78.080002,687.104004
1056.031982,-179.584000,661.728027
1059.936035,-185.440002,659.776001
1067.744019,-134.688004,685.151978
1057.984009,-122.975998,691.007996
1044.319946,-115.167999,700.768005
1075.552002,-124.928001,702.719971
1081.407959,-187.391998,679.296021
1063.839966,-206.912003,665.632019
1056.031982,-154.207993,655.872009
1024.800049,-64.416000,636.351990
997.471985,-29.280001,628.544006
972.096008,-19.520000,618.783997
964.288025,-19.520000,601.216003
976.000000,-29.280001,579.744019
962.335999,1.952000,564.127991
974.047974,15.616000,538.752014
956.479980,23.424000,501.664001
948.671997,39.040001,486.048004
946.719971,72.223999,472.384003
935.007996,62.464001,443.104004
933.056030,68.320000,409.920013
940.864014,87.839996,392.351990
925.247986,101.503998,366.976013
915.487976,103.456001,345.503998
907.679993,107.360001,320.127991
894.015991,117.120003,298.656006
901.823975,117.120003,273.279999
890.112000,128.832001,251.807999
895.968018,140.544006,226.432007
876.447998,136.639999,197.151993
876.447998,154.207993,181.535995
870.591980,165.919998,171.776001
862.783997,171.776001,144.447998
854.976013,169.824005,126.879997
849.119995,162.016006,109.311996
853.023987,169.824005,83.935997
843.263977,169.824005,58.560001
833.504028,183.488007,40.992001
813.984009,189.343994,21.472000
812.031982,201.056000,-5.856000
802.271973,208.863998,-17.568001
821.791992,187.391998,-37.088001
823.744019,142.496002,-54.655998
757.375977,124.928001,-78.080002
513.375977,304.511993,-99.552002
447.007996,618.783997,-160.063995
856.927979,538.752014,-206.912003
1050.176025,115.167999,-249.856003
882.304016,-169.824005,-292.799988
810.080017,35.136002,-290.847992
841.312012,85.888000,-316.223999
765.184021,87.839996,-339.648010
566.080017,230.335999,-365.023987
474.335999,347.455994,-372.832001
687.104004,238.143997,-378.687988
1026.751953,-121.024002,-394.303986
1028.703979,-593.408020,-390.399994
767.135986,-91.744003,-398.208008
628.544006,341.600006,-386.496002
628.544006,691.007996,-380.640015
532.895996,895.968018,-376.735992
694.911987,610.976013,-374.783997
-156.160004,181.535995,-355.264008
950.624023,66.367996,-351.359985
800.320007,-195.199997,-324.032013
1022.848022,-238.143997,-331.839996
812.031982,-191.296005,-306.463989
782.752014,-230.335999,-298.656006
603.168030,-66.367996,-310.368011
614.880005,185.440002,-324.032013
614.880005,142.496002,-304.511993
669.536011,-50.751999,-331.839996
683.200012,11.712000,-331.839996
905.728027,-167.871994,-327.936005
507.519989,-144.447998,-322.079987
556.320007,-150.304001,-265.471985
634.400024,-277.183990,-247.904007
212.768005,244.000000,68.320000
-146.399994,1713.855957,804.223999
759.328003,1321.504028,720.288025
569.984009,-148.352005,372.832001
903.776001,-849.119995,187.391998
870.591980,-1372.255981,359.167999
923.296021,-1663.104004,435.295990
894.015991,-1479.615967,390.399994
1233.663940,-423.584015,142.496002
1120.447998,68.320000,-50.751999
1169.248047,-595.359985,-54.655998
1151.680054,-618.783997,-19.520000
784.703979,-575.840027,23.424000
827.648010,-503.615997,13.664000
1383.968018,-214.720001,-169.824005
1264.895996,-144.447998,-189.343994
698.815979,-288.895996,-126.879997
653.919983,-345.503998,-163.968002
1430.816040,-329.888000,-363.071991
1020.895996,-378.687988,-288.895996
1013.088013,-495.808014,-339.648010
1046.271973,-1182.911987,-365.023987
767.135986,-1557.696045,-292.799988
810.080017,-400.160004,-337.696014
1052.128052,1179.008057,-433.343994
981.856018,1774.368042,-441.152008
858.880005,1426.911987,-404.063995
1016.992004,730.047974,-413.824005
1032.608032,-392.351990,-406.015991
1114.592041,-1667.008057,-394.303986
913.536011,-2035.936035,-322.079987
1069.696045,-1309.791992,-363.071991
1054.079956,-245.951996,-421.631989
1112.640015,489.951996,-497.760010
1198.527954,796.416016,-534.848022
1196.576050,1311.744019,-439.200012
1007.231995,1430.816040,-265.471985
1036.511963,911.583984,-124.928001
1024.800049,122.975998,-19.520000
1233.663940,-935.007996,-1.952000
1303.936035,-2252.607910,160.063995
1173.151978,-2053.503906,325.984009
1145.823975,-275.231995,343.552002
1173.151978,1364.447998,347.455994
1319.552002,1942.239990,331.839996
1370.303955,1909.056030,294.752014
1268.800049,1495.232056,294.752014
1190.719971,339.648010,324.032013
1282.463989,-1071.647949,318.175995
1329.312012,-1657.248047,322.079987
1383.968018,-1020.895996,329.888000
1389.823975,318.175995,320.127991
1360.543945,1350.784058,343.552002
1366.400024,1503.040039,372.832001
1464.000000,1313.696045,380.640015
1383.968018,1165.343994,431.391998
1376.160034,767.135986,458.720001
1391.776001,244.000000,495.808014
1428.864014,46.848000,503.615997
1409.343994,429.440002,511.424011
1506.943970,1097.024048,515.328003
1674.816040,1360.543945,519.231995
1504.991943,1009.184021,675.392029
1438.624023,509.471985,780.799988
1423.008057,288.895996,823.744019
1389.823975,357.216003,800.320007
1493.280029,480.191986,700.768005
1444.479980,503.615997,638.304016
1389.823975,517.280029,546.559998
1405.439941,464.575989,466.528015
1387.871948,605.119995,384.544006
1485.472046,1171.199951,308.415985
1444.479980,2112.063965,349.407990
1444.479980,3013.887939,419.679993
1460.095947,3375.008057,462.623993
1424.959961,3189.568115,413.824005
1290.271973,2705.471924,353.312012
1567.456055,1538.176025,76.127998
1532.319946,353.312012,-140.544006
966.239990,-646.112000,138.591995
907.679993,-2820.639893,288.895996
1563.552002,-3818.112061,146.399994
1659.199951,-4395.903809,181.535995
1397.631958,-3579.968018,306.463989
1169.248047,-312.320007,437.247986
1042.368042,2242.847900,523.135986
1323.456055,2728.895996,429.440002
1380.063965,2412.672119,390.399994
1462.047974,2033.984009,374.783997
1120.447998,810.080017,454.816010
1253.183960,-1382.015991,337.696014
1385.920044,-2877.248047,249.856003
1553.791992,-3234.464111,163.968002
1475.712036,-2719.135986,179.584000
1323.456055,-1163.391968,222.528000
1218.047974,534.848022,275.231995
1145.823975,1586.975952,382.592010
1434.719971,1975.423950,458.720001
1262.943970,1901.248047,544.607971
1134.112061,948.671997,591.455994
1157.536011,-1046.271973,554.367981
1321.504028,-2625.439941,445.056000
1346.880005,-2972.895996,421.631989
