ACC_X,ACC_Y,ACC_Z
472.384003,468.480011,749.567993
482.144012,468.480011,755.424011
474.335999,482.144012,755.424011
472.384003,478.239990,757.375977
478.239990,478.239990,753.471985
478.239990,478.239990,759.328003
476.287994,478.239990,753.471985
476.287994,486.048004,745.664001
482.144012,468.480011,755.424011
482.144012,472.384003,757.375977
482.144012,472.384003,749.567993
478.239990,472.384003,753.471985
476.287994,476.287994,763.231995
482.144012,478.239990,759.328003
480.191986,484.096008,759.328003
482.144012,489.951996,767.135986
482.144012,482.144012,759.328003
489.951996,482.144012,757.375977
486.048004,470.432007,767.135986
486.048004,478.239990,757.375977
489.951996,472.384003,763.231995
484.096008,480.191986,759.328003
482.144012,474.335999,753.471985
484.096008,484.096008,763.231995
482.144012,470.432007,757.375977
482.144012,478.239990,759.328003
478.239990,472.384003,753.471985
480.191986,470.432007,755.424011
478.239990,470.432007,749.567993
476.287994,476.287994,745.664001
482.144012,474.335999,755.424011
480.191986,478.239990,753.471985
480.191986,474.335999,753.471985
480.191986,478.239990,759.328003
480.191986,470.432007,757.375977
488.000000,470.432007,761.280029
486.048004,472.384003,761.280029
480.191986,470.432007,757.375977
486.048004,466.528015,755.424011
489.951996,480.191986,757.375977
486.048004,478.239990,757.375977
486.048004,474.335999,751.520020
476.287994,470.432007,755.424011
488.000000,468.480011,759.328003
486.048004,470.432007,757.375977
486.048004,468.480011,759.328003
486.048004,468.480011,759.328003
476.287994,470.432007,753.471985
480.191986,470.432007,755.424011
484.096008,470.432007,745.664001
484.096008,460.671997,751.520020
482.144012,470.432007,757.375977
480.191986,470.432007,757.375977
488.000000,464.575989,751.520020
484.096008,474.335999,757.375977
488.000000,468.480011,753.471985
482.144012,460.671997,757.375977
482.144012,470.432007,757.375977
491.903992,464.575989,759.328003
489.951996,462.623993,753.471985
480.191986,470.432007,757.375977
493.855988,468.480011,759.328003
488.000000,462.623993,759.328003
488.000000,468.480011,757.375977
480.191986,470.432007,749.567993
486.048004,460.671997,757.375977
486.048004,464.575989,757.375977
488.000000,468.480011,759.328003
480.191986,470.432007,755.424011
486.048004,470.432007,763.231995
484.096008,460.671997,753.471985
478.239990,464.575989,757.375977
476.287994,466.528015,763.231995
488.000000,468.480011,753.471985
488.000000,464.575989,745.664001
484.096008,466.528015,745.664001
482.144012,456.768005,747.616028
478.239990,456.768005,753.471985
478.239990,462.623993,749.567993
486.048004,448.959991,753.471985
482.144012,458.720001,759.328003
476.287994,460.671997,767.135986
484.096008,458.720001,761.280029
484.096008,452.864014,753.471985
480.191986,460.671997,757.375977
476.287994,456.768005,753.471985
478.239990,462.623993,755.424011
478.239990,452.864014,753.471985
486.048004,464.575989,763.231995
480.191986,466.528015,761.280029
486.048004,458.720001,757.375977
489.951996,456.768005,757.375977
486.048004,448.959991,749.567993
476.287994,454.816010,761.280029
488.000000,462.623993,753.471985
480.191986,458.720001,757.375977
478.239990,460.671997,761.280029
480.191986,466.528015,757.375977
480.191986,458.720001,757.375977
478.239990,460.671997,763.231995
478.239990,460.671997,759.328003
476.287994,462.623993,761.280029
482.144012,456.768005,753.471985
478.239990,470.432007,759.328003
474.335999,456.768005,753.471985
480.191986,464.575989,757.375977
468.480011,468.480011,753.471985
472.384003,460.671997,759.328003
470.432007,468.480011,755.424011
474.335999,468.480011,759.328003
478.239990,462.623993,755.424011
470.432007,470.432007,749.567993
460.671997,460.671997,749.567993
470.432007,460.671997,745.664001
472.384003,474.335999,747.616028
470.432007,458.720001,749.567993
466.528015,460.671997,745.664001
460.671997,470.432007,749.567993
466.528015,466.528015,759.328003
470.432007,464.575989,755.424011
464.575989,460.671997,741.760010
462.623993,470.432007,749.567993
462.623993,466.528015,753.471985
464.575989,460.671997,747.616028
466.528015,464.575989,741.760010
456.768005,460.671997,751.520020
450.911987,464.575989,747.616028
462.623993,466.528015,751.520020
458.720001,468.480011,743.711975
460.671997,460.671997,745.664001
452.864014,466.528015,749.567993
458.720001,464.575989,745.664001
458.720001,464.575989,743.711975
460.671997,468.480011,749.567993
458.720001,458.720001,741.760010
450.911987,462.623993,745.664001
456.768005,458.720001,749.567993
452.864014,464.575989,743.711975
458.720001,462.623993,747.616028
462.623993,464.575989,755.424011
452.864014,462.623993,755.424011
452.864014,464.575989,745.664001
447.007996,466.528015,747.616028
452.864014,460.671997,741.760010
452.864014,462.623993,743.711975
452.864014,462.623993,747.616028
460.671997,472.384003,749.567993
460.671997,460.671997,751.520020
448.959991,462.623993,747.616028
450.911987,466.528015,747.616028
460.671997,466.528015,749.567993
458.720001,466.528015,741.760010
454.816010,452.864014,745.664001
454.816010,466.528015,743.711975
452.864014,464.575989,755.424011
452.864014,460.671997,749.567993
458.720001,460.671997,753.471985
464.575989,460.671997,741.760010
450.911987,456.768005,741.760010
445.056000,454.816010,741.760010
458.720001,460.671997,739.807983
460.671997,448.959991,737.856018
456.768005,458.720001,747.616028
462.623993,458.720001,741.760010
454.816010,447.007996,747.616028
458.720001,460.671997,751.520020
454.816010,454.816010,745.664001
462.623993,452.864014,743.711975
460.671997,454.816010,755.424011
462.623993,458.720001,749.567993
458.720001,456.768005,757.375977
460.671997,450.911987,743.711975
460.671997,458.720001,753.471985
462.623993,458.720001,749.567993
458.720001,456.768005,743.711975
450.911987,450.911987,759.328003
460.671997,454.816010,755.424011
456.768005,452.864014,749.567993
470.432007,458.720001,745.664001
472.384003,462.623993,743.711975
474.335999,458.720001,755.424011
456.768005,456.768005,753.471985
462.623993,458.720001,755.424011
462.623993,452.864014,743.711975
466.528015,448.959991,749.567993
462.623993,454.816010,743.711975
468.480011,452.864014,755.424011
462.623993,450.911987,749.567993
468.480011,456.768005,763.231995
466.528015,462.623993,745.664001
464.575989,458.720001,745.664001
466.528015,450.911987,749.567993
462.623993,454.816010,757.375977
464.575989,445.056000,759.328003
464.575989,456.768005,755.424011
472.384003,458.720001,753.471985
470.432007,456.768005,761.280029
468.480011,456.768005,759.328003
468.480011,448.959991,755.424011
476.287994,458.720001,761.280029
472.384003,448.959991,765.184021
476.287994,460.671997,755.424011
482.144012,458.720001,759.328003
474.335999,466.528015,753.471985
474.335999,458.720001,763.231995
474.335999,454.816010,753.471985
480.191986,458.720001,755.424011
478.239990,452.864014,763.231995
470.432007,458.720001,751.520020
476.287994,454.816010,751.520020
476.287994,454.816010,749.567993
478.239990,454.816010,745.664001
482.144012,462.623993,743.711975
478.239990,458.720001,759.328003
476.287994,450.911987,745.664001
480.191986,460.671997,755.424011
478.239990,468.480011,749.567993
470.432007,464.575989,751.520020
478.239990,468.480011,747.616028
480.191986,474.335999,747.616028
476.287994,458.720001,755.424011
484.096008,462.623993,745.664001
472.384003,452.864014,749.567993
484.096008,466.528015,755.424011
480.191986,466.528015,749.567993
478.239990,462.623993,751.520020
476.287994,462.623993,753.471985
472.384003,458.720001,757.375977
482.144012,454.816010,747.616028
472.384003,458.720001,759.328003
476.287994,470.432007,757.375977
480.191986,458.720001,749.567993
480.191986,456.768005,745.664001
480.191986,456.768005,751.520020
484.096008,464.575989,745.664001
489.951996,458.720001,759.328003
482.144012,468.480011,745.664001
472.384003,468.480011,749.567993
476.287994,470.432007,757.375977
476.287994,456.768005,749.567993
474.335999,470.432007,755.424011
476.287994,470.432007,757.375977
482.144012,464.575989,757.375977
480.191986,452.864014,759.328003
486.048004,454.816010,753.471985
480.191986,462.623993,753.471985
482.144012,464.575989,767.135986
480.191986,466.528015,757.375977
488.000000,470.432007,749.567993
486.048004,458.720001,755.424011
484.096008,468.480011,755.424011
482.144012,466.528015,749.567993
476.287994,460.671997,757.375977
472.384003,462.623993,755.424011
480.191986,468.480011,753.471985
484.096008,456.768005,755.424011
476.287994,460.671997,761.280029
480.191986,458.720001,755.424011
480.191986,466.528015,749.567993
480.191986,462.623993,749.567993
480.191986,470.432007,755.424011
484.096008,464.575989,747.616028
486.048004,458.720001,757.375977
484.096008,456.768005,749.567993
478.239990,464.575989,755.424011
484.096008,466.528015,753.471985
480.191986,464.575989,757.375977
482.144012,466.528015,749.567993
486.048004,464.575989,757.375977
486.048004,460.671997,759.328003
480.191986,460.671997,757.375977
491.903992,456.768005,759.328003
491.903992,464.575989,741.760010
484.096008,464.575989,755.424011
484.096008,464.575989,751.520020
486.048004,470.432007,757.375977
489.951996,468.480011,749.567993
493.855988,462.623993,741.760010
484.096008,460.671997,751.520020
476.287994,460.671997,755.424011
484.096008,464.575989,751.520020
486.048004,458.720001,755.424011
482.144012,462.623993,755.424011
484.096008,468.480011,747.616028
484.096008,474.335999,743.711975
486.048004,464.575989,763.231995
488.000000,466.528015,753.471985
488.000000,458.720001,743.711975
486.048004,454.816010,751.520020
482.144012,454.816010,751.520020
484.096008,458.720001,759.328003
482.144012,458.720001,751.520020
486.048004,460.671997,757.375977
482.144012,466.528015,757.375977
491.903992,456.768005,755.424011
489.951996,466.528015,759.328003
493.855988,462.623993,761.280029
495.808014,454.816010,763.231995
486.048004,452.864014,755.424011
495.808014,454.816010,763.231995
497.760010,452.864014,761.280029
493.855988,456.768005,757.375977
495.808014,462.623993,763.231995
497.760010,452.864014,743.711975
493.855988,452.864014,745.664001
497.760010,452.864014,755.424011
495.808014,454.816010,749.567993
493.855988,452.864014,743.711975
488.000000,454.816010,745.664001
493.855988,448.959991,741.760010
493.855988,450.911987,743.711975
489.951996,462.623993,749.567993
501.664001,447.007996,755.424011
491.903992,452.864014,753.471985
497.760010,454.816010,759.328003
491.903992,448.959991,757.375977
495.808014,448.959991,757.375977
497.760010,448.959991,761.280029
493.855988,460.671997,763.231995
499.712006,456.768005,761.280029
503.615997,458.720001,765.184021
501.664001,458.720001,776.895996
499.712006,466.528015,771.039978
497.760010,464.575989,772.992004
505.567993,466.528015,767.135986
495.808014,454.816010,767.135986
499.712006,464.575989,761.280029
505.567993,470.432007,769.088013
497.760010,468.480011,765.184021
493.855988,462.623993,759.328003
491.903992,474.335999,761.280029
488.000000,466.528015,757.375977
495.808014,462.623993,753.471985
495.808014,460.671997,759.328003
501.664001,456.768005,757.375977
495.808014,452.864014,749.567993
497.760010,466.528015,751.520020
495.808014,454.816010,759.328003
489.951996,458.720001,747.616028
493.855988,464.575989,753.471985
486.048004,462.623993,751.520020
493.855988,466.528015,759.328003
503.615997,462.623993,765.184021
499.712006,464.575989,763.231995
493.855988,468.480011,757.375977
488.000000,468.480011,761.280029
505.567993,474.335999,763.231995
497.760010,464.575989,765.184021
501.664001,468.480011,767.135986
495.808014,472.384003,759.328003
489.951996,474.335999,767.135986
489.951996,466.528015,761.280029
488.000000,468.480011,765.184021
491.903992,468.480011,759.328003
488.000000,460.671997,749.567993
491.903992,470.432007,759.328003
489.951996,470.432007,745.664001
482.144012,462.623993,745.664001
478.239990,454.816010,755.424011
482.144012,464.575989,749.567993
482.144012,464.575989,749.567993
478.239990,474.335999,749.567993
480.191986,474.335999,745.664001
482.144012,462.623993,749.567993
482.144012,468.480011,749.567993
482.144012,468.480011,747.616028
482.144012,468.480011,749.567993
488.000000,472.384003,759.328003
482.144012,464.575989,747.616028
480.191986,474.335999,751.520020
476.287994,470.432007,755.424011
482.144012,472.384003,757.375977
478.239990,472.384003,757.375977
478.239990,482.144012,759.328003
480.191986,474.335999,767.135986
480.191986,464.575989,755.424011
482.144012,470.432007,755.424011
474.335999,470.432007,755.424011
472.384003,480.191986,761.280029
476.287994,470.432007,749.567993
478.239990,464.575989,743.711975
468.480011,472.384003,747.616028
472.384003,466.528015,747.616028
472.384003,462.623993,743.711975
464.575989,468.480011,751.520020
470.432007,464.575989,745.664001
476.287994,462.623993,749.567993
476.287994,466.528015,749.567993
472.384003,468.480011,747.616028
472.384003,470.432007,741.760010
472.384003,466.528015,755.424011
462.623993,468.480011,753.471985
470.432007,464.575989,753.471985
470.432007,474.335999,755.424011
478.239990,472.384003,753.471985
464.575989,470.432007,745.664001
464.575989,470.432007,751.520020
474.335999,466.528015,753.471985
464.575989,468.480011,759.328003
464.575989,474.335999,753.471985
462.623993,468.480011,759.328003
470.432007,464.575989,751.520020
470.432007,470.432007,753.471985
468.480011,462.623993,753.471985
460.671997,460.671997,751.520020
466.528015,468.480011,753.471985
472.384003,456.768005,757.375977
474.335999,466.528015,755.424011
472.384003,466.528015,753.471985
464.575989,470.432007,745.664001
464.575989,464.575989,751.520020
474.335999,464.575989,757.375977
470.432007,458.720001,749.567993
476.287994,454.816010,753.471985
468.480011,458.720001,749.567993
468.480011,458.720001,747.616028
458.720001,460.671997,759.328003
464.575989,466.528015,757.375977
468.480011,464.575989,755.424011
470.432007,466.528015,753.471985
472.384003,474.335999,753.471985
468.480011,466.528015,753.471985
476.287994,462.623993,755.424011
470.432007,458.720001,763.231995
468.480011,456.768005,753.471985
464.575989,466.528015,751.520020
472.384003,458.720001,759.328003
462.623993,452.864014,755.424011
464.575989,447.007996,751.520020
466.528015,447.007996,755.424011
468.480011,454.816010,755.424011
468.480011,452.864014,755.424011
468.480011,447.007996,749.567993
462.623993,452.864014,747.616028
470.432007,466.528015,741.760010
474.335999,456.768005,743.711975
466.528015,450.911987,749.567993
466.528015,458.720001,749.567993
472.384003,460.671997,753.471985
472.384003,458.720001,759.328003
472.384003,450.911987,757.375977
480.191986,458.720001,757.375977
474.335999,450.911987,745.664001
468.480011,462.623993,763.231995
486.048004,458.720001,749.567993
476.287994,458.720001,749.567993
476.287994,460.671997,761.280029
468.480011,462.623993,749.567993
476.287994,456.768005,753.471985
482.144012,456.768005,747.616028
482.144012,452.864014,759.328003
474.335999,454.816010,753.471985
470.432007,454.816010,761.280029
472.384003,450.911987,759.328003
476.287994,454.816010,751.520020
468.480011,452.864014,745.664001
474.335999,458.720001,755.424011
466.528015,452.864014,751.520020
472.384003,454.816010,749.567993
478.239990,452.864014,753.471985
474.335999,454.816010,745.664001
476.287994,458.720001,749.567993
466.528015,450.911987,745.664001
468.480011,452.864014,755.424011
482.144012,452.864014,753.471985
476.287994,456.768005,755.424011
480.191986,454.816010,753.471985
478.239990,462.623993,749.567993
478.239990,468.480011,755.424011
476.287994,460.671997,757.375977
472.384003,456.768005,757.375977
482.144012,456.768005,745.664001
472.384003,454.816010,751.520020
478.239990,454.816010,739.807983
476.287994,454.816010,741.760010
468.480011,458.720001,743.711975
482.144012,456.768005,749.567993
476.287994,454.816010,751.520020
476.287994,456.768005,751.520020
478.239990,462.623993,747.616028
476.287994,456.768005,747.616028
480.191986,458.720001,737.856018
476.287994,464.575989,749.567993
478.239990,456.768005,743.711975
480.191986,445.056000,741.760010
480.191986,458.720001,753.471985
476.287994,464.575989,743.711975
470.432007,466.528015,741.760010
480.191986,466.528015,737.856018
480.191986,464.575989,755.424011
478.239990,462.623993,747.616028
478.239990,466.528015,747.616028
472.384003,464.575989,747.616028
470.432007,464.575989,747.616028
478.239990,464.575989,747.616028
470.432007,458.720001,733.952026
478.239990,456.768005,743.711975
472.384003,466.528015,743.711975
466.528015,458.720001,743.711975
468.480011,458.720001,743.711975
472.384003,468.480011,743.711975
464.575989,460.671997,749.567993
462.623993,458.720001,747.616028
472.384003,462.623993,749.567993
470.432007,460.671997,733.952026
470.432007,456.768005,726.143982
476.287994,456.768005,730.047974
478.239990,464.575989,743.711975
478.239990,456.768005,737.856018
482.144012,452.864014,741.760010
480.191986,456.768005,743.711975
482.144012,462.623993,749.567993
480.191986,456.768005,745.664001
484.096008,462.623993,739.807983
486.048004,460.671997,745.664001
474.335999,462.623993,745.664001
476.287994,462.623993,751.520020
484.096008,464.575989,747.616028
484.096008,460.671997,753.471985
480.191986,466.528015,745.664001
482.144012,468.480011,751.520020
482.144012,464.575989,749.567993
484.096008,458.720001,735.903992
484.096008,462.623993,747.616028
484.096008,466.528015,747.616028
482.144012,458.720001,753.471985
478.239990,462.623993,749.567993
480.191986,454.816010,751.520020
476.287994,460.671997,757.375977
480.191986,460.671997,751.520020
491.903992,460.671997,747.616028
489.951996,460.671997,751.520020
478.239990,460.671997,749.567993
474.335999,460.671997,749.567993
482.144012,462.623993,743.711975
480.191986,474.335999,749.567993
484.096008,468.480011,745.664001
478.239990,452.864014,759.328003
488.000000,462.623993,759.328003
480.191986,464.575989,753.471985
480.191986,468.480011,755.424011
480.191986,474.335999,751.520020
482.144012,466.528015,747.616028
476.287994,472.384003,749.567993
482.144012,468.480011,745.664001
484.096008,474.335999,755.424011
480.191986,472.384003,755.424011
486.048004,462.623993,751.520020
484.096008,462.623993,743.711975
478.239990,454.816010,741.760010
472.384003,462.623993,755.424011
480.191986,462.623993,747.616028
482.144012,464.575989,755.424011
480.191986,470.432007,757.375977
480.191986,468.480011,749.567993
484.096008,466.528015,743.711975
482.144012,464.575989,755.424011
478.239990,466.528015,747.616028
476.287994,464.575989,743.711975
480.191986,464.575989,749.567993
476.287994,470.432007,757.375977
480.191986,460.671997,759.328003
484.096008,464.575989,747.616028
482.144012,468.480011,747.616028
482.144012,470.432007,759.328003
476.287994,460.671997,749.567993
478.239990,466.528015,747.616028
472.384003,464.575989,755.424011
482.144012,466.528015,749.567993
474.335999,466.528015,755.424011
476.287994,464.575989,743.711975
470.432007,468.480011,747.616028
480.191986,468.480011,743.711975
486.048004,468.480011,739.807983
482.144012,460.671997,743.711975
482.144012,460.671997,755.424011
482.144012,462.623993,747.616028
472.384003,456.768005,755.424011
480.191986,456.768005,741.760010
482.144012,456.768005,749.567993
476.287994,460.671997,755.424011
480.191986,466.528015,757.375977
486.048004,464.575989,749.567993
482.144012,472.384003,759.328003
482.144012,466.528015,749.567993
474.335999,464.575989,749.567993
482.144012,456.768005,755.424011
480.191986,456.768005,753.471985
478.239990,468.480011,747.616028
476.287994,464.575989,755.424011
484.096008,462.623993,745.664001
478.239990,466.528015,755.424011
476.287994,462.623993,757.375977
482.144012,447.007996,759.328003
480.191986,462.623993,755.424011
489.951996,454.816010,751.520020
482.144012,460.671997,749.567993
474.335999,454.816010,763.231995
486.048004,464.575989,757.375977
476.287994,460.671997,757.375977
480.191986,456.768005,751.520020
486.048004,456.768005,751.520020
478.239990,466.528015,743.711975
493.855988,460.671997,753.471985
482.144012,460.671997,757.375977
476.287994,470.432007,755.424011
486.048004,470.432007,757.375977
480.191986,466.528015,755.424011
480.191986,460.671997,761.280029
482.144012,458.720001,757.375977
486.048004,460.671997,755.424011
482.144012,458.720001,763.231995
488.000000,460.671997,757.375977
488.000000,456.768005,753.471985
482.144012,450.911987,759.328003
484.096008,456.768005,755.424011
478.239990,454.816010,755.424011
480.191986,458.720001,759.328003
478.239990,466.528015,757.375977
482.144012,464.575989,755.424011
480.191986,464.575989,749.567993
476.287994,470.432007,755.424011
480.191986,470.432007,763.231995
482.144012,460.671997,749.567993
482.144012,462.623993,747.616028
480.191986,462.623993,747.616028
478.239990,468.480011,755.424011
474.335999,466.528015,755.424011
470.432007,458.720001,753.471985
480.191986,458.720001,759.328003
482.144012,458.720001,753.471985
478.239990,466.528015,755.424011
480.191986,470.432007,755.424011
478.239990,464.575989,755.424011
478.239990,456.768005,747.616028
480.191986,462.623993,753.471985
480.191986,462.623993,757.375977
482.144012,458.720001,759.328003
476.287994,464.575989,757.375977
478.239990,458.720001,755.424011
478.239990,456.768005,749.567993
486.048004,448.959991,753.471985
478.239990,458.720001,755.424011
480.191986,458.720001,755.424011
476.287994,456.768005,749.567993
480.191986,456.768005,755.424011
476.287994,454.816010,749.567993
482.144012,452.864014,753.471985
476.287994,448.959991,753.471985
478.239990,458.720001,763.231995
480.191986,452.864014,753.471985
482.144012,458.720001,757.375977
476.287994,458.720001,761.280029
486.048004,448.959991,753.471985
486.048004,458.720001,757.375977
480.191986,452.864014,749.567993
484.096008,456.768005,747.616028
486.048004,456.768005,745.664001
476.287994,448.959991,753.471985
480.191986,452.864014,753.471985
480.191986,447.007996,747.616028
486.048004,454.816010,753.471985
476.287994,454.816010,753.471985
476.287994,458.720001,759.328003
482.144012,450.911987,759.328003
486.048004,450.911987,751.520020
478.239990,450.911987,751.520020
486.048004,445.056000,749.567993
472.384003,452.864014,763.231995
478.239990,447.007996,747.616028
476.287994,450.911987,755.424011
495.808014,450.911987,757.375977
482.144012,447.007996,753.471985
480.191986,437.247986,755.424011
484.096008,441.152008,753.471985
482.144012,441.152008,753.471985
478.239990,448.959991,759.328003
478.239990,450.911987,759.328003
482.144012,456.768005,755.424011
480.191986,454.816010,753.471985
484.096008,448.959991,765.184021
482.144012,458.720001,759.328003
480.191986,452.864014,757.375977
486.048004,460.671997,757.375977
489.951996,448.959991,763.231995
489.951996,445.056000,757.375977
489.951996,447.007996,761.280029
489.951996,443.104004,763.231995
491.903992,448.959991,757.375977
491.903992,450.911987,755.424011
480.191986,445.056000,753.471985
484.096008,450.911987,763.231995
480.191986,441.152008,761.280029
484.096008,447.007996,759.328003
491.903992,454.816010,761.280029
491.903992,454.816010,761.280029
489.951996,452.864014,763.231995
488.000000,450.911987,749.567993
491.903992,448.959991,757.375977
495.808014,450.911987,757.375977
491.903992,448.959991,761.280029
489.951996,450.911987,757.375977
491.903992,450.911987,767.135986
486.048004,448.959991,765.184021
493.855988,454.816010,765.184021
489.951996,445.056000,757.375977
497.760010,452.864014,767.135986
488.000000,456.768005,763.231995
491.903992,454.816010,757.375977
482.144012,450.911987,759.328003
489.951996,445.056000,757.375977
491.903992,456.768005,757.375977
489.951996,448.959991,759.328003
497.760010,450.911987,757.375977
493.855988,452.864014,755.424011
488.000000,454.816010,753.471985
486.048004,452.864014,749.567993
476.287994,452.864014,759.328003
488.000000,464.575989,761.280029
493.855988,447.007996,755.424011
489.951996,454.816010,757.375977
491.903992,458.720001,745.664001
489.951996,452.864014,759.328003
495.808014,454.816010,755.424011
489.951996,458.720001,753.471985
488.000000,462.623993,763.231995
486.048004,460.671997,759.328003
486.048004,466.528015,761.280029
493.855988,464.575989,759.328003
491.903992,462.623993,759.328003
488.000000,460.671997,761.280029
491.903992,470.432007,753.471985
491.903992,468.480011,767.135986
488.000000,470.432007,757.375977
484.096008,468.480011,755.424011
489.951996,472.384003,763.231995
493.855988,462.623993,759.328003
495.808014,460.671997,753.471985
488.000000,468.480011,759.328003
493.855988,468.480011,753.471985
497.760010,474.335999,761.280029
495.808014,460.671997,753.471985
491.903992,466.528015,753.471985
493.855988,466.528015,759.328003
495.808014,462.623993,757.375977
493.855988,468.480011,759.328003
486.048004,460.671997,757.375977
484.096008,466.528015,755.424011
493.855988,466.528015,753.471985
486.048004,458.720001,749.567993
489.951996,472.384003,751.520020
488.000000,468.480011,759.328003
489.951996,462.623993,755.424011
484.096008,474.335999,745.664001
486.048004,474.335999,759.328003
476.287994,470.432007,749.567993
474.335999,466.528015,749.567993
480.191986,470.432007,755.424011
488.000000,470.432007,753.471985
478.239990,468.480011,755.424011
484.096008,466.528015,749.567993
478.239990,460.671997,747.616028
480.191986,466.528015,747.616028
472.384003,466.528015,747.616028
472.384003,468.480011,749.567993
478.239990,468.480011,749.567993
476.287994,460.671997,747.616028
464.575989,470.432007,741.760010
472.384003,468.480011,745.664001
468.480011,472.384003,747.616028
480.191986,462.623993,743.711975
472.384003,468.480011,743.711975
478.239990,462.623993,745.664001
478.239990,470.432007,747.616028
472.384003,468.480011,743.711975
472.384003,460.671997,749.567993
480.191986,470.432007,747.616028
478.239990,474.335999,749.567993
482.144012,468.480011,755.424011
478.239990,464.575989,747.616028
476.287994,470.432007,743.711975
472.384003,466.528015,743.711975
478.239990,468.480011,745.664001
470.432007,464.575989,747.616028
472.384003,462.623993,745.664001
468.480011,458.720001,747.616028
472.384003,466.528015,753.471985
468.480011,456.768005,739.807983
480.191986,466.528015,737.856018
478.239990,460.671997,745.664001
478.239990,464.575989,743.711975
478.239990,468.480011,743.711975
480.191986,456.768005,741.760010
476.287994,464.575989,737.856018
482.144012,474.335999,745.664001
472.384003,466.528015,747.616028
480.191986,460.671997,735.903992
478.239990,452.864014,741.760010
482.144012,462.623993,755.424011
482.144012,464.575989,747.616028
476.287994,470.432007,755.424011
480.191986,462.623993,755.424011
489.951996,468.480011,745.664001
484.096008,462.623993,741.760010
486.048004,456.768005,747.616028
486.048004,464.575989,747.616028
484.096008,464.575989,749.567993
476.287994,458.720001,759.328003
480.191986,462.623993,763.231995
480.191986,460.671997,757.375977
488.000000,462.623993,759.328003
488.000000,462.623993,753.471985
493.855988,462.623993,753.471985
489.951996,456.768005,755.424011
484.096008,464.575989,755.424011
486.048004,454.816010,747.616028
489.951996,452.864014,761.280029
489.951996,454.816010,757.375977
489.951996,452.864014,763.231995
491.903992,448.959991,757.375977
491.903992,443.104004,763.231995
489.951996,450.911987,767.135986
488.000000,456.768005,771.039978
497.760010,454.816010,765.184021
491.903992,448.959991,767.135986
489.951996,450.911987,757.375977
495.808014,450.911987,767.135986
501.664001,454.816010,757.375977
495.808014,454.816010,765.184021
493.855988,456.768005,763.231995
491.903992,450.911987,757.375977
499.712006,452.864014,755.424011
493.855988,443.104004,759.328003
495.808014,445.056000,761.280029
505.567993,450.911987,751.520020
505.567993,448.959991,751.520020
495.808014,450.911987,749.567993
497.760010,450.911987,747.616028
491.903992,443.104004,755.424011
488.000000,447.007996,745.664001
488.000000,447.007996,745.664001
491.903992,439.200012,747.616028
495.808014,445.056000,755.424011
493.855988,447.007996,743.711975
488.000000,452.864014,755.424011
493.855988,462.623993,759.328003
501.664001,452.864014,759.328003
495.808014,458.720001,753.471985
503.615997,454.816010,757.375977
499.712006,454.816010,759.328003
491.903992,450.911987,767.135986
489.951996,458.720001,765.184021
497.760010,460.671997,774.943970
493.855988,447.007996,769.088013
505.567993,458.720001,757.375977
489.951996,460.671997,767.135986
495.808014,464.575989,753.471985
489.951996,460.671997,753.471985
491.903992,454.816010,749.567993
497.760010,462.623993,759.328003
491.903992,452.864014,747.616028
480.191986,456.768005,743.711975
484.096008,456.768005,743.711975
486.048004,450.911987,751.520020
488.000000,448.959991,743.711975
486.048004,450.911987,737.856018
488.000000,452.864014,745.664001
488.000000,448.959991,737.856018
493.855988,448.959991,737.856018
491.903992,462.623993,739.807983
489.951996,458.720001,753.471985
486.048004,458.720001,747.616028
486.048004,454.816010,753.471985
486.048004,458.720001,755.424011
482.144012,468.480011,747.616028
480.191986,454.816010,741.760010
486.048004,466.528015,743.711975
480.191986,474.335999,745.664001
484.096008,468.480011,755.424011
478.239990,468.480011,749.567993
482.144012,464.575989,745.664001
480.191986,468.480011,755.424011
480.191986,468.480011,747.616028
480.191986,470.432007,737.856018
482.144012,468.480011,743.711975
472.384003,460.671997,743.711975
476.287994,466.528015,730.047974
484.096008,458.720001,737.856018
476.287994,454.816010,739.807983
476.287994,452.864014,733.952026
476.287994,468.480011,747.616028
482.144012,460.671997,747.616028
484.096008,470.432007,741.760010
476.287994,448.959991,737.856018
484.096008,460.671997,751.520020
491.903992,470.432007,745.664001
478.239990,464.575989,747.616028
489.951996,470.432007,745.664001
488.000000,468.480011,763.231995
488.000000,468.480011,753.471985
484.096008,478.239990,745.664001
486.048004,470.432007,755.424011
482.144012,474.335999,747.616028
486.048004,472.384003,755.424011
484.096008,472.384003,745.664001
484.096008,468.480011,747.616028
480.191986,466.528015,749.567993
478.239990,468.480011,743.711975
484.096008,470.432007,747.616028
484.096008,468.480011,747.616028
482.144012,462.623993,743.711975
486.048004,462.623993,747.616028
488.000000,452.864014,747.616028
480.191986,458.720001,759.328003
482.144012,448.959991,753.471985
482.144012,456.768005,747.616028
489.951996,462.623993,747.616028
484.096008,458.720001,753.471985
489.951996,460.671997,751.520020
489.951996,464.575989,749.567993
491.903992,466.528015,751.520020
486.048004,472.384003,757.375977
493.855988,470.432007,749.567993
488.000000,468.480011,759.328003
488.000000,468.480011,759.328003
493.855988,468.480011,759.328003
488.000000,468.480011,759.328003
491.903992,468.480011,761.280029
491.903992,472.384003,757.375977
491.903992,464.575989,751.520020
491.903992,464.575989,753.471985
495.808014,462.623993,755.424011
488.000000,462.623993,755.424011
488.000000,452.864014,747.616028
493.855988,452.864014,749.567993
491.903992,458.720001,751.520020
484.096008,462.623993,755.424011
489.951996,462.623993,755.424011
488.000000,466.528015,755.424011
484.096008,464.575989,749.567993
493.855988,452.864014,755.424011
484.096008,458.720001,751.520020
491.903992,460.671997,741.760010
489.951996,462.623993,749.567993
489.951996,460.671997,753.471985
491.903992,470.432007,753.471985
495.808014,468.480011,753.471985
491.903992,464.575989,747.616028
493.855988,460.671997,759.328003
491.903992,466.528015,749.567993
493.855988,468.480011,761.280029
495.808014,458.720001,753.471985
499.712006,460.671997,759.328003
491.903992,456.768005,761.280029
493.855988,464.575989,763.231995
495.808014,454.816010,761.280029
488.000000,466.528015,757.375977
491.903992,454.816010,757.375977
489.951996,448.959991,759.328003
489.951996,456.768005,755.424011
489.951996,466.528015,753.471985
491.903992,460.671997,745.664001
493.855988,443.104004,759.328003
491.903992,456.768005,755.424011
491.903992,456.768005,749.567993
493.855988,456.768005,749.567993
486.048004,454.816010,751.520020
493.855988,450.911987,767.135986
493.855988,456.768005,763.231995
501.664001,460.671997,771.039978
501.664001,462.623993,767.135986
488.000000,458.720001,767.135986
495.808014,454.816010,755.424011
499.712006,456.768005,759.328003
499.712006,460.671997,755.424011
491.903992,452.864014,761.280029
495.808014,454.816010,759.328003
488.000000,454.816010,753.471985
488.000000,460.671997,749.567993
486.048004,450.911987,753.471985
491.903992,450.911987,755.424011
489.951996,456.768005,755.424011
486.048004,448.959991,743.711975
482.144012,462.623993,749.567993
486.048004,462.623993,757.375977
484.096008,456.768005,755.424011
493.855988,460.671997,747.616028
482.144012,448.959991,751.520020
489.951996,450.911987,759.328003
480.191986,452.864014,759.328003
488.000000,452.864014,749.567993
489.951996,460.671997,751.520020
488.000000,458.720001,755.424011
489.951996,460.671997,755.424011
488.000000,454.816010,747.616028
489.951996,460.671997,759.328003
489.951996,452.864014,755.424011
486.048004,454.816010,745.664001
480.191986,456.768005,751.520020
480.191986,454.816010,751.520020
482.144012,462.623993,749.567993
482.144012,464.575989,747.616028
484.096008,466.528015,749.567993
486.048004,448.959991,747.616028
480.191986,454.816010,741.760010
476.287994,447.007996,741.760010
486.048004,448.959991,741.760010
472.384003,460.671997,745.664001
478.239990,462.623993,749.567993
476.287994,454.816010,753.471985
476.287994,448.959991,743.711975
472.384003,456.768005,743.711975
480.191986,454.816010,745.664001
484.096008,456.768005,743.711975
474.335999,450.911987,747.616028
472.384003,456.768005,743.711975
476.287994,456.768005,751.520020
480.191986,456.768005,745.664001
468.480011,452.864014,749.567993
478.239990,448.959991,751.520020
478.239990,462.623993,747.616028
474.335999,452.864014,749.567993
476.287994,448.959991,745.664001
478.239990,462.623993,747.616028
470.432007,439.200012,741.760010
474.335999,448.959991,741.760010
476.287994,452.864014,749.567993
482.144012,452.864014,741.760010
474.335999,454.816010,745.664001
480.191986,445.056000,745.664001
472.384003,450.911987,747.616028
476.287994,454.816010,749.567993
482.144012,462.623993,751.520020
474.335999,454.816010,745.664001
468.480011,452.864014,747.616028
480.191986,458.720001,755.424011
474.335999,454.816010,745.664001
474.335999,458.720001,757.375977
482.144012,454.816010,753.471985
480.191986,456.768005,747.616028
470.432007,458.720001,751.520020
476.287994,443.104004,751.520020
468.480011,452.864014,751.520020
474.335999,466.528015,747.616028
472.384003,458.720001,751.520020
482.144012,460.671997,749.567993
472.384003,466.528015,739.807983
472.384003,458.720001,739.807983
478.239990,456.768005,743.711975
472.384003,447.007996,755.424011
476.287994,448.959991,751.520020
474.335999,460.671997,749.567993
474.335999,454.816010,741.760010
476.287994,448.959991,745.664001
482.144012,456.768005,741.760010
476.287994,445.056000,741.760010
474.335999,454.816010,745.664001
484.096008,464.575989,749.567993
482.144012,454.816010,749.567993
478.239990,458.720001,757.375977
480.191986,458.720001,757.375977
486.048004,466.528015,757.375977
488.000000,460.671997,757.375977
480.191986,460.671997,761.280029
491.903992,456.768005,761.280029
486.048004,454.816010,751.520020
482.144012,464.575989,755.424011
484.096008,448.959991,759.328003
489.951996,454.816010,763.231995
484.096008,452.864014,759.328003
480.191986,458.720001,757.375977
484.096008,456.768005,755.424011
489.951996,454.816010,753.471985
482.144012,452.864014,753.471985
484.096008,464.575989,749.567993
474.335999,470.432007,761.280029
484.096008,462.623993,755.424011
480.191986,464.575989,757.375977
478.239990,458.720001,751.520020
488.000000,458.720001,757.375977
491.903992,456.768005,757.375977
489.951996,454.816010,755.424011
497.760010,466.528015,763.231995
486.048004,460.671997,757.375977
491.903992,456.768005,757.375977
484.096008,454.816010,755.424011
480.191986,460.671997,757.375977
489.951996,452.864014,763.231995
491.903992,456.768005,757.375977
493.855988,454.816010,759.328003
493.855988,445.056000,755.424011
491.903992,456.768005,757.375977
497.760010,462.623993,757.375977
493.855988,466.528015,753.471985
488.000000,458.720001,749.567993
486.048004,470.432007,757.375977
482.144012,466.528015,747.616028
488.000000,470.432007,757.375977
484.096008,462.623993,749.567993
480.191986,460.671997,755.424011
484.096008,464.575989,755.424011
486.048004,460.671997,757.375977
491.903992,458.720001,751.520020
486.048004,462.623993,759.328003
480.191986,462.623993,745.664001
472.384003,460.671997,741.760010
491.903992,464.575989,745.664001
489.951996,466.528015,749.567993
486.048004,460.671997,755.424011
482.144012,458.720001,759.328003
482.144012,468.480011,755.424011
476.287994,472.384003,749.567993
484.096008,468.480011,755.424011
489.951996,464.575989,755.424011
488.000000,466.528015,759.328003
482.144012,466.528015,747.616028
484.096008,466.528015,745.664001
486.048004,460.671997,755.424011
484.096008,464.575989,747.616028
486.048004,474.335999,745.664001
482.144012,462.623993,747.616028
484.096008,470.432007,741.760010
482.144012,470.432007,747.616028
486.048004,464.575989,737.856018
489.951996,468.480011,751.520020
489.951996,464.575989,751.520020
484.096008,474.335999,743.711975
489.951996,458.720001,749.567993
482.144012,470.432007,755.424011
478.239990,474.335999,755.424011
493.855988,478.239990,745.664001
486.048004,464.575989,749.567993
480.191986,474.335999,745.664001
476.287994,470.432007,755.424011
484.096008,468.480011,749.567993
480.191986,470.432007,749.567993
478.239990,474.335999,747.616028
472.384003,464.575989,745.664001
484.096008,464.575989,743.711975
486.048004,474.335999,745.664001
484.096008,464.575989,743.711975
482.144012,472.384003,751.520020
484.096008,466.528015,737.856018
480.191986,464.575989,737.856018
478.239990,466.528015,737.856018
486.048004,470.432007,737.856018
482.144012,466.528015,747.616028
484.096008,470.432007,741.760010
484.096008,478.239990,739.807983
476.287994,458.720001,735.903992
474.335999,474.335999,741.760010
478.239990,468.480011,747.616028
476.287994,476.287994,747.616028
478.239990,462.623993,749.567993
484.096008,472.384003,749.567993
480.191986,464.575989,743.711975
489.951996,476.287994,755.424011
482.144012,476.287994,751.520020
489.951996,466.528015,745.664001
491.903992,468.480011,751.520020
488.000000,468.480011,753.471985
484.096008,472.384003,759.328003
491.903992,470.432007,745.664001
484.096008,472.384003,759.328003
488.000000,468.480011,763.231995
489.951996,482.144012,753.471985
489.951996,468.480011,747.616028
491.903992,470.432007,751.520020
486.048004,478.239990,749.567993
491.903992,470.432007,751.520020
491.903992,478.239990,751.520020
489.951996,476.287994,755.424011
491.903992,480.191986,757.375977
505.567993,474.335999,759.328003
493.855988,478.239990,749.567993
488.000000,468.480011,753.471985
497.760010,472.384003,755.424011
497.760010,468.480011,759.328003
495.808014,476.287994,761.280029
501.664001,474.335999,757.375977
499.712006,472.384003,755.424011
495.808014,482.144012,761.280029
489.951996,482.144012,757.375977
501.664001,480.191986,769.088013
501.664001,474.335999,757.375977
499.712006,468.480011,757.375977
495.808014,474.335999,757.375977
499.712006,478.239990,767.135986
495.808014,476.287994,761.280029
505.567993,468.480011,759.328003
497.760010,468.480011,765.184021
499.712006,478.239990,774.943970
509.471985,470.432007,765.184021
507.519989,464.575989,761.280029
507.519989,470.432007,765.184021
497.760010,466.528015,757.375977
495.808014,474.335999,761.280029
503.615997,470.432007,759.328003
493.855988,462.623993,753.471985
499.712006,468.480011,771.039978
497.760010,468.480011,761.280029
497.760010,468.480011,759.328003
495.808014,474.335999,765.184021
495.808014,466.528015,757.375977
488.000000,476.287994,765.184021
493.855988,466.528015,763.231995
489.951996,470.432007,753.471985
486.048004,470.432007,757.375977
486.048004,470.432007,755.424011
484.096008,472.384003,753.471985
493.855988,472.384003,755.424011
489.951996,470.432007,751.520020
489.951996,472.384003,751.520020
484.096008,470.432007,741.760010
484.096008,470.432007,745.664001
484.096008,470.432007,745.664001
486.048004,472.384003,749.567993
474.335999,474.335999,747.616028
482.144012,472.384003,753.471985
480.191986,480.191986,741.760010
476.287994,474.335999,747.616028
482.144012,466.528015,743.711975
478.239990,462.623993,743.711975
472.384003,462.623993,745.664001
478.239990,478.239990,751.520020
478.239990,468.480011,743.711975
472.384003,466.528015,749.567993
478.239990,470.432007,749.567993
472.384003,476.287994,743.711975
474.335999,480.191986,749.567993
476.287994,464.575989,749.567993
472.384003,472.384003,741.760010
466.528015,468.480011,753.471985
486.048004,474.335999,753.471985
474.335999,476.287994,753.471985
468.480011,478.239990,755.424011
478.239990,466.528015,755.424011
482.144012,470.432007,759.328003
486.048004,470.432007,755.424011
486.048004,474.335999,751.520020
486.048004,476.287994,751.520020
478.239990,476.287994,749.567993
484.096008,474.335999,749.567993
489.951996,474.335999,757.375977
486.048004,472.384003,757.375977
489.951996,462.623993,751.520020
493.855988,468.480011,763.231995
478.239990,478.239990,759.328003
480.191986,464.575989,759.328003
486.048004,470.432007,757.375977
486.048004,472.384003,767.135986
486.048004,470.432007,757.375977
486.048004,470.432007,763.231995
486.048004,478.239990,751.520020
491.903992,476.287994,755.424011
493.855988,468.480011,765.184021
493.855988,474.335999,765.184021
489.951996,474.335999,759.328003
484.096008,472.384003,759.328003
484.096008,476.287994,753.471985
486.048004,466.528015,759.328003
489.951996,468.480011,757.375977
491.903992,462.623993,767.135986
493.855988,462.623993,757.375977
493.855988,460.671997,753.471985
480.191986,460.671997,757.375977
493.855988,466.528015,759.328003
488.000000,458.720001,755.424011
493.855988,466.528015,759.328003
486.048004,460.671997,755.424011
488.000000,468.480011,759.328003
488.000000,478.239990,755.424011
482.144012,482.144012,753.471985
486.048004,464.575989,753.471985
489.951996,464.575989,755.424011
493.855988,456.768005,763.231995
488.000000,466.528015,761.280029
493.855988,468.480011,759.328003
489.951996,470.432007,761.280029
495.808014,468.480011,759.328003
486.048004,464.575989,759.328003
482.144012,470.432007,761.280029
488.000000,468.480011,763.231995
489.951996,464.575989,769.088013
489.951996,470.432007,769.088013
489.951996,470.432007,771.039978
486.048004,464.575989,763.231995
488.000000,464.575989,765.184021
486.048004,460.671997,769.088013
486.048004,470.432007,769.088013
482.144012,468.480011,774.943970
482.144012,468.480011,774.943970
476.287994,464.575989,769.088013
486.048004,470.432007,767.135986
488.000000,462.623993,769.088013
480.191986,472.384003,767.135986
486.048004,470.432007,765.184021
486.048004,468.480011,771.039978
480.191986,472.384003,767.135986
480.191986,474.335999,771.039978
484.096008,462.623993,774.943970
482.144012,460.671997,771.039978
486.048004,474.335999,771.039978
476.287994,480.191986,771.039978
484.096008,468.480011,767.135986
484.096008,462.623993,772.992004
491.903992,460.671997,772.992004
484.096008,468.480011,774.943970
478.239990,460.671997,769.088013
480.191986,468.480011,767.135986
478.239990,460.671997,769.088013
478.239990,468.480011,767.135986
476.287994,464.575989,761.280029
486.048004,460.671997,769.088013
474.335999,468.480011,757.375977
482.144012,468.480011,767.135986
478.239990,458.720001,771.039978
472.384003,456.768005,769.088013
468.480011,468.480011,771.039978
486.048004,460.671997,769.088013
472.384003,466.528015,771.039978
478.239990,456.768005,769.088013
468.480011,458.720001,771.039978
468.480011,458.720001,767.135986
470.432007,464.575989,753.471985
474.335999,460.671997,757.375977
472.384003,466.528015,769.088013
468.480011,470.432007,765.184021
472.384003,456.768005,769.088013
476.287994,458.720001,767.135986
474.335999,460.671997,763.231995
474.335999,464.575989,763.231995
470.432007,466.528015,765.184021
464.575989,450.911987,769.088013
466.528015,460.671997,771.039978
462.623993,466.528015,761.280029
458.720001,454.816010,767.135986
466.528015,456.768005,769.088013
462.623993,445.056000,767.135986
460.671997,454.816010,769.088013
460.671997,450.911987,769.088013
462.623993,454.816010,769.088013
466.528015,447.007996,778.848022
460.671997,450.911987,786.656006
460.671997,447.007996,774.943970
464.575989,439.200012,776.895996
462.623993,450.911987,774.943970
468.480011,454.816010,778.848022
456.768005,454.816010,782.752014
466.528015,445.056000,778.848022
462.623993,445.056000,771.039978
462.623993,447.007996,767.135986
460.671997,439.200012,772.992004
466.528015,433.343994,765.184021
466.528015,437.247986,763.231995
462.623993,439.200012,769.088013
460.671997,429.440002,778.848022
460.671997,435.295990,782.752014
447.007996,437.247986,774.943970
452.864014,435.295990,774.943970
448.959991,433.343994,774.943970
448.959991,437.247986,778.848022
452.864014,431.391998,772.992004
458.720001,435.295990,782.752014
452.864014,435.295990,786.656006
452.864014,429.440002,778.848022
445.056000,439.200012,788.607971
456.768005,429.440002,786.656006
450.911987,437.247986,776.895996
445.056000,425.536011,782.752014
447.007996,439.200012,772.992004
452.864014,441.152008,782.752014
441.152008,433.343994,780.799988
441.152008,437.247986,778.848022
447.007996,429.440002,780.799988
443.104004,425.536011,784.703979
441.152008,435.295990,784.703979
447.007996,435.295990,782.752014
437.247986,425.536011,790.559998
439.200012,427.488007,784.703979
437.247986,421.631989,780.799988
437.247986,431.391998,790.559998
435.295990,433.343994,790.559998
433.343994,429.440002,782.752014
433.343994,431.391998,790.559998
429.440002,423.584015,788.607971
425.536011,425.536011,790.559998
427.488007,419.679993,786.656006
423.584015,427.488007,780.799988
409.920013,429.440002,782.752014
411.872009,423.584015,776.895996
404.063995,417.727997,774.943970
404.063995,417.727997,776.895996
404.063995,421.631989,772.992004
400.160004,413.824005,767.135986
396.256012,419.679993,765.184021
396.256012,411.872009,769.088013
392.351990,409.920013,761.280029
392.351990,411.872009,751.520020
384.544006,398.208008,743.711975
388.447998,394.303986,745.664001
382.592010,396.256012,749.567993
386.496002,388.447998,741.760010
382.592010,392.351990,753.471985
380.640015,388.447998,755.424011
382.592010,386.496002,751.520020
376.735992,382.592010,755.424011
384.544006,368.928009,745.664001
378.687988,380.640015,757.375977
378.687988,366.976013,753.471985
388.447998,366.976013,757.375977
382.592010,376.735992,757.375977
376.735992,380.640015,757.375977
374.783997,390.399994,755.424011
368.928009,386.496002,755.424011
382.592010,394.303986,753.471985
380.640015,396.256012,749.567993
380.640015,394.303986,753.471985
370.880005,392.351990,757.375977
378.687988,394.303986,761.280029
384.544006,396.256012,767.135986
378.687988,406.015991,774.943970
390.399994,400.160004,778.848022
388.447998,396.256012,772.992004
382.592010,407.967987,786.656006
386.496002,413.824005,788.607971
382.592010,407.967987,788.607971
392.351990,413.824005,784.703979
384.544006,415.776001,802.271973
370.880005,413.824005,788.607971
378.687988,423.584015,788.607971
384.544006,419.679993,794.463989
378.687988,427.488007,794.463989
388.447998,413.824005,806.176025
388.447998,417.727997,802.271973
384.544006,419.679993,802.271973
390.399994,421.631989,802.271973
384.544006,419.679993,792.512024
386.496002,423.584015,804.223999
378.687988,429.440002,804.223999
382.592010,427.488007,800.320007
386.496002,423.584015,802.271973
386.496002,429.440002,806.176025
390.399994,419.679993,796.416016
388.447998,409.920013,796.416016
394.303986,417.727997,806.176025
388.447998,419.679993,802.271973
400.160004,419.679993,806.176025
392.351990,419.679993,802.271973
400.160004,421.631989,810.080017
404.063995,427.488007,806.176025
398.208008,433.343994,802.271973
407.967987,423.584015,798.367981
404.063995,429.440002,806.176025
411.872009,439.200012,788.607971
406.015991,437.247986,788.607971
407.967987,433.343994,804.223999
398.208008,445.056000,788.607971
411.872009,439.200012,798.367981
411.872009,435.295990,788.607971
419.679993,435.295990,798.367981
419.679993,450.911987,794.463989
419.679993,439.200012,792.512024
421.631989,435.295990,792.512024
429.440002,443.104004,796.416016
439.200012,427.488007,804.223999
435.295990,429.440002,804.223999
435.295990,425.536011,802.271973
431.391998,429.440002,806.176025
425.536011,437.247986,821.791992
433.343994,429.440002,804.223999
433.343994,439.200012,815.935974
435.295990,433.343994,817.888000
445.056000,429.440002,823.744019
447.007996,425.536011,837.408020
450.911987,429.440002,823.744019
450.911987,433.343994,829.599976
441.152008,431.391998,831.552002
450.911987,435.295990,843.263977
458.720001,435.295990,845.216003
452.864014,431.391998,843.263977
450.911987,425.536011,845.216003
460.671997,427.488007,845.216003
462.623993,431.391998,847.168030
456.768005,437.247986,847.168030
454.816010,421.631989,858.880005
456.768005,404.063995,860.831970
454.816010,409.920013,860.831970
450.911987,415.776001,860.831970
456.768005,411.872009,872.544006
450.911987,402.112000,860.831970
454.816010,402.112000,858.880005
443.104004,392.351990,872.544006
454.816010,404.063995,856.927979
458.720001,394.303986,868.640015
462.623993,402.112000,858.880005
454.816010,404.063995,864.736023
443.104004,413.824005,868.640015
435.295990,421.631989,860.831970
439.200012,411.872009,860.831970
435.295990,423.584015,851.072021
429.440002,425.536011,845.216003
435.295990,417.727997,829.599976
429.440002,429.440002,835.455994
427.488007,450.911987,817.888000
417.727997,443.104004,808.127991
413.824005,437.247986,800.320007
402.112000,450.911987,788.607971
407.967987,437.247986,792.512024
404.063995,423.584015,794.463989
411.872009,409.920013,778.848022
404.063995,427.488007,767.135986
400.160004,431.391998,771.039978
390.399994,427.488007,769.088013
394.303986,433.343994,765.184021
392.351990,454.816010,767.135986
382.592010,468.480011,749.567993
378.687988,462.623993,755.424011
370.880005,470.432007,745.664001
363.071991,476.287994,751.520020
372.832001,484.096008,745.664001
378.687988,489.951996,739.807983
380.640015,480.191986,747.616028
378.687988,489.951996,739.807983
382.592010,489.951996,737.856018
386.496002,493.855988,745.664001
392.351990,488.000000,753.471985
407.967987,495.808014,757.375977
429.440002,499.712006,763.231995
386.496002,505.567993,778.848022
384.544006,497.760010,788.607971
384.544006,478.239990,798.367981
370.880005,509.471985,808.127991
378.687988,491.903992,808.127991
386.496002,435.295990,823.744019
394.303986,464.575989,815.935974
384.544006,476.287994,810.080017
366.976013,456.768005,808.127991
370.880005,460.671997,802.271973
372.832001,503.615997,808.127991
378.687988,480.191986,812.031982
404.063995,435.295990,813.984009
413.824005,476.287994,817.888000
402.112000,497.760010,815.935974
390.399994,478.239990,823.744019
380.640015,466.528015,817.888000
370.880005,489.951996,819.840027
378.687988,484.096008,813.984009
390.399994,456.768005,810.080017
390.399994,454.816010,813.984009
394.303986,460.671997,806.176025
398.208008,470.432007,813.984009
388.447998,470.432007,808.127991
390.399994,464.575989,812.031982
400.160004,456.768005,813.984009
404.063995,456.768005,812.031982
413.824005,454.816010,808.127991
409.920013,448.959991,821.791992
409.920013,447.007996,821.791992
400.160004,450.911987,817.888000
396.256012,450.911987,819.840027
398.208008,443.104004,817.888000
415.776001,445.056000,813.984009
406.015991,437.247986,821.791992
409.920013,437.247986,813.984009
402.112000,439.200012,813.984009
413.824005,425.536011,813.984009
407.967987,417.727997,821.791992
415.776001,413.824005,813.984009
425.536011,406.015991,821.791992
429.440002,398.208008,812.031982
439.200012,388.447998,819.840027
437.247986,384.544006,823.744019
445.056000,388.447998,808.127991
448.959991,388.447998,821.791992
456.768005,380.640015,821.791992
452.864014,388.447998,827.648010
452.864014,396.256012,833.504028
450.911987,411.872009,827.648010
454.816010,407.967987,829.599976
454.816010,411.872009,839.359985
452.864014,402.112000,843.263977
472.384003,402.112000,843.263977
470.432007,404.063995,849.119995
474.335999,392.351990,853.023987
480.191986,386.496002,858.880005
495.808014,382.592010,851.072021
495.808014,390.399994,862.783997
501.664001,386.496002,862.783997
513.375977,380.640015,868.640015
507.519989,382.592010,870.591980
509.471985,382.592010,880.351990
513.375977,382.592010,886.208008
503.615997,390.399994,890.112000
517.280029,388.447998,880.351990
503.615997,378.687988,886.208008
511.424011,378.687988,880.351990
509.471985,386.496002,884.255981
515.328003,380.640015,874.495972
519.231995,386.496002,876.447998
523.135986,376.735992,870.591980
530.943970,363.071991,870.591980
525.088013,359.167999,874.495972
527.039978,361.119995,882.304016
530.943970,363.071991,884.255981
542.656006,355.264008,878.400024
544.607971,359.167999,884.255981
552.416016,353.312012,882.304016
544.607971,357.216003,884.255981
546.559998,359.167999,886.208008
536.799988,370.880005,884.255981
521.184021,374.783997,878.400024
505.567993,388.447998,870.591980
507.519989,390.399994,884.255981
505.567993,382.592010,874.495972
511.424011,380.640015,878.400024
503.615997,386.496002,886.208008
509.471985,390.399994,878.400024
507.519989,392.351990,878.400024
505.567993,382.592010,876.447998
511.424011,394.303986,870.591980
503.615997,378.687988,864.736023
503.615997,386.496002,854.976013
509.471985,398.208008,856.927979
530.943970,396.256012,843.263977
523.135986,376.735992,839.359985
515.328003,376.735992,835.455994
507.519989,407.967987,823.744019
493.855988,407.967987,813.984009
488.000000,406.015991,808.127991
470.432007,394.303986,810.080017
458.720001,390.399994,804.223999
454.816010,394.303986,794.463989
454.816010,396.256012,788.607971
450.911987,392.351990,784.703979
431.391998,392.351990,769.088013
433.343994,398.208008,772.992004
435.295990,392.351990,774.943970
415.776001,388.447998,765.184021
404.063995,380.640015,757.375977
435.295990,388.447998,761.280029
433.343994,374.783997,763.231995
425.536011,374.783997,767.135986
411.872009,368.928009,759.328003
411.872009,376.735992,757.375977
396.256012,392.351990,757.375977
406.015991,402.112000,771.039978
415.776001,398.208008,774.943970
421.631989,368.928009,778.848022
417.727997,363.071991,798.367981
429.440002,384.544006,804.223999
406.015991,407.967987,810.080017
374.783997,421.631989,808.127991
353.312012,441.152008,798.367981
327.936005,460.671997,794.463989
327.936005,484.096008,776.895996
325.984009,472.384003,790.559998
324.032013,464.575989,780.799988
331.839996,437.247986,774.943970
337.696014,417.727997,759.328003
337.696014,390.399994,749.567993
329.888000,392.351990,751.520020
331.839996,388.447998,735.903992
322.079987,368.928009,726.143982
318.175995,366.976013,722.239990
325.984009,366.976013,716.383972
306.463989,335.743988,696.864014
316.223999,345.503998,687.104004
208.863998,343.552002,651.968018
206.912003,400.160004,644.159973
212.768005,394.303986,624.640015
232.287994,339.648010,616.831970
245.951996,283.040009,618.783997
265.471985,244.000000,628.544006
269.376007,251.807999,626.591980
283.040009,310.368011,630.495972
284.992004,345.503998,634.400024
322.079987,341.600006,632.447998
327.936005,283.040009,634.400024
341.600006,238.143997,634.400024
316.223999,275.231995,636.351990
292.799988,320.127991,646.112000
275.231995,353.312012,651.968018
271.328003,343.552002,655.872009
257.664001,281.088013,646.112000
331.839996,255.712006,651.968018
325.984009,204.960007,648.064026
273.279999,224.479996,640.255981
283.040009,308.415985,644.159973
279.135986,374.783997,653.919983
337.696014,345.503998,653.919983
359.167999,269.376007,640.255981
366.976013,222.528000,651.968018
349.407990,240.095993,659.776001
335.743988,331.839996,659.776001
324.032013,378.687988,659.776001
329.888000,355.264008,650.015991
341.600006,279.135986,651.968018
333.791992,236.192001,657.823975
325.984009,244.000000,651.968018
316.223999,255.712006,653.919983
318.175995,267.424011,651.968018
300.608002,253.759995,653.919983
304.511993,259.615997,644.159973
312.320007,251.807999,648.064026
333.791992,253.759995,640.255981
345.503998,234.240005,636.351990
343.552002,236.192001,632.447998
343.552002,247.904007,636.351990
345.503998,257.664001,632.447998
343.552002,277.183990,628.544006
337.696014,255.712006,634.400024
341.600006,169.824005,622.687988
327.936005,257.664001,595.359985
331.839996,493.855988,581.695984
335.743988,610.976013,571.935974
345.503998,515.328003,552.416016
431.391998,439.200012,540.703979
275.231995,431.391998,536.799988
279.135986,573.888000,544.607971
197.151993,620.736023,566.080017
353.312012,435.295990,595.359985
333.791992,183.488007,620.736023
366.976013,81.984001,644.159973
388.447998,183.488007,687.104004
427.488007,234.240005,741.760010
493.855988,113.216003,798.367981
540.703979,-64.416000,827.648010
523.135986,-121.024002,841.312012
491.903992,50.751999,860.831970
484.096008,212.768005,892.064026
466.528015,148.352005,905.728027
425.536011,31.232000,901.823975
421.631989,89.792000,894.015991
413.824005,269.376007,890.112000
423.584015,310.368011,870.591980
433.343994,197.151993,837.408020
435.295990,183.488007,821.791992
413.824005,337.696014,808.127991
427.488007,413.824005,794.463989
452.864014,310.368011,753.471985
470.432007,249.856003,739.807983
460.671997,353.312012,753.471985
474.335999,421.631989,774.943970
482.144012,320.127991,790.559998
486.048004,230.335999,812.031982
484.096008,286.944000,835.455994
497.760010,320.127991,864.736023
505.567993,245.951996,886.208008
495.808014,181.535995,895.968018
507.519989,191.296005,903.776001
497.760010,228.384003,901.823975
501.664001,204.960007,895.968018
493.855988,187.391998,876.447998
489.951996,197.151993,866.687988
486.048004,218.623993,843.263977
486.048004,228.384003,817.888000
484.096008,238.143997,798.367981
486.048004,224.479996,782.752014
491.903992,218.623993,767.135986
495.808014,245.951996,757.375977
497.760010,244.000000,763.231995
503.615997,228.384003,769.088013
525.088013,214.720001,778.848022
523.135986,232.287994,788.607971
525.088013,245.951996,804.223999
525.088013,232.287994,817.888000
519.231995,212.768005,833.504028
517.280029,244.000000,837.408020
525.088013,267.424011,849.119995
513.375977,263.519989,845.216003
507.519989,265.471985,841.312012
513.375977,275.231995,837.408020
505.567993,294.752014,825.695984
513.375977,290.847992,813.984009
501.664001,279.135986,796.416016
519.231995,275.231995,788.607971
499.712006,269.376007,769.088013
517.280029,267.424011,765.184021
495.808014,240.095993,774.943970
519.231995,214.720001,761.280029
523.135986,222.528000,753.471985
523.135986,214.720001,751.520020
519.231995,203.007996,745.664001
528.992004,199.104004,755.424011
517.280029,216.671997,757.375977
505.567993,222.528000,761.280029
499.712006,226.432007,772.992004
515.328003,228.384003,763.231995
497.760010,245.951996,759.328003
509.471985,263.519989,765.184021
488.000000,255.712006,759.328003
503.615997,257.664001,747.616028
484.096008,273.279999,739.807983
501.664001,294.752014,733.952026
503.615997,284.992004,739.807983
493.855988,269.376007,733.952026
493.855988,275.231995,720.288025
497.760010,288.895996,732.000000
495.808014,281.088013,720.288025
501.664001,255.712006,730.047974
493.855988,245.951996,728.096008
507.519989,247.904007,726.143982
495.808014,244.000000,722.239990
493.855988,234.240005,716.383972
493.855988,234.240005,718.335999
488.000000,238.143997,720.288025
491.903992,253.759995,714.432007
493.855988,249.856003,704.671997
497.760010,238.143997,702.719971
493.855988,240.095993,691.007996
497.760010,251.807999,692.960022
503.615997,259.615997,691.007996
505.567993,251.807999,681.247986
499.712006,247.904007,692.960022
509.471985,255.712006,685.151978
503.615997,273.279999,683.200012
507.519989,263.519989,692.960022
517.280029,249.856003,691.007996
511.424011,257.664001,689.056030
521.184021,263.519989,692.960022
513.375977,261.567993,691.007996
523.135986,255.712006,692.960022
517.280029,247.904007,687.104004
527.039978,263.519989,692.960022
534.848022,261.567993,700.768005
538.752014,251.807999,687.104004
560.223999,242.048004,689.056030
546.559998,242.048004,692.960022
554.367981,247.904007,691.007996
554.367981,236.192001,698.815979
564.127991,226.432007,694.911987
558.271973,236.192001,692.960022
566.080017,238.143997,696.864014
564.127991,222.528000,698.815979
569.984009,226.432007,691.007996
583.648010,230.335999,694.911987
577.791992,230.335999,698.815979
587.552002,234.240005,706.624023
585.599976,230.335999,704.671997
589.504028,226.432007,706.624023
583.648010,230.335999,708.575989
591.455994,230.335999,706.624023
591.455994,228.384003,712.479980
589.504028,222.528000,712.479980
595.359985,222.528000,712.479980
597.312012,216.671997,720.288025
603.168030,206.912003,710.528015
614.880005,208.863998,710.528015
618.783997,185.440002,722.239990
609.023987,181.535995,716.383972
622.687988,187.391998,722.239990
618.783997,173.727997,732.000000
603.168030,165.919998,728.096008
612.927979,162.016006,730.047974
610.976013,154.207993,732.000000
612.927979,154.207993,732.000000
610.976013,158.112000,726.143982
609.023987,146.399994,728.096008
614.880005,152.255997,745.664001
614.880005,148.352005,741.760010
610.976013,146.399994,747.616028
603.168030,128.832001,735.903992
593.408020,140.544006,747.616028
599.263977,134.688004,739.807983
603.168030,119.071999,743.711975
601.216003,113.216003,749.567993
610.976013,111.264000,745.664001
607.072021,119.071999,743.711975
610.976013,113.216003,747.616028
601.216003,111.264000,745.664001
593.408020,107.360001,747.616028
595.359985,128.832001,751.520020
591.455994,134.688004,755.424011
591.455994,130.783997,739.807983
587.552002,140.544006,747.616028
583.648010,136.639999,737.856018
577.791992,138.591995,728.096008
573.888000,132.735992,714.432007
569.984009,138.591995,722.239990
575.840027,132.735992,714.432007
571.935974,124.928001,706.624023
571.935974,132.735992,710.528015
554.367981,113.216003,694.911987
556.320007,119.071999,696.864014
548.512024,122.975998,694.911987
556.320007,103.456001,685.151978
552.416016,105.407997,691.007996
552.416016,111.264000,681.247986
548.512024,97.599998,673.440002
546.559998,103.456001,669.536011
552.416016,119.071999,663.679993
550.463989,126.879997,659.776001
546.559998,134.688004,657.823975
548.512024,140.544006,653.919983
538.752014,146.399994,644.159973
540.703979,140.544006,640.255981
540.703979,158.112000,636.351990
538.752014,160.063995,636.351990
538.752014,154.207993,632.447998
544.607971,152.255997,624.640015
540.703979,167.871994,628.544006
542.656006,173.727997,618.783997
542.656006,163.968002,616.831970
540.703979,167.871994,622.687988
538.752014,169.824005,622.687988
536.799988,173.727997,614.880005
552.416016,169.824005,607.072021
554.367981,175.679993,601.216003
550.463989,175.679993,607.072021
550.463989,193.248001,597.312012
548.512024,199.104004,589.504028
552.416016,189.343994,589.504028
556.320007,203.007996,585.599976
560.223999,199.104004,573.888000
554.367981,204.960007,579.744019
564.127991,206.912003,568.031982
552.416016,214.720001,568.031982
562.176025,214.720001,573.888000
564.127991,222.528000,560.223999
562.176025,222.528000,556.320007
558.271973,228.384003,556.320007
564.127991,218.623993,556.320007
558.271973,224.479996,552.416016
562.176025,242.048004,554.367981
564.127991,234.240005,546.559998
566.080017,236.192001,544.607971
583.648010,234.240005,544.607971
581.695984,232.287994,532.895996
595.359985,232.287994,536.799988
599.263977,240.095993,528.992004
597.312012,245.951996,525.088013
597.312012,249.856003,517.280029
609.023987,263.519989,503.615997
603.168030,273.279999,509.471985
609.023987,275.231995,507.519989
612.927979,283.040009,507.519989
620.736023,288.895996,507.519989
616.831970,283.040009,501.664001
628.544006,281.088013,497.760010
632.447998,288.895996,497.760010
638.304016,294.752014,491.903992
650.015991,294.752014,488.000000
646.112000,306.463989,499.712006
653.919983,308.415985,501.664001
644.159973,318.175995,509.471985
650.015991,306.463989,513.375977
655.872009,308.415985,509.471985
659.776001,318.175995,525.088013
675.392029,318.175995,521.184021
675.392029,322.079987,528.992004
685.151978,316.223999,525.088013
685.151978,331.839996,525.088013
687.104004,333.791992,525.088013
691.007996,345.503998,521.184021
698.815979,349.407990,523.135986
694.911987,339.648010,517.280029
696.864014,343.552002,525.088013
692.960022,357.216003,523.135986
691.007996,351.359985,517.280029
694.911987,361.119995,521.184021
700.768005,357.216003,513.375977
691.007996,361.119995,513.375977
694.911987,359.167999,503.615997
691.007996,361.119995,509.471985
694.911987,361.119995,497.760010
691.007996,363.071991,499.712006
692.960022,357.216003,495.808014
698.815979,357.216003,491.903992
694.911987,357.216003,491.903992
691.007996,357.216003,489.951996
694.911987,345.503998,486.048004
691.007996,343.552002,486.048004
692.960022,347.455994,486.048004
687.104004,349.407990,478.239990
691.007996,345.503998,472.384003
683.200012,343.552002,482.144012
694.911987,351.359985,472.384003
687.104004,349.407990,474.335999
685.151978,349.407990,478.239990
694.911987,345.503998,486.048004
696.864014,347.455994,482.144012
696.864014,343.552002,472.384003
689.056030,353.312012,472.384003
702.719971,359.167999,482.144012
692.960022,345.503998,476.287994
696.864014,357.216003,478.239990
702.719971,347.455994,478.239990
702.719971,351.359985,476.287994
698.815979,345.503998,476.287994
687.104004,345.503998,474.335999
702.719971,343.552002,466.528015
702.719971,337.696014,466.528015
716.383972,327.936005,460.671997
706.624023,327.936005,462.623993
714.432007,324.032013,476.287994
716.383972,325.984009,474.335999
724.192017,310.368011,480.191986
724.192017,310.368011,484.096008
726.143982,304.511993,486.048004
728.096008,298.656006,488.000000
718.335999,284.992004,497.760010
728.096008,277.183990,497.760010
737.856018,283.040009,488.000000
747.616028,284.992004,499.712006
751.520020,273.279999,497.760010
757.375977,267.424011,491.903992
757.375977,267.424011,497.760010
771.039978,263.519989,489.951996
782.752014,257.664001,505.567993
780.799988,251.807999,501.664001
792.512024,242.048004,505.567993
784.703979,234.240005,513.375977
792.512024,240.095993,525.088013
798.367981,240.095993,519.231995
794.463989,238.143997,528.992004
794.463989,238.143997,527.039978
800.320007,226.432007,534.848022
800.320007,240.095993,548.512024
813.984009,228.384003,546.559998
815.935974,220.576004,554.367981
817.888000,220.576004,568.031982
813.984009,214.720001,558.271973
813.984009,216.671997,552.416016
825.695984,220.576004,558.271973
821.791992,224.479996,548.512024
823.744019,220.576004,536.799988
815.935974,204.960007,536.799988
823.744019,212.768005,536.799988
825.695984,208.863998,540.703979
817.888000,201.056000,525.088013
829.599976,201.056000,519.231995
833.504028,191.296005,513.375977
825.695984,185.440002,499.712006
835.455994,183.488007,503.615997
845.216003,169.824005,503.615997
841.312012,165.919998,505.567993
849.119995,160.063995,499.712006
860.831970,158.112000,505.567993
868.640015,152.255997,503.615997
864.736023,152.255997,503.615997
862.783997,162.016006,497.760010
864.736023,158.112000,491.903992
858.880005,154.207993,499.712006
872.544006,148.352005,491.903992
866.687988,156.160004,497.760010
882.304016,136.639999,497.760010
874.495972,138.591995,497.760010
892.064026,130.783997,501.664001
888.159973,130.783997,501.664001
890.112000,124.928001,499.712006
903.776001,134.688004,499.712006
894.015991,121.024002,489.951996
901.823975,109.311996,491.903992
901.823975,89.792000,478.239990
892.064026,97.599998,482.144012
886.208008,122.975998,474.335999
886.208008,130.783997,460.671997
888.159973,130.783997,460.671997
894.015991,113.216003,447.007996
897.919983,119.071999,445.056000
903.776001,130.783997,441.152008
897.919983,132.735992,445.056000
901.823975,142.496002,443.104004
897.919983,134.688004,443.104004
895.968018,134.688004,437.247986
892.064026,152.255997,437.247986
882.304016,156.160004,443.104004
884.255981,167.871994,458.720001
886.208008,208.863998,464.575989
895.968018,255.712006,460.671997
897.919983,228.384003,466.528015
919.392029,177.632004,452.864014
913.536011,245.951996,448.959991
919.392029,288.895996,448.959991
925.247986,234.240005,454.816010
933.056030,183.488007,435.295990
946.719971,222.528000,425.536011
938.911987,234.240005,435.295990
954.528015,193.248001,429.440002
944.768005,179.584000,419.679993
948.671997,189.343994,406.015991
944.768005,201.056000,407.967987
940.864014,203.007996,398.208008
935.007996,191.296005,400.160004
933.056030,189.343994,390.399994
938.911987,201.056000,388.447998
948.671997,199.104004,382.592010
948.671997,201.056000,384.544006
952.575989,199.104004,384.544006
956.479980,199.104004,363.071991
960.383972,216.671997,370.880005
960.383972,220.576004,366.976013
970.143982,224.479996,368.928009
970.143982,232.287994,368.928009
976.000000,238.143997,384.544006
979.903992,240.095993,386.496002
981.856018,234.240005,396.256012
987.711975,242.048004,394.303986
991.616028,251.807999,396.256012
1001.375977,249.856003,400.160004
1022.848022,259.615997,402.112000
999.424011,253.759995,394.303986
1005.280029,267.424011,402.112000
1011.135986,263.519989,409.920013
1009.184021,271.328003,415.776001
1007.231995,269.376007,435.295990
1020.895996,255.712006,443.104004
1038.463989,255.712006,460.671997
1030.656006,267.424011,468.480011
1040.416016,267.424011,474.335999
1040.416016,261.567993,484.096008
1042.368042,263.519989,491.903992
1048.223999,275.231995,497.760010
1052.128052,261.567993,513.375977
1061.887939,271.328003,517.280029
1059.936035,271.328003,532.895996
1059.936035,259.615997,525.088013
1069.696045,263.519989,528.992004
1073.599976,284.992004,542.656006
1069.696045,283.040009,546.559998
1071.647949,267.424011,544.607971
1052.128052,283.040009,552.416016
1067.744019,277.183990,560.223999
1104.832031,245.951996,569.984009
1100.927979,245.951996,568.031982
1116.543945,244.000000,560.223999
1120.447998,263.519989,577.791992
1126.303955,238.143997,585.599976
1122.400024,216.671997,605.119995
1132.160034,199.104004,624.640015
1124.352051,203.007996,640.255981
1114.592041,183.488007,669.536011
1106.784058,156.160004,692.960022
1102.880005,138.591995,708.575989
1102.880005,111.264000,712.479980
1100.927979,85.888000,724.192017
1091.167969,60.512001,741.760010
1089.215942,42.944000,743.711975
1089.215942,44.896000,757.375977
1081.407959,60.512001,761.280029
1091.167969,64.416000,761.280029
1087.264038,89.792000,759.328003
1089.215942,119.071999,763.231995
1075.552002,148.352005,759.328003
1061.887939,208.863998,755.424011
1050.176025,327.936005,737.856018
1071.647949,392.351990,747.616028
1081.407959,245.951996,728.096008
1036.511963,128.832001,694.911987
1007.231995,242.048004,659.776001
997.471985,372.832001,640.255981
991.616028,306.463989,618.783997
1018.943970,148.352005,591.455994
1034.560059,148.352005,571.935974
1046.271973,203.007996,562.176025
1032.608032,177.632004,548.512024
1020.895996,105.407997,544.607971
1009.184021,85.888000,534.848022
997.471985,119.071999,523.135986
977.952026,117.120003,517.280029
960.383972,97.599998,499.712006
954.528015,113.216003,493.855988
966.239990,121.024002,489.951996
950.624023,115.167999,489.951996
948.671997,150.304001,484.096008
958.432007,175.679993,478.239990
950.624023,177.632004,474.335999
954.528015,128.832001,470.432007
958.432007,91.744003,482.144012
952.575989,91.744003,460.671997
950.624023,95.648003,454.816010
950.624023,122.975998,452.864014
935.007996,128.832001,462.623993
938.911987,126.879997,452.864014
929.151978,121.024002,450.911987
923.296021,128.832001,443.104004
933.056030,136.639999,439.200012
948.671997,142.496002,439.200012
958.432007,117.120003,439.200012
960.383972,124.928001,441.152008
964.288025,134.688004,454.816010
964.288025,124.928001,458.720001
974.047974,122.975998,443.104004
936.960022,132.735992,441.152008
946.719971,142.496002,452.864014
950.624023,150.304001,464.575989
931.104004,146.399994,468.480011
925.247986,142.496002,460.671997
921.343994,156.160004,468.480011
931.104004,160.063995,462.623993
929.151978,148.352005,452.864014
921.343994,146.399994,458.720001
921.343994,152.255997,458.720001
911.583984,148.352005,468.480011
892.064026,138.591995,464.575989
895.968018,154.207993,460.671997
903.776001,152.255997,460.671997
895.968018,150.304001,460.671997
905.728027,146.399994,448.959991
886.208008,154.207993,437.247986
874.495972,162.016006,419.679993
872.544006,167.871994,417.727997
864.736023,163.968002,411.872009
854.976013,148.352005,407.967987
868.640015,154.207993,404.063995
874.495972,146.399994,396.256012
876.447998,162.016006,394.303986
874.495972,152.255997,388.447998
876.447998,152.255997,398.208008
874.495972,158.112000,398.208008
880.351990,162.016006,398.208008
868.640015,156.160004,390.399994
876.447998,169.824005,382.592010
876.447998,167.871994,392.351990
872.544006,175.679993,396.256012
878.400024,179.584000,402.112000
886.208008,199.104004,409.920013
874.495972,191.296005,413.824005
882.304016,189.343994,409.920013
892.064026,163.968002,421.631989
913.536011,169.824005,441.152008
931.104004,160.063995,445.056000
933.056030,163.968002,443.104004
938.911987,169.824005,450.911987
950.624023,169.824005,450.911987
946.719971,152.255997,437.247986
933.056030,179.584000,447.007996
935.007996,204.960007,443.104004
921.343994,228.384003,454.816010
903.776001,204.960007,448.959991
907.679993,156.160004,447.007996
886.208008,154.207993,454.816010
866.687988,138.591995,462.623993
917.440002,54.655998,433.343994
833.504028,17.568001,394.303986
786.656006,27.327999,363.071991
794.463989,91.744003,345.503998
804.223999,154.207993,335.743988
823.744019,117.120003,324.032013
853.023987,58.560001,320.127991
858.880005,33.183998,312.320007
874.495972,64.416000,310.368011
864.736023,97.599998,304.511993
870.591980,89.792000,304.511993
864.736023,58.560001,302.559998
880.351990,19.520000,310.368011
888.159973,19.520000,320.127991
878.400024,21.472000,304.511993
894.015991,-37.088001,316.223999
913.536011,-105.407997,320.127991
925.247986,-130.783997,314.272003
911.583984,-91.744003,304.511993
923.296021,-11.712000,312.320007
894.015991,15.616000,318.175995
897.919983,-21.472000,325.984009
897.919983,-81.984001,325.984009
903.776001,-85.888000,322.079987
907.679993,-40.992001,320.127991
890.112000,-25.375999,320.127991
897.919983,-64.416000,320.127991
911.583984,-95.648003,322.079987
931.104004,-126.879997,314.272003
940.864014,-115.167999,304.511993
944.768005,-78.080002,304.511993
936.960022,-35.136002,304.511993
933.056030,-39.040001,327.936005
950.624023,-78.080002,329.888000
960.383972,-105.407997,329.888000
977.952026,-85.888000,339.648010
974.047974,-64.416000,351.359985
991.616028,-54.655998,359.167999
997.471985,-72.223999,366.976013
1009.184021,-111.264000,392.351990
1007.231995,-124.928001,404.063995
999.424011,-136.639999,404.063995
1067.744019,-199.104004,406.015991
1022.848022,-201.056000,398.208008
991.616028,-117.120003,398.208008
995.520020,-40.992001,413.824005
995.520020,-40.992001,409.920013
1015.039978,-119.071999,417.727997
1044.319946,-163.968002,423.584015
1048.223999,-136.639999,423.584015
1061.887939,-81.984001,437.247986
1067.744019,-87.839996,437.247986
1102.880005,-162.016006,447.007996
1134.112061,-210.815994,450.911987
1138.015991,-204.960007,474.335999
1112.640015,-187.391998,493.855988
1093.119995,-281.088013,501.664001
1095.072021,-413.824005,550.463989
1104.832031,-402.112000,628.544006
1061.887939,-251.807999,712.479980
1005.280029,-228.384003,780.799988
1024.800049,-363.071991,812.031982
1067.744019,-427.488007,796.416016
1112.640015,-331.839996,774.943970
1114.592041,-271.328003,722.239990
1120.447998,-296.704010,675.392029
1173.151978,-339.648010,659.776001
1188.767944,-318.175995,630.495972
1210.239990,-290.847992,609.023987
1194.624023,-304.511993,575.840027
1210.239990,-304.511993,548.512024
1202.432007,-300.608002,538.752014
1214.144043,-288.895996,515.328003
1206.336060,-283.040009,499.712006
1171.199951,-294.752014,474.335999
1085.312012,-281.088013,450.911987
1024.800049,-91.744003,411.872009
966.239990,31.232000,374.783997
970.143982,1.952000,335.743988
985.760010,-44.896000,310.368011
1005.280029,-44.896000,271.328003
1032.608032,-15.616000,247.904007
1059.936035,-27.327999,232.287994
1089.215942,-66.367996,218.623993
1098.975952,-81.984001,210.815994
1106.784058,-56.608002,212.768005
1104.832031,-23.424000,218.623993
1130.208008,-35.136002,222.528000
659.776001,-9.760000,203.007996
972.096008,265.471985,193.248001
938.911987,234.240005,167.871994
1015.039978,29.280001,150.304001
1139.968018,103.456001,122.975998
1052.128052,183.488007,122.975998
1007.231995,158.112000,105.407997
952.575989,191.296005,103.456001
952.575989,267.424011,113.216003
989.664001,21.472000,199.104004
1034.560059,44.896000,214.720001
1190.719971,35.136002,214.720001
892.064026,64.416000,206.912003
991.616028,245.951996,181.535995
728.096008,144.447998,187.391998
1018.943970,-152.255997,191.296005
938.911987,48.799999,183.488007
1026.751953,324.032013,177.632004
890.112000,122.975998,185.440002
966.239990,-17.568001,189.343994
1026.751953,-27.327999,214.720001
1083.359985,76.127998,234.240005
1081.407959,31.232000,263.519989
1095.072021,-7.808000,298.656006
1145.823975,-40.992001,325.984009
1157.536011,-23.424000,359.167999
1118.495972,80.031998,382.592010
1077.504028,119.071999,406.015991
1061.887939,121.024002,429.440002
1056.031982,222.528000,447.007996
1040.416016,322.079987,464.575989
1011.135986,230.335999,497.760010
1112.640015,191.296005,534.848022
1116.543945,242.048004,560.223999
1124.352051,255.712006,581.695984
1116.543945,195.199997,595.359985
1120.447998,152.255997,595.359985
1098.975952,183.488007,597.312012
1056.031982,240.095993,603.168030
1028.703979,240.095993,603.168030
1028.703979,179.584000,601.216003
1102.880005,150.304001,597.312012
1132.160034,175.679993,599.263977
1136.063965,189.343994,605.119995
1126.303955,173.727997,599.263977
1104.832031,124.928001,599.263977
1091.167969,99.552002,597.312012
1085.312012,126.879997,597.312012
1067.744019,95.648003,599.263977
1044.319946,72.223999,603.168030
1034.560059,54.655998,605.119995
1067.744019,-21.472000,603.168030
1059.936035,-44.896000,579.744019
1048.223999,11.712000,554.367981
1036.511963,-5.856000,530.943970
966.239990,-21.472000,486.048004
970.143982,70.272003,482.144012
976.000000,89.792000,441.152008
970.143982,76.127998,407.967987
966.239990,138.591995,376.735992
899.872009,183.488007,343.552002
872.544006,152.255997,304.511993
880.351990,199.104004,284.992004
903.776001,238.143997,257.664001
894.015991,124.928001,232.287994
923.296021,48.799999,214.720001
933.056030,70.272003,195.199997
915.487976,7.808000,183.488007
921.343994,-13.664000,173.727997
913.536011,-23.424000,158.112000
905.728027,-1.952000,144.447998
886.208008,33.183998,132.735992
870.591980,37.088001,132.735992
864.736023,31.232000,119.071999
849.119995,99.552002,107.360001
862.783997,130.783997,91.744003
819.840027,83.935997,87.839996
794.463989,109.311996,70.272003
778.848022,216.671997,58.560001
732.000000,214.720001,46.848000
751.520020,185.440002,25.375999
786.656006,89.792000,13.664000
823.744019,21.472000,-17.568001
827.648010,95.648003,-27.327999
847.168030,58.560001,-25.375999
839.359985,-25.375999,-25.375999
868.640015,23.424000,-21.472000
835.455994,74.176003,-13.664000
843.263977,50.751999,-7.808000
851.072021,56.608002,9.760000
837.408020,68.320000,17.568001
839.359985,64.416000,23.424000
841.312012,81.984001,29.280001
716.383972,195.199997,113.216003
722.239990,158.112000,378.687988
728.096008,-329.888000,390.399994
802.271973,-156.160004,169.824005
897.919983,284.992004,-25.375999
903.776001,46.848000,-72.223999
880.351990,-158.112000,54.655998
851.072021,-121.024002,232.287994
819.840027,-173.727997,220.576004
854.976013,13.664000,97.599998
886.208008,189.343994,7.808000
874.495972,-19.520000,5.856000
851.072021,-35.136002,64.416000
829.599976,171.776001,113.216003
833.504028,103.456001,62.464001
847.168030,95.648003,0.000000
878.400024,203.007996,-15.616000
854.976013,60.512001,25.375999
907.679993,-60.512001,142.496002
972.096008,23.424000,320.127991
946.719971,255.712006,476.287994
1005.280029,443.104004,507.519989
1024.800049,238.143997,466.528015
1015.039978,124.928001,445.056000
985.760010,121.024002,421.631989
950.624023,37.088001,366.976013
925.247986,-109.311996,294.752014
903.776001,-199.104004,236.192001
892.064026,-162.016006,187.391998
1163.391968,-322.079987,124.928001
976.000000,-618.783997,101.503998
1065.791992,-597.312012,54.655998
689.056030,-220.576004,42.944000
815.935974,226.432007,-42.944000
759.328003,394.303986,-113.216003
837.408020,173.727997,-113.216003
860.831970,25.375999,-115.167999
1011.135986,27.327999,-144.447998
956.479980,-160.063995,-140.544006
993.567993,-355.264008,-119.071999
991.616028,-404.063995,-132.735992
976.000000,-390.399994,-162.016006
870.591980,-312.320007,-169.824005
931.104004,-74.176003,-216.671997
886.208008,165.919998,-273.279999
759.328003,292.799988,-288.895996
894.015991,329.888000,-365.023987
819.840027,249.856003,-400.160004
769.088013,74.176003,-411.872009
761.280029,23.424000,-402.112000
876.447998,-52.703999,-409.920013
942.815979,-201.056000,-386.496002
1034.560059,-333.791992,-366.976013
1065.791992,-585.599976,-333.791992
1057.984009,-1022.848022,-273.279999
1024.800049,-1249.280029,-195.199997
1024.800049,-718.335999,-111.264000
983.807983,333.791992,-54.655998
884.255981,1147.776001,9.760000
923.296021,1624.063965,101.503998
1005.280029,1600.640015,191.296005
966.239990,780.799988,269.376007
1221.952026,-413.824005,286.944000
1268.800049,-1643.583984,331.839996
1376.160034,-2156.959961,345.503998
1102.880005,-1503.040039,406.015991
1046.271973,27.327999,394.303986
1024.800049,1151.680054,345.503998
1220.000000,1440.576050,273.279999
1290.271973,1270.751953,284.992004
1360.543945,1159.488037,296.704010
1278.560059,1139.968018,271.328003
1106.784058,591.455994,259.615997
1147.776001,-493.855988,240.095993
1204.384033,-1342.975952,261.567993
1202.432007,-1432.767944,271.328003
1155.583984,-802.271973,251.807999
1065.791992,62.464001,214.720001
1054.079956,1097.024048,240.095993
1044.319946,1686.527954,320.127991
1161.439941,1823.167969,359.167999
1159.488037,1772.416016,370.880005
1102.880005,1112.640015,366.976013
1257.088013,-247.904007,320.127991
1243.423950,-1536.223999,312.320007
1397.631958,-1889.536011,249.856003
1007.231995,-1319.552002,279.135986
1016.992004,109.311996,259.615997
1208.287964,1253.183960,224.479996
1098.975952,1411.296021,232.287994
1044.319946,931.104004,230.335999
1147.776001,376.735992,222.528000
1212.192017,-283.040009,234.240005
1196.576050,-794.463989,234.240005
1259.040039,-730.047974,232.287994
1370.303955,-259.615997,179.584000
1122.400024,109.311996,183.488007
1036.511963,329.888000,156.160004
1059.936035,439.200012,83.935997
1020.895996,365.023987,21.472000
948.671997,181.535995,-17.568001
933.056030,35.136002,-35.136002
1001.375977,-31.232000,-50.751999
1054.079956,-64.416000,-25.375999
1106.784058,11.712000,-15.616000
1083.359985,249.856003,-23.424000
1052.128052,515.328003,-50.751999
1036.511963,757.375977,-56.608002
1056.031982,917.440002,-101.503998
983.807983,970.143982,-113.216003
966.239990,866.687988,-126.879997
923.296021,724.192017,-130.783997
946.719971,650.015991,-163.968002
1048.223999,763.231995,-199.104004
952.575989,1100.927979,-167.871994
956.479980,1399.583984,-99.552002
880.351990,1331.264038,-76.127998
946.719971,691.007996,-113.216003
1036.511963,-528.992004,-115.167999
1130.208008,-1862.208008,-74.176003
1044.319946,-1832.927979,-44.896000
1054.079956,-480.191986,-46.848000
1083.359985,882.304016,-25.375999
1130.208008,1309.791992,-17.568001
1136.063965,825.695984,-35.136002
1143.871948,-113.216003,-80.031998
1143.871948,-788.607971,-138.591995
1050.176025,-782.752014,-173.727997
944.768005,-177.632004,-228.384003
853.023987,499.712006,-329.888000
810.080017,1007.231995,-406.015991
794.463989,1780.223999,-386.496002
720.288025,2475.135986,-320.127991
716.383972,1788.031982,-242.048004
753.471985,-251.807999,-238.143997
966.239990,-1998.848022,-355.264008
1157.536011,-2861.632080,-495.808014
944.768005,-2414.624023,-499.712006
536.799988,-786.656006,-464.575989
472.384003,1056.031982,-497.760010
628.544006,2055.456055,-536.799988
728.096008,1961.760010,-521.184021
862.783997,958.432007,-503.615997
999.424011,-312.320007,-554.367981
1116.543945,-1294.176025,-657.823975
1118.495972,-1590.880005,-732.000000
1184.864014,-1130.208008,-866.687988
974.047974,-517.280029,-849.119995
728.096008,573.888000,-653.919983
564.127991,1407.391968,-396.256012
720.288025,1622.112061,-232.287994
847.168030,1458.144043,-103.456001
1087.264038,722.239990,-25.375999
1048.223999,-566.080017,48.799999
1095.072021,-1583.072021,48.799999
1292.223999,-1690.432007,-66.367996
866.687988,-1071.647949,-136.639999
609.023987,515.328003,-204.960007
499.712006,1996.895996,-52.703999
1054.079956,2506.367920,122.975998
983.807983,2545.407959,277.183990
1102.880005,1704.095947,218.623993
983.807983,-507.519989,156.160004
1157.536011,-2496.607910,15.616000
1175.104004,-2847.968018,-56.608002
1147.776001,-1538.176025,-121.024002
923.296021,368.928009,-119.071999
976.000000,1674.816040,-201.056000
1095.072021,2057.407959,-329.888000
1056.031982,1464.000000,-345.503998
995.520020,-19.520000,-355.264008
1138.015991,-1891.488037,-318.175995
1120.447998,-2939.711914,-144.447998
856.927979,-2121.823975,-5.856000
985.760010,-158.112000,-66.367996
728.096008,1114.592041,-27.327999
993.567993,1553.791992,-132.735992
901.823975,1653.343994,-191.296005
1011.135986,1581.119995,-361.119995
935.007996,1520.608032,-464.575989
710.528015,607.072021,-491.903992
946.719971,-1309.791992,-659.776001
860.831970,-2436.095947,-702.719971
813.984009,-2022.271973,-747.616028
798.367981,-683.200012,-819.840027
728.096008,702.719971,-843.263977
689.056030,1520.608032,-849.119995
722.239990,1633.823975,-919.392029
849.119995,1311.744019,-1007.231995
849.119995,302.559998,-1007.231995
929.151978,-946.719971,-944.768005
1001.375977,-1450.336060,-778.848022
599.263977,-977.952026,-499.712006
786.656006,142.496002,-480.191986
694.911987,1114.592041,-415.776001
657.823975,1491.328003,-407.967987
642.208008,1243.423950,-458.720001
743.711975,290.847992,-525.088013
874.495972,-968.192017,-562.176025
1018.943970,-1696.287964,-552.416016
1108.735962,-1559.647949,-503.615997
1124.352051,-874.495972,-478.239990
1149.728027,-206.912003,-409.920013
1305.887939,146.399994,-189.343994
1620.160034,-39.040001,324.032013
1991.040039,-714.432007,1313.696045
2170.624023,-1709.952026,2849.919922
2959.231934,-2568.832031,4337.344238
3935.231934,-2580.543945,5293.824219
4561.824219,-714.432007,5047.872070
4786.304199,821.791992,4216.319824
3943.040039,640.255981,3517.503906
3052.927979,411.872009,2334.592041
2102.303955,771.039978,853.023987
1477.663940,962.335999,-365.023987
1038.463989,901.823975,-1020.895996
534.848022,669.536011,-1307.839966
370.880005,511.424011,-1506.943970
115.167999,450.911987,-1569.407959
87.839996,396.256012,-1633.823975
99.552002,388.447998,-1590.880005
230.335999,357.216003,-1434.719971
509.471985,271.328003,-1091.167969
894.015991,136.639999,-573.888000
1364.447998,-62.464001,5.856000
1194.624023,-226.432007,780.799988
1663.104004,-511.424011,1104.832031
2032.031982,-702.719971,913.536011
1801.696045,-663.679993,472.384003
308.415985,-351.359985,437.247986
1462.047974,-206.912003,-206.912003
1585.024048,-119.071999,-534.848022
1600.640015,-536.799988,-669.536011
1460.095947,-800.320007,-472.384003
2110.112061,-534.848022,-685.151978
1620.160034,-181.535995,-755.424011
802.271973,60.512001,-605.119995
911.583984,222.528000,-493.855988
876.447998,312.320007,-347.455994
1319.552002,316.223999,-468.480011
540.703979,544.607971,-308.415985
359.167999,687.104004,-392.351990
747.616028,573.888000,-755.424011
821.791992,542.656006,-894.015991
890.112000,507.519989,-698.815979
874.495972,314.272003,-310.368011
991.616028,128.832001,-93.695999
1085.312012,42.944000,-76.127998
1141.920044,-15.616000,-103.456001
1177.056030,-50.751999,-91.744003
1149.728027,-70.272003,-50.751999
1169.248047,-80.031998,-83.935997
1141.920044,-138.591995,-160.063995
1206.336060,-445.056000,-249.856003
1138.015991,-776.895996,-306.463989
1071.647949,-786.656006,-433.343994
964.288025,-542.656006,-548.512024
931.104004,-333.791992,-597.312012
913.536011,-409.920013,-527.039978
856.927979,-566.080017,-466.528015
796.416016,-445.056000,-466.528015
767.135986,-230.335999,-472.384003
817.888000,-165.919998,-472.384003
853.023987,-212.768005,-443.104004
874.495972,-212.768005,-445.056000
823.744019,-62.464001,-435.295990
833.504028,169.824005,-402.112000
868.640015,411.872009,-351.359985
948.671997,671.487976,-259.615997
1056.031982,794.463989,-158.112000
1136.063965,796.416016,-72.223999
1225.855957,771.039978,-40.992001
1262.943970,726.143982,-78.080002
1245.375977,651.968018,-173.727997
1214.144043,573.888000,-261.567993
1175.104004,515.328003,-322.079987
1190.719971,470.432007,-349.407990
1221.952026,437.247986,-351.359985
1184.864014,427.488007,-382.592010
921.343994,528.992004,-384.544006
890.112000,261.567993,-443.104004
841.312012,-447.007996,-491.903992
872.544006,-1130.208008,-564.127991
833.504028,-1561.599976,-675.392029
763.231995,-1380.063965,-778.848022
700.768005,-917.440002,-788.607971
671.487976,-568.031982,-655.872009
778.848022,-304.511993,-491.903992
884.255981,33.183998,-421.631989
997.471985,283.040009,-423.584015
1056.031982,374.783997,-454.816010
1233.663940,368.928009,-521.184021
1227.807983,312.320007,-554.367981
991.616028,419.679993,-530.943970
977.952026,257.664001,-458.720001
1075.552002,146.399994,-462.623993
1243.423950,136.639999,-454.816010
1307.839966,58.560001,-365.023987
1292.223999,-66.367996,-325.984009
1235.615967,-132.735992,-335.743988
1235.615967,-224.479996,-372.832001
1243.423950,-261.567993,-456.768005
1216.095947,-255.712006,-499.712006
1200.479980,-238.143997,-499.712006
1198.527954,-132.735992,-521.184021
1239.520020,-15.616000,-536.799988
1214.144043,218.623993,-501.664001
1167.296021,460.671997,-445.056000
1204.384033,575.840027,-363.071991
1268.800049,640.255981,-267.424011
1352.735962,659.776001,-201.056000
1421.056030,661.728027,-234.240005
1383.968018,636.351990,-265.471985
1339.072021,610.976013,-279.135986
1317.599976,609.023987,-312.320007
1298.079956,575.840027,-343.552002
1264.895996,558.271973,-292.799988
1212.192017,571.935974,-273.279999
1194.624023,540.703979,-339.648010
1188.767944,443.104004,-335.743988
1182.911987,366.976013,-325.984009
1202.432007,312.320007,-333.791992
1220.000000,283.040009,-349.407990
1220.000000,333.791992,-339.648010
1255.135986,503.615997,-365.023987
1274.656006,640.255981,-357.216003
1292.223999,837.408020,-312.320007
1303.936035,907.679993,-283.040009
1087.264038,683.200012,-201.056000
1303.936035,583.648010,-181.535995
1268.800049,-989.664001,-183.488007
1106.784058,-3554.592041,-560.223999
460.671997,-1095.072021,-1426.911987
195.199997,378.687988,-1444.479980
669.536011,-343.552002,-642.208008
868.640015,-854.976013,58.560001
987.711975,-165.919998,95.648003
1089.215942,93.695999,-50.751999
1120.447998,-93.695999,-195.199997
1083.359985,224.479996,-417.727997
1044.319946,564.127991,-556.320007
1024.800049,579.744019,-597.312012
1038.463989,571.935974,-548.512024
1073.599976,482.144012,-447.007996
1077.504028,322.079987,-316.223999
1091.167969,171.776001,-261.567993
1056.031982,93.695999,-320.127991
1038.463989,15.616000,-433.343994
1009.184021,-13.664000,-491.903992
999.424011,9.760000,-513.375977
991.616028,76.127998,-489.951996
1013.088013,165.919998,-441.152008
1038.463989,179.584000,-390.399994
1067.744019,177.632004,-374.783997
1079.456055,193.248001,-413.824005
1067.744019,197.151993,-445.056000
1065.791992,191.296005,-441.152008
1065.791992,247.904007,-427.488007
1075.552002,240.095993,-423.584015
1071.647949,226.432007,-421.631989
1054.079956,226.432007,-411.872009
1034.560059,199.104004,-411.872009
1024.800049,163.968002,-429.440002
1015.039978,156.160004,-443.104004
1007.231995,167.871994,-484.096008
1007.231995,160.063995,-493.855988
995.520020,173.727997,-458.720001
1011.135986,197.151993,-452.864014
1020.895996,181.535995,-452.864014
1026.751953,214.720001,-464.575989
1018.943970,179.584000,-472.384003
1007.231995,179.584000,-384.544006
1003.328003,175.679993,-464.575989
993.567993,126.879997,-468.480011
968.192017,165.919998,-454.816010
960.383972,158.112000,-423.584015
946.719971,171.776001,-435.295990
935.007996,162.016006,-456.768005
929.151978,163.968002,-497.760010
933.056030,191.296005,-528.992004
925.247986,236.192001,-527.039978
917.440002,220.576004,-527.039978
915.487976,204.960007,-486.048004
931.104004,158.112000,-454.816010
923.296021,140.544006,-454.816010
907.679993,93.695999,-443.104004
903.776001,76.127998,-429.440002
874.495972,56.608002,-423.584015
868.640015,76.127998,-462.623993
864.736023,70.272003,-515.328003
876.447998,119.071999,-517.280029
903.776001,122.975998,-534.848022
938.911987,314.272003,-542.656006
948.671997,650.015991,-540.703979
946.719971,909.632019,-478.239990
1005.280029,851.072021,-368.928009
1044.319946,513.375977,-324.032013
1059.936035,162.016006,-380.640015
1024.800049,37.088001,-363.071991
991.616028,5.856000,-376.735992
962.335999,70.272003,-353.312012
956.479980,163.968002,-361.119995
960.383972,212.768005,-378.687988
991.616028,271.328003,-390.399994
1007.231995,284.992004,-396.256012
1026.751953,275.231995,-388.447998
1057.984009,244.000000,-423.584015
1079.456055,283.040009,-427.488007
1075.552002,304.511993,-386.496002
1061.887939,308.415985,-357.216003
1056.031982,265.471985,-406.015991
1030.656006,232.287994,-445.056000
1018.943970,218.623993,-450.911987
1018.943970,222.528000,-448.959991
1020.895996,253.759995,-437.247986
1028.703979,236.192001,-439.200012
1022.848022,222.528000,-484.096008
1015.039978,245.951996,-513.375977
1013.088013,279.135986,-495.808014
1013.088013,263.519989,-454.816010
1013.088013,222.528000,-448.959991
1011.135986,177.632004,-478.239990
999.424011,156.160004,-509.471985
989.664001,140.544006,-538.752014
993.567993,105.407997,-523.135986
993.567993,54.655998,-546.559998
972.096008,85.888000,-546.559998
968.192017,117.120003,-509.471985
974.047974,122.975998,-536.799988
956.479980,105.407997,-566.080017
944.768005,119.071999,-558.271973
940.864014,122.975998,-569.984009
940.864014,130.783997,-577.791992
942.815979,132.735992,-538.752014
942.815979,140.544006,-532.895996
929.151978,107.360001,-552.416016
931.104004,64.416000,-550.463989
925.247986,87.839996,-573.888000
915.487976,122.975998,-583.648010
911.583984,148.352005,-614.880005
892.064026,158.112000,-616.831970
862.783997,154.207993,-560.223999
847.168030,117.120003,-575.840027
862.783997,-11.712000,-605.119995
882.304016,54.655998,-591.455994
880.351990,128.832001,-505.567993
853.023987,113.216003,-425.536011
825.695984,39.040001,-390.399994
823.744019,-29.280001,-445.056000
763.231995,-109.311996,-480.191986
665.632019,-144.447998,-505.567993
642.208008,-85.888000,-556.320007
706.624023,-31.232000,-550.463989
780.799988,78.080002,-488.000000
829.599976,115.167999,-382.592010
890.112000,33.183998,-345.503998
942.815979,-136.639999,-284.992004
931.104004,-277.183990,-208.863998
940.864014,-353.312012,-193.248001
944.768005,-390.399994,-230.335999
919.392029,-284.992004,-263.519989
899.872009,-146.399994,-288.895996
927.200012,-15.616000,-365.023987
985.760010,70.272003,-462.623993
1036.511963,103.456001,-513.375977
1079.456055,48.799999,-488.000000
1138.015991,-15.616000,-437.247986
1159.488037,-113.216003,-404.063995
1171.199951,-167.871994,-409.920013
1157.536011,-197.151993,-452.864014
1116.543945,-193.248001,-513.375977
1077.504028,-130.783997,-579.744019
1050.176025,-37.088001,-642.208008
1030.656006,56.608002,-677.343994
999.424011,97.599998,-718.335999
977.952026,113.216003,-749.567993
954.528015,85.888000,-776.895996
927.200012,56.608002,-778.848022
919.392029,29.280001,-780.799988
907.679993,33.183998,-786.656006
911.583984,42.944000,-788.607971
913.536011,81.984001,-778.848022
899.872009,128.832001,-774.943970
884.255981,148.352005,-776.895996
915.487976,167.871994,-796.416016
942.815979,201.056000,-765.184021
970.143982,179.584000,-698.815979
976.000000,171.776001,-655.872009
968.192017,136.639999,-663.679993
966.239990,124.928001,-685.151978
995.520020,185.440002,-675.392029
1034.560059,245.951996,-624.640015
1032.608032,249.856003,-579.744019
1032.608032,242.048004,-556.320007
1022.848022,206.912003,-564.127991
1036.511963,189.343994,-573.888000
1056.031982,197.151993,-548.512024
1059.936035,220.576004,-513.375977
1079.456055,234.240005,-507.519989
1073.599976,257.664001,-509.471985
1071.647949,257.664001,-517.280029
1079.456055,247.904007,-532.895996
1081.407959,238.143997,-519.231995
1087.264038,234.240005,-505.567993
1093.119995,236.192001,-501.664001
1087.264038,222.528000,-507.519989
1083.359985,218.623993,-517.280029
1061.887939,181.535995,-503.615997
1065.791992,181.535995,-470.432007
1069.696045,150.304001,-474.335999
1087.264038,128.832001,-464.575989
1075.552002,105.407997,-452.864014
1067.744019,117.120003,-460.671997
1048.223999,134.688004,-476.287994
1022.848022,124.928001,-486.048004
1015.039978,140.544006,-497.760010
1020.895996,107.360001,-497.760010
1026.751953,91.744003,-478.239990
1034.560059,89.792000,-468.480011
1040.416016,93.695999,-476.287994
1044.319946,93.695999,-482.144012
1022.848022,87.839996,-503.615997
1020.895996,91.744003,-503.615997
1022.848022,95.648003,-509.471985
1013.088013,89.792000,-511.424011
1020.895996,99.552002,-505.567993
1016.992004,107.360001,-499.712006
1020.895996,105.407997,-499.712006
999.424011,87.839996,-513.375977
989.664001,81.984001,-513.375977
976.000000,76.127998,-515.328003
972.096008,68.320000,-542.656006
979.903992,70.272003,-534.848022
974.047974,74.176003,-528.992004
960.383972,68.320000,-544.607971
970.143982,70.272003,-548.512024
964.288025,72.223999,-560.223999
964.288025,70.272003,-552.416016
958.432007,46.848000,-560.223999
948.671997,42.944000,-560.223999
940.864014,50.751999,-566.080017
940.864014,54.655998,-564.127991
935.007996,46.848000,-564.127991
938.911987,50.751999,-573.888000
933.056030,48.799999,-575.840027
933.056030,31.232000,-575.840027
936.960022,27.327999,-581.695984
927.200012,19.520000,-579.744019
931.104004,27.327999,-581.695984
929.151978,33.183998,-564.127991
931.104004,35.136002,-573.888000
931.104004,33.183998,-566.080017
927.200012,29.280001,-571.935974
935.007996,33.183998,-571.935974
929.151978,27.327999,-560.223999
931.104004,33.183998,-560.223999
921.343994,37.088001,-556.320007
927.200012,27.327999,-560.223999
929.151978,33.183998,-558.271973
929.151978,23.424000,-552.416016
936.960022,19.520000,-550.463989
942.815979,35.136002,-544.607971
933.056030,35.136002,-540.703979
931.104004,54.655998,-538.752014
935.007996,58.560001,-538.752014
935.007996,50.751999,-548.512024
938.911987,48.799999,-536.799988
935.007996,39.040001,-517.280029
935.007996,35.136002,-511.424011
927.200012,35.136002,-509.471985
933.056030,42.944000,-513.375977
935.007996,39.040001,-515.328003
936.960022,48.799999,-507.519989
942.815979,42.944000,-507.519989
944.768005,39.040001,-501.664001
938.911987,37.088001,-503.615997
929.151978,44.896000,-511.424011
929.151978,39.040001,-513.375977
915.487976,35.136002,-515.328003
917.440002,33.183998,-513.375977
915.487976,21.472000,-519.231995
907.679993,17.568001,-521.184021
915.487976,15.616000,-517.280029
907.679993,15.616000,-515.328003
903.776001,17.568001,-517.280029
901.823975,13.664000,-513.375977
894.015991,-1.952000,-523.135986
903.776001,-9.760000,-534.848022
899.872009,-11.712000,-523.135986
892.064026,-3.904000,-521.184021
878.400024,-9.760000,-530.943970
804.223999,-23.424000,-517.280029
751.520020,-21.472000,-544.607971
835.455994,-33.183998,-714.432007
952.575989,83.935997,-593.408020
960.383972,5.856000,-415.776001
1013.088013,5.856000,-484.096008
976.000000,-119.071999,-550.463989
886.208008,-142.496002,-538.752014
854.976013,-21.472000,-575.840027
831.552002,-62.464001,-556.320007
829.599976,31.232000,-573.888000
860.831970,80.031998,-550.463989
876.447998,21.472000,-534.848022
897.919983,33.183998,-548.512024
907.679993,-31.232000,-519.231995
907.679993,-31.232000,-511.424011
862.783997,-15.616000,-521.184021
835.455994,33.183998,-546.559998
808.127991,29.280001,-571.935974
817.888000,19.520000,-589.504028
907.679993,-68.320000,-564.127991
1007.231995,-37.088001,-480.191986
1046.271973,27.327999,-398.208008
976.000000,-11.712000,-441.152008
874.495972,19.520000,-564.127991
802.271973,-23.424000,-618.783997
819.840027,50.751999,-597.312012
872.544006,87.839996,-505.567993
935.007996,33.183998,-468.480011
948.671997,-15.616000,-468.480011
927.200012,-31.232000,-505.567993
905.728027,13.664000,-534.848022
895.968018,62.464001,-538.752014
903.776001,68.320000,-527.039978
923.296021,23.424000,-505.567993
921.343994,-13.664000,-501.664001
925.247986,-25.375999,-507.519989
905.728027,-3.904000,-521.184021
915.487976,25.375999,-528.992004
913.536011,40.992001,-517.280029
917.440002,27.327999,-513.375977
919.392029,1.952000,-521.184021
913.536011,-19.520000,-528.992004
913.536011,-17.568001,-525.088013
913.536011,1.952000,-513.375977
905.728027,3.904000,-523.135986
837.408020,-11.712000,-503.615997
771.039978,-44.896000,-583.648010
841.312012,-7.808000,-712.479980
964.288025,68.320000,-495.808014
1011.135986,42.944000,-355.264008
1063.839966,-29.280001,-476.287994
997.471985,-121.024002,-525.088013
927.200012,-111.264000,-519.231995
895.968018,1.952000,-532.895996
856.927979,-13.664000,-501.664001
833.504028,76.127998,-546.559998
833.504028,128.832001,-536.799988
868.640015,-9.760000,-538.752014
974.047974,-13.664000,-548.512024
1048.223999,-64.416000,-447.007996
1110.687988,-7.808000,-357.216003
1022.848022,-5.856000,-407.967987
921.343994,-9.760000,-525.088013
843.263977,-9.760000,-601.216003
839.359985,44.896000,-585.599976
888.159973,80.031998,-497.760010
942.815979,27.327999,-452.864014
976.000000,-23.424000,-448.959991
966.239990,-56.608002,-458.720001
942.815979,-50.751999,-472.384003
925.247986,9.760000,-497.760010
913.536011,40.992001,-513.375977
915.487976,37.088001,-501.664001
901.823975,9.760000,-486.048004
905.728027,-13.664000,-484.096008
905.728027,-35.136002,-489.951996
905.728027,-11.712000,-486.048004
911.583984,15.616000,-466.528015
915.487976,19.520000,-470.432007
913.536011,21.472000,-488.000000
905.728027,13.664000,-491.903992
894.015991,1.952000,-503.615997
884.255981,-3.904000,-493.855988
878.400024,-19.520000,-488.000000
892.064026,-5.856000,-486.048004
899.872009,-7.808000,-493.855988
895.968018,-11.712000,-484.096008
874.495972,5.856000,-478.239990
878.400024,-13.664000,-499.712006
882.304016,-27.327999,-488.000000
886.208008,-7.808000,-480.191986
890.112000,-1.952000,-482.144012
890.112000,-17.568001,-482.144012
874.495972,-17.568001,-470.432007
872.544006,-7.808000,-484.096008
872.544006,-21.472000,-491.903992
870.591980,-23.424000,-484.096008
870.591980,-1.952000,-472.384003
878.400024,-7.808000,-472.384003
872.544006,-15.616000,-470.432007
860.831970,-15.616000,-466.528015
868.640015,-13.664000,-480.191986
870.591980,-15.616000,-468.480011
864.736023,-5.856000,-462.623993
864.736023,-1.952000,-476.287994
854.976013,-21.472000,-462.623993
843.263977,-9.760000,-462.623993
833.504028,-19.520000,-474.335999
849.119995,-21.472000,-470.432007
868.640015,-19.520000,-464.575989
890.112000,-21.472000,-419.679993
913.536011,-48.799999,-394.303986
796.416016,21.472000,-470.432007
704.671997,23.424000,-624.640015
618.783997,212.768005,-698.815979
685.151978,292.799988,-622.687988
888.159973,210.815994,-528.992004
1042.368042,85.888000,-267.424011
915.487976,-197.151993,-224.479996
829.599976,-320.127991,-540.703979
769.088013,-249.856003,-687.104004
796.416016,89.792000,-540.703979
897.919983,316.223999,-417.727997
856.927979,97.599998,-423.584015
687.104004,91.744003,-534.848022
603.168030,-163.968002,-679.296021
571.935974,-87.839996,-659.776001
640.255981,-89.792000,-482.144012
819.840027,-97.599998,-569.984009
1024.800049,23.424000,-458.720001
1042.368042,-40.992001,-253.759995
1013.088013,58.560001,-380.640015
909.632019,-144.447998,-515.328003
825.695984,-212.768005,-581.695984
821.791992,-70.272003,-499.712006
862.783997,-140.544006,-400.160004
925.247986,-39.040001,-413.824005
915.487976,50.751999,-404.063995
925.247986,204.960007,-437.247986
909.632019,253.759995,-478.239990
878.400024,238.143997,-495.808014
866.687988,150.304001,-456.768005
833.504028,-1.952000,-435.295990
815.935974,-35.136002,-435.295990
821.791992,-101.503998,-450.911987
851.072021,-23.424000,-439.200012
866.687988,58.560001,-396.256012
886.208008,50.751999,-396.256012
886.208008,27.327999,-437.247986
884.255981,-35.136002,-452.864014
901.823975,-42.944000,-456.768005
935.007996,-13.664000,-452.864014
936.960022,42.944000,-458.720001
913.536011,109.311996,-489.951996
860.831970,126.879997,-513.375977
821.791992,115.167999,-556.320007
790.559998,78.080002,-573.888000
798.367981,58.560001,-521.184021
835.455994,33.183998,-489.951996
849.119995,33.183998,-493.855988
856.927979,31.232000,-505.567993
851.072021,37.088001,-511.424011
882.304016,56.608002,-489.951996
888.159973,37.088001,-472.384003
894.015991,44.896000,-462.623993
888.159973,40.992001,-462.623993
868.640015,48.799999,-482.144012
853.023987,72.223999,-488.000000
845.216003,93.695999,-493.855988
843.263977,103.456001,-493.855988
851.072021,99.552002,-476.287994
868.640015,74.176003,-458.720001
868.640015,48.799999,-447.007996
880.351990,29.280001,-447.007996
884.255981,11.712000,-445.056000
866.687988,29.280001,-447.007996
872.544006,31.232000,-435.295990
880.351990,40.992001,-448.959991
876.447998,46.848000,-448.959991
868.640015,66.367996,-450.911987
864.736023,80.031998,-450.911987
854.976013,85.888000,-456.768005
851.072021,83.935997,-470.432007
851.072021,85.888000,-480.191986
853.023987,76.127998,-478.239990
849.119995,76.127998,-476.287994
862.783997,66.367996,-470.432007
870.591980,60.512001,-476.287994
882.304016,54.655998,-480.191986
872.544006,60.512001,-484.096008
868.640015,76.127998,-484.096008
856.927979,78.080002,-478.239990
854.976013,97.599998,-493.855988
849.119995,103.456001,-497.760010
853.023987,91.744003,-497.760010
847.168030,91.744003,-495.808014
853.023987,81.984001,-493.855988
856.927979,83.935997,-491.903992
858.880005,72.223999,-489.951996
862.783997,80.031998,-488.000000
862.783997,74.176003,-484.096008
876.447998,80.031998,-474.335999
872.544006,74.176003,-468.480011
880.351990,76.127998,-480.191986
876.447998,68.320000,-462.623993
874.495972,78.080002,-472.384003
866.687988,83.935997,-462.623993
862.783997,95.648003,-460.671997
868.640015,91.744003,-466.528015
870.591980,85.888000,-470.432007
874.495972,83.935997,-460.671997
878.400024,78.080002,-456.768005
895.968018,74.176003,-464.575989
886.208008,72.223999,-458.720001
890.112000,78.080002,-456.768005
876.447998,70.272003,-458.720001
880.351990,80.031998,-466.528015
886.208008,83.935997,-468.480011
884.255981,91.744003,-468.480011
876.447998,85.888000,-476.287994
868.640015,89.792000,-466.528015
864.736023,91.744003,-470.432007
872.544006,97.599998,-472.384003
866.687988,81.984001,-478.239990
868.640015,83.935997,-474.335999
870.591980,85.888000,-478.239990
866.687988,81.984001,-480.191986
870.591980,81.984001,-482.144012
866.687988,95.648003,-472.384003
866.687988,81.984001,-480.191986
868.640015,85.888000,-480.191986
858.880005,89.792000,-480.191986
866.687988,101.503998,-480.191986
872.544006,105.407997,-474.335999
868.640015,93.695999,-478.239990
876.447998,97.599998,-470.432007
870.591980,95.648003,-470.432007
876.447998,97.599998,-478.239990
870.591980,95.648003,-464.575989
876.447998,93.695999,-460.671997
872.544006,99.552002,-462.623993
876.447998,95.648003,-464.575989
872.544006,89.792000,-456.768005
874.495972,99.552002,-458.720001
870.591980,103.456001,-454.816010
864.736023,99.552002,-456.768005
866.687988,107.360001,-460.671997
866.687988,101.503998,-456.768005
872.544006,93.695999,-452.864014
872.544006,87.839996,-454.816010
862.783997,89.792000,-456.768005
862.783997,93.695999,-456.768005
862.783997,87.839996,-454.816010
870.591980,87.839996,-452.864014
872.544006,87.839996,-452.864014
866.687988,83.935997,-447.007996
854.976013,83.935997,-456.768005
860.831970,91.744003,-456.768005
854.976013,97.599998,-456.768005
860.831970,103.456001,-450.911987
864.736023,99.552002,-460.671997
864.736023,83.935997,-464.575989
856.927979,85.888000,-450.911987
853.023987,97.599998,-452.864014
849.119995,89.792000,-454.816010
856.927979,93.695999,-462.623993
860.831970,93.695999,-456.768005
853.023987,93.695999,-448.959991
849.119995,91.744003,-450.911987
845.216003,91.744003,-458.720001
851.072021,85.888000,-456.768005
851.072021,89.792000,-452.864014
847.168030,81.984001,-443.104004
845.216003,81.984001,-439.200012
837.408020,91.744003,-452.864014
849.119995,83.935997,-435.295990
845.216003,81.984001,-443.104004
839.359985,85.888000,-439.200012
837.408020,74.176003,-443.104004
847.168030,72.223999,-447.007996
841.312012,80.031998,-448.959991
841.312012,85.888000,-447.007996
843.263977,68.320000,-437.247986
831.552002,76.127998,-441.152008
831.552002,76.127998,-441.152008
833.504028,72.223999,-445.056000
835.455994,80.031998,-448.959991
831.552002,74.176003,-439.200012
829.599976,81.984001,-435.295990
827.648010,87.839996,-443.104004
829.599976,80.031998,-435.295990
825.695984,93.695999,-448.959991
831.552002,81.984001,-435.295990
837.408020,80.031998,-448.959991
827.648010,87.839996,-443.104004
839.359985,80.031998,-456.768005
837.408020,78.080002,-448.959991
833.504028,83.935997,-445.056000
833.504028,99.552002,-448.959991
831.552002,89.792000,-454.816010
835.455994,89.792000,-454.816010
837.408020,91.744003,-447.007996
835.455994,95.648003,-447.007996
837.408020,87.839996,-452.864014
831.552002,89.792000,-458.720001
833.504028,83.935997,-452.864014
839.359985,89.792000,-447.007996
841.312012,89.792000,-452.864014
845.216003,80.031998,-450.911987
837.408020,83.935997,-450.911987
843.263977,81.984001,-447.007996
853.023987,91.744003,-443.104004
841.312012,87.839996,-450.911987
839.359985,91.744003,-445.056000
845.216003,89.792000,-448.959991
841.312012,87.839996,-452.864014
841.312012,81.984001,-447.007996
845.216003,85.888000,-439.200012
849.119995,81.984001,-445.056000
851.072021,91.744003,-443.104004
854.976013,80.031998,-435.295990
853.023987,87.839996,-445.056000
856.927979,81.984001,-443.104004
860.831970,87.839996,-435.295990
856.927979,81.984001,-437.247986
853.023987,87.839996,-443.104004
853.023987,81.984001,-435.295990
843.263977,83.935997,-437.247986
849.119995,80.031998,-437.247986
854.976013,72.223999,-441.152008
853.023987,70.272003,-437.247986
853.023987,72.223999,-447.007996
860.831970,78.080002,-447.007996
856.927979,81.984001,-441.152008
854.976013,81.984001,-445.056000
847.168030,78.080002,-445.056000
849.119995,78.080002,-443.104004
847.168030,83.935997,-452.864014
851.072021,83.935997,-448.959991
849.119995,70.272003,-448.959991
849.119995,62.464001,-454.816010
841.312012,66.367996,-448.959991
853.023987,74.176003,-454.816010
853.023987,78.080002,-456.768005
851.072021,74.176003,-456.768005
849.119995,74.176003,-447.007996
845.216003,62.464001,-450.911987
841.312012,58.560001,-456.768005
849.119995,62.464001,-458.720001
847.168030,66.367996,-458.720001
847.168030,74.176003,-456.768005
847.168030,72.223999,-458.720001
843.263977,62.464001,-456.768005
847.168030,64.416000,-454.816010
845.216003,60.512001,-445.056000
851.072021,54.655998,-450.911987
849.119995,62.464001,-452.864014
858.880005,68.320000,-450.911987
849.119995,68.320000,-445.056000
841.312012,70.272003,-448.959991
853.023987,62.464001,-448.959991
849.119995,68.320000,-447.007996
843.263977,64.416000,-445.056000
853.023987,62.464001,-448.959991
856.927979,58.560001,-448.959991
856.927979,58.560001,-450.911987
847.168030,52.703999,-452.864014
854.976013,64.416000,-456.768005
862.783997,62.464001,-450.911987
858.880005,62.464001,-448.959991
856.927979,62.464001,-441.152008
862.783997,54.655998,-443.104004
853.023987,62.464001,-439.200012
858.880005,62.464001,-439.200012
853.023987,62.464001,-450.911987
864.736023,60.512001,-447.007996
862.783997,60.512001,-447.007996
864.736023,64.416000,-441.152008
864.736023,64.416000,-443.104004
860.831970,56.608002,-445.056000
858.880005,52.703999,-447.007996
858.880005,52.703999,-452.864014
858.880005,58.560001,-441.152008
858.880005,52.703999,-435.295990
854.976013,50.751999,-435.295990
862.783997,48.799999,-439.200012
866.687988,50.751999,-433.343994
862.783997,52.703999,-437.247986
862.783997,52.703999,-437.247986
858.880005,50.751999,-441.152008
860.831970,50.751999,-437.247986
864.736023,58.560001,-435.295990
856.927979,48.799999,-445.056000
866.687988,44.896000,-450.911987
860.831970,42.944000,-441.152008
851.072021,44.896000,-445.056000
856.927979,54.655998,-443.104004
862.783997,42.944000,-439.200012
862.783997,42.944000,-441.152008
854.976013,37.088001,-439.200012
849.119995,39.040001,-445.056000
858.880005,37.088001,-445.056000
856.927979,52.703999,-452.864014
851.072021,40.992001,-445.056000
851.072021,39.040001,-439.200012
851.072021,42.944000,-445.056000
854.976013,39.040001,-435.295990
853.023987,39.040001,-441.152008
847.168030,46.848000,-441.152008
851.072021,39.040001,-441.152008
839.359985,44.896000,-445.056000
839.359985,35.136002,-445.056000
841.312012,40.992001,-437.247986
839.359985,40.992001,-429.440002
845.216003,37.088001,-431.391998
847.168030,33.183998,-433.343994
845.216003,35.136002,-439.200012
839.359985,29.280001,-435.295990
839.359985,31.232000,-437.247986
839.359985,33.183998,-427.488007
843.263977,31.232000,-427.488007
835.455994,35.136002,-437.247986
837.408020,31.232000,-433.343994
835.455994,23.424000,-435.295990
849.119995,19.520000,-423.584015
845.216003,23.424000,-433.343994
843.263977,29.280001,-429.440002
843.263977,25.375999,-433.343994
841.312012,25.375999,-427.488007
837.408020,29.280001,-425.536011
835.455994,33.183998,-435.295990
841.312012,25.375999,-425.536011
839.359985,23.424000,-439.200012
841.312012,27.327999,-425.536011
835.455994,23.424000,-435.295990
841.312012,27.327999,-435.295990
843.263977,31.232000,-427.488007
841.312012,31.232000,-427.488007
839.359985,27.327999,-435.295990
837.408020,31.232000,-425.536011
845.216003,19.520000,-437.247986
839.359985,19.520000,-431.391998
837.408020,27.327999,-429.440002
835.455994,29.280001,-435.295990
835.455994,33.183998,-427.488007
837.408020,29.280001,-433.343994
839.359985,31.232000,-427.488007
849.119995,27.327999,-429.440002
841.312012,33.183998,-441.152008
847.168030,25.375999,-437.247986
843.263977,35.136002,-431.391998
849.119995,33.183998,-423.584015
851.072021,19.520000,-433.343994
849.119995,33.183998,-431.391998
851.072021,25.375999,-437.247986
853.023987,31.232000,-429.440002
853.023987,19.520000,-431.391998
853.023987,15.616000,-427.488007
849.119995,17.568001,-435.295990
853.023987,19.520000,-431.391998
851.072021,25.375999,-417.727997
845.216003,21.472000,-421.631989
845.216003,21.472000,-425.536011
837.408020,27.327999,-427.488007
835.455994,27.327999,-441.152008
837.408020,31.232000,-447.007996
849.119995,40.992001,-437.247986
853.023987,40.992001,-421.631989
853.023987,33.183998,-423.584015
854.976013,17.568001,-435.295990
845.216003,21.472000,-433.343994
843.263977,25.375999,-433.343994
847.168030,27.327999,-437.247986
847.168030,19.520000,-437.247986
853.023987,23.424000,-439.200012
849.119995,19.520000,-439.200012
853.023987,25.375999,-429.440002
853.023987,25.375999,-411.872009
851.072021,25.375999,-431.391998
854.976013,17.568001,-433.343994
853.023987,9.760000,-421.631989
856.927979,13.664000,-429.440002
854.976013,3.904000,-429.440002
860.831970,7.808000,-421.631989
866.687988,17.568001,-423.584015
868.640015,19.520000,-427.488007
858.880005,31.232000,-417.727997
854.976013,23.424000,-419.679993
858.880005,11.712000,-427.488007
866.687988,19.520000,-427.488007
864.736023,21.472000,-435.295990
854.976013,33.183998,-421.631989
862.783997,33.183998,-425.536011
872.544006,25.375999,-429.440002
864.736023,15.616000,-421.631989
854.976013,17.568001,-427.488007
864.736023,19.520000,-419.679993
862.783997,25.375999,-429.440002
866.687988,23.424000,-425.536011
864.736023,15.616000,-421.631989
862.783997,15.616000,-411.872009
864.736023,25.375999,-411.872009
864.736023,21.472000,-413.824005
864.736023,23.424000,-413.824005
862.783997,25.375999,-421.631989
858.880005,27.327999,-423.584015
860.831970,29.280001,-427.488007
862.783997,21.472000,-425.536011
868.640015,27.327999,-423.584015
860.831970,25.375999,-419.679993
862.783997,25.375999,-421.631989
858.880005,19.520000,-423.584015
858.880005,23.424000,-429.440002
860.831970,17.568001,-433.343994
851.072021,17.568001,-433.343994
856.927979,15.616000,-423.584015
851.072021,15.616000,-433.343994
854.976013,19.520000,-433.343994
870.591980,13.664000,-431.391998
868.640015,11.712000,-413.824005
858.880005,13.664000,-421.631989
866.687988,17.568001,-423.584015
870.591980,13.664000,-419.679993
866.687988,13.664000,-421.631989
866.687988,17.568001,-423.584015
876.447998,17.568001,-425.536011
870.591980,13.664000,-425.536011
874.495972,19.520000,-425.536011
872.544006,19.520000,-419.679993
866.687988,19.520000,-425.536011
880.351990,25.375999,-421.631989
876.447998,19.520000,-423.584015
872.544006,13.664000,-407.967987
880.351990,17.568001,-415.776001
882.304016,17.568001,-413.824005
878.400024,19.520000,-419.679993
886.208008,19.520000,-411.872009
862.783997,27.327999,-421.631989
868.640015,25.375999,-427.488007
872.544006,25.375999,-421.631989
872.544006,19.520000,-415.776001
858.880005,21.472000,-413.824005
868.640015,23.424000,-415.776001
876.447998,33.183998,-415.776001
880.351990,19.520000,-415.776001
884.255981,15.616000,-421.631989
884.255981,15.616000,-421.631989
874.495972,15.616000,-417.727997
884.255981,17.568001,-415.776001
882.304016,17.568001,-415.776001
876.447998,17.568001,-423.584015
880.351990,15.616000,-413.824005
866.687988,19.520000,-423.584015
868.640015,25.375999,-421.631989
868.640015,25.375999,-427.488007
868.640015,23.424000,-433.343994
858.880005,19.520000,-431.391998
862.783997,15.616000,-431.391998
854.976013,13.664000,-427.488007
870.591980,17.568001,-419.679993
872.544006,19.520000,-423.584015
868.640015,17.568001,-425.536011
866.687988,17.568001,-425.536011
864.736023,11.712000,-427.488007
864.736023,15.616000,-427.488007
864.736023,7.808000,-423.584015
860.831970,17.568001,-433.343994
856.927979,15.616000,-419.679993
854.976013,21.472000,-419.679993
862.783997,15.616000,-417.727997
864.736023,17.568001,-417.727997
854.976013,11.712000,-407.967987
868.640015,13.664000,-411.872009
854.976013,13.664000,-415.776001
858.880005,11.712000,-421.631989
854.976013,13.664000,-413.824005
854.976013,19.520000,-407.967987
853.023987,15.616000,-415.776001
866.687988,1.952000,-415.776001
858.880005,7.808000,-417.727997
854.976013,13.664000,-415.776001
853.023987,15.616000,-421.631989
853.023987,11.712000,-415.776001
849.119995,15.616000,-415.776001
856.927979,15.616000,-421.631989
851.072021,11.712000,-415.776001
860.831970,17.568001,-415.776001
858.880005,1.952000,-407.967987
856.927979,5.856000,-406.015991
854.976013,7.808000,-413.824005
845.216003,11.712000,-421.631989
856.927979,9.760000,-421.631989
860.831970,17.568001,-413.824005
858.880005,13.664000,-413.824005
860.831970,15.616000,-409.920013
860.831970,11.712000,-413.824005
854.976013,9.760000,-419.679993
