ACC_X,ACC_Y,ACC_Z
634.400024,365.023987,696.864014
628.544006,365.023987,691.007996
628.544006,365.023987,702.719971
634.400024,355.264008,696.864014
634.400024,365.023987,698.815979
632.447998,365.023987,694.911987
638.304016,357.216003,700.768005
628.544006,359.167999,696.864014
628.544006,359.167999,696.864014
626.591980,359.167999,696.864014
634.400024,359.167999,691.007996
632.447998,359.167999,704.671997
640.255981,365.023987,691.007996
632.447998,365.023987,694.911987
638.304016,359.167999,700.768005
634.400024,359.167999,696.864014
632.447998,366.976013,704.671997
636.351990,365.023987,698.815979
630.495972,366.976013,694.911987
632.447998,376.735992,700.768005
636.351990,372.832001,700.768005
632.447998,366.976013,700.768005
638.304016,363.071991,698.815979
628.544006,368.928009,692.960022
628.544006,370.880005,683.200012
634.400024,378.687988,700.768005
638.304016,374.783997,692.960022
632.447998,376.735992,694.911987
632.447998,370.880005,692.960022
634.400024,374.783997,692.960022
628.544006,372.832001,691.007996
642.208008,372.832001,702.719971
630.495972,376.735992,698.815979
630.495972,376.735992,694.911987
630.495972,376.735992,694.911987
630.495972,376.735992,692.960022
632.447998,368.928009,696.864014
632.447998,372.832001,696.864014
632.447998,378.687988,692.960022
628.544006,376.735992,698.815979
626.591980,380.640015,698.815979
632.447998,366.976013,698.815979
620.736023,380.640015,694.911987
634.400024,372.832001,692.960022
628.544006,384.544006,696.864014
626.591980,384.544006,692.960022
626.591980,378.687988,691.007996
626.591980,378.687988,691.007996
624.640015,384.544006,700.768005
630.495972,380.640015,700.768005
626.591980,380.640015,698.815979
628.544006,378.687988,694.911987
630.495972,378.687988,696.864014
632.447998,386.496002,698.815979
638.304016,384.544006,700.768005
628.544006,374.783997,704.671997
626.591980,388.447998,698.815979
634.400024,386.496002,698.815979
622.687988,380.640015,700.768005
626.591980,382.592010,700.768005
620.736023,384.544006,706.624023
630.495972,384.544006,692.960022
630.495972,396.256012,698.815979
620.736023,380.640015,694.911987
620.736023,386.496002,704.671997
616.831970,394.303986,704.671997
618.783997,392.351990,696.864014
620.736023,396.256012,691.007996
622.687988,386.496002,700.768005
620.736023,392.351990,698.815979
622.687988,388.447998,694.911987
628.544006,386.496002,698.815979
622.687988,400.160004,696.864014
616.831970,384.544006,696.864014
616.831970,392.351990,694.911987
626.591980,382.592010,694.911987
622.687988,382.592010,700.768005
626.591980,398.208008,698.815979
614.880005,386.496002,694.911987
630.495972,396.256012,704.671997
620.736023,382.592010,696.864014
616.831970,392.351990,692.960022
616.831970,392.351990,692.960022
622.687988,388.447998,692.960022
626.591980,388.447998,698.815979
632.447998,378.687988,702.719971
634.400024,386.496002,696.864014
628.544006,386.496002,700.768005
616.831970,388.447998,706.624023
620.736023,388.447998,698.815979
624.640015,386.496002,704.671997
624.640015,380.640015,698.815979
622.687988,370.880005,696.864014
622.687988,390.399994,706.624023
626.591980,380.640015,700.768005
634.400024,382.592010,698.815979
626.591980,382.592010,704.671997
626.591980,382.592010,700.768005
628.544006,386.496002,696.864014
626.591980,388.447998,694.911987
620.736023,380.640015,700.768005
622.687988,382.592010,700.768005
638.304016,386.496002,702.719971
632.447998,402.112000,706.624023
634.400024,392.351990,706.624023
640.255981,392.351990,712.479980
646.112000,384.544006,702.719971
632.447998,384.544006,710.528015
636.351990,392.351990,710.528015
638.304016,388.447998,708.575989
632.447998,378.687988,706.624023
636.351990,384.544006,708.575989
644.159973,390.399994,710.528015
638.304016,376.735992,702.719971
642.208008,382.592010,714.432007
644.159973,384.544006,706.624023
640.255981,380.640015,702.719971
638.304016,384.544006,698.815979
638.304016,386.496002,702.719971
630.495972,380.640015,710.528015
638.304016,392.351990,708.575989
642.208008,386.496002,706.624023
632.447998,384.544006,698.815979
632.447998,382.592010,710.528015
626.591980,378.687988,698.815979
632.447998,376.735992,706.624023
626.591980,378.687988,702.719971
628.544006,380.640015,694.911987
636.351990,384.544006,708.575989
634.400024,374.783997,712.479980
632.447998,376.735992,694.911987
624.640015,380.640015,702.719971
626.591980,376.735992,702.719971
630.495972,376.735992,706.624023
622.687988,374.783997,704.671997
624.640015,378.687988,712.479980
626.591980,382.592010,698.815979
616.831970,384.544006,700.768005
622.687988,372.832001,702.719971
616.831970,372.832001,691.007996
622.687988,374.783997,702.719971
626.591980,380.640015,698.815979
622.687988,386.496002,704.671997
626.591980,380.640015,700.768005
620.736023,372.832001,702.719971
620.736023,374.783997,696.864014
616.831970,374.783997,704.671997
620.736023,374.783997,700.768005
618.783997,374.783997,702.719971
618.783997,372.832001,694.911987
609.023987,378.687988,696.864014
610.976013,378.687988,694.911987
612.927979,374.783997,700.768005
609.023987,368.928009,694.911987
616.831970,374.783997,700.768005
618.783997,372.832001,696.864014
609.023987,374.783997,692.960022
612.927979,370.880005,687.104004
622.687988,374.783997,696.864014
618.783997,374.783997,696.864014
618.783997,380.640015,691.007996
618.783997,374.783997,696.864014
601.216003,376.735992,698.815979
610.976013,388.447998,708.575989
612.927979,378.687988,694.911987
609.023987,378.687988,698.815979
609.023987,388.447998,702.719971
620.736023,382.592010,700.768005
610.976013,378.687988,698.815979
618.783997,392.351990,702.719971
618.783997,384.544006,706.624023
605.119995,380.640015,708.575989
614.880005,384.544006,708.575989
614.880005,382.592010,700.768005
610.976013,380.640015,702.719971
616.831970,382.592010,694.911987
616.831970,388.447998,694.911987
620.736023,382.592010,704.671997
610.976013,374.783997,704.671997
612.927979,374.783997,696.864014
609.023987,386.496002,696.864014
616.831970,392.351990,706.624023
622.687988,384.544006,706.624023
618.783997,386.496002,706.624023
618.783997,386.496002,698.815979
618.783997,396.256012,712.479980
612.927979,396.256012,712.479980
620.736023,382.592010,706.624023
618.783997,394.303986,702.719971
614.880005,386.496002,704.671997
607.072021,384.544006,700.768005
614.880005,386.496002,702.719971
607.072021,388.447998,702.719971
609.023987,394.303986,692.960022
618.783997,386.496002,702.719971
607.072021,390.399994,700.768005
614.880005,388.447998,698.815979
607.072021,388.447998,696.864014
601.216003,390.399994,696.864014
597.312012,396.256012,698.815979
609.023987,384.544006,691.007996
612.927979,392.351990,700.768005
610.976013,392.351990,691.007996
605.119995,384.544006,706.624023
603.168030,390.399994,700.768005
605.119995,396.256012,696.864014
612.927979,392.351990,700.768005
609.023987,384.544006,698.815979
601.216003,392.351990,708.575989
599.263977,382.592010,702.719971
603.168030,384.544006,694.911987
609.023987,390.399994,696.864014
601.216003,384.544006,702.719971
607.072021,376.735992,698.815979
597.312012,378.687988,696.864014
599.263977,378.687988,694.911987
603.168030,378.687988,700.768005
610.976013,388.447998,691.007996
601.216003,376.735992,694.911987
607.072021,378.687988,700.768005
601.216003,376.735992,704.671997
605.119995,378.687988,694.911987
599.263977,370.880005,694.911987
601.216003,378.687988,696.864014
601.216003,374.783997,700.768005
599.263977,376.735992,694.911987
605.119995,376.735992,698.815979
599.263977,378.687988,704.671997
610.976013,376.735992,694.911987
603.168030,376.735992,694.911987
585.599976,368.928009,698.815979
593.408020,372.832001,698.815979
599.263977,376.735992,694.911987
595.359985,365.023987,702.719971
599.263977,372.832001,687.104004
591.455994,370.880005,700.768005
599.263977,363.071991,700.768005
593.408020,374.783997,698.815979
591.455994,368.928009,700.768005
589.504028,361.119995,694.911987
593.408020,363.071991,696.864014
593.408020,368.928009,700.768005
593.408020,376.735992,698.815979
597.312012,366.976013,702.719971
595.359985,361.119995,694.911987
593.408020,368.928009,700.768005
595.359985,361.119995,698.815979
597.312012,359.167999,698.815979
585.599976,361.119995,704.671997
591.455994,363.071991,700.768005
597.312012,357.216003,700.768005
591.455994,363.071991,700.768005
593.408020,355.264008,689.056030
597.312012,359.167999,696.864014
585.599976,361.119995,704.671997
585.599976,355.264008,694.911987
587.552002,353.312012,706.624023
585.599976,361.119995,692.960022
593.408020,343.552002,696.864014
585.599976,349.407990,698.815979
593.408020,343.552002,696.864014
589.504028,351.359985,704.671997
585.599976,359.167999,706.624023
597.312012,349.407990,706.624023
589.504028,353.312012,704.671997
589.504028,341.600006,710.528015
595.359985,353.312012,702.719971
595.359985,349.407990,712.479980
591.455994,355.264008,704.671997
587.552002,349.407990,696.864014
601.216003,345.503998,704.671997
589.504028,345.503998,714.432007
593.408020,343.552002,708.575989
593.408020,341.600006,700.768005
595.359985,339.648010,708.575989
593.408020,343.552002,704.671997
593.408020,341.600006,700.768005
593.408020,335.743988,698.815979
597.312012,347.455994,708.575989
593.408020,341.600006,700.768005
603.168030,337.696014,706.624023
607.072021,337.696014,706.624023
601.216003,335.743988,712.479980
603.168030,347.455994,702.719971
597.312012,339.648010,710.528015
591.455994,347.455994,716.383972
609.023987,349.407990,704.671997
609.023987,343.552002,710.528015
601.216003,343.552002,706.624023
593.408020,347.455994,706.624023
603.168030,341.600006,712.479980
603.168030,339.648010,712.479980
603.168030,349.407990,712.479980
609.023987,343.552002,712.479980
603.168030,343.552002,712.479980
603.168030,343.552002,706.624023
601.216003,351.359985,702.719971
607.072021,343.552002,712.479980
607.072021,349.407990,708.575989
609.023987,349.407990,706.624023
607.072021,343.552002,712.479980
607.072021,345.503998,706.624023
607.072021,343.552002,710.528015
607.072021,353.312012,708.575989
601.216003,349.407990,712.479980
601.216003,345.503998,704.671997
601.216003,349.407990,710.528015
599.263977,345.503998,702.719971
601.216003,341.600006,706.624023
593.408020,355.264008,710.528015
607.072021,349.407990,716.383972
599.263977,345.503998,704.671997
607.072021,355.264008,698.815979
601.216003,357.216003,698.815979
597.312012,357.216003,706.624023
601.216003,361.119995,710.528015
603.168030,353.312012,702.719971
601.216003,349.407990,712.479980
595.359985,351.359985,698.815979
605.119995,347.455994,694.911987
603.168030,359.167999,696.864014
607.072021,357.216003,700.768005
601.216003,353.312012,698.815979
603.168030,347.455994,704.671997
605.119995,349.407990,710.528015
601.216003,351.359985,708.575989
609.023987,355.264008,696.864014
603.168030,353.312012,702.719971
601.216003,365.023987,704.671997
601.216003,361.119995,710.528015
607.072021,355.264008,708.575989
605.119995,357.216003,702.719971
607.072021,349.407990,710.528015
603.168030,355.264008,708.575989
610.976013,359.167999,708.575989
609.023987,351.359985,712.479980
610.976013,365.023987,712.479980
605.119995,357.216003,710.528015
609.023987,355.264008,704.671997
603.168030,361.119995,702.719971
610.976013,349.407990,708.575989
612.927979,359.167999,706.624023
605.119995,351.359985,710.528015
616.831970,357.216003,704.671997
614.880005,353.312012,708.575989
610.976013,357.216003,702.719971
609.023987,355.264008,708.575989
612.927979,351.359985,704.671997
612.927979,359.167999,706.624023
607.072021,359.167999,704.671997
618.783997,361.119995,708.575989
616.831970,357.216003,698.815979
609.023987,357.216003,696.864014
612.927979,359.167999,716.383972
607.072021,366.976013,702.719971
609.023987,361.119995,704.671997
609.023987,359.167999,698.815979
616.831970,351.359985,698.815979
605.119995,365.023987,704.671997
614.880005,355.264008,704.671997
612.927979,363.071991,700.768005
610.976013,363.071991,708.575989
612.927979,361.119995,710.528015
607.072021,355.264008,702.719971
607.072021,359.167999,704.671997
616.831970,351.359985,704.671997
609.023987,361.119995,706.624023
622.687988,361.119995,706.624023
605.119995,361.119995,708.575989
607.072021,359.167999,704.671997
616.831970,349.407990,704.671997
610.976013,349.407990,702.719971
605.119995,355.264008,702.719971
607.072021,349.407990,706.624023
601.216003,353.312012,706.624023
609.023987,355.264008,708.575989
609.023987,353.312012,698.815979
605.119995,343.552002,704.671997
603.168030,347.455994,698.815979
607.072021,351.359985,710.528015
605.119995,353.312012,706.624023
599.263977,357.216003,710.528015
603.168030,347.455994,696.864014
610.976013,353.312012,702.719971
607.072021,353.312012,698.815979
607.072021,343.552002,710.528015
605.119995,353.312012,706.624023
601.216003,355.264008,702.719971
601.216003,353.312012,702.719971
610.976013,355.264008,714.432007
601.216003,361.119995,708.575989
609.023987,349.407990,704.671997
607.072021,351.359985,714.432007
610.976013,351.359985,708.575989
614.880005,359.167999,696.864014
614.880005,361.119995,700.768005
614.880005,355.264008,694.911987
612.927979,355.264008,712.479980
607.072021,351.359985,714.432007
609.023987,347.455994,706.624023
614.880005,349.407990,704.671997
610.976013,345.503998,700.768005
614.880005,347.455994,702.719971
612.927979,351.359985,700.768005
620.736023,361.119995,694.911987
609.023987,359.167999,696.864014
605.119995,355.264008,710.528015
614.880005,351.359985,704.671997
614.880005,349.407990,704.671997
609.023987,355.264008,704.671997
616.831970,349.407990,706.624023
614.880005,349.407990,704.671997
612.927979,347.455994,704.671997
616.831970,357.216003,706.624023
618.783997,353.312012,718.335999
612.927979,355.264008,716.383972
612.927979,357.216003,708.575989
622.687988,353.312012,712.479980
614.880005,357.216003,716.383972
622.687988,357.216003,706.624023
612.927979,357.216003,706.624023
622.687988,359.167999,712.479980
618.783997,355.264008,706.624023
618.783997,361.119995,700.768005
620.736023,359.167999,706.624023
612.927979,351.359985,704.671997
612.927979,355.264008,712.479980
624.640015,357.216003,704.671997
618.783997,361.119995,702.719971
612.927979,365.023987,706.624023
620.736023,368.928009,714.432007
626.591980,359.167999,708.575989
612.927979,353.312012,712.479980
618.783997,366.976013,710.528015
626.591980,361.119995,706.624023
612.927979,357.216003,704.671997
612.927979,359.167999,706.624023
618.783997,359.167999,706.624023
610.976013,361.119995,710.528015
614.880005,365.023987,708.575989
614.880005,361.119995,706.624023
618.783997,363.071991,702.719971
614.880005,365.023987,702.719971
612.927979,368.928009,700.768005
616.831970,361.119995,704.671997
620.736023,374.783997,702.719971
618.783997,359.167999,712.479980
618.783997,361.119995,706.624023
614.880005,366.976013,708.575989
612.927979,372.832001,704.671997
618.783997,372.832001,708.575989
612.927979,366.976013,698.815979
616.831970,359.167999,706.624023
616.831970,361.119995,704.671997
628.544006,359.167999,700.768005
622.687988,361.119995,710.528015
618.783997,363.071991,696.864014
620.736023,365.023987,704.671997
622.687988,376.735992,712.479980
609.023987,359.167999,704.671997
614.880005,368.928009,708.575989
618.783997,365.023987,712.479980
620.736023,365.023987,706.624023
622.687988,368.928009,708.575989
616.831970,368.928009,702.719971
618.783997,372.832001,698.815979
618.783997,365.023987,706.624023
618.783997,363.071991,702.719971
620.736023,357.216003,704.671997
624.640015,363.071991,700.768005
622.687988,366.976013,712.479980
620.736023,376.735992,710.528015
622.687988,374.783997,702.719971
622.687988,370.880005,702.719971
614.880005,372.832001,702.719971
614.880005,376.735992,706.624023
618.783997,368.928009,708.575989
620.736023,363.071991,694.911987
620.736023,372.832001,702.719971
616.831970,363.071991,704.671997
614.880005,361.119995,704.671997
622.687988,368.928009,700.768005
620.736023,363.071991,696.864014
620.736023,355.264008,694.911987
616.831970,366.976013,710.528015
612.927979,376.735992,700.768005
612.927979,372.832001,696.864014
605.119995,370.880005,694.911987
618.783997,372.832001,700.768005
616.831970,365.023987,702.719971
616.831970,361.119995,706.624023
620.736023,372.832001,702.719971
618.783997,368.928009,704.671997
616.831970,376.735992,708.575989
612.927979,370.880005,702.719971
618.783997,372.832001,708.575989
612.927979,361.119995,708.575989
612.927979,368.928009,708.575989
612.927979,372.832001,698.815979
618.783997,365.023987,704.671997
624.640015,368.928009,702.719971
616.831970,370.880005,702.719971
622.687988,368.928009,696.864014
618.783997,378.687988,706.624023
612.927979,374.783997,702.719971
616.831970,366.976013,691.007996
607.072021,359.167999,696.864014
610.976013,368.928009,708.575989
612.927979,372.832001,702.719971
620.736023,376.735992,702.719971
612.927979,370.880005,706.624023
618.783997,374.783997,702.719971
618.783997,374.783997,702.719971
622.687988,374.783997,702.719971
626.591980,374.783997,702.719971
618.783997,374.783997,694.911987
624.640015,368.928009,702.719971
616.831970,378.687988,708.575989
618.783997,370.880005,702.719971
618.783997,361.119995,698.815979
618.783997,380.640015,702.719971
612.927979,378.687988,706.624023
616.831970,374.783997,704.671997
622.687988,370.880005,708.575989
618.783997,380.640015,698.815979
610.976013,380.640015,710.528015
614.880005,380.640015,704.671997
616.831970,374.783997,704.671997
614.880005,368.928009,694.911987
612.927979,365.023987,694.911987
612.927979,376.735992,698.815979
614.880005,380.640015,706.624023
607.072021,368.928009,706.624023
622.687988,374.783997,702.719971
618.783997,382.592010,700.768005
618.783997,384.544006,706.624023
618.783997,374.783997,708.575989
622.687988,370.880005,698.815979
616.831970,372.832001,708.575989
620.736023,376.735992,708.575989
612.927979,374.783997,700.768005
614.880005,374.783997,704.671997
616.831970,376.735992,710.528015
614.880005,378.687988,704.671997
618.783997,370.880005,708.575989
622.687988,374.783997,702.719971
618.783997,378.687988,712.479980
616.831970,376.735992,708.575989
626.591980,372.832001,710.528015
612.927979,376.735992,698.815979
618.783997,376.735992,712.479980
612.927979,374.783997,702.719971
618.783997,374.783997,708.575989
612.927979,380.640015,708.575989
614.880005,376.735992,710.528015
622.687988,378.687988,706.624023
614.880005,378.687988,708.575989
612.927979,382.592010,700.768005
616.831970,376.735992,702.719971
610.976013,384.544006,694.911987
614.880005,382.592010,712.479980
618.783997,384.544006,706.624023
612.927979,384.544006,704.671997
616.831970,376.735992,708.575989
610.976013,374.783997,700.768005
614.880005,382.592010,712.479980
614.880005,382.592010,698.815979
618.783997,368.928009,704.671997
610.976013,380.640015,702.719971
609.023987,384.544006,702.719971
618.783997,384.544006,706.624023
610.976013,384.544006,706.624023
609.023987,382.592010,704.671997
618.783997,382.592010,702.719971
616.831970,384.544006,706.624023
612.927979,380.640015,702.719971
609.023987,390.399994,708.575989
618.783997,386.496002,714.432007
614.880005,378.687988,710.528015
624.640015,384.544006,712.479980
614.880005,392.351990,694.911987
614.880005,392.351990,706.624023
620.736023,392.351990,706.624023
618.783997,390.399994,716.383972
624.640015,386.496002,706.624023
618.783997,388.447998,706.624023
616.831970,388.447998,706.624023
624.640015,384.544006,716.383972
622.687988,386.496002,698.815979
612.927979,388.447998,706.624023
618.783997,390.399994,706.624023
616.831970,392.351990,700.768005
616.831970,386.496002,704.671997
618.783997,386.496002,712.479980
609.023987,384.544006,694.911987
620.736023,392.351990,704.671997
616.831970,386.496002,704.671997
618.783997,380.640015,704.671997
616.831970,378.687988,702.719971
626.591980,382.592010,700.768005
616.831970,382.592010,694.911987
618.783997,374.783997,698.815979
616.831970,380.640015,700.768005
614.880005,392.351990,704.671997
616.831970,382.592010,700.768005
610.976013,384.544006,704.671997
612.927979,392.351990,708.575989
614.880005,396.256012,710.528015
614.880005,388.447998,700.768005
616.831970,382.592010,698.815979
609.023987,388.447998,696.864014
605.119995,380.640015,702.719971
609.023987,384.544006,698.815979
605.119995,378.687988,694.911987
607.072021,378.687988,700.768005
601.216003,378.687988,704.671997
599.263977,376.735992,694.911987
603.168030,378.687988,708.575989
603.168030,382.592010,700.768005
607.072021,378.687988,696.864014
601.216003,370.880005,694.911987
601.216003,376.735992,706.624023
609.023987,378.687988,702.719971
609.023987,378.687988,698.815979
607.072021,386.496002,700.768005
607.072021,378.687988,702.719971
605.119995,384.544006,708.575989
607.072021,388.447998,702.719971
601.216003,376.735992,698.815979
610.976013,392.351990,708.575989
605.119995,380.640015,702.719971
609.023987,378.687988,696.864014
609.023987,378.687988,702.719971
601.216003,376.735992,706.624023
618.783997,372.832001,700.768005
610.976013,376.735992,706.624023
607.072021,378.687988,696.864014
612.927979,376.735992,698.815979
610.976013,372.832001,692.960022
614.880005,374.783997,698.815979
612.927979,376.735992,694.911987
612.927979,376.735992,694.911987
612.927979,376.735992,694.911987
610.976013,370.880005,710.528015
610.976013,384.544006,698.815979
610.976013,370.880005,702.719971
610.976013,380.640015,708.575989
609.023987,384.544006,702.719971
601.216003,374.783997,712.479980
618.783997,378.687988,706.624023
614.880005,384.544006,698.815979
616.831970,382.592010,706.624023
610.976013,378.687988,708.575989
612.927979,382.592010,710.528015
620.736023,372.832001,700.768005
618.783997,368.928009,702.719971
616.831970,376.735992,708.575989
618.783997,370.880005,702.719971
616.831970,382.592010,704.671997
614.880005,368.928009,708.575989
614.880005,366.976013,710.528015
616.831970,365.023987,714.432007
612.927979,368.928009,700.768005
618.783997,388.447998,712.479980
612.927979,372.832001,708.575989
607.072021,372.832001,698.815979
607.072021,372.832001,706.624023
610.976013,368.928009,702.719971
612.927979,368.928009,700.768005
612.927979,372.832001,702.719971
607.072021,370.880005,694.911987
612.927979,376.735992,698.815979
612.927979,376.735992,694.911987
612.927979,365.023987,694.911987
614.880005,361.119995,694.911987
620.736023,368.928009,694.911987
612.927979,370.880005,702.719971
612.927979,376.735992,694.911987
618.783997,372.832001,708.575989
616.831970,372.832001,702.719971
612.927979,368.928009,700.768005
614.880005,372.832001,714.432007
610.976013,374.783997,694.911987
601.216003,366.976013,700.768005
605.119995,378.687988,698.815979
614.880005,361.119995,706.624023
607.072021,363.071991,714.432007
610.976013,370.880005,704.671997
605.119995,370.880005,704.671997
607.072021,376.735992,694.911987
612.927979,374.783997,708.575989
601.216003,365.023987,702.719971
607.072021,376.735992,706.624023
605.119995,370.880005,704.671997
610.976013,366.976013,694.911987
620.736023,372.832001,708.575989
610.976013,366.976013,708.575989
609.023987,372.832001,706.624023
610.976013,365.023987,698.815979
614.880005,365.023987,708.575989
610.976013,363.071991,702.719971
610.976013,366.976013,706.624023
612.927979,363.071991,702.719971
610.976013,376.735992,706.624023
610.976013,374.783997,702.719971
614.880005,365.023987,708.575989
609.023987,374.783997,714.432007
605.119995,376.735992,712.479980
599.263977,363.071991,714.432007
603.168030,370.880005,706.624023
610.976013,366.976013,712.479980
610.976013,365.023987,704.671997
603.168030,365.023987,700.768005
607.072021,366.976013,702.719971
610.976013,370.880005,704.671997
612.927979,372.832001,708.575989
601.216003,366.976013,704.671997
609.023987,376.735992,710.528015
603.168030,368.928009,712.479980
610.976013,361.119995,702.719971
603.168030,363.071991,708.575989
607.072021,372.832001,706.624023
601.216003,372.832001,706.624023
603.168030,368.928009,706.624023
610.976013,368.928009,696.864014
601.216003,365.023987,698.815979
603.168030,368.928009,704.671997
593.408020,372.832001,698.815979
607.072021,372.832001,702.719971
597.312012,365.023987,696.864014
601.216003,370.880005,700.768005
593.408020,370.880005,702.719971
603.168030,365.023987,708.575989
610.976013,368.928009,706.624023
607.072021,370.880005,694.911987
605.119995,365.023987,694.911987
607.072021,376.735992,694.911987
601.216003,372.832001,704.671997
601.216003,372.832001,704.671997
607.072021,368.928009,716.383972
605.119995,366.976013,698.815979
605.119995,365.023987,698.815979
599.263977,363.071991,689.056030
601.216003,366.976013,700.768005
597.312012,365.023987,710.528015
610.976013,361.119995,702.719971
607.072021,374.783997,706.624023
589.504028,363.071991,702.719971
605.119995,368.928009,712.479980
601.216003,368.928009,702.719971
601.216003,370.880005,698.815979
603.168030,368.928009,702.719971
603.168030,351.359985,708.575989
599.263977,365.023987,706.624023
605.119995,363.071991,706.624023
609.023987,368.928009,712.479980
609.023987,370.880005,700.768005
609.023987,368.928009,708.575989
603.168030,365.023987,708.575989
603.168030,363.071991,706.624023
607.072021,361.119995,708.575989
610.976013,365.023987,704.671997
603.168030,359.167999,702.719971
607.072021,355.264008,708.575989
610.976013,363.071991,698.815979
610.976013,363.071991,702.719971
612.927979,355.264008,706.624023
605.119995,363.071991,708.575989
609.023987,368.928009,698.815979
614.880005,361.119995,698.815979
603.168030,361.119995,708.575989
603.168030,361.119995,710.528015
614.880005,361.119995,706.624023
601.216003,351.359985,710.528015
605.119995,357.216003,712.479980
607.072021,355.264008,700.768005
614.880005,357.216003,698.815979
605.119995,359.167999,702.719971
612.927979,370.880005,702.719971
601.216003,365.023987,704.671997
609.023987,359.167999,708.575989
605.119995,361.119995,710.528015
605.119995,365.023987,704.671997
609.023987,359.167999,702.719971
614.880005,355.264008,700.768005
605.119995,363.071991,710.528015
614.880005,361.119995,706.624023
610.976013,365.023987,694.911987
614.880005,351.359985,704.671997
612.927979,353.312012,712.479980
607.072021,357.216003,702.719971
605.119995,359.167999,704.671997
607.072021,361.119995,708.575989
614.880005,361.119995,698.815979
603.168030,355.264008,702.719971
603.168030,365.023987,702.719971
614.880005,359.167999,696.864014
610.976013,353.312012,698.815979
607.072021,355.264008,700.768005
607.072021,357.216003,696.864014
607.072021,359.167999,698.815979
610.976013,359.167999,708.575989
605.119995,357.216003,708.575989
603.168030,365.023987,700.768005
610.976013,365.023987,700.768005
609.023987,355.264008,694.911987
609.023987,353.312012,696.864014
612.927979,361.119995,702.719971
614.880005,359.167999,694.911987
614.880005,355.264008,704.671997
607.072021,353.312012,702.719971
603.168030,357.216003,710.528015
612.927979,366.976013,704.671997
605.119995,347.455994,702.719971
616.831970,353.312012,704.671997
622.687988,351.359985,712.479980
609.023987,357.216003,704.671997
616.831970,361.119995,704.671997
618.783997,359.167999,706.624023
614.880005,353.312012,706.624023
622.687988,355.264008,706.624023
618.783997,349.407990,704.671997
614.880005,355.264008,700.768005
616.831970,353.312012,706.624023
616.831970,357.216003,704.671997
610.976013,353.312012,712.479980
614.880005,359.167999,696.864014
622.687988,347.455994,712.479980
622.687988,353.312012,712.479980
618.783997,359.167999,714.432007
618.783997,355.264008,712.479980
618.783997,359.167999,712.479980
618.783997,355.264008,714.432007
616.831970,349.407990,706.624023
620.736023,361.119995,706.624023
626.591980,355.264008,704.671997
618.783997,357.216003,706.624023
634.400024,359.167999,702.719971
620.736023,361.119995,704.671997
620.736023,359.167999,712.479980
622.687988,359.167999,702.719971
626.591980,357.216003,702.719971
618.783997,359.167999,712.479980
616.831970,361.119995,704.671997
616.831970,363.071991,704.671997
614.880005,365.023987,702.719971
616.831970,361.119995,698.815979
626.591980,363.071991,702.719971
622.687988,368.928009,704.671997
620.736023,361.119995,694.911987
614.880005,359.167999,700.768005
616.831970,357.216003,704.671997
620.736023,357.216003,704.671997
614.880005,361.119995,694.911987
618.783997,368.928009,700.768005
618.783997,363.071991,708.575989
618.783997,366.976013,708.575989
616.831970,357.216003,706.624023
616.831970,361.119995,694.911987
622.687988,363.071991,700.768005
616.831970,359.167999,706.624023
614.880005,366.976013,700.768005
614.880005,361.119995,704.671997
616.831970,374.783997,706.624023
622.687988,359.167999,712.479980
616.831970,361.119995,704.671997
626.591980,359.167999,702.719971
618.783997,368.928009,710.528015
612.927979,372.832001,698.815979
622.687988,370.880005,708.575989
622.687988,363.071991,702.719971
620.736023,361.119995,704.671997
616.831970,363.071991,708.575989
624.640015,366.976013,712.479980
616.831970,374.783997,708.575989
618.783997,368.928009,700.768005
622.687988,368.928009,702.719971
624.640015,366.976013,704.671997
618.783997,370.880005,708.575989
622.687988,372.832001,700.768005
614.880005,365.023987,696.864014
618.783997,374.783997,704.671997
609.023987,372.832001,704.671997
620.736023,372.832001,696.864014
614.880005,376.735992,698.815979
620.736023,372.832001,710.528015
609.023987,368.928009,712.479980
605.119995,372.832001,698.815979
605.119995,376.735992,706.624023
618.783997,374.783997,700.768005
610.976013,366.976013,704.671997
609.023987,378.687988,700.768005
614.880005,378.687988,700.768005
616.831970,372.832001,708.575989
612.927979,372.832001,702.719971
610.976013,378.687988,704.671997
612.927979,382.592010,706.624023
612.927979,370.880005,702.719971
609.023987,366.976013,704.671997
618.783997,374.783997,702.719971
607.072021,372.832001,704.671997
607.072021,384.544006,708.575989
610.976013,380.640015,698.815979
609.023987,378.687988,708.575989
618.783997,374.783997,696.864014
618.783997,370.880005,702.719971
610.976013,368.928009,702.719971
609.023987,374.783997,704.671997
612.927979,376.735992,698.815979
616.831970,376.735992,702.719971
618.783997,372.832001,702.719971
616.831970,372.832001,710.528015
614.880005,376.735992,710.528015
618.783997,372.832001,700.768005
614.880005,370.880005,712.479980
616.831970,376.735992,708.575989
618.783997,374.783997,698.815979
609.023987,370.880005,702.719971
610.976013,376.735992,702.719971
605.119995,374.783997,706.624023
607.072021,374.783997,710.528015
607.072021,372.832001,712.479980
614.880005,374.783997,698.815979
612.927979,376.735992,706.624023
622.687988,374.783997,702.719971
612.927979,368.928009,700.768005
618.783997,365.023987,706.624023
614.880005,368.928009,704.671997
612.927979,370.880005,708.575989
610.976013,380.640015,702.719971
616.831970,380.640015,704.671997
622.687988,372.832001,708.575989
612.927979,366.976013,708.575989
612.927979,363.071991,696.864014
614.880005,376.735992,710.528015
612.927979,380.640015,712.479980
614.880005,372.832001,706.624023
628.544006,368.928009,694.911987
630.495972,366.976013,698.815979
622.687988,359.167999,704.671997
616.831970,372.832001,708.575989
616.831970,380.640015,698.815979
622.687988,370.880005,710.528015
624.640015,372.832001,706.624023
620.736023,365.023987,702.719971
616.831970,370.880005,702.719971
612.927979,372.832001,700.768005
616.831970,361.119995,704.671997
616.831970,380.640015,692.960022
624.640015,370.880005,700.768005
620.736023,366.976013,702.719971
622.687988,368.928009,708.575989
614.880005,365.023987,708.575989
620.736023,366.976013,710.528015
622.687988,380.640015,702.719971
620.736023,374.783997,704.671997
616.831970,380.640015,706.624023
618.783997,376.735992,702.719971
618.783997,374.783997,708.575989
622.687988,374.783997,708.575989
620.736023,376.735992,708.575989
622.687988,374.783997,708.575989
618.783997,374.783997,708.575989
622.687988,368.928009,698.815979
618.783997,370.880005,708.575989
612.927979,372.832001,708.575989
616.831970,370.880005,710.528015
616.831970,376.735992,710.528015
614.880005,380.640015,698.815979
612.927979,376.735992,706.624023
616.831970,366.976013,710.528015
616.831970,368.928009,704.671997
610.976013,372.832001,696.864014
612.927979,374.783997,698.815979
618.783997,372.832001,698.815979
610.976013,374.783997,694.911987
605.119995,372.832001,694.911987
605.119995,380.640015,708.575989
607.072021,378.687988,708.575989
607.072021,374.783997,706.624023
601.216003,376.735992,694.911987
609.023987,378.687988,704.671997
612.927979,376.735992,706.624023
612.927979,380.640015,708.575989
610.976013,378.687988,706.624023
605.119995,370.880005,694.911987
607.072021,370.880005,704.671997
605.119995,380.640015,710.528015
610.976013,378.687988,704.671997
610.976013,376.735992,694.911987
610.976013,380.640015,700.768005
605.119995,384.544006,708.575989
609.023987,378.687988,702.719971
610.976013,376.735992,694.911987
610.976013,380.640015,691.007996
605.119995,376.735992,694.911987
614.880005,386.496002,696.864014
618.783997,374.783997,696.864014
614.880005,378.687988,702.719971
618.783997,374.783997,700.768005
616.831970,378.687988,702.719971
614.880005,380.640015,694.911987
616.831970,382.592010,702.719971
614.880005,380.640015,694.911987
614.880005,374.783997,694.911987
614.880005,392.351990,700.768005
612.927979,394.303986,708.575989
618.783997,396.256012,712.479980
616.831970,394.303986,708.575989
626.591980,380.640015,698.815979
616.831970,378.687988,702.719971
605.119995,388.447998,702.719971
609.023987,390.399994,704.671997
614.880005,390.399994,702.719971
614.880005,388.447998,694.911987
612.927979,386.496002,700.768005
616.831970,392.351990,706.624023
609.023987,394.303986,706.624023
610.976013,390.399994,704.671997
607.072021,396.256012,708.575989
607.072021,392.351990,700.768005
612.927979,392.351990,710.528015
603.168030,396.256012,698.815979
607.072021,400.160004,704.671997
607.072021,398.208008,702.719971
618.783997,406.015991,691.007996
605.119995,407.967987,700.768005
605.119995,400.160004,698.815979
612.927979,394.303986,694.911987
607.072021,394.303986,694.911987
610.976013,402.112000,700.768005
605.119995,407.967987,687.104004
601.216003,400.160004,692.960022
610.976013,398.208008,698.815979
605.119995,407.967987,692.960022
612.927979,404.063995,694.911987
616.831970,394.303986,694.911987
609.023987,386.496002,694.911987
607.072021,390.399994,698.815979
609.023987,396.256012,700.768005
609.023987,396.256012,689.056030
609.023987,396.256012,689.056030
603.168030,390.399994,691.007996
605.119995,390.399994,691.007996
609.023987,396.256012,696.864014
610.976013,392.351990,691.007996
607.072021,390.399994,700.768005
610.976013,404.063995,694.911987
614.880005,400.160004,694.911987
618.783997,394.303986,708.575989
612.927979,394.303986,698.815979
603.168030,392.351990,698.815979
618.783997,404.063995,698.815979
605.119995,398.208008,694.911987
610.976013,396.256012,704.671997
607.072021,390.399994,698.815979
609.023987,392.351990,700.768005
616.831970,392.351990,704.671997
618.783997,398.208008,706.624023
610.976013,396.256012,698.815979
610.976013,396.256012,700.768005
609.023987,404.063995,694.911987
618.783997,386.496002,698.815979
609.023987,390.399994,698.815979
612.927979,400.160004,700.768005
620.736023,388.447998,698.815979
616.831970,388.447998,694.911987
614.880005,396.256012,712.479980
612.927979,390.399994,704.671997
616.831970,394.303986,700.768005
616.831970,386.496002,698.815979
622.687988,390.399994,712.479980
620.736023,382.592010,704.671997
624.640015,380.640015,696.864014
616.831970,386.496002,694.911987
612.927979,400.160004,702.719971
628.544006,386.496002,702.719971
620.736023,388.447998,704.671997
616.831970,392.351990,704.671997
620.736023,380.640015,704.671997
628.544006,384.544006,702.719971
622.687988,374.783997,698.815979
624.640015,384.544006,706.624023
624.640015,382.592010,700.768005
620.736023,376.735992,710.528015
626.591980,382.592010,706.624023
626.591980,378.687988,708.575989
620.736023,382.592010,712.479980
620.736023,382.592010,694.911987
626.591980,390.399994,708.575989
626.591980,384.544006,694.911987
626.591980,382.592010,706.624023
632.447998,380.640015,708.575989
626.591980,374.783997,706.624023
624.640015,376.735992,700.768005
630.495972,386.496002,712.479980
626.591980,378.687988,708.575989
624.640015,380.640015,708.575989
632.447998,376.735992,704.671997
632.447998,382.592010,708.575989
628.544006,378.687988,708.575989
624.640015,386.496002,714.432007
626.591980,388.447998,698.815979
618.783997,386.496002,706.624023
620.736023,386.496002,706.624023
626.591980,380.640015,694.911987
618.783997,380.640015,702.719971
614.880005,390.399994,704.671997
622.687988,390.399994,712.479980
618.783997,380.640015,696.864014
620.736023,382.592010,696.864014
626.591980,382.592010,698.815979
620.736023,382.592010,704.671997
620.736023,386.496002,704.671997
626.591980,392.351990,698.815979
618.783997,378.687988,706.624023
616.831970,382.592010,704.671997
614.880005,382.592010,700.768005
614.880005,384.544006,710.528015
614.880005,372.832001,704.671997
610.976013,378.687988,712.479980
622.687988,374.783997,698.815979
616.831970,376.735992,710.528015
612.927979,386.496002,710.528015
609.023987,382.592010,706.624023
605.119995,384.544006,702.719971
614.880005,376.735992,710.528015
614.880005,376.735992,708.575989
609.023987,386.496002,708.575989
609.023987,376.735992,706.624023
618.783997,388.447998,706.624023
605.119995,378.687988,698.815979
609.023987,378.687988,696.864014
607.072021,384.544006,700.768005
605.119995,380.640015,702.719971
599.263977,374.783997,706.624023
605.119995,378.687988,708.575989
603.168030,378.687988,698.815979
597.312012,380.640015,698.815979
614.880005,382.592010,710.528015
607.072021,382.592010,712.479980
601.216003,382.592010,708.575989
607.072021,374.783997,712.479980
603.168030,376.735992,700.768005
601.216003,374.783997,700.768005
603.168030,386.496002,702.719971
599.263977,376.735992,700.768005
601.216003,376.735992,694.911987
603.168030,376.735992,704.671997
603.168030,378.687988,696.864014
605.119995,376.735992,698.815979
599.263977,370.880005,704.671997
601.216003,370.880005,704.671997
601.216003,376.735992,698.815979
605.119995,378.687988,698.815979
607.072021,374.783997,704.671997
601.216003,376.735992,694.911987
603.168030,365.023987,702.719971
612.927979,370.880005,700.768005
607.072021,374.783997,704.671997
610.976013,368.928009,700.768005
609.023987,378.687988,698.815979
605.119995,376.735992,698.815979
605.119995,376.735992,704.671997
612.927979,374.783997,698.815979
605.119995,366.976013,694.911987
614.880005,372.832001,708.575989
612.927979,370.880005,691.007996
609.023987,378.687988,696.864014
612.927979,368.928009,700.768005
609.023987,365.023987,700.768005
609.023987,363.071991,694.911987
605.119995,363.071991,700.768005
618.783997,372.832001,700.768005
618.783997,368.928009,702.719971
612.927979,365.023987,704.671997
622.687988,368.928009,700.768005
616.831970,365.023987,708.575989
616.831970,365.023987,710.528015
620.736023,363.071991,700.768005
618.783997,374.783997,708.575989
620.736023,368.928009,708.575989
610.976013,366.976013,704.671997
620.736023,368.928009,708.575989
614.880005,361.119995,698.815979
614.880005,363.071991,706.624023
618.783997,365.023987,712.479980
620.736023,361.119995,698.815979
622.687988,361.119995,700.768005
614.880005,361.119995,704.671997
618.783997,353.312012,694.911987
612.927979,355.264008,712.479980
609.023987,353.312012,708.575989
624.640015,353.312012,706.624023
620.736023,357.216003,694.911987
618.783997,363.071991,700.768005
620.736023,359.167999,694.911987
620.736023,349.407990,704.671997
609.023987,357.216003,708.575989
620.736023,357.216003,704.671997
616.831970,357.216003,698.815979
620.736023,349.407990,696.864014
620.736023,347.455994,702.719971
620.736023,351.359985,698.815979
616.831970,353.312012,700.768005
622.687988,351.359985,706.624023
628.544006,357.216003,704.671997
612.927979,353.312012,706.624023
618.783997,355.264008,706.624023
616.831970,351.359985,704.671997
630.495972,343.552002,702.719971
614.880005,357.216003,700.768005
618.783997,343.552002,698.815979
612.927979,343.552002,698.815979
616.831970,347.455994,708.575989
618.783997,347.455994,712.479980
614.880005,343.552002,706.624023
614.880005,349.407990,712.479980
618.783997,347.455994,712.479980
618.783997,347.455994,706.624023
618.783997,341.600006,708.575989
610.976013,343.552002,698.815979
618.783997,347.455994,706.624023
610.976013,351.359985,710.528015
614.880005,355.264008,698.815979
616.831970,349.407990,702.719971
609.023987,353.312012,710.528015
610.976013,353.312012,706.624023
605.119995,345.503998,694.911987
612.927979,349.407990,710.528015
609.023987,345.503998,702.719971
605.119995,345.503998,704.671997
618.783997,345.503998,706.624023
612.927979,353.312012,712.479980
610.976013,351.359985,710.528015
605.119995,343.552002,704.671997
607.072021,347.455994,696.864014
610.976013,347.455994,706.624023
607.072021,347.455994,702.719971
603.168030,355.264008,702.719971
614.880005,353.312012,700.768005
603.168030,353.312012,702.719971
609.023987,345.503998,696.864014
603.168030,345.503998,708.575989
601.216003,355.264008,700.768005
601.216003,345.503998,698.815979
603.168030,345.503998,708.575989
607.072021,343.552002,706.624023
607.072021,351.359985,700.768005
601.216003,347.455994,700.768005
601.216003,353.312012,696.864014
597.312012,339.648010,702.719971
601.216003,353.312012,710.528015
599.263977,345.503998,698.815979
601.216003,343.552002,712.479980
593.408020,347.455994,706.624023
599.263977,347.455994,694.911987
595.359985,347.455994,708.575989
610.976013,345.503998,704.671997
603.168030,353.312012,700.768005
609.023987,347.455994,698.815979
610.976013,345.503998,694.911987
610.976013,345.503998,698.815979
601.216003,345.503998,704.671997
601.216003,353.312012,698.815979
607.072021,351.359985,700.768005
609.023987,357.216003,700.768005
610.976013,349.407990,708.575989
603.168030,335.743988,694.911987
601.216003,347.455994,706.624023
601.216003,345.503998,704.671997
610.976013,347.455994,706.624023
618.783997,353.312012,712.479980
618.783997,347.455994,706.624023
618.783997,357.216003,706.624023
614.880005,351.359985,706.624023
610.976013,347.455994,704.671997
614.880005,355.264008,708.575989
605.119995,349.407990,698.815979
614.880005,359.167999,702.719971
616.831970,355.264008,698.815979
618.783997,351.359985,694.911987
618.783997,361.119995,698.815979
622.687988,361.119995,694.911987
614.880005,357.216003,696.864014
622.687988,343.552002,696.864014
612.927979,351.359985,691.007996
616.831970,355.264008,694.911987
628.544006,351.359985,696.864014
626.591980,353.312012,698.815979
614.880005,355.264008,698.815979
628.544006,359.167999,692.960022
620.736023,355.264008,694.911987
626.591980,351.359985,704.671997
620.736023,355.264008,694.911987
626.591980,349.407990,694.911987
622.687988,365.023987,704.671997
628.544006,361.119995,700.768005
618.783997,347.455994,704.671997
616.831970,357.216003,702.719971
620.736023,361.119995,704.671997
624.640015,351.359985,702.719971
624.640015,365.023987,694.911987
628.544006,355.264008,698.815979
626.591980,349.407990,700.768005
622.687988,363.071991,700.768005
630.495972,359.167999,704.671997
636.351990,353.312012,702.719971
646.112000,351.359985,698.815979
630.495972,351.359985,702.719971
628.544006,359.167999,702.719971
632.447998,357.216003,708.575989
638.304016,357.216003,696.864014
632.447998,345.503998,700.768005
634.400024,353.312012,700.768005
632.447998,359.167999,696.864014
624.640015,361.119995,702.719971
630.495972,347.455994,706.624023
630.495972,366.976013,704.671997
636.351990,365.023987,696.864014
630.495972,361.119995,696.864014
620.736023,357.216003,694.911987
634.400024,357.216003,708.575989
634.400024,363.071991,706.624023
628.544006,359.167999,702.719971
634.400024,359.167999,696.864014
626.591980,361.119995,694.911987
634.400024,355.264008,698.815979
628.544006,355.264008,698.815979
630.495972,359.167999,702.719971
638.304016,359.167999,694.911987
634.400024,355.264008,696.864014
638.304016,359.167999,696.864014
630.495972,363.071991,698.815979
620.736023,361.119995,700.768005
624.640015,359.167999,706.624023
626.591980,361.119995,692.960022
624.640015,359.167999,706.624023
630.495972,355.264008,712.479980
630.495972,361.119995,710.528015
620.736023,363.071991,694.911987
624.640015,368.928009,698.815979
618.783997,361.119995,698.815979
616.831970,365.023987,708.575989
626.591980,376.735992,708.575989
616.831970,361.119995,692.960022
620.736023,361.119995,706.624023
612.927979,359.167999,706.624023
622.687988,351.359985,704.671997
616.831970,363.071991,694.911987
616.831970,357.216003,692.960022
614.880005,357.216003,700.768005
614.880005,365.023987,702.719971
609.023987,363.071991,704.671997
616.831970,351.359985,698.815979
620.736023,361.119995,698.815979
622.687988,363.071991,708.575989
618.783997,359.167999,704.671997
612.927979,368.928009,698.815979
610.976013,366.976013,704.671997
622.687988,363.071991,698.815979
612.927979,368.928009,696.864014
616.831970,366.976013,700.768005
616.831970,359.167999,696.864014
618.783997,368.928009,696.864014
614.880005,365.023987,696.864014
614.880005,361.119995,700.768005
612.927979,365.023987,694.911987
614.880005,359.167999,696.864014
616.831970,363.071991,694.911987
614.880005,363.071991,704.671997
607.072021,365.023987,702.719971
616.831970,357.216003,700.768005
612.927979,359.167999,704.671997
620.736023,361.119995,694.911987
620.736023,361.119995,694.911987
618.783997,363.071991,698.815979
618.783997,365.023987,692.960022
618.783997,372.832001,702.719971
614.880005,365.023987,708.575989
620.736023,363.071991,700.768005
618.783997,368.928009,696.864014
616.831970,368.928009,694.911987
620.736023,357.216003,698.815979
618.783997,359.167999,712.479980
616.831970,363.071991,698.815979
620.736023,368.928009,702.719971
622.687988,370.880005,702.719971
614.880005,363.071991,704.671997
618.783997,365.023987,704.671997
624.640015,366.976013,708.575989
622.687988,368.928009,702.719971
616.831970,368.928009,696.864014
622.687988,372.832001,696.864014
622.687988,363.071991,691.007996
622.687988,370.880005,698.815979
622.687988,368.928009,700.768005
624.640015,376.735992,700.768005
618.783997,368.928009,698.815979
620.736023,361.119995,704.671997
622.687988,374.783997,702.719971
622.687988,368.928009,691.007996
624.640015,370.880005,694.911987
624.640015,374.783997,698.815979
624.640015,370.880005,708.575989
626.591980,368.928009,702.719971
616.831970,374.783997,704.671997
618.783997,380.640015,696.864014
620.736023,382.592010,698.815979
620.736023,380.640015,704.671997
620.736023,368.928009,696.864014
620.736023,380.640015,696.864014
620.736023,376.735992,691.007996
612.927979,365.023987,692.960022
618.783997,374.783997,696.864014
618.783997,368.928009,698.815979
618.783997,374.783997,700.768005
618.783997,374.783997,696.864014
626.591980,380.640015,704.671997
616.831970,374.783997,704.671997
612.927979,370.880005,702.719971
610.976013,380.640015,702.719971
618.783997,370.880005,702.719971
618.783997,374.783997,698.815979
618.783997,363.071991,702.719971
618.783997,380.640015,702.719971
618.783997,380.640015,694.911987
616.831970,380.640015,704.671997
614.880005,374.783997,710.528015
618.783997,374.783997,698.815979
618.783997,382.592010,694.911987
618.783997,370.880005,700.768005
610.976013,374.783997,696.864014
616.831970,382.592010,694.911987
624.640015,374.783997,691.007996
612.927979,380.640015,694.911987
616.831970,380.640015,700.768005
624.640015,370.880005,696.864014
612.927979,372.832001,704.671997
607.072021,372.832001,706.624023
618.783997,374.783997,700.768005
622.687988,372.832001,696.864014
622.687988,372.832001,700.768005
618.783997,372.832001,704.671997
620.736023,370.880005,696.864014
622.687988,370.880005,694.911987
616.831970,380.640015,692.960022
622.687988,376.735992,691.007996
624.640015,374.783997,700.768005
622.687988,374.783997,700.768005
620.736023,374.783997,700.768005
622.687988,368.928009,700.768005
618.783997,374.783997,696.864014
618.783997,382.592010,704.671997
622.687988,374.783997,700.768005
616.831970,372.832001,708.575989
618.783997,380.640015,700.768005
628.544006,380.640015,694.911987
628.544006,384.544006,696.864014
630.495972,370.880005,694.911987
622.687988,374.783997,702.719971
620.736023,368.928009,704.671997
624.640015,374.783997,700.768005
628.544006,380.640015,694.911987
630.495972,374.783997,702.719971
630.495972,365.023987,704.671997
626.591980,363.071991,698.815979
630.495972,370.880005,704.671997
624.640015,370.880005,702.719971
624.640015,376.735992,698.815979
620.736023,378.687988,712.479980
630.495972,370.880005,704.671997
634.400024,372.832001,704.671997
626.591980,374.783997,704.671997
622.687988,374.783997,702.719971
634.400024,376.735992,696.864014
636.351990,376.735992,700.768005
628.544006,378.687988,696.864014
632.447998,370.880005,702.719971
636.351990,366.976013,698.815979
632.447998,372.832001,706.624023
628.544006,366.976013,698.815979
632.447998,366.976013,694.911987
632.447998,365.023987,700.768005
634.400024,372.832001,712.479980
624.640015,363.071991,702.719971
636.351990,357.216003,702.719971
624.640015,368.928009,702.719971
620.736023,372.832001,702.719971
620.736023,363.071991,700.768005
630.495972,365.023987,706.624023
626.591980,366.976013,702.719971
624.640015,370.880005,702.719971
622.687988,368.928009,708.575989
624.640015,363.071991,700.768005
624.640015,365.023987,692.960022
624.640015,374.783997,704.671997
628.544006,365.023987,700.768005
624.640015,372.832001,702.719971
618.783997,368.928009,704.671997
620.736023,372.832001,708.575989
626.591980,370.880005,708.575989
624.640015,372.832001,694.911987
624.640015,370.880005,694.911987
622.687988,368.928009,708.575989
622.687988,370.880005,700.768005
618.783997,361.119995,700.768005
614.880005,380.640015,704.671997
616.831970,380.640015,702.719971
612.927979,368.928009,700.768005
612.927979,372.832001,704.671997
610.976013,365.023987,696.864014
614.880005,380.640015,700.768005
618.783997,382.592010,702.719971
614.880005,376.735992,702.719971
614.880005,374.783997,704.671997
618.783997,372.832001,702.719971
612.927979,374.783997,698.815979
618.783997,372.832001,696.864014
618.783997,368.928009,698.815979
622.687988,368.928009,700.768005
618.783997,372.832001,696.864014
618.783997,372.832001,691.007996
616.831970,370.880005,696.864014
610.976013,376.735992,698.815979
610.976013,376.735992,698.815979
614.880005,384.544006,696.864014
614.880005,380.640015,706.624023
612.927979,382.592010,708.575989
610.976013,374.783997,696.864014
614.880005,374.783997,706.624023
618.783997,370.880005,696.864014
620.736023,378.687988,704.671997
622.687988,374.783997,700.768005
622.687988,374.783997,696.864014
622.687988,370.880005,698.815979
618.783997,378.687988,698.815979
616.831970,376.735992,702.719971
616.831970,372.832001,704.671997
618.783997,366.976013,700.768005
622.687988,382.592010,706.624023
609.023987,372.832001,706.624023
618.783997,380.640015,702.719971
612.927979,372.832001,698.815979
605.119995,384.544006,702.719971
614.880005,382.592010,704.671997
614.880005,388.447998,702.719971
616.831970,386.496002,706.624023
620.736023,378.687988,706.624023
616.831970,370.880005,702.719971
610.976013,376.735992,704.671997
614.880005,380.640015,704.671997
609.023987,378.687988,698.815979
614.880005,366.976013,710.528015
618.783997,384.544006,704.671997
612.927979,380.640015,702.719971
616.831970,374.783997,700.768005
616.831970,376.735992,710.528015
614.880005,382.592010,704.671997
612.927979,378.687988,704.671997
610.976013,378.687988,704.671997
614.880005,392.351990,700.768005
618.783997,380.640015,700.768005
612.927979,378.687988,712.479980
601.216003,392.351990,714.432007
610.976013,374.783997,702.719971
612.927979,382.592010,712.479980
618.783997,374.783997,700.768005
612.927979,370.880005,698.815979
616.831970,376.735992,708.575989
610.976013,370.880005,702.719971
622.687988,378.687988,712.479980
618.783997,374.783997,708.575989
626.591980,376.735992,712.479980
618.783997,374.783997,698.815979
622.687988,378.687988,716.383972
624.640015,378.687988,706.624023
616.831970,384.544006,698.815979
622.687988,386.496002,706.624023
624.640015,374.783997,698.815979
620.736023,380.640015,700.768005
616.831970,376.735992,708.575989
626.591980,376.735992,708.575989
630.495972,368.928009,702.719971
616.831970,376.735992,710.528015
616.831970,368.928009,706.624023
626.591980,376.735992,710.528015
624.640015,374.783997,708.575989
616.831970,370.880005,710.528015
616.831970,380.640015,704.671997
616.831970,388.447998,706.624023
626.591980,370.880005,708.575989
622.687988,374.783997,702.719971
622.687988,384.544006,704.671997
620.736023,382.592010,694.911987
618.783997,382.592010,704.671997
620.736023,382.592010,702.719971
616.831970,388.447998,706.624023
616.831970,380.640015,704.671997
620.736023,380.640015,704.671997
616.831970,382.592010,704.671997
626.591980,380.640015,706.624023
618.783997,370.880005,700.768005
618.783997,380.640015,704.671997
620.736023,372.832001,702.719971
622.687988,378.687988,698.815979
616.831970,382.592010,700.768005
622.687988,380.640015,694.911987
614.880005,374.783997,712.479980
618.783997,376.735992,710.528015
620.736023,372.832001,702.719971
626.591980,384.544006,710.528015
614.880005,380.640015,694.911987
614.880005,380.640015,704.671997
616.831970,378.687988,712.479980
616.831970,372.832001,708.575989
618.783997,376.735992,706.624023
618.783997,374.783997,694.911987
618.783997,374.783997,696.864014
612.927979,372.832001,704.671997
618.783997,374.783997,696.864014
622.687988,374.783997,698.815979
612.927979,370.880005,698.815979
612.927979,374.783997,700.768005
618.783997,378.687988,694.911987
618.783997,374.783997,696.864014
612.927979,378.687988,702.719971
607.072021,384.544006,700.768005
612.927979,378.687988,694.911987
612.927979,374.783997,700.768005
610.976013,374.783997,692.960022
607.072021,374.783997,704.671997
605.119995,374.783997,706.624023
610.976013,384.544006,694.911987
609.023987,376.735992,702.719971
612.927979,370.880005,700.768005
610.976013,378.687988,694.911987
609.023987,378.687988,702.719971
603.168030,386.496002,700.768005
614.880005,384.544006,700.768005
609.023987,376.735992,696.864014
610.976013,370.880005,700.768005
610.976013,376.735992,694.911987
607.072021,384.544006,700.768005
616.831970,382.592010,704.671997
603.168030,372.832001,698.815979
601.216003,386.496002,696.864014
603.168030,384.544006,700.768005
603.168030,390.399994,698.815979
595.359985,382.592010,706.624023
601.216003,374.783997,700.768005
603.168030,378.687988,700.768005
603.168030,370.880005,698.815979
603.168030,380.640015,704.671997
605.119995,382.592010,702.719971
599.263977,366.976013,702.719971
605.119995,378.687988,700.768005
603.168030,378.687988,700.768005
593.408020,378.687988,712.479980
601.216003,366.976013,706.624023
599.263977,376.735992,704.671997
599.263977,370.880005,694.911987
599.263977,376.735992,692.960022
595.359985,380.640015,698.815979
595.359985,378.687988,696.864014
601.216003,376.735992,698.815979
607.072021,380.640015,692.960022
591.455994,376.735992,704.671997
591.455994,368.928009,698.815979
591.455994,376.735992,702.719971
591.455994,380.640015,694.911987
599.263977,372.832001,700.768005
593.408020,370.880005,698.815979
603.168030,376.735992,692.960022
595.359985,374.783997,694.911987
603.168030,372.832001,692.960022
603.168030,370.880005,694.911987
595.359985,378.687988,691.007996
605.119995,370.880005,700.768005
599.263977,374.783997,696.864014
595.359985,372.832001,689.056030
599.263977,370.880005,696.864014
599.263977,372.832001,698.815979
587.552002,368.928009,696.864014
601.216003,372.832001,692.960022
597.312012,363.071991,694.911987
599.263977,374.783997,694.911987
603.168030,368.928009,683.200012
599.263977,372.832001,694.911987
603.168030,378.687988,704.671997
603.168030,359.167999,696.864014
601.216003,376.735992,694.911987
597.312012,376.735992,700.768005
601.216003,366.976013,698.815979
601.216003,368.928009,700.768005
607.072021,366.976013,696.864014
609.023987,370.880005,694.911987
609.023987,366.976013,691.007996
618.783997,380.640015,696.864014
607.072021,368.928009,704.671997
607.072021,372.832001,694.911987
603.168030,368.928009,692.960022
610.976013,359.167999,702.719971
610.976013,365.023987,704.671997
612.927979,380.640015,700.768005
609.023987,376.735992,689.056030
614.880005,359.167999,702.719971
612.927979,368.928009,696.864014
616.831970,368.928009,700.768005
612.927979,372.832001,696.864014
610.976013,363.071991,696.864014
609.023987,355.264008,708.575989
610.976013,368.928009,700.768005
609.023987,363.071991,698.815979
610.976013,365.023987,698.815979
610.976013,372.832001,700.768005
614.880005,380.640015,694.911987
607.072021,370.880005,712.479980
607.072021,366.976013,698.815979
607.072021,378.687988,696.864014
610.976013,376.735992,698.815979
610.976013,363.071991,708.575989
610.976013,366.976013,698.815979
610.976013,365.023987,706.624023
614.880005,361.119995,700.768005
614.880005,368.928009,704.671997
607.072021,359.167999,698.815979
603.168030,366.976013,700.768005
610.976013,366.976013,704.671997
605.119995,359.167999,706.624023
610.976013,363.071991,702.719971
603.168030,366.976013,696.864014
605.119995,361.119995,691.007996
605.119995,376.735992,698.815979
605.119995,365.023987,687.104004
607.072021,368.928009,692.960022
605.119995,365.023987,706.624023
609.023987,365.023987,710.528015
607.072021,366.976013,706.624023
612.927979,363.071991,710.528015
607.072021,370.880005,706.624023
595.359985,366.976013,708.575989
605.119995,378.687988,694.911987
597.312012,359.167999,702.719971
614.880005,372.832001,710.528015
612.927979,370.880005,702.719971
605.119995,370.880005,694.911987
612.927979,368.928009,702.719971
601.216003,365.023987,698.815979
605.119995,366.976013,700.768005
609.023987,370.880005,712.479980
607.072021,366.976013,696.864014
599.263977,370.880005,696.864014
607.072021,376.735992,698.815979
601.216003,372.832001,704.671997
605.119995,365.023987,696.864014
601.216003,366.976013,692.960022
605.119995,366.976013,700.768005
601.216003,366.976013,700.768005
614.880005,357.216003,698.815979
610.976013,366.976013,700.768005
605.119995,366.976013,700.768005
603.168030,366.976013,704.671997
607.072021,376.735992,704.671997
605.119995,376.735992,706.624023
603.168030,366.976013,702.719971
607.072021,372.832001,700.768005
599.263977,376.735992,704.671997
597.312012,374.783997,706.624023
601.216003,376.735992,694.911987
605.119995,370.880005,704.671997
603.168030,368.928009,704.671997
601.216003,372.832001,706.624023
601.216003,368.928009,702.719971
607.072021,368.928009,704.671997
605.119995,372.832001,700.768005
605.119995,376.735992,696.864014
605.119995,376.735992,698.815979
597.312012,368.928009,706.624023
601.216003,366.976013,704.671997
601.216003,376.735992,704.671997
599.263977,366.976013,700.768005
597.312012,372.832001,702.719971
601.216003,372.832001,708.575989
597.312012,365.023987,702.719971
603.168030,370.880005,704.671997
601.216003,376.735992,704.671997
593.408020,380.640015,700.768005
597.312012,372.832001,698.815979
599.263977,374.783997,696.864014
605.119995,376.735992,706.624023
599.263977,368.928009,694.911987
597.312012,382.592010,700.768005
599.263977,372.832001,702.719971
597.312012,370.880005,704.671997
597.312012,386.496002,698.815979
603.168030,378.687988,698.815979
593.408020,376.735992,698.815979
605.119995,376.735992,704.671997
593.408020,378.687988,706.624023
593.408020,370.880005,708.575989
593.408020,376.735992,706.624023
585.599976,382.592010,698.815979
595.359985,382.592010,700.768005
589.504028,374.783997,702.719971
579.744019,370.880005,694.911987
597.312012,376.735992,712.479980
595.359985,378.687988,702.719971
585.599976,378.687988,704.671997
589.504028,370.880005,696.864014
587.552002,374.783997,696.864014
589.504028,374.783997,700.768005
591.455994,374.783997,696.864014
587.552002,372.832001,696.864014
591.455994,380.640015,696.864014
591.455994,370.880005,700.768005
581.695984,370.880005,702.719971
577.791992,355.264008,704.671997
581.695984,370.880005,700.768005
587.552002,363.071991,700.768005
581.695984,376.735992,698.815979
587.552002,374.783997,696.864014
577.791992,368.928009,694.911987
583.648010,365.023987,698.815979
587.552002,372.832001,698.815979
581.695984,372.832001,708.575989
575.840027,376.735992,698.815979
581.695984,376.735992,692.960022
571.935974,374.783997,706.624023
575.840027,374.783997,706.624023
575.840027,368.928009,702.719971
571.935974,357.216003,700.768005
577.791992,359.167999,696.864014
573.888000,368.928009,700.768005
569.984009,359.167999,698.815979
566.080017,368.928009,698.815979
566.080017,359.167999,696.864014
558.271973,361.119995,698.815979
575.840027,359.167999,696.864014
562.176025,357.216003,694.911987
569.984009,359.167999,698.815979
566.080017,355.264008,702.719971
564.127991,355.264008,704.671997
560.223999,357.216003,694.911987
560.223999,343.552002,702.719971
558.271973,357.216003,700.768005
554.367981,361.119995,698.815979
564.127991,355.264008,694.911987
564.127991,351.359985,692.960022
560.223999,353.312012,692.960022
562.176025,353.312012,687.104004
558.271973,351.359985,700.768005
566.080017,347.455994,700.768005
564.127991,349.407990,700.768005
564.127991,339.648010,710.528015
571.935974,339.648010,706.624023
568.031982,339.648010,700.768005
560.223999,347.455994,704.671997
568.031982,339.648010,702.719971
568.031982,345.503998,698.815979
564.127991,349.407990,706.624023
562.176025,335.743988,700.768005
556.320007,343.552002,708.575989
560.223999,347.455994,710.528015
564.127991,333.791992,710.528015
568.031982,339.648010,706.624023
560.223999,335.743988,708.575989
562.176025,335.743988,714.432007
564.127991,341.600006,706.624023
564.127991,320.127991,704.671997
560.223999,324.032013,712.479980
560.223999,324.032013,706.624023
558.271973,325.984009,692.960022
558.271973,329.888000,694.911987
560.223999,327.936005,706.624023
558.271973,324.032013,698.815979
560.223999,316.223999,706.624023
560.223999,325.984009,704.671997
546.559998,318.175995,704.671997
546.559998,322.079987,700.768005
554.367981,314.272003,691.007996
548.512024,314.272003,700.768005
546.559998,306.463989,704.671997
552.416016,314.272003,708.575989
550.463989,310.368011,698.815979
546.559998,310.368011,708.575989
552.416016,306.463989,706.624023
550.463989,302.559998,712.479980
556.320007,304.511993,710.528015
554.367981,302.559998,708.575989
560.223999,296.704010,716.383972
558.271973,294.752014,706.624023
554.367981,310.368011,710.528015
558.271973,296.704010,708.575989
554.367981,302.559998,714.432007
554.367981,304.511993,710.528015
566.080017,296.704010,698.815979
568.031982,294.752014,716.383972
566.080017,306.463989,712.479980
558.271973,294.752014,706.624023
560.223999,294.752014,712.479980
562.176025,290.847992,714.432007
558.271973,284.992004,718.335999
560.223999,288.895996,716.383972
564.127991,283.040009,722.239990
568.031982,286.944000,722.239990
568.031982,288.895996,728.096008
564.127991,281.088013,732.000000
566.080017,281.088013,743.711975
577.791992,277.183990,745.664001
571.935974,281.088013,747.616028
575.840027,281.088013,747.616028
585.599976,277.183990,741.760010
581.695984,275.231995,733.952026
577.791992,283.040009,741.760010
575.840027,275.231995,737.856018
568.031982,283.040009,743.711975
566.080017,275.231995,730.047974
558.271973,273.279999,722.239990
550.463989,265.471985,724.192017
556.320007,261.567993,718.335999
552.416016,257.664001,698.815979
538.752014,271.328003,694.911987
530.943970,253.759995,694.911987
530.943970,249.856003,700.768005
527.039978,245.951996,689.056030
528.992004,245.951996,704.671997
523.135986,247.904007,698.815979
528.992004,244.000000,704.671997
528.992004,249.856003,700.768005
525.088013,247.904007,704.671997
523.135986,245.951996,710.528015
517.280029,257.664001,714.432007
517.280029,251.807999,706.624023
523.135986,253.759995,714.432007
511.424011,261.567993,710.528015
515.328003,261.567993,710.528015
519.231995,257.664001,710.528015
511.424011,263.519989,720.288025
511.424011,267.424011,714.432007
513.375977,255.712006,714.432007
513.375977,257.664001,714.432007
513.375977,249.856003,716.383972
515.328003,249.856003,712.479980
517.280029,238.143997,710.528015
513.375977,244.000000,710.528015
515.328003,244.000000,712.479980
523.135986,220.576004,712.479980
525.088013,232.287994,714.432007
517.280029,238.143997,720.288025
525.088013,242.048004,728.096008
515.328003,234.240005,728.096008
519.231995,244.000000,728.096008
517.280029,247.904007,726.143982
525.088013,247.904007,732.000000
528.992004,251.807999,724.192017
532.895996,249.856003,724.192017
527.039978,255.712006,735.903992
527.039978,249.856003,730.047974
530.943970,253.759995,735.903992
528.992004,244.000000,728.096008
528.992004,247.904007,728.096008
527.039978,249.856003,735.903992
525.088013,244.000000,730.047974
532.895996,236.192001,730.047974
532.895996,230.335999,724.192017
534.848022,232.287994,726.143982
528.992004,230.335999,724.192017
530.943970,222.528000,724.192017
528.992004,222.528000,716.383972
523.135986,220.576004,720.288025
532.895996,232.287994,714.432007
532.895996,236.192001,718.335999
540.703979,222.528000,722.239990
534.848022,230.335999,722.239990
540.703979,228.384003,724.192017
544.607971,226.432007,720.288025
548.512024,228.384003,720.288025
550.463989,222.528000,714.432007
556.320007,244.000000,735.903992
558.271973,247.904007,730.047974
564.127991,238.143997,737.856018
566.080017,247.904007,735.903992
571.935974,236.192001,726.143982
569.984009,236.192001,741.760010
573.888000,238.143997,733.952026
587.552002,238.143997,735.903992
591.455994,234.240005,751.520020
595.359985,240.095993,741.760010
597.312012,240.095993,741.760010
607.072021,238.143997,745.664001
618.783997,240.095993,749.567993
618.783997,240.095993,749.567993
616.831970,247.904007,741.760010
616.831970,251.807999,741.760010
642.208008,259.615997,749.567993
636.351990,257.664001,745.664001
636.351990,259.615997,751.520020
646.112000,257.664001,757.375977
648.064026,263.519989,749.567993
653.919983,265.471985,751.520020
653.919983,269.376007,759.328003
661.728027,275.231995,757.375977
659.776001,275.231995,747.616028
661.728027,269.376007,765.184021
659.776001,255.712006,755.424011
661.728027,253.759995,757.375977
665.632019,263.519989,761.280029
669.536011,259.615997,771.039978
661.728027,261.567993,771.039978
657.823975,261.567993,763.231995
648.064026,255.712006,767.135986
655.872009,255.712006,771.039978
655.872009,253.759995,774.943970
632.447998,249.856003,769.088013
632.447998,255.712006,771.039978
638.304016,222.528000,771.039978
624.640015,249.856003,771.039978
632.447998,238.143997,761.280029
618.783997,224.479996,771.039978
610.976013,244.000000,753.471985
609.023987,238.143997,755.424011
601.216003,234.240005,759.328003
599.263977,234.240005,745.664001
595.359985,230.335999,739.807983
581.695984,226.432007,745.664001
583.648010,220.576004,739.807983
568.031982,216.671997,726.143982
566.080017,203.007996,737.856018
560.223999,201.056000,726.143982
554.367981,199.104004,733.952026
546.559998,189.343994,747.616028
546.559998,193.248001,735.903992
538.752014,197.151993,726.143982
540.703979,189.343994,735.903992
528.992004,183.488007,739.807983
521.184021,181.535995,730.047974
515.328003,197.151993,720.288025
513.375977,183.488007,714.432007
501.664001,183.488007,706.624023
484.096008,193.248001,716.383972
491.903992,189.343994,714.432007
486.048004,187.391998,708.575989
480.191986,189.343994,704.671997
480.191986,189.343994,706.624023
470.432007,201.056000,694.911987
468.480011,189.343994,691.007996
460.671997,197.151993,685.151978
460.671997,203.007996,692.960022
454.816010,199.104004,691.007996
447.007996,191.296005,700.768005
452.864014,187.391998,700.768005
450.911987,193.248001,712.479980
450.911987,191.296005,710.528015
448.959991,195.199997,722.239990
450.911987,181.535995,716.383972
456.768005,191.296005,718.335999
454.816010,189.343994,732.000000
466.528015,189.343994,741.760010
468.480011,181.535995,733.952026
468.480011,187.391998,733.952026
468.480011,185.440002,728.096008
468.480011,181.535995,735.903992
478.239990,191.296005,745.664001
470.432007,189.343994,751.520020
474.335999,189.343994,763.231995
480.191986,183.488007,782.752014
486.048004,191.296005,788.607971
497.760010,199.104004,796.416016
495.808014,189.343994,808.127991
505.567993,197.151993,812.031982
507.519989,199.104004,813.984009
517.280029,185.440002,819.840027
525.088013,191.296005,817.888000
523.135986,195.199997,812.031982
540.703979,201.056000,815.935974
527.039978,199.104004,817.888000
530.943970,204.960007,812.031982
536.799988,206.912003,808.127991
536.799988,218.623993,796.416016
536.799988,206.912003,794.463989
527.039978,210.815994,782.752014
540.703979,218.623993,778.848022
622.687988,224.479996,776.895996
790.559998,154.207993,755.424011
320.127991,392.351990,798.367981
835.455994,224.479996,890.112000
437.247986,126.879997,911.583984
749.567993,536.799988,880.351990
548.512024,146.399994,954.528015
854.976013,-511.424011,960.383972
769.088013,-251.807999,1128.255981
523.135986,681.247986,1175.104004
661.728027,427.488007,1134.112061
562.176025,138.591995,1126.303955
616.831970,208.863998,1077.504028
628.544006,119.071999,1046.271973
732.000000,290.847992,1024.800049
718.335999,505.567993,1015.039978
761.280029,343.552002,983.807983
792.512024,128.832001,979.903992
778.848022,226.432007,976.000000
733.952026,357.216003,972.096008
788.607971,322.079987,974.047974
749.567993,245.951996,964.288025
718.335999,300.608002,964.288025
743.711975,343.552002,964.288025
724.192017,376.735992,981.856018
730.047974,368.928009,999.424011
747.616028,370.880005,1034.560059
774.943970,368.928009,1046.271973
790.559998,376.735992,1063.839966
827.648010,382.592010,1079.456055
870.591980,359.167999,1108.735962
905.728027,271.328003,1124.352051
944.768005,203.007996,1165.343994
964.288025,187.391998,1200.479980
913.536011,181.535995,1233.663940
950.624023,156.160004,1249.280029
1011.135986,128.832001,1259.040039
1036.511963,91.744003,1282.463989
1042.368042,52.703999,1284.416016
1112.640015,44.896000,1290.271973
917.440002,-318.175995,1317.599976
284.992004,-1020.895996,1360.543945
230.335999,-730.047974,1309.791992
798.367981,794.463989,1116.543945
774.943970,1313.696045,1036.511963
835.455994,1028.703979,997.471985
607.072021,1280.511963,1005.280029
657.823975,1227.807983,962.335999
1112.640015,-915.487976,860.831970
866.687988,-669.536011,903.776001
843.263977,339.648010,927.200012
970.143982,634.400024,935.007996
827.648010,607.072021,960.383972
862.783997,447.007996,968.192017
927.200012,366.976013,1009.184021
907.679993,370.880005,1028.703979
860.831970,337.696014,1069.696045
665.632019,-3.904000,1124.352051
181.535995,-464.575989,1153.631958
345.503998,-103.456001,1138.015991
1024.800049,425.536011,1040.416016
1309.791992,290.847992,1018.943970
765.184021,-552.416016,1059.936035
-357.216003,-1399.583984,1149.728027
587.552002,-642.208008,985.760010
1645.536011,-286.944000,895.968018
80.031998,-417.727997,1009.184021
33.183998,396.256012,909.632019
1218.047974,755.424011,778.848022
552.416016,302.559998,856.927979
378.687988,363.071991,860.831970
841.312012,694.911987,804.223999
823.744019,618.783997,827.648010
710.528015,347.455994,851.072021
737.856018,212.768005,872.544006
712.479980,372.832001,903.776001
813.984009,544.607971,917.440002
936.960022,472.384003,919.392029
519.231995,185.440002,958.432007
160.063995,308.415985,987.711975
-62.464001,751.520020,940.864014
866.687988,1016.992004,847.168030
1056.031982,1005.280029,845.216003
616.831970,956.479980,927.200012
560.223999,1036.511963,974.047974
812.031982,1136.063965,993.567993
1095.072021,1220.000000,1015.039978
1028.703979,-269.376007,1050.176025
790.559998,-1370.303955,1016.992004
259.615997,-1483.520020,1003.328003
-130.783997,197.151993,1009.184021
425.536011,1571.359985,888.159973
1231.712036,1200.479980,804.223999
179.584000,-220.576004,853.023987
281.088013,-167.871994,823.744019
800.320007,525.088013,810.080017
607.072021,624.640015,825.695984
452.864014,-136.639999,843.263977
-284.992004,-936.960022,624.640015
874.495972,-657.823975,458.720001
780.799988,-651.968018,413.824005
878.400024,-431.391998,433.343994
823.744019,-298.656006,433.343994
966.239990,-281.088013,454.816010
525.088013,-390.399994,476.287994
573.888000,-187.391998,556.320007
628.544006,-54.655998,646.112000
655.872009,-31.232000,692.960022
704.671997,-119.071999,735.903992
681.247986,-249.856003,747.616028
726.143982,-294.752014,755.424011
540.703979,-23.424000,778.848022
470.432007,788.607971,872.544006
780.799988,1110.687988,940.864014
575.840027,702.719971,892.064026
601.216003,460.671997,835.455994
702.719971,530.943970,851.072021
747.616028,632.447998,868.640015
423.584015,464.575989,810.080017
171.776001,1128.255981,747.616028
-152.255997,4064.063965,667.583984
892.064026,3509.696045,732.000000
283.040009,-44.896000,763.231995
571.935974,-1317.599976,735.903992
940.864014,-968.192017,702.719971
614.880005,-345.503998,659.776001
653.919983,265.471985,683.200012
335.743988,1409.343994,706.624023
616.831970,1218.047974,708.575989
368.928009,128.832001,644.159973
761.280029,-345.503998,587.552002
525.088013,-294.752014,562.176025
-7.808000,318.175995,550.463989
85.888000,923.296021,616.831970
163.968002,624.640015,626.591980
171.776001,187.391998,575.840027
212.768005,292.799988,534.848022
751.520020,497.760010,513.375977
292.799988,714.432007,437.247986
15.616000,642.208008,384.544006
121.024002,165.919998,407.967987
263.519989,-150.304001,421.631989
318.175995,236.192001,417.727997
761.280029,732.000000,372.832001
425.536011,794.463989,300.608002
249.856003,386.496002,290.847992
464.575989,-124.928001,324.032013
499.712006,17.568001,355.264008
302.559998,448.959991,335.743988
368.928009,556.320007,341.600006
400.160004,368.928009,339.648010
429.440002,144.447998,327.936005
347.455994,204.960007,324.032013
251.807999,370.880005,329.888000
314.272003,365.023987,351.359985
277.183990,240.095993,357.216003
224.479996,363.071991,372.832001
109.311996,460.671997,365.023987
413.824005,363.071991,363.071991
283.040009,458.720001,325.984009
314.272003,177.632004,298.656006
-109.311996,191.296005,288.895996
-171.776001,374.783997,331.839996
66.367996,448.959991,365.023987
240.095993,581.695984,324.032013
74.176003,862.783997,281.088013
160.063995,983.807983,267.424011
99.552002,886.208008,290.847992
23.424000,515.328003,286.944000
148.352005,251.807999,244.000000
218.623993,536.799988,212.768005
148.352005,1001.375977,199.104004
197.151993,995.520020,216.671997
203.007996,638.304016,210.815994
191.296005,378.687988,185.440002
208.863998,466.528015,185.440002
197.151993,718.335999,177.632004
185.440002,776.895996,175.679993
171.776001,620.736023,171.776001
189.343994,486.048004,177.632004
185.440002,521.184021,179.584000
158.112000,597.312012,187.391998
154.207993,597.312012,193.248001
177.632004,515.328003,195.199997
173.727997,468.480011,189.343994
175.679993,489.951996,187.391998
167.871994,521.184021,204.960007
148.352005,505.567993,212.768005
146.399994,433.343994,214.720001
167.871994,392.351990,222.528000
144.447998,398.208008,245.951996
156.160004,417.727997,247.904007
156.160004,425.536011,265.471985
162.016006,384.544006,271.328003
169.824005,337.696014,269.376007
181.535995,324.032013,281.088013
183.488007,325.984009,300.608002
197.151993,333.791992,290.847992
195.199997,341.600006,294.752014
201.056000,343.552002,304.511993
195.199997,320.127991,316.223999
191.296005,312.320007,320.127991
187.391998,318.175995,325.984009
216.671997,320.127991,331.839996
218.623993,325.984009,337.696014
222.528000,302.559998,335.743988
240.095993,288.895996,357.216003
245.951996,265.471985,345.503998
251.807999,253.759995,357.216003
267.424011,245.951996,363.071991
273.279999,222.528000,384.544006
275.231995,210.815994,388.447998
273.279999,195.199997,392.351990
273.279999,197.151993,398.208008
277.183990,201.056000,407.967987
288.895996,208.863998,417.727997
290.847992,197.151993,411.872009
302.559998,197.151993,413.824005
306.463989,199.104004,413.824005
316.223999,203.007996,409.920013
322.079987,208.863998,417.727997
329.888000,220.576004,425.536011
341.600006,244.000000,431.391998
339.648010,279.135986,437.247986
359.167999,296.704010,458.720001
365.023987,318.175995,468.480011
382.592010,316.223999,488.000000
382.592010,339.648010,497.760010
388.447998,366.976013,511.424011
400.160004,404.063995,507.519989
407.967987,400.160004,523.135986
431.391998,378.687988,525.088013
421.631989,357.216003,532.895996
448.959991,365.023987,538.752014
464.575989,359.167999,558.271973
468.480011,368.928009,573.888000
460.671997,363.071991,589.504028
478.239990,361.119995,605.119995
476.287994,343.552002,614.880005
484.096008,349.407990,632.447998
503.615997,343.552002,650.015991
499.712006,335.743988,667.583984
501.664001,333.791992,691.007996
515.328003,327.936005,696.864014
519.231995,327.936005,712.479980
523.135986,333.791992,720.288025
527.039978,329.888000,733.952026
544.607971,331.839996,739.807983
556.320007,339.648010,732.000000
556.320007,341.600006,732.000000
560.223999,345.503998,718.335999
558.271973,357.216003,728.096008
571.935974,376.735992,724.192017
568.031982,404.063995,724.192017
566.080017,419.679993,733.952026
569.984009,417.727997,735.903992
581.695984,425.536011,747.616028
585.599976,435.295990,741.760010
581.695984,441.152008,755.424011
585.599976,445.056000,769.088013
585.599976,443.104004,769.088013
597.312012,437.247986,780.799988
601.216003,429.440002,798.367981
607.072021,447.007996,804.223999
605.119995,435.295990,810.080017
612.927979,439.200012,819.840027
614.880005,431.391998,815.935974
618.783997,419.679993,827.648010
626.591980,417.727997,829.599976
616.831970,409.920013,837.408020
622.687988,404.063995,841.312012
626.591980,402.112000,837.408020
630.495972,382.592010,841.312012
612.927979,374.783997,827.648010
622.687988,372.832001,817.888000
620.736023,359.167999,802.271973
616.831970,345.503998,776.895996
622.687988,324.032013,759.328003
616.831970,306.463989,737.856018
607.072021,290.847992,720.288025
597.312012,281.088013,698.815979
595.359985,253.759995,689.056030
593.408020,242.048004,669.536011
585.599976,226.432007,655.872009
587.552002,218.623993,634.400024
591.455994,210.815994,626.591980
587.552002,203.007996,618.783997
589.504028,208.863998,618.783997
591.455994,210.815994,607.072021
585.599976,206.912003,610.976013
585.599976,208.863998,589.504028
593.408020,208.863998,593.408020
589.504028,216.671997,607.072021
593.408020,220.576004,593.408020
597.312012,224.479996,589.504028
595.359985,212.768005,597.312012
605.119995,228.384003,612.927979
607.072021,216.671997,601.216003
607.072021,218.623993,612.927979
618.783997,216.671997,614.880005
620.736023,197.151993,620.736023
626.591980,193.248001,638.304016
634.400024,175.679993,650.015991
638.304016,167.871994,657.823975
644.159973,146.399994,663.679993
661.728027,148.352005,667.583984
665.632019,134.688004,673.440002
659.776001,124.928001,681.247986
669.536011,113.216003,681.247986
681.247986,103.456001,692.960022
675.392029,99.552002,685.151978
685.151978,93.695999,696.864014
685.151978,91.744003,683.200012
696.864014,81.984001,692.960022
694.911987,72.223999,675.392029
712.479980,72.223999,681.247986
714.432007,66.367996,681.247986
722.239990,68.320000,675.392029
730.047974,58.560001,673.440002
726.143982,60.512001,663.679993
741.760010,50.751999,663.679993
749.567993,52.703999,667.583984
759.328003,46.848000,669.536011
761.280029,40.992001,667.583984
767.135986,40.992001,679.296021
780.799988,46.848000,681.247986
782.752014,37.088001,681.247986
786.656006,37.088001,679.296021
794.463989,23.424000,692.960022
813.984009,19.520000,692.960022
819.840027,23.424000,692.960022
827.648010,15.616000,698.815979
837.408020,29.280001,702.719971
839.359985,17.568001,706.624023
845.216003,9.760000,706.624023
853.023987,15.616000,708.575989
853.023987,11.712000,708.575989
860.831970,21.472000,712.479980
860.831970,50.751999,712.479980
853.023987,95.648003,712.479980
856.927979,83.935997,712.479980
866.687988,39.040001,714.432007
870.591980,-17.568001,714.432007
880.351990,-21.472000,724.192017
880.351990,13.664000,722.239990
880.351990,40.992001,726.143982
878.400024,40.992001,726.143982
890.112000,9.760000,733.952026
894.015991,-23.424000,737.856018
894.015991,-23.424000,761.280029
894.015991,7.808000,763.231995
901.823975,13.664000,757.375977
905.728027,9.760000,774.943970
901.823975,-21.472000,769.088013
899.872009,-21.472000,778.848022
897.919983,-3.904000,784.703979
890.112000,0.000000,794.463989
899.872009,0.000000,802.271973
911.583984,-19.520000,804.223999
909.632019,-13.664000,800.320007
909.632019,-5.856000,808.127991
909.632019,5.856000,817.888000
907.679993,1.952000,833.504028
915.487976,-7.808000,831.552002
919.392029,-5.856000,831.552002
915.487976,0.000000,849.119995
917.440002,1.952000,856.927979
909.632019,3.904000,858.880005
907.679993,-3.904000,864.736023
917.440002,1.952000,868.640015
919.392029,-3.904000,868.640015
931.104004,11.712000,870.591980
913.536011,7.808000,878.400024
917.440002,5.856000,874.495972
907.679993,5.856000,870.591980
905.728027,19.520000,876.447998
907.679993,29.280001,858.880005
901.823975,25.375999,858.880005
899.872009,27.327999,853.023987
890.112000,40.992001,849.119995
884.255981,56.608002,839.359985
874.495972,76.127998,833.504028
866.687988,81.984001,812.031982
854.976013,89.792000,806.176025
849.119995,101.503998,796.416016
841.312012,105.407997,778.848022
839.359985,117.120003,776.895996
833.504028,122.975998,759.328003
831.552002,128.832001,747.616028
813.984009,121.024002,737.856018
813.984009,132.735992,726.143982
806.176025,138.591995,714.432007
794.463989,122.975998,716.383972
798.367981,113.216003,702.719971
784.703979,107.360001,702.719971
782.752014,115.167999,691.007996
767.135986,97.599998,683.200012
763.231995,81.984001,681.247986
759.328003,85.888000,683.200012
747.616028,72.223999,673.440002
759.328003,78.080002,677.343994
735.903992,81.984001,675.392029
726.143982,83.935997,667.583984
718.335999,89.792000,659.776001
716.383972,89.792000,669.536011
720.288025,91.744003,659.776001
714.432007,97.599998,665.632019
702.719971,95.648003,651.968018
696.864014,95.648003,650.015991
691.007996,93.695999,651.968018
689.056030,89.792000,650.015991
685.151978,91.744003,651.968018
694.911987,107.360001,648.064026
692.960022,95.648003,636.351990
696.864014,97.599998,640.255981
694.911987,105.407997,634.400024
687.104004,97.599998,636.351990
687.104004,99.552002,640.255981
692.960022,99.552002,648.064026
679.296021,99.552002,642.208008
692.960022,99.552002,640.255981
694.911987,83.935997,642.208008
691.007996,83.935997,646.112000
685.151978,85.888000,646.112000
689.056030,81.984001,640.255981
683.200012,95.648003,646.112000
689.056030,76.127998,650.015991
689.056030,81.984001,650.015991
687.104004,72.223999,650.015991
691.007996,76.127998,646.112000
683.200012,85.888000,640.255981
677.343994,81.984001,636.351990
665.632019,80.031998,640.255981
677.343994,80.031998,642.208008
681.247986,74.176003,636.351990
683.200012,70.272003,630.495972
671.487976,74.176003,628.544006
679.296021,83.935997,622.687988
685.151978,78.080002,622.687988
675.392029,81.984001,626.591980
685.151978,81.984001,618.783997
689.056030,83.935997,616.831970
681.247986,74.176003,618.783997
685.151978,74.176003,612.927979
675.392029,74.176003,620.736023
692.960022,76.127998,612.927979
683.200012,64.416000,609.023987
689.056030,62.464001,601.216003
694.911987,66.367996,607.072021
692.960022,52.703999,610.976013
696.864014,46.848000,609.023987
696.864014,56.608002,612.927979
700.768005,46.848000,607.072021
696.864014,46.848000,605.119995
704.671997,42.944000,597.312012
698.815979,42.944000,597.312012
704.671997,37.088001,583.648010
696.864014,40.992001,583.648010
692.960022,42.944000,585.599976
694.911987,48.799999,583.648010
689.056030,44.896000,573.888000
696.864014,50.751999,562.176025
704.671997,42.944000,556.320007
698.815979,52.703999,542.656006
689.056030,50.751999,536.799988
704.671997,64.416000,538.752014
698.815979,66.367996,540.703979
692.960022,68.320000,532.895996
694.911987,52.703999,507.519989
696.864014,56.608002,505.567993
712.479980,46.848000,499.712006
706.624023,52.703999,493.855988
702.719971,60.512001,497.760010
710.528015,54.655998,489.951996
714.432007,37.088001,486.048004
716.383972,37.088001,486.048004
718.335999,31.232000,482.144012
724.192017,48.799999,470.432007
720.288025,54.655998,460.671997
728.096008,54.655998,456.768005
735.903992,39.040001,460.671997
739.807983,46.848000,452.864014
739.807983,44.896000,443.104004
745.664001,48.799999,450.911987
732.000000,44.896000,441.152008
722.239990,25.375999,439.200012
739.807983,-48.799999,443.104004
735.903992,-122.975998,435.295990
739.807983,-113.216003,437.247986
749.567993,19.520000,406.015991
749.567993,121.024002,398.208008
745.664001,85.888000,407.967987
763.231995,-31.232000,400.160004
772.992004,-91.744003,398.208008
769.088013,-40.992001,396.256012
757.375977,50.751999,386.496002
769.088013,60.512001,376.735992
772.992004,-3.904000,351.359985
776.895996,-29.280001,345.503998
776.895996,7.808000,347.455994
784.703979,58.560001,341.600006
788.607971,46.848000,322.079987
788.607971,13.664000,304.511993
806.176025,23.424000,306.463989
808.127991,54.655998,300.608002
808.127991,70.272003,290.847992
812.031982,66.367996,281.088013
825.695984,76.127998,283.040009
837.408020,83.935997,279.135986
847.168030,103.456001,281.088013
849.119995,122.975998,269.376007
833.504028,134.688004,263.519989
845.216003,128.832001,253.759995
845.216003,144.447998,257.664001
868.640015,175.679993,245.951996
874.495972,173.727997,255.712006
897.919983,152.255997,251.807999
897.919983,162.016006,242.048004
903.776001,197.151993,247.904007
909.632019,208.863998,251.807999
913.536011,191.296005,257.664001
925.247986,191.296005,261.567993
923.296021,208.863998,255.712006
933.056030,214.720001,261.567993
935.007996,212.768005,251.807999
950.624023,203.007996,249.856003
936.960022,214.720001,251.807999
966.239990,236.192001,267.424011
952.575989,232.287994,267.424011
958.432007,224.479996,271.328003
954.528015,240.095993,275.231995
983.807983,255.712006,288.895996
983.807983,259.615997,302.559998
987.711975,259.615997,308.415985
1005.280029,279.135986,339.648010
1009.184021,298.656006,368.928009
1030.656006,288.895996,376.735992
1038.463989,279.135986,394.303986
1056.031982,288.895996,423.584015
1059.936035,318.175995,454.816010
1057.984009,306.463989,468.480011
1057.984009,286.944000,480.191986
1061.887939,277.183990,484.096008
1061.887939,275.231995,491.903992
1071.647949,261.567993,501.664001
1061.887939,236.192001,499.712006
1087.264038,234.240005,488.000000
1136.063965,247.904007,486.048004
1118.495972,232.287994,480.191986
964.288025,351.359985,466.528015
872.544006,562.176025,486.048004
876.447998,536.799988,497.760010
991.616028,409.920013,484.096008
1159.488037,294.752014,484.096008
1239.520020,195.199997,503.615997
1184.864014,169.824005,536.799988
1171.199951,226.432007,564.127991
1173.151978,245.951996,614.880005
1179.008057,203.007996,636.351990
1194.624023,204.960007,675.392029
1198.527954,216.671997,720.288025
1165.343994,240.095993,751.520020
1145.823975,255.712006,786.656006
1149.728027,267.424011,821.791992
1106.784058,476.287994,829.599976
1139.968018,659.776001,849.119995
1141.920044,464.575989,853.023987
1151.680054,177.632004,853.023987
1186.816040,144.447998,872.544006
1190.719971,236.192001,876.447998
1169.248047,341.600006,880.351990
1163.391968,388.447998,897.919983
1155.583984,339.648010,919.392029
1171.199951,255.712006,935.007996
1159.488037,230.335999,929.151978
1184.864014,296.704010,938.911987
1188.767944,359.167999,948.671997
1175.104004,361.119995,956.479980
1184.864014,302.559998,972.096008
1180.959961,261.567993,968.192017
1182.911987,320.127991,966.239990
1196.576050,355.264008,972.096008
1190.719971,349.407990,974.047974
1194.624023,316.223999,960.383972
1204.384033,316.223999,954.528015
1196.576050,353.312012,948.671997
1179.008057,374.783997,948.671997
1180.959961,388.447998,950.624023
1165.343994,380.640015,935.007996
1151.680054,392.351990,917.440002
1167.296021,404.063995,913.536011
1151.680054,386.496002,913.536011
1171.199951,378.687988,899.872009
1182.911987,374.783997,890.112000
1122.400024,300.608002,862.783997
1108.735962,277.183990,831.552002
1083.359985,302.559998,804.223999
1054.079956,302.559998,776.895996
1057.984009,263.519989,743.711975
1061.887939,218.623993,718.335999
1087.264038,199.104004,698.815979
1087.264038,203.007996,687.104004
1102.880005,189.343994,681.247986
1100.927979,160.063995,665.632019
1108.735962,140.544006,657.823975
1112.640015,152.255997,657.823975
1102.880005,150.304001,655.872009
1100.927979,128.832001,659.776001
1087.264038,89.792000,661.728027
1073.599976,76.127998,644.159973
1081.407959,58.560001,655.872009
1081.407959,66.367996,651.968018
1130.208008,-35.136002,648.064026
1030.656006,-97.599998,640.255981
1015.039978,70.272003,640.255981
935.007996,214.720001,646.112000
911.583984,124.928001,646.112000
956.479980,-11.712000,616.831970
1016.992004,42.944000,597.312012
1038.463989,132.735992,591.455994
1050.176025,46.848000,601.216003
1063.839966,-42.944000,597.312012
1067.744019,7.808000,626.591980
1054.079956,78.080002,618.783997
1044.319946,44.896000,626.591980
1046.271973,1.952000,634.400024
1038.463989,0.000000,640.255981
1020.895996,52.703999,636.351990
1018.943970,52.703999,626.591980
1007.231995,15.616000,607.072021
985.760010,23.424000,599.263977
977.952026,42.944000,587.552002
968.192017,42.944000,571.935974
968.192017,31.232000,564.127991
966.239990,37.088001,534.848022
970.143982,39.040001,511.424011
974.047974,48.799999,499.712006
960.383972,33.183998,491.903992
962.335999,50.751999,480.191986
935.007996,48.799999,478.239990
938.911987,52.703999,447.007996
938.911987,62.464001,435.295990
933.056030,56.608002,421.631989
936.960022,64.416000,411.872009
915.487976,81.984001,402.112000
909.632019,83.935997,402.112000
915.487976,85.888000,388.447998
905.728027,87.839996,388.447998
899.872009,113.216003,378.687988
892.064026,111.264000,372.832001
890.112000,128.832001,361.119995
892.064026,154.207993,349.407990
880.351990,167.871994,343.552002
880.351990,177.632004,335.743988
870.591980,212.768005,329.888000
864.736023,236.192001,324.032013
866.687988,257.664001,320.127991
858.880005,281.088013,314.272003
851.072021,288.895996,308.415985
847.168030,300.608002,310.368011
843.263977,294.752014,314.272003
854.976013,284.992004,298.656006
864.736023,286.944000,288.895996
866.687988,283.040009,290.847992
868.640015,283.040009,281.088013
854.976013,255.712006,283.040009
856.927979,242.048004,277.183990
858.880005,224.479996,277.183990
847.168030,204.960007,279.135986
854.976013,189.343994,294.752014
851.072021,181.535995,288.895996
856.927979,177.632004,292.799988
853.023987,185.440002,288.895996
860.831970,195.199997,277.183990
854.976013,206.912003,273.279999
853.023987,212.768005,275.231995
853.023987,222.528000,286.944000
851.072021,224.479996,283.040009
854.976013,218.623993,281.088013
864.736023,224.479996,277.183990
866.687988,224.479996,288.895996
866.687988,210.815994,304.511993
866.687988,216.671997,314.272003
864.736023,220.576004,316.223999
868.640015,210.815994,324.032013
872.544006,208.863998,337.696014
862.783997,189.343994,357.216003
868.640015,181.535995,359.167999
876.447998,185.440002,372.832001
853.023987,175.679993,372.832001
853.023987,193.248001,374.783997
958.432007,48.799999,359.167999
936.960022,148.352005,331.839996
780.799988,577.791992,308.415985
735.903992,493.855988,304.511993
636.351990,-27.327999,324.032013
1057.984009,-228.384003,337.696014
911.583984,263.519989,335.743988
966.239990,441.152008,347.455994
942.815979,103.456001,370.880005
964.288025,-121.024002,386.496002
950.624023,167.871994,394.303986
954.528015,409.920013,396.256012
905.728027,279.135986,407.967987
894.015991,113.216003,415.776001
884.255981,160.063995,421.631989
886.208008,245.951996,421.631989
825.695984,283.040009,431.391998
501.664001,300.608002,429.440002
946.719971,203.007996,413.824005
831.552002,-21.472000,386.496002
981.856018,165.919998,376.735992
987.711975,368.928009,378.687988
894.015991,169.824005,392.351990
938.911987,-48.799999,394.303986
985.760010,140.544006,421.631989
1020.895996,269.376007,421.631989
1134.112061,74.176003,429.440002
1220.000000,-119.071999,437.247986
1227.807983,46.848000,460.671997
1122.400024,271.328003,478.239990
1116.543945,140.544006,491.903992
1128.255981,-91.744003,507.519989
1079.456055,-25.375999,525.088013
1089.215942,175.679993,550.463989
1095.072021,113.216003,566.080017
1024.800049,-33.183998,591.455994
962.335999,1.952000,603.168030
880.351990,25.375999,622.687988
854.976013,83.935997,616.831970
905.728027,179.584000,610.976013
913.536011,101.503998,603.168030
880.351990,-39.040001,593.408020
847.168030,21.472000,573.888000
815.935974,132.735992,542.656006
812.031982,103.456001,525.088013
856.927979,56.608002,499.712006
833.504028,62.464001,466.528015
798.367981,128.832001,443.104004
733.952026,121.024002,400.160004
692.960022,163.968002,376.735992
698.815979,165.919998,347.455994
747.616028,140.544006,320.127991
792.512024,163.968002,298.656006
778.848022,144.447998,271.328003
771.039978,58.560001,242.048004
823.744019,113.216003,230.335999
817.888000,197.151993,236.192001
940.864014,62.464001,220.576004
931.104004,3.904000,216.671997
833.504028,230.335999,220.576004
817.888000,185.440002,210.815994
817.888000,19.520000,212.768005
853.023987,224.479996,214.720001
817.888000,298.656006,218.623993
843.263977,60.512001,224.479996
872.544006,117.120003,236.192001
903.776001,251.807999,267.424011
899.872009,35.136002,286.944000
919.392029,-15.616000,312.320007
936.960022,132.735992,335.743988
923.296021,105.407997,345.503998
935.007996,62.464001,355.264008
936.960022,124.928001,378.687988
915.487976,99.552002,390.399994
905.728027,-62.464001,411.872009
970.143982,-107.360001,439.200012
993.567993,-52.703999,452.864014
1013.088013,-48.799999,468.480011
999.424011,-148.352005,486.048004
1009.184021,-185.440002,499.712006
1034.560059,-156.160004,523.135986
1040.416016,-87.839996,515.328003
1050.176025,-46.848000,525.088013
1044.319946,-93.695999,544.607971
1030.656006,-150.304001,560.223999
1022.848022,-128.832001,569.984009
999.424011,-40.992001,560.223999
853.023987,87.839996,712.479980
921.343994,-146.399994,968.192017
899.872009,-667.583984,847.168030
1018.943970,-115.167999,554.367981
1069.696045,234.240005,378.687988
1050.176025,-179.584000,374.783997
1020.895996,-191.296005,536.799988
962.335999,-97.599998,661.728027
938.911987,-224.479996,569.984009
991.616028,87.839996,423.584015
1016.992004,265.471985,357.216003
1013.088013,-29.280001,359.167999
987.711975,48.799999,425.536011
956.479980,273.279999,437.247986
909.632019,234.240005,365.023987
905.728027,324.032013,310.368011
886.208008,388.447998,290.847992
880.351990,292.799988,292.799988
991.616028,197.151993,267.424011
907.679993,306.463989,242.048004
874.495972,390.399994,181.535995
806.176025,245.951996,117.120003
712.479980,150.304001,29.280001
720.288025,456.768005,-23.424000
788.607971,452.864014,-23.424000
878.400024,-52.703999,-13.664000
935.007996,-279.135986,-27.327999
946.719971,11.712000,-48.799999
950.624023,265.471985,-37.088001
929.151978,37.088001,0.000000
940.864014,-286.944000,19.520000
925.247986,-72.223999,29.280001
854.976013,197.151993,48.799999
849.119995,37.088001,35.136002
815.935974,-91.744003,48.799999
825.695984,80.031998,80.031998
829.599976,95.648003,80.031998
858.880005,-1.952000,54.655998
880.351990,9.760000,70.272003
884.255981,3.904000,78.080002
886.208008,7.808000,81.984001
880.351990,78.080002,78.080002
882.304016,95.648003,76.127998
895.968018,80.031998,83.935997
892.064026,124.928001,78.080002
849.119995,206.912003,76.127998
845.216003,244.000000,89.792000
853.023987,230.335999,91.744003
845.216003,226.432007,85.888000
866.687988,298.656006,83.935997
894.015991,306.463989,64.416000
878.400024,345.503998,64.416000
892.064026,605.119995,152.255997
948.671997,905.728027,292.799988
1016.992004,979.903992,324.032013
968.192017,886.208008,318.175995
954.528015,735.903992,292.799988
917.440002,636.351990,286.944000
903.776001,-160.063995,286.944000
1134.112061,-1442.527954,306.463989
1227.807983,-2201.855957,398.208008
1255.135986,-2074.976074,425.536011
1198.527954,-1128.255981,409.920013
1112.640015,167.871994,392.351990
1050.176025,1175.104004,382.592010
1007.231995,1655.296021,357.216003
983.807983,1510.848022,322.079987
987.711975,679.296021,271.328003
1048.223999,-962.335999,290.847992
976.000000,-2006.656006,368.928009
1054.079956,-1499.135986,355.264008
1042.368042,107.360001,351.359985
1112.640015,1372.255981,363.071991
1100.927979,1708.000000,366.976013
1042.368042,1075.552002,339.648010
1026.751953,-165.919998,277.183990
1186.816040,-1157.536011,208.863998
1130.208008,-1272.703979,199.104004
1139.968018,-610.976013,220.576004
1274.656006,296.704010,234.240005
1155.583984,749.567993,273.279999
1194.624023,441.152008,263.519989
1063.839966,-273.279999,286.944000
999.424011,-655.872009,294.752014
1038.463989,-499.712006,281.088013
1071.647949,-60.512001,261.567993
1063.839966,296.704010,247.904007
1087.264038,421.631989,228.384003
1134.112061,247.904007,195.199997
1149.728027,-148.352005,183.488007
1141.920044,-472.384003,185.440002
1118.495972,-511.424011,181.535995
1085.312012,-283.040009,185.440002
1059.936035,33.183998,171.776001
1032.608032,275.231995,160.063995
1009.184021,327.936005,146.399994
1001.375977,175.679993,99.552002
985.760010,-21.472000,66.367996
989.664001,-167.871994,35.136002
1018.943970,-204.960007,5.856000
1024.800049,-83.935997,-1.952000
1013.088013,56.608002,-23.424000
1015.039978,185.440002,-39.040001
1040.416016,175.679993,-46.848000
1042.368042,72.223999,-27.327999
1054.079956,-39.040001,-15.616000
1046.271973,-95.648003,-1.952000
1044.319946,-33.183998,-1.952000
1028.703979,99.552002,-13.664000
1032.608032,279.135986,-21.472000
1024.800049,437.247986,-62.464001
1024.800049,568.031982,-70.272003
1073.599976,854.976013,-42.944000
991.616028,1120.447998,40.992001
1175.104004,1157.536011,78.080002
979.903992,821.791992,126.879997
999.424011,306.463989,124.928001
1100.927979,-54.655998,122.975998
1128.255981,-208.863998,134.688004
1093.119995,-52.703999,136.639999
1104.832031,242.048004,156.160004
1143.871948,236.192001,222.528000
1112.640015,13.664000,304.511993
1173.151978,29.280001,335.743988
1245.375977,224.479996,347.455994
1268.800049,271.328003,345.503998
1290.271973,156.160004,316.223999
1264.895996,-17.568001,296.704010
1204.384033,-197.151993,275.231995
1151.680054,-199.104004,255.712006
1145.823975,13.664000,222.528000
1124.352051,283.040009,187.391998
1093.119995,419.679993,169.824005
1073.599976,351.359985,134.688004
1063.839966,148.352005,78.080002
1075.552002,-93.695999,15.616000
1085.312012,-171.776001,-35.136002
1079.456055,-76.127998,-78.080002
1044.319946,171.776001,-80.031998
1018.943970,423.584015,-95.648003
1011.135986,528.992004,-111.264000
1036.511963,515.328003,-138.591995
1040.416016,304.511993,-146.399994
1032.608032,39.040001,-167.871994
995.520020,-93.695999,-177.632004
997.471985,-23.424000,-204.960007
1026.751953,263.519989,-230.335999
1015.039978,794.463989,-206.912003
913.536011,1155.583984,-148.352005
888.159973,1093.119995,-124.928001
968.192017,470.432007,-136.639999
1097.024048,-636.351990,-163.968002
1073.599976,-1631.871948,-122.975998
968.192017,-1514.751953,-78.080002
946.719971,-173.727997,-78.080002
944.768005,1184.864014,-91.744003
1028.703979,1542.079956,-117.120003
1069.696045,977.952026,-148.352005
1100.927979,-162.016006,-189.343994
1167.296021,-1171.199951,-222.528000
1192.671997,-1331.264038,-242.048004
1138.015991,-603.168030,-259.615997
1063.839966,392.351990,-298.656006
1018.943970,981.856018,-343.552002
1149.728027,1009.184021,-417.727997
938.911987,630.495972,-417.727997
950.624023,263.519989,-482.144012
886.208008,370.880005,-435.295990
921.343994,765.184021,-331.839996
991.616028,1022.848022,-216.671997
1227.807983,772.992004,-197.151993
1093.119995,-117.120003,-128.832001
1015.039978,-1009.184021,-78.080002
1081.407959,-1169.248047,-99.552002
1071.647949,-679.296021,-74.176003
1118.495972,21.472000,-44.896000
1026.751953,507.519989,-29.280001
1163.391968,757.375977,-83.935997
1138.015991,564.127991,-101.503998
1268.800049,146.399994,-156.160004
1307.839966,-279.135986,-210.815994
1233.663940,-577.791992,-244.000000
1221.952026,-609.023987,-251.807999
1223.904053,-474.335999,-210.815994
1171.199951,-146.399994,-111.264000
1032.608032,569.984009,76.127998
972.096008,1229.760010,203.007996
977.952026,1444.479980,244.000000
1069.696045,1177.056030,224.479996
1065.791992,325.984009,165.919998
1245.375977,-741.760010,113.216003
1233.663940,-1294.176025,103.456001
1362.495972,-995.520020,29.280001
1303.936035,-247.904007,-44.896000
837.408020,341.600006,-23.424000
1136.063965,673.440002,-169.824005
1106.784058,675.392029,-263.519989
1204.384033,903.776001,-304.511993
1124.352051,1335.167969,-204.960007
1097.024048,1559.647949,-95.648003
1065.791992,819.840027,72.223999
1143.871948,-554.367981,204.960007
1163.391968,-1247.328003,265.471985
1214.144043,-954.528015,236.192001
1116.543945,42.944000,230.335999
1145.823975,1001.375977,154.207993
1153.631958,1319.552002,83.935997
1030.656006,954.528015,31.232000
995.520020,109.311996,-31.232000
968.192017,-591.455994,-109.311996
1237.567993,-722.239990,-251.807999
1141.920044,-359.167999,-269.376007
1184.864014,218.623993,-310.368011
1126.303955,636.351990,-339.648010
1141.920044,730.047974,-353.312012
1253.183960,464.575989,-402.112000
1112.640015,21.472000,-388.447998
1052.128052,-527.039978,-378.687988
1001.375977,-858.880005,-320.127991
974.047974,-720.288025,-238.143997
1034.560059,-97.599998,-193.248001
1016.992004,583.648010,-144.447998
935.007996,929.151978,-87.839996
1173.151978,1011.135986,-144.447998
1120.447998,1071.647949,-119.071999
1206.336060,743.711975,-165.919998
1083.359985,-169.824005,-130.783997
1091.167969,-788.607971,-138.591995
1097.024048,-769.088013,-140.544006
1032.608032,-298.656006,-167.871994
854.976013,325.984009,-152.255997
1196.576050,849.119995,-273.279999
1266.848022,858.880005,-296.704010
1124.352051,394.303986,-275.231995
1210.239990,-204.960007,-322.079987
1184.864014,-564.127991,-337.696014
1147.776001,-536.799988,-306.463989
1179.008057,-201.056000,-312.320007
1067.744019,117.120003,-284.992004
1003.328003,339.648010,-240.095993
1011.135986,394.303986,-222.528000
1087.264038,257.664001,-218.623993
1126.303955,-101.503998,-195.199997
1241.472046,-491.903992,-93.695999
1434.719971,-839.359985,253.759995
1672.864014,-1044.319946,862.783997
1985.183960,-1112.640015,1737.280029
2359.968018,-1204.384033,2746.464111
2752.320068,-1149.728027,3507.743896
3234.464111,-532.895996,3544.832031
3494.080078,-851.072021,3134.912109
3277.407959,-1608.447998,2623.488037
2600.063965,-812.031982,1899.296021
1996.895996,-478.239990,716.383972
1585.024048,-357.216003,-197.151993
1264.895996,-5.856000,-581.695984
931.104004,-13.664000,-755.424011
692.960022,-286.944000,-849.119995
575.840027,-226.432007,-935.007996
464.575989,130.783997,-1005.280029
400.160004,517.280029,-1067.744019
423.584015,710.528015,-1022.848022
538.752014,710.528015,-853.023987
726.143982,644.159973,-612.927979
950.624023,569.984009,-337.696014
1175.104004,488.000000,-64.416000
1352.735962,390.399994,181.535995
1448.384033,324.032013,327.936005
1403.488037,281.088013,368.928009
1356.640015,234.240005,271.328003
1421.056030,158.112000,111.264000
1253.183960,99.552002,37.088001
1184.864014,5.856000,-42.944000
1104.832031,-48.799999,-119.071999
1016.992004,-42.944000,-199.104004
981.856018,-31.232000,-284.992004
962.335999,-7.808000,-304.511993
1011.135986,-1.952000,-267.424011
1048.223999,-23.424000,-173.727997
1104.832031,-35.136002,-74.176003
1116.543945,-44.896000,-9.760000
1122.400024,-40.992001,-3.904000
1106.784058,-21.472000,-23.424000
1075.552002,-1.952000,-46.848000
1065.791992,23.424000,-81.984001
1011.135986,33.183998,-132.735992
970.143982,31.232000,-183.488007
989.664001,56.608002,-232.287994
1032.608032,62.464001,-253.759995
1067.744019,78.080002,-279.135986
1050.176025,103.456001,-267.424011
1036.511963,103.456001,-232.287994
1032.608032,78.080002,-222.528000
1036.511963,85.888000,-203.007996
1032.608032,93.695999,-187.391998
1011.135986,48.799999,-179.584000
976.000000,17.568001,-167.871994
952.575989,3.904000,-179.584000
864.736023,-25.375999,-173.727997
983.807983,-115.167999,-244.000000
1155.583984,-271.328003,-318.175995
1100.927979,-339.648010,-335.743988
950.624023,-238.143997,-304.511993
897.919983,-107.360001,-304.511993
847.168030,-40.992001,-279.135986
845.216003,-11.712000,-234.240005
1011.135986,1.952000,-156.160004
1005.280029,46.848000,-40.992001
1050.176025,130.783997,44.896000
1124.352051,201.056000,74.176003
1169.248047,193.248001,23.424000
1138.015991,222.528000,-89.792000
1081.407959,283.040009,-226.432007
1024.800049,271.328003,-327.936005
935.007996,212.768005,-380.640015
1034.560059,130.783997,-423.584015
1083.359985,27.327999,-441.152008
1067.744019,-72.223999,-398.208008
1056.031982,-156.160004,-320.127991
1065.791992,-267.424011,-255.712006
1046.271973,-302.559998,-195.199997
1040.416016,-263.519989,-199.104004
901.823975,-183.488007,-218.623993
946.719971,-105.407997,-298.656006
845.216003,46.848000,-322.079987
972.096008,109.311996,-370.880005
915.487976,185.440002,-347.455994
884.255981,247.904007,-273.279999
931.104004,220.576004,-234.240005
960.383972,154.207993,-193.248001
977.952026,138.591995,-113.216003
1153.631958,-3.904000,-50.751999
1155.583984,-134.688004,5.856000
1319.552002,-228.384003,-76.127998
1100.927979,-152.255997,-158.112000
985.760010,-29.280001,-324.032013
974.047974,15.616000,-489.951996
776.895996,93.695999,-513.375977
735.903992,169.824005,-466.528015
714.432007,222.528000,-402.112000
810.080017,183.488007,-312.320007
976.000000,70.272003,-199.104004
1005.280029,-68.320000,-78.080002
1061.887939,-158.112000,-21.472000
1110.687988,-158.112000,-72.223999
1110.687988,-74.176003,-183.488007
1102.880005,29.280001,-337.696014
1040.416016,136.639999,-425.536011
1009.184021,245.951996,-429.440002
1020.895996,314.272003,-404.063995
1005.280029,339.648010,-329.888000
1038.463989,331.839996,-208.863998
1071.647949,302.559998,-103.456001
1073.599976,249.856003,-91.744003
1073.599976,193.248001,-113.216003
1024.800049,140.544006,-150.304001
964.288025,101.503998,-234.240005
913.536011,83.935997,-324.032013
933.056030,107.360001,-425.536011
1001.375977,-48.799999,-413.824005
792.512024,3.904000,-472.384003
585.599976,370.880005,-499.712006
665.632019,-95.648003,-347.455994
-222.528000,-468.480011,163.968002
995.520020,-853.023987,-54.655998
1036.511963,-411.872009,-347.455994
532.895996,121.024002,-560.223999
236.192001,433.343994,-700.768005
800.320007,564.127991,-849.119995
1098.975952,757.375977,-772.992004
1032.608032,784.703979,-491.903992
1204.384033,411.872009,-197.151993
1130.208008,78.080002,160.063995
1387.871948,-201.056000,322.079987
1360.543945,-456.768005,286.944000
1270.751953,-501.664001,48.799999
1067.744019,-263.519989,-255.712006
870.591980,-15.616000,-577.791992
763.231995,218.623993,-812.031982
741.760010,398.208008,-868.640015
772.992004,435.295990,-702.719971
813.984009,365.023987,-390.399994
1323.456055,171.776001,-257.664001
1301.984009,-7.808000,-81.984001
1452.287964,40.992001,-132.735992
1372.255981,347.455994,-236.192001
1235.615967,530.943970,-398.208008
1083.359985,267.424011,-486.048004
700.768005,56.608002,-507.519989
515.328003,5.856000,-589.504028
525.088013,-87.839996,-622.687988
677.343994,-245.951996,-552.416016
866.687988,-454.816010,-351.359985
1046.271973,-681.247986,-173.727997
1184.864014,-774.943970,-128.832001
1175.104004,-651.968018,-195.199997
1100.927979,-374.783997,-355.264008
1052.128052,-85.888000,-554.367981
995.520020,162.016006,-628.544006
983.807983,448.959991,-548.512024
1026.751953,730.047974,-398.208008
1095.072021,884.255981,-244.000000
1179.008057,917.440002,-117.120003
1233.663940,845.216003,-87.839996
1241.472046,708.575989,-144.447998
1225.855957,581.695984,-255.712006
1198.527954,431.391998,-353.312012
1182.911987,318.175995,-409.920013
1167.296021,257.664001,-443.104004
1169.248047,218.623993,-445.056000
1147.776001,167.871994,-378.687988
1153.631958,185.440002,-335.743988
1165.343994,201.056000,-325.984009
1149.728027,245.951996,-314.272003
1155.583984,337.696014,-366.976013
1173.151978,396.256012,-433.343994
1179.008057,404.063995,-415.776001
1192.671997,443.104004,-413.824005
1208.287964,343.552002,-370.880005
1192.671997,130.783997,-310.368011
1122.400024,-107.360001,-253.759995
1020.895996,-294.752014,-284.992004
921.343994,-413.824005,-384.544006
829.599976,-466.528015,-493.855988
798.367981,-530.943970,-577.791992
780.799988,-595.359985,-564.127991
782.752014,-568.031982,-523.135986
817.888000,-441.152008,-511.424011
864.736023,-271.328003,-511.424011
929.151978,-97.599998,-488.000000
987.711975,74.176003,-441.152008
1050.176025,183.488007,-404.063995
1089.215942,343.552002,-372.832001
1102.880005,462.623993,-314.272003
1114.592041,499.712006,-302.559998
1136.063965,534.848022,-275.231995
1141.920044,511.424011,-251.807999
1128.255981,486.048004,-242.048004
1134.112061,439.200012,-259.615997
1136.063965,337.696014,-271.328003
1147.776001,242.048004,-269.376007
1153.631958,191.296005,-283.040009
1149.728027,163.968002,-306.463989
1138.015991,150.304001,-310.368011
1134.112061,163.968002,-312.320007
1128.255981,201.056000,-324.032013
1110.687988,245.951996,-335.743988
1098.975952,302.559998,-378.687988
1091.167969,308.415985,-365.023987
1085.312012,312.320007,-365.023987
1061.887939,325.984009,-337.696014
1056.031982,337.696014,-329.888000
1063.839966,335.743988,-345.503998
1057.984009,314.272003,-361.119995
1057.984009,292.799988,-402.112000
1059.936035,298.656006,-423.584015
1079.456055,322.079987,-423.584015
1089.215942,247.904007,-376.735992
1085.312012,210.815994,-327.936005
1106.784058,203.007996,-359.167999
1112.640015,189.343994,-386.496002
1118.495972,144.447998,-394.303986
1122.400024,142.496002,-388.447998
1120.447998,158.112000,-394.303986
1122.400024,193.248001,-386.496002
1134.112061,195.199997,-378.687988
1112.640015,255.712006,-384.544006
1116.543945,302.559998,-400.160004
1112.640015,306.463989,-394.303986
1104.832031,318.175995,-374.783997
1102.880005,351.359985,-404.063995
1114.592041,335.743988,-406.015991
1110.687988,314.272003,-341.600006
1112.640015,329.888000,-349.407990
1104.832031,292.799988,-353.312012
1091.167969,255.712006,-366.976013
1085.312012,247.904007,-394.303986
1067.744019,238.143997,-431.391998
1079.456055,222.528000,-404.063995
1063.839966,240.095993,-384.544006
1061.887939,329.888000,-425.536011
1042.368042,333.791992,-409.920013
1032.608032,363.071991,-353.312012
1028.703979,361.119995,-329.888000
1040.416016,324.032013,-324.032013
1057.984009,283.040009,-366.976013
1071.647949,189.343994,-351.359985
1069.696045,136.639999,-341.600006
1061.887939,103.456001,-333.791992
1077.504028,85.888000,-318.175995
1089.215942,62.464001,-324.032013
1083.359985,93.695999,-345.503998
1093.119995,107.360001,-312.320007
1065.791992,78.080002,-292.799988
1061.887939,56.608002,-275.231995
1052.128052,54.655998,-288.895996
1009.184021,89.792000,-286.944000
972.096008,136.639999,-279.135986
933.056030,142.496002,-322.079987
942.815979,93.695999,-333.791992
946.719971,81.984001,-345.503998
976.000000,80.031998,-306.463989
1013.088013,107.360001,-273.279999
1079.456055,62.464001,-224.479996
1116.543945,5.856000,-185.440002
1151.680054,-29.280001,-115.167999
1184.864014,-44.896000,-62.464001
1177.056030,-121.024002,-78.080002
1112.640015,-107.360001,-72.223999
1085.312012,-80.031998,-128.832001
1071.647949,-35.136002,-179.584000
1061.887939,-48.799999,-212.768005
1069.696045,-15.616000,-222.528000
1093.119995,-35.136002,-216.671997
1143.871948,-33.183998,-228.384003
1177.056030,-64.416000,-253.759995
1167.296021,-54.655998,-224.479996
1173.151978,-62.464001,-218.623993
1155.583984,-54.655998,-222.528000
1126.303955,-64.416000,-271.328003
1089.215942,-68.320000,-314.272003
1046.271973,-70.272003,-304.511993
1026.751953,-99.552002,-359.167999
1028.703979,-122.975998,-398.208008
997.471985,-72.223999,-404.063995
970.143982,13.664000,-452.864014
942.815979,117.120003,-517.280029
907.679993,238.143997,-589.504028
892.064026,298.656006,-624.640015
882.304016,271.328003,-626.591980
901.823975,189.343994,-607.072021
938.911987,91.744003,-568.031982
972.096008,-9.760000,-532.895996
1001.375977,-48.799999,-528.992004
1018.943970,-40.992001,-534.848022
1015.039978,5.856000,-546.559998
983.807983,68.320000,-560.223999
964.288025,101.503998,-573.888000
942.815979,130.783997,-597.312012
919.392029,130.783997,-587.552002
923.296021,115.167999,-579.744019
897.919983,117.120003,-568.031982
849.119995,124.928001,-564.127991
823.744019,119.071999,-583.648010
858.880005,58.560001,-591.455994
936.960022,13.664000,-528.992004
1040.416016,-66.367996,-441.152008
1108.735962,-78.080002,-394.303986
1134.112061,-44.896000,-365.023987
1145.823975,3.904000,-384.544006
1179.008057,56.608002,-419.679993
1194.624023,107.360001,-421.631989
1175.104004,160.063995,-406.015991
1089.215942,365.023987,-433.343994
1102.880005,714.432007,-554.367981
1034.560059,435.295990,-464.575989
968.192017,398.208008,-423.584015
878.400024,343.552002,-452.864014
827.648010,158.112000,-404.063995
874.495972,-140.544006,-333.791992
936.960022,-281.088013,-312.320007
999.424011,-265.471985,-279.135986
1048.223999,-195.199997,-244.000000
1083.359985,-68.320000,-259.615997
1098.975952,42.944000,-324.032013
1097.024048,165.919998,-380.640015
1071.647949,257.664001,-406.015991
1036.511963,286.944000,-409.920013
995.520020,275.231995,-421.631989
962.335999,212.768005,-421.631989
946.719971,154.207993,-413.824005
935.007996,78.080002,-415.776001
946.719971,17.568001,-398.208008
958.432007,-39.040001,-406.015991
983.807983,-54.655998,-376.735992
1011.135986,-44.896000,-363.071991
1022.848022,-21.472000,-376.735992
1022.848022,7.808000,-402.112000
1013.088013,31.232000,-441.152008
991.616028,68.320000,-474.335999
987.711975,97.599998,-488.000000
976.000000,103.456001,-515.328003
954.528015,105.407997,-525.088013
948.671997,117.120003,-505.567993
948.671997,97.599998,-499.712006
958.432007,42.944000,-493.855988
976.000000,-5.856000,-486.048004
989.664001,-25.375999,-472.384003
1007.231995,-35.136002,-466.528015
1018.943970,-35.136002,-464.575989
1016.992004,-19.520000,-480.191986
1013.088013,0.000000,-495.808014
1001.375977,15.616000,-474.335999
1011.135986,15.616000,-476.287994
1009.184021,-1.952000,-491.903992
987.711975,11.712000,-501.664001
995.520020,31.232000,-513.375977
991.616028,19.520000,-474.335999
1026.751953,25.375999,-488.000000
1056.031982,-9.760000,-466.528015
1056.031982,-3.904000,-421.631989
1087.264038,-13.664000,-429.440002
1095.072021,-21.472000,-402.112000
1091.167969,-25.375999,-392.351990
1089.215942,-3.904000,-431.391998
1087.264038,-3.904000,-445.056000
1057.984009,33.183998,-448.959991
1054.079956,62.464001,-427.488007
1057.984009,39.040001,-421.631989
1069.696045,39.040001,-404.063995
1069.696045,25.375999,-406.015991
1065.791992,-1.952000,-415.776001
1079.456055,-9.760000,-441.152008
1079.456055,13.664000,-437.247986
1095.072021,23.424000,-404.063995
1108.735962,35.136002,-388.447998
1108.735962,9.760000,-402.112000
1087.264038,5.856000,-431.391998
1073.599976,13.664000,-466.528015
1067.744019,44.896000,-456.768005
1056.031982,64.416000,-462.623993
1059.936035,62.464001,-447.007996
1057.984009,42.944000,-452.864014
1061.887939,17.568001,-472.384003
1046.271973,5.856000,-480.191986
1059.936035,17.568001,-462.623993
1071.647949,11.712000,-452.864014
1081.407959,19.520000,-474.335999
1065.791992,25.375999,-470.432007
1061.887939,56.608002,-452.864014
1075.552002,27.327999,-458.720001
1065.791992,19.520000,-476.287994
1054.079956,35.136002,-470.432007
1056.031982,46.848000,-468.480011
1061.887939,21.472000,-476.287994
1048.223999,23.424000,-499.712006
1042.368042,42.944000,-474.335999
1050.176025,56.608002,-472.384003
1063.839966,17.568001,-450.911987
1067.744019,15.616000,-448.959991
1069.696045,11.712000,-472.384003
1057.984009,3.904000,-466.528015
1054.079956,40.992001,-466.528015
1069.696045,54.655998,-450.911987
1073.599976,44.896000,-474.335999
1061.887939,23.424000,-486.048004
1042.368042,48.799999,-470.432007
1056.031982,25.375999,-429.440002
1079.456055,40.992001,-394.303986
1087.264038,27.327999,-386.496002
1087.264038,33.183998,-396.256012
1079.456055,19.520000,-427.488007
1052.128052,37.088001,-439.200012
1050.176025,50.751999,-452.864014
1057.984009,52.703999,-466.528015
1052.128052,48.799999,-447.007996
1056.031982,68.320000,-425.536011
1050.176025,60.512001,-394.303986
1065.791992,15.616000,-386.496002
1059.936035,-11.712000,-421.631989
1044.319946,13.664000,-439.200012
1038.463989,31.232000,-458.720001
1030.656006,48.799999,-472.384003
1034.560059,50.751999,-460.671997
1034.560059,64.416000,-439.200012
1056.031982,31.232000,-435.295990
1046.271973,19.520000,-411.872009
1052.128052,29.280001,-407.967987
1052.128052,17.568001,-452.864014
1036.511963,9.760000,-445.056000
1022.848022,58.560001,-431.391998
1028.703979,52.703999,-448.959991
1024.800049,37.088001,-421.631989
1038.463989,40.992001,-452.864014
1018.943970,19.520000,-441.152008
1024.800049,44.896000,-417.727997
1032.608032,54.655998,-437.247986
1026.751953,40.992001,-427.488007
1026.751953,37.088001,-460.671997
1011.135986,62.464001,-448.959991
1015.039978,62.464001,-443.104004
1024.800049,46.848000,-439.200012
1026.751953,68.320000,-441.152008
1015.039978,58.560001,-411.872009
1015.039978,46.848000,-407.967987
1022.848022,23.424000,-411.872009
1016.992004,40.992001,-423.584015
1009.184021,60.512001,-398.208008
1007.231995,56.608002,-398.208008
1005.280029,46.848000,-425.536011
1005.280029,40.992001,-421.631989
999.424011,99.552002,-421.631989
1007.231995,66.367996,-411.872009
1003.328003,74.176003,-396.256012
1007.231995,68.320000,-417.727997
991.616028,64.416000,-417.727997
985.760010,39.040001,-390.399994
991.616028,19.520000,-374.783997
999.424011,17.568001,-392.351990
987.711975,15.616000,-400.160004
977.952026,35.136002,-425.536011
968.192017,40.992001,-423.584015
972.096008,83.935997,-390.399994
976.000000,93.695999,-384.544006
979.903992,42.944000,-384.544006
970.143982,33.183998,-372.832001
974.047974,25.375999,-388.447998
954.528015,23.424000,-378.687988
956.479980,29.280001,-398.208008
954.528015,52.703999,-409.920013
952.575989,46.848000,-402.112000
960.383972,62.464001,-404.063995
966.239990,68.320000,-417.727997
940.864014,50.751999,-404.063995
946.719971,58.560001,-378.687988
960.383972,50.751999,-386.496002
960.383972,11.712000,-400.160004
936.960022,46.848000,-402.112000
940.864014,68.320000,-407.967987
950.624023,37.088001,-409.920013
933.056030,58.560001,-396.256012
946.719971,60.512001,-409.920013
946.719971,40.992001,-384.544006
956.479980,40.992001,-404.063995
944.768005,39.040001,-406.015991
933.056030,35.136002,-376.735992
938.911987,58.560001,-396.256012
938.911987,44.896000,-396.256012
938.911987,39.040001,-394.303986
933.056030,64.416000,-413.824005
925.247986,72.223999,-398.208008
917.440002,66.367996,-386.496002
936.960022,70.272003,-386.496002
933.056030,42.944000,-406.015991
931.104004,50.751999,-406.015991
933.056030,81.984001,-415.776001
925.247986,56.608002,-402.112000
931.104004,89.792000,-396.256012
931.104004,85.888000,-386.496002
933.056030,74.176003,-396.256012
927.200012,50.751999,-419.679993
915.487976,93.695999,-390.399994
931.104004,70.272003,-406.015991
933.056030,70.272003,-382.592010
933.056030,83.935997,-374.783997
935.007996,81.984001,-337.696014
946.719971,62.464001,-366.976013
935.007996,56.608002,-384.544006
