ACC_X,ACC_Y,ACC_Z
714.432007,447.007996,544.607971
710.528015,443.104004,538.752014
708.575989,445.056000,538.752014
714.432007,448.959991,538.752014
710.528015,450.911987,536.799988
706.624023,447.007996,534.848022
710.528015,443.104004,538.752014
706.624023,441.152008,536.799988
712.479980,439.200012,536.799988
712.479980,437.247986,542.656006
712.479980,437.247986,544.607971
706.624023,437.247986,540.703979
712.479980,437.247986,540.703979
708.575989,441.152008,540.703979
712.479980,433.343994,534.848022
714.432007,437.247986,534.848022
716.383972,437.247986,544.607971
710.528015,443.104004,538.752014
716.383972,437.247986,540.703979
712.479980,437.247986,542.656006
714.432007,443.104004,536.799988
706.624023,437.247986,546.559998
714.432007,429.440002,534.848022
716.383972,433.343994,542.656006
712.479980,443.104004,552.416016
710.528015,435.295990,544.607971
710.528015,425.536011,550.463989
712.479980,433.343994,544.607971
716.383972,435.295990,542.656006
704.671997,435.295990,544.607971
714.432007,431.391998,540.703979
712.479980,431.391998,544.607971
706.624023,437.247986,540.703979
706.624023,435.295990,540.703979
712.479980,437.247986,540.703979
710.528015,437.247986,548.512024
708.575989,439.200012,534.848022
716.383972,425.536011,542.656006
714.432007,423.584015,542.656006
702.719971,437.247986,530.943970
712.479980,429.440002,540.703979
710.528015,425.536011,538.752014
710.528015,425.536011,538.752014
716.383972,431.391998,540.703979
714.432007,427.488007,534.848022
708.575989,427.488007,546.559998
710.528015,431.391998,548.512024
708.575989,425.536011,544.607971
716.383972,431.391998,546.559998
716.383972,425.536011,530.943970
712.479980,419.679993,538.752014
716.383972,425.536011,538.752014
718.335999,431.391998,538.752014
714.432007,431.391998,546.559998
716.383972,437.247986,540.703979
716.383972,431.391998,544.607971
714.432007,427.488007,528.992004
714.432007,419.679993,548.512024
716.383972,423.584015,540.703979
716.383972,423.584015,536.799988
714.432007,423.584015,540.703979
724.192017,427.488007,544.607971
716.383972,423.584015,536.799988
722.239990,423.584015,542.656006
728.096008,427.488007,532.895996
720.288025,427.488007,540.703979
720.288025,425.536011,548.512024
718.335999,435.295990,546.559998
724.192017,425.536011,540.703979
728.096008,421.631989,540.703979
728.096008,421.631989,542.656006
732.000000,427.488007,546.559998
724.192017,433.343994,548.512024
728.096008,433.343994,544.607971
720.288025,425.536011,548.512024
718.335999,431.391998,548.512024
726.143982,421.631989,544.607971
726.143982,425.536011,540.703979
730.047974,427.488007,538.752014
728.096008,419.679993,534.848022
728.096008,421.631989,548.512024
726.143982,429.440002,542.656006
728.096008,421.631989,546.559998
732.000000,421.631989,542.656006
728.096008,421.631989,534.848022
730.047974,427.488007,552.416016
724.192017,425.536011,544.607971
735.903992,429.440002,542.656006
724.192017,423.584015,534.848022
728.096008,427.488007,548.512024
732.000000,431.391998,542.656006
735.903992,425.536011,540.703979
730.047974,433.343994,538.752014
730.047974,435.295990,538.752014
730.047974,429.440002,536.799988
735.903992,419.679993,534.848022
732.000000,429.440002,538.752014
733.952026,437.247986,536.799988
730.047974,429.440002,538.752014
726.143982,435.295990,542.656006
726.143982,425.536011,530.943970
728.096008,437.247986,527.039978
728.096008,443.104004,538.752014
726.143982,433.343994,542.656006
718.335999,437.247986,540.703979
732.000000,441.152008,540.703979
730.047974,439.200012,538.752014
724.192017,435.295990,538.752014
726.143982,431.391998,538.752014
728.096008,439.200012,538.752014
728.096008,441.152008,540.703979
720.288025,445.056000,538.752014
726.143982,433.343994,536.799988
722.239990,437.247986,532.895996
726.143982,439.200012,536.799988
724.192017,437.247986,544.607971
726.143982,435.295990,538.752014
726.143982,439.200012,538.752014
722.239990,437.247986,527.039978
728.096008,435.295990,530.943970
728.096008,441.152008,544.607971
726.143982,439.200012,538.752014
732.000000,443.104004,536.799988
722.239990,443.104004,540.703979
722.239990,447.007996,540.703979
724.192017,441.152008,538.752014
724.192017,445.056000,532.895996
718.335999,433.343994,534.848022
718.335999,437.247986,534.848022
718.335999,435.295990,542.656006
724.192017,439.200012,538.752014
728.096008,443.104004,536.799988
718.335999,441.152008,536.799988
718.335999,437.247986,540.703979
722.239990,447.007996,538.752014
722.239990,437.247986,527.039978
728.096008,448.959991,540.703979
728.096008,447.007996,540.703979
728.096008,452.864014,532.895996
724.192017,445.056000,532.895996
728.096008,448.959991,534.848022
726.143982,445.056000,534.848022
720.288025,443.104004,542.656006
732.000000,447.007996,538.752014
726.143982,443.104004,530.943970
726.143982,448.959991,534.848022
722.239990,452.864014,540.703979
720.288025,456.768005,530.943970
726.143982,448.959991,532.895996
726.143982,441.152008,540.703979
726.143982,441.152008,544.607971
726.143982,441.152008,542.656006
726.143982,454.816010,530.943970
728.096008,450.911987,540.703979
732.000000,447.007996,540.703979
728.096008,452.864014,540.703979
730.047974,454.816010,540.703979
726.143982,452.864014,540.703979
718.335999,454.816010,534.848022
726.143982,458.720001,534.848022
718.335999,452.864014,530.943970
720.288025,452.864014,536.799988
728.096008,458.720001,530.943970
733.952026,452.864014,540.703979
732.000000,450.911987,534.848022
732.000000,452.864014,532.895996
726.143982,447.007996,527.039978
728.096008,450.911987,542.656006
724.192017,454.816010,532.895996
722.239990,452.864014,544.607971
730.047974,454.816010,546.559998
726.143982,458.720001,538.752014
728.096008,452.864014,540.703979
728.096008,460.671997,542.656006
722.239990,450.911987,540.703979
726.143982,458.720001,544.607971
732.000000,448.959991,540.703979
724.192017,462.623993,548.512024
726.143982,460.671997,542.656006
722.239990,452.864014,534.848022
722.239990,452.864014,534.848022
724.192017,454.816010,532.895996
726.143982,462.623993,534.848022
728.096008,458.720001,544.607971
724.192017,458.720001,544.607971
720.288025,456.768005,542.656006
726.143982,456.768005,536.799988
726.143982,454.816010,532.895996
720.288025,454.816010,538.752014
718.335999,450.911987,536.799988
720.288025,450.911987,540.703979
726.143982,458.720001,538.752014
732.000000,450.911987,534.848022
730.047974,458.720001,536.799988
724.192017,454.816010,534.848022
726.143982,458.720001,536.799988
728.096008,447.007996,540.703979
728.096008,452.864014,540.703979
724.192017,452.864014,536.799988
726.143982,464.575989,542.656006
722.239990,454.816010,536.799988
724.192017,441.152008,542.656006
728.096008,447.007996,544.607971
724.192017,462.623993,548.512024
722.239990,452.864014,534.848022
720.288025,450.911987,546.559998
722.239990,452.864014,546.559998
720.288025,452.864014,544.607971
722.239990,443.104004,538.752014
728.096008,447.007996,544.607971
726.143982,450.911987,540.703979
728.096008,447.007996,542.656006
728.096008,458.720001,544.607971
722.239990,448.959991,536.799988
728.096008,452.864014,544.607971
728.096008,447.007996,546.559998
728.096008,445.056000,548.512024
728.096008,450.911987,540.703979
728.096008,452.864014,546.559998
724.192017,439.200012,542.656006
728.096008,441.152008,538.752014
722.239990,447.007996,542.656006
724.192017,443.104004,544.607971
722.239990,450.911987,546.559998
714.432007,454.816010,542.656006
726.143982,448.959991,552.416016
722.239990,448.959991,542.656006
728.096008,441.152008,534.848022
728.096008,452.864014,546.559998
720.288025,447.007996,546.559998
718.335999,439.200012,548.512024
716.383972,443.104004,552.416016
714.432007,437.247986,534.848022
724.192017,441.152008,548.512024
714.432007,437.247986,540.703979
728.096008,433.343994,548.512024
714.432007,443.104004,550.463989
710.528015,447.007996,552.416016
724.192017,437.247986,554.367981
716.383972,431.391998,544.607971
718.335999,437.247986,544.607971
698.815979,427.488007,540.703979
710.528015,439.200012,552.416016
702.719971,439.200012,546.559998
712.479980,437.247986,546.559998
704.671997,441.152008,542.656006
710.528015,437.247986,542.656006
714.432007,435.295990,534.848022
716.383972,445.056000,544.607971
712.479980,429.440002,540.703979
716.383972,437.247986,546.559998
710.528015,433.343994,546.559998
710.528015,425.536011,544.607971
708.575989,441.152008,546.559998
710.528015,443.104004,548.512024
712.479980,425.536011,552.416016
712.479980,435.295990,544.607971
710.528015,423.584015,538.752014
712.479980,431.391998,540.703979
706.624023,437.247986,546.559998
712.479980,435.295990,540.703979
720.288025,437.247986,544.607971
710.528015,429.440002,546.559998
720.288025,435.295990,534.848022
714.432007,435.295990,544.607971
714.432007,437.247986,538.752014
716.383972,437.247986,540.703979
716.383972,443.104004,538.752014
714.432007,429.440002,540.703979
718.335999,433.343994,542.656006
716.383972,437.247986,546.559998
712.479980,443.104004,540.703979
720.288025,427.488007,552.416016
716.383972,437.247986,540.703979
718.335999,431.391998,540.703979
718.335999,437.247986,544.607971
724.192017,435.295990,542.656006
714.432007,437.247986,540.703979
714.432007,437.247986,540.703979
718.335999,429.440002,534.848022
714.432007,439.200012,534.848022
712.479980,431.391998,544.607971
718.335999,431.391998,546.559998
718.335999,433.343994,544.607971
712.479980,421.631989,536.799988
720.288025,431.391998,542.656006
724.192017,443.104004,546.559998
708.575989,423.584015,548.512024
710.528015,421.631989,544.607971
714.432007,425.536011,538.752014
722.239990,421.631989,546.559998
722.239990,433.343994,556.320007
724.192017,435.295990,538.752014
724.192017,427.488007,538.752014
718.335999,425.536011,542.656006
720.288025,421.631989,538.752014
718.335999,431.391998,540.703979
724.192017,433.343994,546.559998
720.288025,429.440002,544.607971
718.335999,437.247986,540.703979
728.096008,431.391998,548.512024
728.096008,437.247986,548.512024
724.192017,431.391998,542.656006
710.528015,437.247986,550.463989
724.192017,433.343994,542.656006
726.143982,435.295990,540.703979
718.335999,441.152008,538.752014
724.192017,439.200012,538.752014
724.192017,439.200012,540.703979
716.383972,433.343994,542.656006
724.192017,423.584015,552.416016
724.192017,429.440002,560.223999
718.335999,433.343994,544.607971
724.192017,439.200012,544.607971
728.096008,441.152008,534.848022
720.288025,441.152008,540.703979
716.383972,443.104004,532.895996
720.288025,431.391998,540.703979
724.192017,437.247986,540.703979
724.192017,441.152008,536.799988
720.288025,443.104004,534.848022
722.239990,429.440002,538.752014
712.479980,439.200012,534.848022
722.239990,443.104004,538.752014
724.192017,441.152008,542.656006
726.143982,439.200012,542.656006
732.000000,435.295990,536.799988
726.143982,435.295990,538.752014
726.143982,447.007996,540.703979
722.239990,443.104004,536.799988
724.192017,443.104004,542.656006
724.192017,439.200012,542.656006
728.096008,437.247986,538.752014
724.192017,437.247986,540.703979
724.192017,441.152008,536.799988
720.288025,445.056000,548.512024
718.335999,437.247986,544.607971
720.288025,443.104004,540.703979
720.288025,441.152008,534.848022
714.432007,433.343994,534.848022
716.383972,435.295990,542.656006
718.335999,427.488007,538.752014
720.288025,435.295990,550.463989
718.335999,437.247986,552.416016
718.335999,433.343994,538.752014
714.432007,435.295990,548.512024
720.288025,437.247986,548.512024
720.288025,429.440002,544.607971
710.528015,443.104004,542.656006
712.479980,443.104004,538.752014
716.383972,437.247986,540.703979
716.383972,433.343994,548.512024
708.575989,445.056000,540.703979
714.432007,439.200012,534.848022
716.383972,437.247986,540.703979
710.528015,445.056000,538.752014
712.479980,437.247986,544.607971
710.528015,443.104004,542.656006
716.383972,439.200012,534.848022
716.383972,437.247986,542.656006
706.624023,435.295990,542.656006
708.575989,441.152008,540.703979
706.624023,435.295990,544.607971
712.479980,437.247986,538.752014
708.575989,445.056000,536.799988
704.671997,441.152008,536.799988
702.719971,448.959991,538.752014
714.432007,447.007996,530.943970
704.671997,443.104004,534.848022
706.624023,433.343994,532.895996
714.432007,439.200012,552.416016
708.575989,443.104004,548.512024
712.479980,445.056000,544.607971
718.335999,435.295990,540.703979
708.575989,443.104004,542.656006
716.383972,443.104004,548.512024
706.624023,437.247986,534.848022
718.335999,439.200012,538.752014
700.768005,441.152008,540.703979
704.671997,439.200012,538.752014
710.528015,443.104004,542.656006
710.528015,448.959991,536.799988
714.432007,439.200012,534.848022
718.335999,435.295990,544.607971
710.528015,439.200012,532.895996
718.335999,443.104004,534.848022
714.432007,443.104004,536.799988
710.528015,439.200012,534.848022
710.528015,433.343994,534.848022
710.528015,435.295990,546.559998
712.479980,429.440002,546.559998
712.479980,437.247986,544.607971
706.624023,439.200012,530.943970
708.575989,427.488007,544.607971
716.383972,431.391998,540.703979
712.479980,439.200012,534.848022
716.383972,443.104004,548.512024
706.624023,447.007996,544.607971
712.479980,443.104004,546.559998
702.719971,450.911987,544.607971
712.479980,443.104004,540.703979
708.575989,450.911987,542.656006
716.383972,437.247986,540.703979
700.768005,441.152008,544.607971
704.671997,443.104004,540.703979
702.719971,447.007996,542.656006
708.575989,447.007996,540.703979
710.528015,443.104004,542.656006
710.528015,439.200012,546.559998
702.719971,441.152008,546.559998
708.575989,448.959991,538.752014
706.624023,452.864014,542.656006
708.575989,447.007996,538.752014
712.479980,448.959991,538.752014
710.528015,443.104004,542.656006
710.528015,445.056000,538.752014
710.528015,445.056000,542.656006
702.719971,447.007996,540.703979
704.671997,452.864014,550.463989
702.719971,443.104004,544.607971
708.575989,439.200012,552.416016
706.624023,445.056000,548.512024
702.719971,447.007996,546.559998
708.575989,439.200012,534.848022
702.719971,447.007996,544.607971
708.575989,447.007996,546.559998
698.815979,445.056000,546.559998
700.768005,450.911987,544.607971
700.768005,447.007996,544.607971
704.671997,443.104004,544.607971
704.671997,441.152008,548.512024
706.624023,443.104004,544.607971
702.719971,447.007996,546.559998
708.575989,443.104004,548.512024
714.432007,445.056000,548.512024
702.719971,448.959991,542.656006
708.575989,452.864014,548.512024
708.575989,447.007996,548.512024
710.528015,445.056000,540.703979
714.432007,450.911987,550.463989
708.575989,450.911987,538.752014
702.719971,448.959991,546.559998
714.432007,445.056000,550.463989
716.383972,443.104004,538.752014
712.479980,443.104004,538.752014
724.192017,443.104004,546.559998
716.383972,447.007996,550.463989
704.671997,443.104004,542.656006
702.719971,445.056000,538.752014
710.528015,445.056000,544.607971
718.335999,443.104004,544.607971
716.383972,435.295990,540.703979
716.383972,437.247986,542.656006
712.479980,437.247986,540.703979
704.671997,439.200012,548.512024
706.624023,443.104004,540.703979
710.528015,441.152008,546.559998
720.288025,443.104004,544.607971
722.239990,450.911987,546.559998
714.432007,447.007996,530.943970
710.528015,445.056000,548.512024
710.528015,445.056000,540.703979
722.239990,448.959991,548.512024
722.239990,447.007996,544.607971
720.288025,443.104004,550.463989
716.383972,437.247986,542.656006
716.383972,450.911987,548.512024
714.432007,443.104004,548.512024
720.288025,445.056000,542.656006
720.288025,441.152008,540.703979
716.383972,441.152008,548.512024
722.239990,441.152008,552.416016
714.432007,437.247986,534.848022
724.192017,443.104004,540.703979
718.335999,437.247986,540.703979
714.432007,443.104004,548.512024
718.335999,437.247986,544.607971
722.239990,441.152008,546.559998
728.096008,443.104004,536.799988
720.288025,429.440002,534.848022
718.335999,439.200012,548.512024
722.239990,441.152008,546.559998
724.192017,433.343994,538.752014
726.143982,435.295990,540.703979
718.335999,429.440002,538.752014
726.143982,435.295990,546.559998
716.383972,431.391998,540.703979
722.239990,437.247986,538.752014
718.335999,443.104004,534.848022
726.143982,429.440002,536.799988
730.047974,433.343994,534.848022
730.047974,439.200012,538.752014
726.143982,437.247986,538.752014
720.288025,437.247986,542.656006
726.143982,433.343994,538.752014
724.192017,429.440002,542.656006
726.143982,433.343994,544.607971
728.096008,429.440002,542.656006
737.856018,435.295990,542.656006
735.903992,435.295990,548.512024
730.047974,439.200012,544.607971
728.096008,427.488007,540.703979
728.096008,429.440002,546.559998
728.096008,421.631989,542.656006
724.192017,429.440002,538.752014
728.096008,441.152008,538.752014
732.000000,441.152008,544.607971
730.047974,429.440002,536.799988
724.192017,425.536011,540.703979
728.096008,431.391998,536.799988
724.192017,435.295990,548.512024
726.143982,439.200012,536.799988
724.192017,437.247986,544.607971
732.000000,437.247986,548.512024
735.903992,437.247986,544.607971
728.096008,429.440002,542.656006
730.047974,435.295990,538.752014
730.047974,439.200012,542.656006
735.903992,431.391998,538.752014
726.143982,439.200012,538.752014
726.143982,433.343994,548.512024
726.143982,435.295990,542.656006
726.143982,435.295990,548.512024
735.903992,435.295990,542.656006
728.096008,435.295990,538.752014
726.143982,439.200012,544.607971
724.192017,439.200012,536.799988
732.000000,439.200012,536.799988
730.047974,435.295990,548.512024
728.096008,439.200012,542.656006
720.288025,450.911987,538.752014
722.239990,450.911987,540.703979
726.143982,443.104004,534.848022
726.143982,439.200012,542.656006
728.096008,441.152008,540.703979
726.143982,441.152008,538.752014
718.335999,435.295990,548.512024
718.335999,437.247986,544.607971
720.288025,433.343994,538.752014
714.432007,445.056000,530.943970
722.239990,447.007996,540.703979
726.143982,433.343994,536.799988
724.192017,439.200012,538.752014
718.335999,439.200012,544.607971
720.288025,437.247986,530.943970
718.335999,437.247986,532.895996
718.335999,439.200012,544.607971
718.335999,439.200012,538.752014
710.528015,439.200012,534.848022
716.383972,441.152008,530.943970
710.528015,450.911987,538.752014
720.288025,437.247986,538.752014
718.335999,435.295990,538.752014
718.335999,439.200012,548.512024
712.479980,433.343994,544.607971
712.479980,437.247986,540.703979
714.432007,441.152008,534.848022
718.335999,433.343994,534.848022
718.335999,441.152008,536.799988
714.432007,443.104004,544.607971
710.528015,439.200012,546.559998
716.383972,431.391998,542.656006
712.479980,445.056000,542.656006
710.528015,443.104004,538.752014
720.288025,437.247986,534.848022
720.288025,441.152008,540.703979
718.335999,448.959991,540.703979
720.288025,445.056000,542.656006
720.288025,441.152008,542.656006
718.335999,447.007996,536.799988
716.383972,437.247986,540.703979
720.288025,429.440002,534.848022
714.432007,445.056000,550.463989
714.432007,447.007996,550.463989
714.432007,450.911987,542.656006
716.383972,447.007996,542.656006
706.624023,447.007996,538.752014
714.432007,437.247986,540.703979
720.288025,443.104004,544.607971
726.143982,439.200012,538.752014
720.288025,435.295990,530.943970
716.383972,437.247986,546.559998
712.479980,443.104004,542.656006
720.288025,445.056000,542.656006
712.479980,443.104004,538.752014
720.288025,450.911987,542.656006
716.383972,437.247986,554.367981
714.432007,445.056000,544.607971
712.479980,437.247986,542.656006
722.239990,437.247986,536.799988
712.479980,437.247986,546.559998
720.288025,445.056000,536.799988
710.528015,443.104004,546.559998
718.335999,435.295990,540.703979
712.479980,437.247986,544.607971
710.528015,443.104004,530.943970
718.335999,433.343994,542.656006
718.335999,448.959991,544.607971
728.096008,447.007996,542.656006
728.096008,447.007996,542.656006
720.288025,443.104004,538.752014
722.239990,447.007996,544.607971
716.383972,443.104004,546.559998
730.047974,439.200012,548.512024
722.239990,437.247986,536.799988
720.288025,441.152008,552.416016
722.239990,435.295990,546.559998
726.143982,439.200012,546.559998
726.143982,435.295990,544.607971
732.000000,441.152008,538.752014
716.383972,443.104004,544.607971
720.288025,447.007996,542.656006
724.192017,443.104004,552.416016
728.096008,450.911987,552.416016
720.288025,443.104004,538.752014
724.192017,437.247986,540.703979
728.096008,447.007996,544.607971
722.239990,443.104004,544.607971
724.192017,448.959991,546.559998
730.047974,441.152008,534.848022
724.192017,439.200012,542.656006
728.096008,437.247986,530.943970
716.383972,439.200012,532.895996
728.096008,437.247986,530.943970
722.239990,437.247986,536.799988
716.383972,435.295990,540.703979
728.096008,433.343994,536.799988
718.335999,437.247986,548.512024
722.239990,437.247986,532.895996
716.383972,441.152008,536.799988
724.192017,429.440002,538.752014
710.528015,439.200012,532.895996
720.288025,439.200012,532.895996
724.192017,429.440002,536.799988
718.335999,435.295990,544.607971
728.096008,429.440002,540.703979
716.383972,443.104004,542.656006
714.432007,431.391998,530.943970
720.288025,437.247986,536.799988
718.335999,439.200012,534.848022
722.239990,439.200012,540.703979
714.432007,443.104004,536.799988
728.096008,431.391998,527.039978
724.192017,437.247986,540.703979
718.335999,450.911987,532.895996
724.192017,437.247986,542.656006
724.192017,443.104004,546.559998
714.432007,450.911987,538.752014
726.143982,439.200012,540.703979
728.096008,447.007996,540.703979
728.096008,452.864014,534.848022
728.096008,452.864014,540.703979
720.288025,445.056000,536.799988
718.335999,454.816010,530.943970
720.288025,454.816010,538.752014
724.192017,441.152008,538.752014
722.239990,431.391998,548.512024
728.096008,448.959991,534.848022
722.239990,447.007996,544.607971
728.096008,437.247986,550.463989
722.239990,447.007996,540.703979
720.288025,447.007996,540.703979
724.192017,448.959991,532.895996
714.432007,443.104004,538.752014
718.335999,443.104004,540.703979
718.335999,448.959991,536.799988
718.335999,448.959991,536.799988
724.192017,437.247986,540.703979
726.143982,450.911987,542.656006
726.143982,460.671997,544.607971
724.192017,454.816010,528.992004
724.192017,454.816010,534.848022
730.047974,447.007996,540.703979
730.047974,456.768005,527.039978
726.143982,441.152008,536.799988
722.239990,448.959991,534.848022
726.143982,448.959991,534.848022
726.143982,448.959991,534.848022
720.288025,447.007996,542.656006
728.096008,445.056000,538.752014
730.047974,445.056000,534.848022
716.383972,447.007996,527.039978
718.335999,448.959991,532.895996
722.239990,452.864014,534.848022
714.432007,454.816010,538.752014
720.288025,445.056000,536.799988
714.432007,448.959991,538.752014
716.383972,454.816010,542.656006
728.096008,452.864014,544.607971
730.047974,452.864014,540.703979
718.335999,447.007996,530.943970
714.432007,458.720001,528.992004
710.528015,458.720001,532.895996
724.192017,458.720001,530.943970
716.383972,447.007996,536.799988
710.528015,458.720001,532.895996
724.192017,448.959991,527.039978
718.335999,452.864014,544.607971
720.288025,450.911987,538.752014
712.479980,450.911987,528.992004
716.383972,450.911987,536.799988
722.239990,448.959991,536.799988
732.000000,454.816010,532.895996
724.192017,458.720001,536.799988
718.335999,445.056000,538.752014
720.288025,452.864014,544.607971
710.528015,445.056000,540.703979
716.383972,450.911987,536.799988
722.239990,452.864014,540.703979
714.432007,452.864014,536.799988
722.239990,454.816010,536.799988
718.335999,452.864014,525.088013
716.383972,443.104004,534.848022
722.239990,454.816010,542.656006
728.096008,452.864014,542.656006
722.239990,443.104004,548.512024
726.143982,441.152008,538.752014
726.143982,447.007996,540.703979
722.239990,452.864014,540.703979
726.143982,460.671997,538.752014
728.096008,450.911987,534.848022
718.335999,448.959991,530.943970
724.192017,458.720001,538.752014
726.143982,452.864014,548.512024
724.192017,439.200012,536.799988
726.143982,450.911987,532.895996
722.239990,454.816010,534.848022
724.192017,458.720001,538.752014
722.239990,452.864014,544.607971
716.383972,447.007996,530.943970
724.192017,452.864014,536.799988
718.335999,460.671997,536.799988
726.143982,456.768005,534.848022
726.143982,445.056000,532.895996
714.432007,445.056000,538.752014
724.192017,456.768005,534.848022
722.239990,450.911987,534.848022
718.335999,452.864014,536.799988
722.239990,458.720001,534.848022
722.239990,441.152008,542.656006
722.239990,456.768005,534.848022
724.192017,450.911987,536.799988
718.335999,456.768005,534.848022
714.432007,452.864014,538.752014
714.432007,454.816010,536.799988
728.096008,454.816010,540.703979
728.096008,452.864014,534.848022
710.528015,458.720001,534.848022
730.047974,448.959991,532.895996
726.143982,454.816010,532.895996
722.239990,448.959991,534.848022
724.192017,445.056000,534.848022
724.192017,454.816010,532.895996
720.288025,458.720001,534.848022
718.335999,454.816010,536.799988
726.143982,462.623993,538.752014
730.047974,445.056000,534.848022
724.192017,447.007996,532.895996
724.192017,452.864014,530.943970
718.335999,448.959991,528.992004
726.143982,445.056000,534.848022
728.096008,450.911987,528.992004
732.000000,450.911987,532.895996
730.047974,448.959991,532.895996
724.192017,448.959991,532.895996
730.047974,445.056000,530.943970
728.096008,447.007996,534.848022
732.000000,450.911987,534.848022
732.000000,452.864014,534.848022
735.903992,445.056000,527.039978
735.903992,447.007996,536.799988
728.096008,458.720001,536.799988
730.047974,452.864014,540.703979
728.096008,447.007996,532.895996
735.903992,456.768005,523.135986
726.143982,443.104004,523.135986
724.192017,454.816010,528.992004
733.952026,448.959991,523.135986
728.096008,447.007996,534.848022
735.903992,443.104004,532.895996
735.903992,452.864014,536.799988
735.903992,445.056000,530.943970
728.096008,441.152008,544.607971
739.807983,443.104004,536.799988
739.807983,443.104004,536.799988
730.047974,445.056000,532.895996
733.952026,448.959991,540.703979
726.143982,443.104004,532.895996
732.000000,437.247986,530.943970
730.047974,448.959991,523.135986
730.047974,448.959991,540.703979
732.000000,447.007996,534.848022
739.807983,439.200012,523.135986
735.903992,445.056000,528.992004
730.047974,450.911987,527.039978
730.047974,448.959991,534.848022
735.903992,441.152008,536.799988
735.903992,445.056000,532.895996
732.000000,452.864014,540.703979
737.856018,454.816010,527.039978
735.903992,448.959991,536.799988
735.903992,447.007996,532.895996
735.903992,445.056000,532.895996
735.903992,437.247986,534.848022
726.143982,445.056000,534.848022
728.096008,433.343994,536.799988
733.952026,441.152008,538.752014
730.047974,437.247986,534.848022
735.903992,439.200012,538.752014
733.952026,447.007996,534.848022
730.047974,437.247986,530.943970
730.047974,439.200012,538.752014
743.711975,437.247986,532.895996
741.760010,435.295990,530.943970
735.903992,437.247986,534.848022
733.952026,437.247986,530.943970
737.856018,439.200012,538.752014
735.903992,439.200012,538.752014
726.143982,443.104004,536.799988
732.000000,448.959991,523.135986
728.096008,437.247986,527.039978
739.807983,439.200012,532.895996
722.239990,437.247986,530.943970
732.000000,437.247986,525.088013
728.096008,439.200012,538.752014
728.096008,437.247986,536.799988
724.192017,427.488007,530.943970
726.143982,435.295990,519.231995
726.143982,443.104004,527.039978
724.192017,441.152008,538.752014
724.192017,441.152008,527.039978
732.000000,443.104004,536.799988
726.143982,431.391998,532.895996
722.239990,443.104004,525.088013
728.096008,437.247986,530.943970
726.143982,431.391998,538.752014
728.096008,437.247986,532.895996
714.432007,431.391998,532.895996
724.192017,429.440002,530.943970
720.288025,435.295990,532.895996
718.335999,435.295990,540.703979
722.239990,439.200012,534.848022
722.239990,431.391998,548.512024
728.096008,425.536011,527.039978
716.383972,433.343994,523.135986
720.288025,431.391998,534.848022
730.047974,427.488007,532.895996
726.143982,431.391998,528.992004
726.143982,425.536011,532.895996
730.047974,427.488007,532.895996
724.192017,423.584015,530.943970
726.143982,435.295990,536.799988
724.192017,433.343994,538.752014
722.239990,431.391998,530.943970
718.335999,425.536011,534.848022
726.143982,429.440002,536.799988
724.192017,423.584015,532.895996
724.192017,421.631989,527.039978
726.143982,429.440002,538.752014
726.143982,427.488007,536.799988
722.239990,433.343994,530.943970
726.143982,423.584015,527.039978
724.192017,427.488007,530.943970
720.288025,431.391998,532.895996
718.335999,431.391998,534.848022
716.383972,429.440002,530.943970
718.335999,429.440002,540.703979
722.239990,429.440002,523.135986
726.143982,427.488007,536.799988
720.288025,429.440002,528.992004
732.000000,435.295990,536.799988
722.239990,421.631989,540.703979
724.192017,427.488007,527.039978
728.096008,427.488007,536.799988
724.192017,419.679993,532.895996
720.288025,429.440002,527.039978
722.239990,421.631989,534.848022
724.192017,425.536011,527.039978
718.335999,431.391998,527.039978
726.143982,425.536011,530.943970
724.192017,421.631989,540.703979
726.143982,423.584015,532.895996
720.288025,417.727997,536.799988
728.096008,423.584015,536.799988
722.239990,423.584015,536.799988
724.192017,423.584015,527.039978
728.096008,431.391998,527.039978
728.096008,435.295990,528.992004
726.143982,423.584015,523.135986
728.096008,413.824005,536.799988
720.288025,427.488007,538.752014
726.143982,431.391998,528.992004
724.192017,425.536011,532.895996
724.192017,431.391998,536.799988
722.239990,421.631989,532.895996
722.239990,429.440002,536.799988
728.096008,425.536011,536.799988
722.239990,427.488007,542.656006
728.096008,417.727997,544.607971
728.096008,427.488007,540.703979
735.903992,427.488007,536.799988
726.143982,421.631989,532.895996
728.096008,417.727997,538.752014
726.143982,425.536011,534.848022
732.000000,423.584015,530.943970
726.143982,423.584015,534.848022
732.000000,419.679993,532.895996
726.143982,423.584015,534.848022
724.192017,417.727997,532.895996
722.239990,417.727997,540.703979
726.143982,417.727997,532.895996
733.952026,421.631989,540.703979
728.096008,415.776001,534.848022
732.000000,415.776001,540.703979
739.807983,419.679993,542.656006
728.096008,409.920013,534.848022
728.096008,415.776001,532.895996
728.096008,419.679993,534.848022
724.192017,409.920013,532.895996
728.096008,411.872009,532.895996
732.000000,419.679993,540.703979
735.903992,427.488007,548.512024
728.096008,415.776001,532.895996
739.807983,415.776001,534.848022
739.807983,413.824005,538.752014
726.143982,413.824005,532.895996
730.047974,413.824005,534.848022
732.000000,423.584015,538.752014
728.096008,406.015991,536.799988
728.096008,417.727997,546.559998
718.335999,417.727997,527.039978
730.047974,427.488007,538.752014
724.192017,425.536011,527.039978
724.192017,413.824005,534.848022
726.143982,419.679993,534.848022
724.192017,417.727997,525.088013
722.239990,423.584015,536.799988
728.096008,411.872009,536.799988
735.903992,413.824005,534.848022
728.096008,406.015991,536.799988
726.143982,415.776001,536.799988
728.096008,415.776001,540.703979
728.096008,411.872009,527.039978
724.192017,406.015991,536.799988
726.143982,423.584015,532.895996
726.143982,423.584015,528.992004
728.096008,419.679993,534.848022
718.335999,417.727997,536.799988
724.192017,419.679993,532.895996
722.239990,423.584015,527.039978
722.239990,425.536011,530.943970
726.143982,413.824005,534.848022
724.192017,423.584015,532.895996
728.096008,411.872009,530.943970
728.096008,406.015991,528.992004
726.143982,411.872009,532.895996
728.096008,411.872009,532.895996
720.288025,406.015991,538.752014
726.143982,421.631989,542.656006
722.239990,423.584015,536.799988
728.096008,417.727997,540.703979
726.143982,429.440002,536.799988
726.143982,417.727997,532.895996
722.239990,421.631989,540.703979
726.143982,421.631989,540.703979
724.192017,423.584015,534.848022
726.143982,413.824005,527.039978
726.143982,421.631989,536.799988
732.000000,421.631989,540.703979
726.143982,427.488007,540.703979
728.096008,423.584015,527.039978
722.239990,421.631989,540.703979
730.047974,417.727997,540.703979
730.047974,427.488007,542.656006
733.952026,427.488007,534.848022
732.000000,425.536011,530.943970
735.903992,423.584015,534.848022
726.143982,431.391998,544.607971
732.000000,427.488007,540.703979
722.239990,421.631989,544.607971
718.335999,431.391998,548.512024
718.335999,431.391998,548.512024
716.383972,425.536011,540.703979
728.096008,421.631989,532.895996
726.143982,423.584015,523.135986
726.143982,423.584015,523.135986
728.096008,419.679993,521.184021
722.239990,429.440002,511.424011
728.096008,421.631989,515.328003
733.952026,431.391998,528.992004
732.000000,431.391998,528.992004
728.096008,425.536011,532.895996
732.000000,421.631989,540.703979
735.903992,421.631989,548.512024
741.760010,423.584015,548.512024
739.807983,433.343994,540.703979
733.952026,425.536011,552.416016
741.760010,431.391998,546.559998
732.000000,443.104004,542.656006
730.047974,439.200012,548.512024
726.143982,441.152008,536.799988
730.047974,450.911987,534.848022
732.000000,441.152008,532.895996
728.096008,437.247986,525.088013
722.239990,437.247986,528.992004
733.952026,433.343994,527.039978
724.192017,429.440002,536.799988
732.000000,425.536011,528.992004
730.047974,423.584015,527.039978
724.192017,435.295990,534.848022
726.143982,431.391998,536.799988
732.000000,443.104004,527.039978
732.000000,439.200012,532.895996
728.096008,439.200012,530.943970
722.239990,443.104004,528.992004
726.143982,445.056000,532.895996
720.288025,447.007996,528.992004
718.335999,450.911987,527.039978
718.335999,447.007996,528.992004
714.432007,439.200012,523.135986
728.096008,437.247986,530.943970
720.288025,443.104004,536.799988
726.143982,433.343994,538.752014
726.143982,439.200012,536.799988
728.096008,433.343994,536.799988
732.000000,437.247986,530.943970
726.143982,433.343994,538.752014
720.288025,443.104004,536.799988
728.096008,435.295990,527.039978
724.192017,443.104004,523.135986
716.383972,447.007996,530.943970
722.239990,458.720001,532.895996
726.143982,448.959991,527.039978
724.192017,454.816010,534.848022
724.192017,445.056000,528.992004
735.903992,447.007996,534.848022
728.096008,450.911987,534.848022
728.096008,441.152008,540.703979
722.239990,445.056000,538.752014
728.096008,439.200012,540.703979
728.096008,450.911987,540.703979
722.239990,445.056000,538.752014
730.047974,439.200012,538.752014
728.096008,437.247986,530.943970
730.047974,437.247986,532.895996
726.143982,443.104004,528.992004
726.143982,443.104004,527.039978
730.047974,441.152008,530.943970
728.096008,448.959991,527.039978
726.143982,448.959991,523.135986
722.239990,454.816010,517.280029
730.047974,454.816010,528.992004
730.047974,464.575989,530.943970
732.000000,456.768005,528.992004
732.000000,454.816010,523.135986
726.143982,448.959991,534.848022
733.952026,456.768005,536.799988
726.143982,450.911987,546.559998
735.903992,450.911987,552.416016
739.807983,458.720001,540.703979
735.903992,464.575989,542.656006
730.047974,448.959991,532.895996
728.096008,454.816010,532.895996
726.143982,454.816010,532.895996
726.143982,448.959991,523.135986
722.239990,450.911987,515.328003
724.192017,454.816010,523.135986
732.000000,456.768005,525.088013
737.856018,452.864014,530.943970
726.143982,448.959991,528.992004
730.047974,454.816010,528.992004
720.288025,470.432007,534.848022
735.903992,464.575989,538.752014
735.903992,462.623993,534.848022
735.903992,470.432007,544.607971
733.952026,474.335999,538.752014
728.096008,462.623993,530.943970
724.192017,468.480011,532.895996
728.096008,464.575989,530.943970
732.000000,468.480011,525.088013
714.432007,460.671997,523.135986
714.432007,458.720001,527.039978
714.432007,458.720001,523.135986
716.383972,458.720001,525.088013
726.143982,454.816010,532.895996
728.096008,456.768005,536.799988
728.096008,460.671997,534.848022
728.096008,452.864014,538.752014
728.096008,460.671997,540.703979
726.143982,470.432007,542.656006
733.952026,468.480011,530.943970
722.239990,474.335999,538.752014
733.952026,472.384003,540.703979
732.000000,478.239990,532.895996
730.047974,472.384003,536.799988
724.192017,476.287994,532.895996
716.383972,478.239990,528.992004
728.096008,472.384003,534.848022
720.288025,470.432007,534.848022
724.192017,470.432007,530.943970
716.383972,464.575989,523.135986
710.528015,460.671997,523.135986
724.192017,456.768005,527.039978
716.383972,452.864014,528.992004
720.288025,458.720001,523.135986
724.192017,470.432007,536.799988
724.192017,466.528015,532.895996
722.239990,464.575989,528.992004
724.192017,460.671997,532.895996
716.383972,478.239990,528.992004
724.192017,468.480011,521.184021
718.335999,476.287994,523.135986
722.239990,470.432007,527.039978
724.192017,482.144012,534.848022
726.143982,474.335999,527.039978
722.239990,460.671997,527.039978
726.143982,466.528015,525.088013
728.096008,462.623993,525.088013
726.143982,468.480011,523.135986
722.239990,462.623993,519.231995
722.239990,456.768005,527.039978
724.192017,454.816010,525.088013
724.192017,458.720001,517.280029
710.528015,460.671997,521.184021
720.288025,452.864014,517.280029
722.239990,462.623993,528.992004
722.239990,464.575989,527.039978
720.288025,470.432007,523.135986
720.288025,464.575989,532.895996
720.288025,470.432007,523.135986
732.000000,456.768005,525.088013
728.096008,466.528015,525.088013
722.239990,456.768005,527.039978
732.000000,464.575989,530.943970
728.096008,458.720001,530.943970
730.047974,460.671997,519.231995
726.143982,456.768005,523.135986
728.096008,464.575989,525.088013
720.288025,458.720001,521.184021
722.239990,462.623993,519.231995
730.047974,462.623993,507.519989
728.096008,462.623993,525.088013
726.143982,454.816010,523.135986
722.239990,462.623993,517.280029
728.096008,462.623993,525.088013
735.903992,462.623993,528.992004
728.096008,464.575989,530.943970
726.143982,470.432007,519.231995
732.000000,460.671997,538.752014
732.000000,458.720001,538.752014
726.143982,462.623993,528.992004
730.047974,454.816010,527.039978
737.856018,450.911987,532.895996
735.903992,462.623993,532.895996
735.903992,452.864014,525.088013
732.000000,448.959991,523.135986
726.143982,452.864014,517.280029
728.096008,462.623993,527.039978
735.903992,464.575989,528.992004
730.047974,462.623993,528.992004
732.000000,462.623993,525.088013
728.096008,456.768005,530.943970
737.856018,447.007996,530.943970
735.903992,448.959991,530.943970
735.903992,464.575989,530.943970
737.856018,456.768005,544.607971
741.760010,454.816010,540.703979
747.616028,454.816010,540.703979
743.711975,456.768005,540.703979
737.856018,456.768005,534.848022
741.760010,450.911987,536.799988
732.000000,452.864014,532.895996
733.952026,437.247986,527.039978
751.520020,445.056000,530.943970
737.856018,448.959991,538.752014
739.807983,448.959991,536.799988
747.616028,452.864014,527.039978
741.760010,450.911987,527.039978
726.143982,443.104004,527.039978
743.711975,447.007996,527.039978
735.903992,447.007996,532.895996
735.903992,445.056000,532.895996
741.760010,454.816010,536.799988
739.807983,437.247986,530.943970
730.047974,447.007996,532.895996
739.807983,448.959991,542.656006
732.000000,447.007996,540.703979
735.903992,445.056000,523.135986
730.047974,433.343994,530.943970
730.047974,447.007996,534.848022
733.952026,439.200012,540.703979
735.903992,448.959991,532.895996
733.952026,452.864014,534.848022
728.096008,441.152008,534.848022
726.143982,454.816010,528.992004
726.143982,448.959991,528.992004
735.903992,445.056000,527.039978
732.000000,443.104004,530.943970
730.047974,447.007996,523.135986
730.047974,441.152008,544.607971
728.096008,447.007996,540.703979
722.239990,450.911987,544.607971
732.000000,450.911987,542.656006
730.047974,445.056000,534.848022
739.807983,447.007996,534.848022
735.903992,450.911987,534.848022
728.096008,435.295990,527.039978
728.096008,437.247986,525.088013
730.047974,439.200012,536.799988
730.047974,445.056000,532.895996
728.096008,435.295990,530.943970
728.096008,435.295990,530.943970
732.000000,443.104004,527.039978
720.288025,439.200012,532.895996
718.335999,435.295990,536.799988
720.288025,439.200012,540.703979
720.288025,437.247986,540.703979
728.096008,439.200012,536.799988
722.239990,454.816010,536.799988
724.192017,441.152008,530.943970
718.335999,433.343994,536.799988
726.143982,439.200012,538.752014
718.335999,433.343994,530.943970
720.288025,429.440002,532.895996
724.192017,443.104004,532.895996
726.143982,431.391998,538.752014
718.335999,431.391998,540.703979
710.528015,439.200012,532.895996
720.288025,437.247986,530.943970
718.335999,429.440002,532.895996
716.383972,431.391998,532.895996
722.239990,429.440002,532.895996
722.239990,429.440002,527.039978
714.432007,431.391998,530.943970
718.335999,431.391998,538.752014
714.432007,433.343994,536.799988
722.239990,429.440002,528.992004
716.383972,439.200012,525.088013
710.528015,429.440002,532.895996
720.288025,423.584015,536.799988
720.288025,431.391998,536.799988
720.288025,431.391998,532.895996
718.335999,427.488007,530.943970
714.432007,427.488007,527.039978
714.432007,429.440002,523.135986
718.335999,431.391998,538.752014
714.432007,429.440002,532.895996
716.383972,429.440002,530.943970
714.432007,427.488007,528.992004
712.479980,421.631989,532.895996
722.239990,421.631989,528.992004
718.335999,425.536011,523.135986
722.239990,425.536011,528.992004
724.192017,421.631989,530.943970
716.383972,417.727997,527.039978
712.479980,417.727997,528.992004
724.192017,421.631989,525.088013
718.335999,423.584015,523.135986
722.239990,425.536011,536.799988
724.192017,421.631989,536.799988
724.192017,427.488007,536.799988
724.192017,419.679993,536.799988
728.096008,425.536011,536.799988
728.096008,425.536011,530.943970
726.143982,423.584015,528.992004
728.096008,417.727997,540.703979
726.143982,423.584015,523.135986
726.143982,423.584015,528.992004
730.047974,415.776001,540.703979
728.096008,425.536011,525.088013
726.143982,417.727997,528.992004
730.047974,423.584015,523.135986
726.143982,427.488007,519.231995
728.096008,425.536011,530.943970
722.239990,427.488007,527.039978
722.239990,433.343994,527.039978
728.096008,425.536011,528.992004
732.000000,421.631989,540.703979
728.096008,421.631989,534.848022
726.143982,431.391998,528.992004
733.952026,415.776001,528.992004
728.096008,421.631989,534.848022
732.000000,431.391998,528.992004
730.047974,425.536011,528.992004
735.903992,431.391998,534.848022
739.807983,429.440002,532.895996
728.096008,425.536011,530.943970
733.952026,429.440002,528.992004
737.856018,421.631989,525.088013
733.952026,433.343994,525.088013
732.000000,433.343994,523.135986
732.000000,435.295990,530.943970
735.903992,431.391998,536.799988
728.096008,425.536011,530.943970
735.903992,425.536011,530.943970
735.903992,427.488007,544.607971
735.903992,423.584015,534.848022
735.903992,421.631989,534.848022
739.807983,429.440002,528.992004
735.903992,431.391998,530.943970
733.952026,427.488007,528.992004
739.807983,427.488007,523.135986
732.000000,431.391998,528.992004
726.143982,425.536011,527.039978
730.047974,423.584015,528.992004
728.096008,425.536011,523.135986
732.000000,427.488007,521.184021
733.952026,431.391998,528.992004
728.096008,433.343994,525.088013
732.000000,439.200012,536.799988
733.952026,439.200012,528.992004
728.096008,425.536011,530.943970
728.096008,433.343994,525.088013
732.000000,431.391998,536.799988
726.143982,429.440002,536.799988
730.047974,431.391998,534.848022
733.952026,439.200012,528.992004
739.807983,439.200012,532.895996
737.856018,439.200012,528.992004
728.096008,425.536011,528.992004
724.192017,443.104004,532.895996
732.000000,431.391998,536.799988
728.096008,431.391998,528.992004
732.000000,431.391998,530.943970
730.047974,431.391998,525.088013
732.000000,433.343994,528.992004
728.096008,425.536011,525.088013
733.952026,435.295990,528.992004
722.239990,441.152008,532.895996
720.288025,439.200012,523.135986
722.239990,431.391998,536.799988
728.096008,437.247986,530.943970
722.239990,439.200012,534.848022
728.096008,431.391998,528.992004
735.903992,423.584015,530.943970
730.047974,423.584015,523.135986
728.096008,431.391998,527.039978
735.903992,423.584015,523.135986
724.192017,423.584015,527.039978
732.000000,433.343994,525.088013
724.192017,431.391998,515.328003
722.239990,429.440002,527.039978
722.239990,431.391998,525.088013
716.383972,427.488007,527.039978
728.096008,425.536011,525.088013
726.143982,423.584015,525.088013
714.432007,433.343994,532.895996
728.096008,431.391998,527.039978
722.239990,427.488007,528.992004
716.383972,427.488007,532.895996
728.096008,437.247986,528.992004
722.239990,437.247986,528.992004
730.047974,437.247986,528.992004
728.096008,433.343994,528.992004
726.143982,425.536011,532.895996
726.143982,435.295990,538.752014
726.143982,425.536011,523.135986
720.288025,435.295990,530.943970
722.239990,431.391998,530.943970
726.143982,423.584015,528.992004
732.000000,427.488007,521.184021
732.000000,431.391998,525.088013
730.047974,417.727997,523.135986
733.952026,435.295990,523.135986
732.000000,425.536011,532.895996
733.952026,429.440002,523.135986
739.807983,431.391998,530.943970
733.952026,431.391998,527.039978
739.807983,427.488007,523.135986
732.000000,431.391998,530.943970
733.952026,429.440002,530.943970
741.760010,421.631989,528.992004
733.952026,435.295990,525.088013
743.711975,429.440002,540.703979
733.952026,425.536011,527.039978
743.711975,427.488007,536.799988
741.760010,425.536011,536.799988
737.856018,431.391998,527.039978
743.711975,427.488007,527.039978
737.856018,423.584015,530.943970
741.760010,427.488007,521.184021
741.760010,429.440002,523.135986
745.664001,427.488007,532.895996
747.616028,421.631989,527.039978
747.616028,429.440002,528.992004
747.616028,433.343994,528.992004
745.664001,429.440002,532.895996
751.520020,437.247986,525.088013
743.711975,429.440002,527.039978
739.807983,425.536011,530.943970
741.760010,437.247986,525.088013
741.760010,439.200012,525.088013
741.760010,437.247986,528.992004
741.760010,437.247986,530.943970
741.760010,439.200012,532.895996
743.711975,437.247986,532.895996
741.760010,431.391998,532.895996
739.807983,439.200012,527.039978
739.807983,429.440002,523.135986
747.616028,429.440002,523.135986
743.711975,439.200012,528.992004
741.760010,439.200012,523.135986
741.760010,439.200012,523.135986
747.616028,429.440002,523.135986
743.711975,439.200012,523.135986
747.616028,421.631989,525.088013
743.711975,429.440002,525.088013
741.760010,429.440002,528.992004
743.711975,433.343994,540.703979
745.664001,439.200012,530.943970
741.760010,439.200012,532.895996
733.952026,437.247986,530.943970
737.856018,425.536011,532.895996
749.567993,439.200012,538.752014
743.711975,437.247986,532.895996
737.856018,439.200012,525.088013
735.903992,431.391998,540.703979
739.807983,437.247986,530.943970
741.760010,439.200012,534.848022
733.952026,435.295990,532.895996
741.760010,429.440002,528.992004
739.807983,435.295990,530.943970
735.903992,433.343994,540.703979
735.903992,443.104004,527.039978
735.903992,433.343994,530.943970
730.047974,435.295990,538.752014
733.952026,437.247986,527.039978
733.952026,429.440002,528.992004
735.903992,429.440002,536.799988
733.952026,441.152008,532.895996
735.903992,443.104004,527.039978
730.047974,443.104004,528.992004
728.096008,431.391998,528.992004
732.000000,433.343994,538.752014
730.047974,429.440002,536.799988
726.143982,433.343994,536.799988
732.000000,437.247986,530.943970
722.239990,435.295990,532.895996
722.239990,431.391998,528.992004
728.096008,435.295990,536.799988
726.143982,433.343994,538.752014
724.192017,439.200012,538.752014
726.143982,433.343994,536.799988
732.000000,435.295990,528.992004
718.335999,431.391998,530.943970
714.432007,429.440002,532.895996
718.335999,421.631989,530.943970
720.288025,431.391998,538.752014
724.192017,429.440002,536.799988
716.383972,425.536011,534.848022
710.528015,421.631989,532.895996
716.383972,421.631989,528.992004
720.288025,417.727997,534.848022
710.528015,413.824005,538.752014
718.335999,413.824005,532.895996
714.432007,413.824005,538.752014
706.624023,407.967987,536.799988
712.479980,404.063995,540.703979
712.479980,404.063995,534.848022
718.335999,398.208008,536.799988
712.479980,406.015991,540.703979
712.479980,400.160004,544.607971
712.479980,402.112000,542.656006
706.624023,404.063995,538.752014
714.432007,404.063995,532.895996
710.528015,407.967987,534.848022
712.479980,398.208008,534.848022
708.575989,411.872009,538.752014
704.671997,398.208008,544.607971
712.479980,400.160004,544.607971
708.575989,402.112000,540.703979
698.815979,402.112000,538.752014
702.719971,394.303986,536.799988
716.383972,394.303986,534.848022
716.383972,404.063995,534.848022
706.624023,400.160004,540.703979
708.575989,392.351990,538.752014
710.528015,392.351990,540.703979
714.432007,400.160004,544.607971
704.671997,400.160004,540.703979
700.768005,402.112000,536.799988
706.624023,400.160004,540.703979
704.671997,404.063995,544.607971
706.624023,396.256012,538.752014
714.432007,394.303986,542.656006
712.479980,394.303986,534.848022
716.383972,404.063995,540.703979
698.815979,396.256012,538.752014
698.815979,404.063995,532.895996
702.719971,400.160004,536.799988
706.624023,396.256012,536.799988
704.671997,400.160004,544.607971
706.624023,398.208008,538.752014
712.479980,404.063995,534.848022
706.624023,402.112000,544.607971
702.719971,398.208008,540.703979
702.719971,398.208008,532.895996
698.815979,400.160004,530.943970
696.864014,402.112000,540.703979
710.528015,396.256012,534.848022
706.624023,404.063995,542.656006
708.575989,407.967987,532.895996
702.719971,398.208008,532.895996
700.768005,398.208008,532.895996
700.768005,406.015991,530.943970
704.671997,398.208008,532.895996
700.768005,402.112000,536.799988
702.719971,407.967987,544.607971
698.815979,396.256012,534.848022
698.815979,404.063995,536.799988
694.911987,411.872009,532.895996
700.768005,404.063995,530.943970
691.007996,396.256012,544.607971
700.768005,402.112000,530.943970
702.719971,409.920013,542.656006
704.671997,402.112000,540.703979
708.575989,407.967987,534.848022
694.911987,411.872009,554.367981
700.768005,398.208008,534.848022
702.719971,402.112000,536.799988
710.528015,404.063995,532.895996
708.575989,394.303986,527.039978
712.479980,404.063995,534.848022
702.719971,413.824005,538.752014
694.911987,407.967987,536.799988
706.624023,402.112000,540.703979
698.815979,407.967987,536.799988
702.719971,409.920013,534.848022
704.671997,415.776001,540.703979
706.624023,404.063995,540.703979
702.719971,413.824005,536.799988
700.768005,402.112000,530.943970
708.575989,413.824005,538.752014
698.815979,407.967987,538.752014
694.911987,409.920013,538.752014
704.671997,413.824005,534.848022
716.383972,411.872009,540.703979
704.671997,417.727997,542.656006
702.719971,406.015991,530.943970
704.671997,409.920013,540.703979
702.719971,411.872009,536.799988
714.432007,409.920013,534.848022
702.719971,411.872009,536.799988
712.479980,417.727997,536.799988
712.479980,421.631989,536.799988
710.528015,413.824005,536.799988
708.575989,423.584015,530.943970
712.479980,421.631989,525.088013
712.479980,421.631989,525.088013
704.671997,413.824005,527.039978
712.479980,407.967987,523.135986
712.479980,413.824005,530.943970
706.624023,413.824005,521.184021
702.719971,411.872009,525.088013
698.815979,411.872009,527.039978
702.719971,406.015991,519.231995
706.624023,402.112000,523.135986
712.479980,409.920013,527.039978
702.719971,409.920013,517.280029
700.768005,409.920013,532.895996
704.671997,411.872009,527.039978
708.575989,402.112000,528.992004
702.719971,406.015991,528.992004
712.479980,411.872009,523.135986
710.528015,411.872009,525.088013
708.575989,407.967987,523.135986
712.479980,415.776001,525.088013
706.624023,415.776001,530.943970
710.528015,407.967987,528.992004
702.719971,407.967987,527.039978
708.575989,402.112000,521.184021
702.719971,406.015991,528.992004
710.528015,407.967987,527.039978
704.671997,400.160004,521.184021
710.528015,396.256012,521.184021
700.768005,394.303986,525.088013
706.624023,396.256012,525.088013
710.528015,398.208008,523.135986
708.575989,390.399994,523.135986
708.575989,396.256012,523.135986
708.575989,396.256012,532.895996
716.383972,390.399994,536.799988
714.432007,384.544006,528.992004
710.528015,378.687988,532.895996
724.192017,378.687988,538.752014
710.528015,378.687988,534.848022
718.335999,388.447998,530.943970
710.528015,384.544006,536.799988
714.432007,384.544006,536.799988
710.528015,380.640015,538.752014
702.719971,374.783997,536.799988
708.575989,380.640015,525.088013
710.528015,380.640015,525.088013
710.528015,378.687988,523.135986
702.719971,384.544006,521.184021
708.575989,372.832001,523.135986
698.815979,363.071991,536.799988
704.671997,363.071991,534.848022
704.671997,376.735992,530.943970
702.719971,378.687988,521.184021
708.575989,372.832001,534.848022
700.768005,374.783997,532.895996
698.815979,372.832001,538.752014
700.768005,370.880005,525.088013
704.671997,378.687988,530.943970
696.864014,368.928009,530.943970
694.911987,361.119995,534.848022
702.719971,365.023987,528.992004
694.911987,368.928009,530.943970
691.007996,363.071991,532.895996
694.911987,368.928009,528.992004
692.960022,361.119995,527.039978
694.911987,368.928009,528.992004
694.911987,361.119995,523.135986
689.056030,368.928009,528.992004
696.864014,366.976013,530.943970
687.104004,355.264008,527.039978
689.056030,366.976013,532.895996
691.007996,365.023987,528.992004
696.864014,363.071991,536.799988
692.960022,380.640015,525.088013
687.104004,366.976013,530.943970
691.007996,366.976013,532.895996
689.056030,378.687988,534.848022
689.056030,368.928009,536.799988
692.960022,368.928009,536.799988
691.007996,372.832001,536.799988
696.864014,374.783997,530.943970
683.200012,376.735992,527.039978
696.864014,368.928009,528.992004
694.911987,376.735992,530.943970
692.960022,374.783997,528.992004
696.864014,374.783997,525.088013
704.671997,392.351990,528.992004
696.864014,384.544006,534.848022
696.864014,384.544006,532.895996
700.768005,388.447998,544.607971
698.815979,374.783997,536.799988
706.624023,382.592010,544.607971
698.815979,390.399994,540.703979
698.815979,392.351990,534.848022
706.624023,398.208008,528.992004
708.575989,386.496002,536.799988
704.671997,388.447998,534.848022
700.768005,388.447998,538.752014
712.479980,386.496002,528.992004
706.624023,388.447998,528.992004
712.479980,396.256012,530.943970
700.768005,400.160004,530.943970
712.479980,390.399994,525.088013
698.815979,394.303986,525.088013
698.815979,394.303986,527.039978
704.671997,404.063995,528.992004
708.575989,400.160004,532.895996
708.575989,400.160004,528.992004
710.528015,396.256012,523.135986
700.768005,411.872009,527.039978
706.624023,415.776001,527.039978
704.671997,411.872009,527.039978
700.768005,406.015991,530.943970
710.528015,402.112000,528.992004
714.432007,407.967987,527.039978
714.432007,407.967987,525.088013
700.768005,398.208008,528.992004
696.864014,406.015991,527.039978
708.575989,406.015991,527.039978
700.768005,402.112000,528.992004
708.575989,400.160004,532.895996
704.671997,406.015991,525.088013
712.479980,407.967987,530.943970
700.768005,400.160004,528.992004
700.768005,400.160004,528.992004
712.479980,409.920013,528.992004
698.815979,392.351990,521.184021
708.575989,402.112000,527.039978
710.528015,407.967987,523.135986
706.624023,402.112000,525.088013
712.479980,406.015991,517.280029
698.815979,402.112000,525.088013
696.864014,406.015991,525.088013
700.768005,406.015991,528.992004
691.007996,413.824005,519.231995
692.960022,398.208008,515.328003
696.864014,404.063995,528.992004
692.960022,396.256012,517.280029
691.007996,402.112000,517.280029
687.104004,400.160004,519.231995
679.296021,392.351990,511.424011
679.296021,396.256012,513.375977
681.247986,394.303986,515.328003
681.247986,392.351990,511.424011
683.200012,382.592010,511.424011
691.007996,392.351990,511.424011
679.296021,382.592010,513.375977
689.056030,392.351990,517.280029
685.151978,390.399994,519.231995
696.864014,390.399994,515.328003
692.960022,390.399994,525.088013
691.007996,388.447998,507.519989
698.815979,390.399994,509.471985
691.007996,378.687988,511.424011
687.104004,392.351990,519.231995
689.056030,388.447998,517.280029
694.911987,384.544006,515.328003
689.056030,388.447998,521.184021
685.151978,380.640015,515.328003
691.007996,390.399994,521.184021
685.151978,386.496002,519.231995
689.056030,384.544006,515.328003
681.247986,382.592010,505.567993
687.104004,374.783997,509.471985
679.296021,384.544006,507.519989
685.151978,380.640015,511.424011
681.247986,368.928009,515.328003
675.392029,374.783997,509.471985
675.392029,372.832001,511.424011
683.200012,380.640015,517.280029
687.104004,370.880005,507.519989
673.440002,366.976013,505.567993
681.247986,366.976013,517.280029
683.200012,365.023987,503.615997
687.104004,365.023987,505.567993
687.104004,376.735992,513.375977
687.104004,363.071991,513.375977
696.864014,347.455994,513.375977
696.864014,353.312012,513.375977
700.768005,347.455994,511.424011
704.671997,343.552002,515.328003
702.719971,351.359985,513.375977
700.768005,339.648010,511.424011
698.815979,339.648010,499.712006
708.575989,343.552002,505.567993
706.624023,345.503998,513.375977
708.575989,337.696014,499.712006
708.575989,337.696014,495.808014
712.479980,339.648010,503.615997
714.432007,339.648010,501.664001
710.528015,341.600006,503.615997
714.432007,327.936005,503.615997
712.479980,331.839996,501.664001
714.432007,324.032013,507.519989
720.288025,320.127991,511.424011
724.192017,331.839996,509.471985
720.288025,322.079987,505.567993
710.528015,329.888000,513.375977
726.143982,316.223999,517.280029
722.239990,322.079987,513.375977
724.192017,312.320007,517.280029
728.096008,320.127991,519.231995
724.192017,322.079987,519.231995
732.000000,325.984009,509.471985
732.000000,327.936005,517.280029
726.143982,325.984009,515.328003
730.047974,320.127991,521.184021
739.807983,318.175995,519.231995
747.616028,314.272003,521.184021
737.856018,318.175995,521.184021
751.520020,318.175995,511.424011
751.520020,318.175995,515.328003
753.471985,308.415985,525.088013
755.424011,314.272003,525.088013
759.328003,310.368011,519.231995
763.231995,312.320007,525.088013
753.471985,298.656006,519.231995
755.424011,304.511993,513.375977
759.328003,302.559998,517.280029
753.471985,302.559998,515.328003
749.567993,304.511993,507.519989
763.231995,302.559998,503.615997
755.424011,302.559998,525.088013
745.664001,308.415985,525.088013
749.567993,296.704010,519.231995
741.760010,296.704010,523.135986
743.711975,284.992004,519.231995
743.711975,288.895996,525.088013
741.760010,286.944000,519.231995
745.664001,286.944000,528.992004
751.520020,284.992004,525.088013
751.520020,286.944000,519.231995
741.760010,296.704010,528.992004
743.711975,284.992004,528.992004
737.856018,290.847992,528.992004
743.711975,284.992004,525.088013
737.856018,271.328003,530.943970
743.711975,288.895996,528.992004
737.856018,277.183990,525.088013
743.711975,277.183990,527.039978
771.039978,273.279999,503.615997
851.072021,261.567993,486.048004
868.640015,238.143997,568.031982
780.799988,519.231995,718.335999
778.848022,273.279999,700.768005
872.544006,5.856000,599.263977
825.695984,460.671997,597.312012
757.375977,298.656006,669.536011
741.760010,103.456001,646.112000
774.943970,232.287994,542.656006
765.184021,368.928009,491.903992
862.783997,269.376007,560.223999
886.208008,165.919998,732.000000
884.255981,329.888000,866.687988
901.823975,324.032013,882.304016
958.432007,415.776001,817.888000
970.143982,259.615997,784.703979
958.432007,288.895996,784.703979
927.200012,439.200012,790.559998
862.783997,419.679993,790.559998
845.216003,331.839996,767.135986
825.695984,284.992004,745.664001
817.888000,421.631989,702.719971
765.184021,322.079987,730.047974
702.719971,197.151993,753.471985
696.864014,257.664001,735.903992
689.056030,206.912003,681.247986
732.000000,203.007996,626.591980
759.328003,107.360001,577.791992
792.512024,85.888000,548.512024
802.271973,128.832001,532.895996
825.695984,187.391998,423.584015
903.776001,230.335999,322.079987
940.864014,85.888000,312.320007
954.528015,245.951996,376.735992
882.304016,341.600006,493.855988
847.168030,382.592010,612.927979
821.791992,363.071991,700.768005
870.591980,407.967987,722.239990
892.064026,421.631989,728.096008
901.823975,413.824005,732.000000
917.440002,290.847992,730.047974
911.583984,368.928009,794.463989
868.640015,642.208008,831.552002
909.632019,144.447998,825.695984
942.815979,306.463989,837.408020
921.343994,226.432007,833.504028
929.151978,292.799988,833.504028
925.247986,308.415985,858.880005
923.296021,195.199997,878.400024
911.583984,269.376007,886.208008
895.968018,294.752014,886.208008
899.872009,316.223999,878.400024
895.968018,327.936005,870.591980
897.919983,341.600006,866.687988
905.728027,402.112000,858.880005
903.776001,439.200012,854.976013
895.968018,470.432007,864.736023
886.208008,505.567993,854.976013
901.823975,525.088013,858.880005
903.776001,540.703979,872.544006
903.776001,571.935974,866.687988
884.255981,488.000000,874.495972
870.591980,384.544006,882.304016
851.072021,374.783997,905.728027
854.976013,316.223999,901.823975
856.927979,271.328003,919.392029
876.447998,244.000000,913.536011
886.208008,191.296005,931.104004
899.872009,132.735992,950.624023
901.823975,142.496002,997.471985
880.351990,183.488007,1032.608032
872.544006,181.535995,1061.887939
892.064026,158.112000,1102.880005
868.640015,173.727997,1141.920044
845.216003,238.143997,1134.112061
870.591980,245.951996,1134.112061
976.000000,214.720001,1112.640015
999.424011,204.960007,1075.552002
970.143982,210.815994,1073.599976
1005.280029,232.287994,1091.167969
1050.176025,212.768005,1087.264038
1114.592041,335.743988,1100.927979
1108.735962,511.424011,1141.920044
956.479980,751.520020,1194.624023
384.544006,769.088013,1153.631958
1003.328003,80.031998,958.432007
813.984009,402.112000,952.575989
1147.776001,228.384003,894.015991
1024.800049,351.359985,946.719971
1042.368042,406.015991,977.952026
970.143982,452.864014,1018.943970
950.624023,427.488007,1067.744019
933.056030,402.112000,1122.400024
940.864014,365.023987,1132.160034
858.880005,363.071991,1126.303955
925.247986,251.807999,1095.072021
890.112000,331.839996,1100.927979
909.632019,284.992004,1073.599976
884.255981,292.799988,1077.504028
933.056030,273.279999,1097.024048
987.711975,255.712006,1093.119995
886.208008,530.943970,1114.592041
616.831970,671.487976,1108.735962
747.616028,497.760010,1036.511963
515.328003,552.416016,1011.135986
616.831970,325.984009,911.583984
808.127991,271.328003,827.648010
929.151978,218.623993,800.320007
983.807983,181.535995,810.080017
974.047974,150.304001,812.031982
950.624023,185.440002,835.455994
890.112000,331.839996,874.495972
1024.800049,392.351990,862.783997
964.288025,193.248001,847.168030
976.000000,17.568001,856.927979
853.023987,169.824005,895.968018
708.575989,99.552002,866.687988
601.216003,380.640015,829.599976
821.791992,534.848022,792.512024
895.968018,733.952026,771.039978
1138.015991,942.815979,774.943970
1128.255981,269.376007,796.416016
-353.312012,-1155.583984,1015.039978
409.920013,-560.223999,849.119995
1407.391968,708.575989,655.872009
247.904007,1309.791992,720.288025
1241.472046,-21.472000,534.848022
997.471985,-1024.800049,618.783997
-915.487976,-1063.839966,825.695984
630.495972,476.287994,544.607971
817.888000,527.039978,501.664001
322.079987,-562.176025,489.951996
769.088013,-351.359985,417.727997
679.296021,409.920013,392.351990
421.631989,64.416000,351.359985
958.432007,-156.160004,277.183990
849.119995,115.167999,288.895996
735.903992,349.407990,324.032013
942.815979,74.176003,240.095993
696.864014,-91.744003,177.632004
302.559998,191.296005,255.712006
218.623993,-171.776001,253.759995
536.799988,-251.807999,210.815994
784.703979,142.496002,169.824005
275.231995,927.200012,253.759995
-351.359985,2594.208008,136.639999
858.880005,601.216003,-122.975998
653.919983,-388.447998,-50.751999
513.375977,-361.119995,23.424000
577.791992,-97.599998,89.792000
733.952026,341.600006,140.544006
737.856018,714.432007,169.824005
792.512024,484.096008,206.912003
901.823975,361.119995,234.240005
872.544006,560.223999,283.040009
897.919983,279.135986,322.079987
1005.280029,-48.799999,357.216003
263.519989,-121.024002,513.375977
-622.687988,-173.727997,581.695984
437.247986,1260.991943,439.200012
597.312012,1341.024048,458.720001
1221.952026,261.567993,417.727997
903.776001,203.007996,519.231995
812.031982,105.407997,577.791992
1034.560059,91.744003,575.840027
1011.135986,203.007996,603.168030
1100.927979,158.112000,620.736023
628.544006,-880.351990,700.768005
-2125.728027,203.007996,944.768005
948.671997,2276.031982,374.783997
1559.647949,2084.736084,376.735992
776.895996,583.648010,452.864014
1022.848022,-468.480011,441.152008
671.487976,-89.792000,523.135986
536.799988,253.759995,536.799988
894.015991,95.648003,517.280029
97.599998,-626.591980,595.359985
-101.503998,-548.512024,618.783997
878.400024,165.919998,513.375977
1264.895996,74.176003,476.287994
-292.799988,-1333.215942,556.320007
398.208008,-1098.975952,406.015991
1179.008057,-29.280001,419.679993
70.272003,812.031982,525.088013
322.079987,673.440002,429.440002
714.432007,-1.952000,429.440002
509.471985,103.456001,468.480011
497.760010,556.320007,501.664001
849.119995,513.375977,462.623993
907.679993,144.447998,489.951996
528.992004,-1.952000,554.367981
470.432007,0.000000,569.984009
320.127991,-23.424000,501.664001
208.863998,95.648003,499.712006
117.120003,661.728027,610.976013
577.791992,1126.303955,556.320007
1362.495972,1309.791992,489.951996
1264.895996,1237.567993,515.328003
74.176003,-1151.680054,599.263977
-9.760000,-1487.423950,610.976013
-357.216003,-185.440002,634.400024
-359.167999,1524.511963,544.607971
1598.687988,1333.215942,292.799988
817.888000,480.191986,404.063995
-39.040001,-83.935997,458.720001
3.904000,-698.815979,322.079987
50.751999,-767.135986,80.031998
532.895996,-400.160004,42.944000
728.096008,117.120003,115.167999
749.567993,497.760010,197.151993
618.783997,351.359985,263.519989
630.495972,140.544006,267.424011
759.328003,134.688004,292.799988
269.376007,130.783997,347.455994
575.840027,331.839996,419.679993
558.271973,273.279999,433.343994
433.343994,117.120003,429.440002
460.671997,158.112000,454.816010
484.096008,220.576004,491.903992
482.144012,173.727997,488.000000
499.712006,101.503998,501.664001
521.184021,-1.952000,484.096008
562.176025,-107.360001,486.048004
593.408020,-238.143997,480.191986
587.552002,-359.167999,474.335999
626.591980,-441.152008,474.335999
556.320007,-474.335999,478.239990
353.312012,17.568001,523.135986
636.351990,815.935974,630.495972
370.880005,810.080017,651.968018
181.535995,528.992004,614.880005
486.048004,427.488007,589.504028
390.399994,351.359985,562.176025
460.671997,400.160004,573.888000
484.096008,390.399994,569.984009
-54.655998,1212.192017,569.984009
-195.199997,3416.000000,538.752014
880.351990,3279.360107,587.552002
445.056000,1013.088013,665.632019
462.623993,-1555.744019,628.544006
634.400024,-1606.495972,532.895996
335.743988,234.240005,466.528015
466.528015,1873.920044,489.951996
616.831970,1356.640015,577.791992
560.223999,162.016006,610.976013
314.272003,-325.984009,536.799988
382.592010,97.599998,466.528015
620.736023,743.711975,445.056000
314.272003,778.848022,474.335999
366.976013,517.280029,552.416016
368.928009,277.183990,546.559998
347.455994,374.783997,486.048004
302.559998,550.463989,441.152008
318.175995,511.424011,462.623993
378.687988,382.592010,515.328003
365.023987,415.776001,527.039978
540.703979,566.080017,495.808014
823.744019,454.816010,454.816010
-136.639999,585.599976,398.208008
56.608002,201.056000,456.768005
489.951996,189.343994,527.039978
302.559998,437.247986,505.567993
365.023987,622.687988,466.528015
382.592010,732.000000,468.480011
603.168030,429.440002,460.671997
269.376007,138.591995,456.768005
23.424000,146.399994,464.575989
415.776001,376.735992,517.280029
601.216003,601.216003,540.703979
519.231995,409.920013,482.144012
292.799988,400.160004,468.480011
314.272003,325.984009,462.623993
396.256012,376.735992,484.096008
583.648010,521.184021,489.951996
318.175995,390.399994,470.432007
279.135986,304.511993,480.191986
505.567993,286.944000,480.191986
179.584000,333.791992,484.096008
456.768005,423.584015,486.048004
400.160004,528.992004,466.528015
361.119995,441.152008,452.864014
404.063995,404.063995,450.911987
409.920013,398.208008,454.816010
400.160004,386.496002,458.720001
392.351990,482.144012,458.720001
366.976013,610.976013,458.720001
312.320007,665.632019,450.911987
312.320007,632.447998,460.671997
304.511993,628.544006,460.671997
298.656006,698.815979,462.623993
343.552002,751.520020,456.768005
372.832001,755.424011,454.816010
392.351990,702.719971,439.200012
415.776001,700.768005,450.911987
478.239990,675.392029,468.480011
513.375977,610.976013,482.144012
527.039978,554.367981,489.951996
558.271973,534.848022,493.855988
571.935974,527.039978,511.424011
560.223999,495.808014,532.895996
536.799988,472.384003,540.703979
515.328003,443.104004,544.607971
497.760010,417.727997,544.607971
486.048004,386.496002,540.703979
468.480011,368.928009,538.752014
460.671997,320.127991,532.895996
458.720001,275.231995,523.135986
456.768005,230.335999,527.039978
460.671997,203.007996,528.992004
462.623993,183.488007,532.895996
464.575989,203.007996,528.992004
480.191986,220.576004,525.088013
489.951996,232.287994,521.184021
484.096008,220.576004,515.328003
505.567993,197.151993,519.231995
507.519989,183.488007,517.280029
521.184021,163.968002,521.184021
521.184021,150.304001,521.184021
515.328003,150.304001,530.943970
513.375977,150.304001,525.088013
495.808014,158.112000,523.135986
491.903992,173.727997,536.799988
480.191986,181.535995,534.848022
480.191986,201.056000,532.895996
488.000000,206.912003,540.703979
499.712006,201.056000,556.320007
511.424011,199.104004,552.416016
519.231995,191.296005,550.463989
511.424011,189.343994,568.031982
517.280029,179.584000,569.984009
511.424011,179.584000,569.984009
517.280029,187.391998,577.791992
519.231995,201.056000,591.455994
515.328003,216.671997,585.599976
521.184021,234.240005,607.072021
507.519989,249.856003,612.927979
517.280029,269.376007,622.687988
509.471985,281.088013,618.783997
515.328003,275.231995,618.783997
515.328003,275.231995,624.640015
528.992004,259.615997,632.447998
528.992004,244.000000,646.112000
540.703979,220.576004,651.968018
552.416016,216.671997,657.823975
554.367981,199.104004,661.728027
564.127991,203.007996,659.776001
558.271973,193.248001,669.536011
568.031982,201.056000,681.247986
571.935974,208.863998,708.575989
573.888000,193.248001,706.624023
591.455994,126.879997,733.952026
585.599976,138.591995,726.143982
587.552002,265.471985,714.432007
605.119995,378.687988,726.143982
605.119995,351.359985,726.143982
622.687988,275.231995,726.143982
626.591980,238.143997,737.856018
632.447998,310.368011,759.328003
648.064026,329.888000,778.848022
646.112000,253.759995,780.799988
663.679993,181.535995,788.607971
651.968018,181.535995,800.320007
646.112000,191.296005,813.984009
659.776001,187.391998,823.744019
653.919983,175.679993,821.791992
663.679993,158.112000,819.840027
665.632019,165.919998,810.080017
665.632019,193.248001,810.080017
669.536011,191.296005,796.416016
661.728027,173.727997,806.176025
653.919983,163.968002,806.176025
661.728027,175.679993,804.223999
663.679993,191.296005,790.559998
667.583984,181.535995,788.607971
671.487976,167.871994,788.607971
665.632019,167.871994,790.559998
681.247986,181.535995,790.559998
671.487976,187.391998,780.799988
679.296021,177.632004,790.559998
689.056030,169.824005,798.367981
694.911987,179.584000,800.320007
700.768005,181.535995,808.127991
702.719971,187.391998,806.176025
712.479980,173.727997,812.031982
716.383972,165.919998,815.935974
720.288025,187.391998,819.840027
728.096008,183.488007,831.552002
728.096008,175.679993,839.359985
722.239990,175.679993,837.408020
726.143982,183.488007,851.072021
735.903992,179.584000,856.927979
739.807983,167.871994,856.927979
749.567993,162.016006,858.880005
755.424011,163.968002,858.880005
757.375977,179.584000,854.976013
771.039978,169.824005,853.023987
776.895996,162.016006,862.783997
772.992004,152.255997,862.783997
786.656006,162.016006,854.976013
788.607971,162.016006,858.880005
792.512024,173.727997,864.736023
800.320007,148.352005,862.783997
804.223999,142.496002,868.640015
806.176025,156.160004,856.927979
806.176025,154.207993,864.736023
813.984009,150.304001,866.687988
823.744019,136.639999,866.687988
815.935974,142.496002,851.072021
821.791992,140.544006,858.880005
827.648010,146.399994,862.783997
823.744019,130.783997,874.495972
821.791992,124.928001,874.495972
827.648010,121.024002,872.544006
839.359985,117.120003,874.495972
839.359985,126.879997,876.447998
833.504028,113.216003,890.112000
833.504028,111.264000,899.872009
831.552002,103.456001,903.776001
829.599976,111.264000,907.679993
825.695984,99.552002,911.583984
821.791992,97.599998,915.487976
823.744019,95.648003,919.392029
831.552002,87.839996,929.151978
827.648010,99.552002,931.104004
827.648010,95.648003,940.864014
829.599976,85.888000,944.768005
827.648010,91.744003,942.815979
825.695984,85.888000,952.575989
815.935974,95.648003,960.383972
810.080017,95.648003,968.192017
817.888000,80.031998,958.432007
817.888000,76.127998,966.239990
819.840027,70.272003,960.383972
813.984009,66.367996,960.383972
804.223999,66.367996,956.479980
810.080017,62.464001,948.671997
800.320007,64.416000,942.815979
794.463989,66.367996,946.719971
794.463989,56.608002,935.007996
788.607971,54.655998,911.583984
790.559998,52.703999,890.112000
784.703979,46.848000,878.400024
778.848022,48.799999,876.447998
771.039978,35.136002,866.687988
767.135986,37.088001,839.359985
771.039978,23.424000,833.504028
757.375977,33.183998,812.031982
757.375977,31.232000,810.080017
751.520020,27.327999,804.223999
753.471985,25.375999,804.223999
755.424011,29.280001,792.512024
745.664001,37.088001,788.607971
753.471985,42.944000,794.463989
753.471985,52.703999,790.559998
747.616028,62.464001,788.607971
749.567993,62.464001,792.512024
755.424011,68.320000,802.271973
743.711975,62.464001,798.367981
751.520020,60.512001,806.176025
753.471985,64.416000,806.176025
745.664001,60.512001,813.984009
753.471985,48.799999,819.840027
755.424011,48.799999,815.935974
759.328003,37.088001,817.888000
759.328003,48.799999,833.504028
761.280029,54.655998,849.119995
757.375977,64.416000,851.072021
745.664001,66.367996,843.263977
745.664001,78.080002,851.072021
745.664001,80.031998,860.831970
739.807983,80.031998,854.976013
745.664001,74.176003,853.023987
730.047974,66.367996,849.119995
730.047974,74.176003,847.168030
724.192017,80.031998,835.455994
720.288025,74.176003,823.744019
714.432007,80.031998,821.791992
716.383972,78.080002,806.176025
702.719971,78.080002,796.416016
700.768005,70.272003,782.752014
691.007996,60.512001,774.943970
696.864014,50.751999,774.943970
696.864014,35.136002,765.184021
689.056030,23.424000,751.520020
679.296021,17.568001,730.047974
679.296021,17.568001,733.952026
675.392029,9.760000,737.856018
675.392029,15.616000,735.903992
669.536011,13.664000,735.903992
665.632019,5.856000,735.903992
653.919983,19.520000,732.000000
657.823975,7.808000,732.000000
648.064026,7.808000,730.047974
636.351990,7.808000,741.760010
634.400024,0.000000,747.616028
630.495972,3.904000,745.664001
620.736023,-1.952000,745.664001
632.447998,-17.568001,751.520020
616.831970,-15.616000,749.567993
610.976013,-15.616000,749.567993
610.976013,-15.616000,749.567993
599.263977,-17.568001,745.664001
591.455994,-17.568001,745.664001
595.359985,-27.327999,741.760010
581.695984,-19.520000,755.424011
579.744019,-17.568001,739.807983
573.888000,-13.664000,741.760010
573.888000,-25.375999,739.807983
571.935974,-17.568001,739.807983
566.080017,-19.520000,737.856018
566.080017,-13.664000,728.096008
556.320007,-33.183998,730.047974
550.463989,-35.136002,722.239990
552.416016,-40.992001,722.239990
542.656006,-29.280001,726.143982
534.848022,-31.232000,716.383972
536.799988,-25.375999,710.528015
532.895996,-33.183998,718.335999
532.895996,-39.040001,710.528015
525.088013,-46.848000,704.671997
521.184021,-50.751999,698.815979
519.231995,-40.992001,687.104004
513.375977,-33.183998,685.151978
517.280029,-31.232000,671.487976
513.375977,-39.040001,661.728027
513.375977,-40.992001,655.872009
501.664001,-37.088001,644.159973
509.471985,-46.848000,640.255981
507.519989,-35.136002,626.591980
509.471985,-31.232000,622.687988
528.992004,-39.040001,612.927979
525.088013,-44.896000,607.072021
538.752014,-54.655998,595.359985
538.752014,-42.944000,589.504028
554.367981,-40.992001,585.599976
569.984009,-39.040001,573.888000
569.984009,-42.944000,568.031982
577.791992,-52.703999,569.984009
581.695984,-62.464001,571.935974
593.408020,-62.464001,571.935974
601.216003,-60.512001,579.744019
612.927979,-64.416000,581.695984
622.687988,-66.367996,585.599976
624.640015,-68.320000,577.791992
630.495972,-78.080002,587.552002
653.919983,-74.176003,605.119995
661.728027,-68.320000,605.119995
681.247986,-76.127998,616.831970
694.911987,-85.888000,634.400024
698.815979,-81.984001,634.400024
716.383972,-80.031998,640.255981
714.432007,-83.935997,661.728027
735.903992,-81.984001,679.296021
743.711975,-91.744003,691.007996
751.520020,-93.695999,704.671997
755.424011,-109.311996,712.479980
769.088013,-103.456001,720.288025
759.328003,-91.744003,726.143982
800.320007,-46.848000,712.479980
767.135986,-33.183998,720.288025
718.335999,-277.183990,710.528015
728.096008,-429.440002,722.239990
741.760010,-400.160004,739.807983
724.192017,-195.199997,735.903992
753.471985,-40.992001,732.000000
739.807983,-154.207993,718.335999
794.463989,-355.264008,708.575989
796.416016,-425.536011,714.432007
812.031982,-312.320007,714.432007
837.408020,-140.544006,724.192017
839.359985,-132.735992,743.711975
837.408020,-296.704010,759.328003
876.447998,-411.872009,776.895996
872.544006,-386.496002,792.512024
866.687988,-263.519989,819.840027
854.976013,-204.960007,831.552002
841.312012,-286.944000,864.736023
854.976013,-384.544006,878.400024
854.976013,-396.256012,899.872009
849.119995,-325.984009,913.536011
849.119995,-275.231995,913.536011
851.072021,-288.895996,929.151978
847.168030,-357.216003,940.864014
856.927979,-390.399994,940.864014
854.976013,-368.928009,950.624023
856.927979,-320.127991,946.719971
849.119995,-306.463989,935.007996
847.168030,-353.312012,942.815979
860.831970,-386.496002,938.911987
864.736023,-366.976013,921.343994
854.976013,-343.552002,917.440002
862.783997,-329.888000,911.583984
866.687988,-359.167999,901.823975
858.880005,-390.399994,895.968018
864.736023,-376.735992,897.919983
866.687988,-349.407990,892.064026
854.976013,-329.888000,888.159973
854.976013,-349.407990,882.304016
854.976013,-359.167999,876.447998
849.119995,-351.359985,862.783997
847.168030,-325.984009,845.216003
835.455994,-312.320007,827.648010
817.888000,-304.511993,800.320007
813.984009,-277.183990,769.088013
812.031982,-251.807999,735.903992
808.127991,-197.151993,698.815979
790.559998,-160.063995,683.200012
788.607971,-132.735992,667.583984
788.607971,-99.552002,657.823975
794.463989,-70.272003,634.400024
784.703979,-46.848000,612.927979
796.416016,-29.280001,605.119995
788.607971,-25.375999,583.648010
790.559998,-11.712000,566.080017
790.559998,5.856000,556.320007
784.703979,9.760000,552.416016
778.848022,-1.952000,540.703979
778.848022,-29.280001,527.039978
774.943970,-35.136002,521.184021
782.752014,-31.232000,509.471985
776.895996,-17.568001,499.712006
776.895996,-15.616000,493.855988
782.752014,-15.616000,486.048004
772.992004,-11.712000,478.239990
771.039978,-9.760000,464.575989
761.280029,0.000000,450.911987
753.471985,7.808000,429.440002
747.616028,13.664000,411.872009
743.711975,9.760000,404.063995
732.000000,9.760000,378.687988
735.903992,11.712000,380.640015
737.856018,23.424000,365.023987
728.096008,27.327999,363.071991
718.335999,33.183998,353.312012
710.528015,23.424000,335.743988
702.719971,27.327999,327.936005
698.815979,44.896000,308.415985
698.815979,48.799999,304.511993
691.007996,-7.808000,294.752014
692.960022,-97.599998,296.704010
691.007996,-117.120003,288.895996
683.200012,58.560001,275.231995
689.056030,245.951996,265.471985
671.487976,222.528000,261.567993
696.864014,66.367996,257.664001
700.768005,37.088001,259.615997
694.911987,197.151993,255.712006
669.536011,267.424011,249.856003
679.296021,138.591995,245.951996
694.911987,31.232000,242.048004
696.864014,103.456001,240.095993
683.200012,181.535995,222.528000
692.960022,109.311996,206.912003
694.911987,19.520000,193.248001
692.960022,25.375999,187.391998
692.960022,87.839996,171.776001
700.768005,87.839996,165.919998
696.864014,27.327999,134.688004
716.383972,21.472000,113.216003
696.864014,50.751999,97.599998
706.624023,81.984001,85.888000
710.528015,97.599998,78.080002
726.143982,81.984001,64.416000
722.239990,93.695999,56.608002
716.383972,122.975998,42.944000
720.288025,165.919998,33.183998
722.239990,175.679993,31.232000
732.000000,169.824005,25.375999
743.711975,163.968002,15.616000
745.664001,195.199997,23.424000
755.424011,216.671997,21.472000
757.375977,201.056000,19.520000
774.943970,185.440002,17.568001
853.023987,197.151993,15.616000
849.119995,152.255997,-9.760000
710.528015,115.167999,-56.608002
802.271973,80.031998,-87.839996
782.752014,-64.416000,-113.216003
692.960022,48.799999,-128.832001
751.520020,222.528000,-103.456001
747.616028,167.871994,-111.264000
696.864014,126.879997,-111.264000
763.231995,175.679993,-101.503998
845.216003,175.679993,-95.648003
786.656006,113.216003,-99.552002
751.520020,99.552002,-93.695999
800.320007,179.584000,-74.176003
813.984009,212.768005,-56.608002
800.320007,181.535995,-42.944000
837.408020,130.783997,-31.232000
843.263977,160.063995,-9.760000
843.263977,191.296005,35.136002
880.351990,167.871994,46.848000
880.351990,136.639999,62.464001
915.487976,146.399994,80.031998
954.528015,171.776001,103.456001
1018.943970,181.535995,138.591995
1044.319946,175.679993,177.632004
1032.608032,191.296005,163.968002
1059.936035,244.000000,193.248001
1036.511963,294.752014,203.007996
1034.560059,314.272003,249.856003
1032.608032,339.648010,296.704010
1018.943970,365.023987,312.320007
1030.656006,380.640015,335.743988
1026.751953,374.783997,355.264008
1056.031982,376.735992,394.303986
1093.119995,357.216003,429.440002
1087.264038,292.799988,448.959991
1091.167969,267.424011,464.575989
1130.208008,257.664001,476.287994
1126.303955,210.815994,486.048004
1139.968018,183.488007,511.424011
1175.104004,181.535995,521.184021
1124.352051,163.968002,523.135986
1034.560059,407.967987,532.895996
1075.552002,886.208008,527.039978
1063.839966,751.520020,564.127991
1104.832031,210.815994,579.744019
1179.008057,-11.712000,579.744019
1220.000000,136.639999,587.552002
1221.952026,458.720001,595.359985
1087.264038,538.752014,587.552002
1056.031982,427.488007,599.263977
1018.943970,324.032013,614.880005
853.023987,52.703999,628.544006
1102.880005,-126.879997,706.624023
1286.368042,384.544006,774.943970
1136.063965,562.176025,812.031982
1196.576050,183.488007,815.935974
1221.952026,-218.623993,776.895996
1272.703979,320.127991,749.567993
1220.000000,610.976013,735.903992
1138.015991,540.703979,733.952026
1243.423950,191.296005,714.432007
1284.416016,146.399994,689.056030
1329.312012,478.239990,694.911987
1253.183960,431.391998,696.864014
1280.511963,216.671997,708.575989
1278.560059,93.695999,712.479980
1643.583984,181.535995,733.952026
1583.072021,-165.919998,776.895996
1339.072021,-89.792000,796.416016
1335.167969,66.367996,827.648010
1409.343994,152.255997,847.168030
1428.864014,3.904000,858.880005
1715.807983,-89.792000,888.159973
1358.592041,-37.088001,911.583984
1239.520020,60.512001,940.864014
1354.687988,-189.343994,935.007996
1432.767944,-390.399994,936.960022
1360.543945,7.808000,958.432007
1120.447998,269.376007,972.096008
1110.687988,-224.479996,954.528015
854.976013,-208.863998,936.960022
1241.472046,398.208008,917.440002
1428.864014,-101.503998,917.440002
1423.008057,-605.119995,870.591980
1454.239990,-7.808000,872.544006
1264.895996,203.007996,895.968018
1212.192017,-275.231995,851.072021
1264.895996,-271.328003,833.504028
1323.456055,70.272003,808.127991
1335.167969,-21.472000,794.463989
1385.920044,-318.175995,763.231995
1305.887939,-214.720001,728.096008
1239.520020,189.343994,691.007996
1153.631958,193.248001,681.247986
1108.735962,40.992001,757.375977
1216.095947,124.928001,1114.592041
1200.479980,-378.687988,1095.072021
1341.024048,-374.783997,732.000000
1411.296021,136.639999,489.951996
1352.735962,238.143997,411.872009
1368.352051,48.799999,503.615997
1270.751953,-89.792000,759.328003
1212.192017,-281.088013,886.208008
1249.280029,-316.223999,743.711975
1303.936035,-5.856000,540.703979
1315.647949,5.856000,480.191986
1262.943970,-302.559998,566.080017
1218.047974,-376.735992,700.768005
1188.767944,-267.424011,708.575989
1196.576050,-197.151993,603.168030
1233.663940,-169.824005,509.471985
1221.952026,-245.951996,489.951996
1177.056030,-281.088013,552.416016
1132.160034,-230.335999,583.648010
1126.303955,-222.528000,528.992004
1134.112061,-175.679993,462.623993
1239.520020,-152.255997,431.391998
1311.744019,-269.376007,402.112000
1194.624023,-91.744003,380.640015
1126.303955,64.416000,365.023987
995.520020,56.608002,292.799988
966.239990,324.032013,232.287994
1036.511963,279.135986,185.440002
1075.552002,9.760000,163.968002
1097.024048,158.112000,156.160004
1188.767944,253.759995,117.120003
1136.063965,113.216003,101.503998
1167.296021,56.608002,152.255997
1149.728027,-42.944000,173.727997
1114.592041,72.223999,173.727997
1069.696045,119.071999,191.296005
1038.463989,-121.024002,189.343994
1030.656006,-13.664000,185.440002
1040.416016,109.311996,189.343994
1040.416016,-50.751999,177.632004
1052.128052,-40.992001,138.591995
1057.984009,148.352005,158.112000
1044.319946,97.599998,171.776001
1065.791992,-39.040001,142.496002
1054.079956,52.703999,148.352005
1036.511963,193.248001,187.391998
1022.848022,144.447998,201.056000
1071.647949,119.071999,224.479996
1079.456055,296.704010,318.175995
1083.359985,493.855988,409.920013
1081.407959,601.216003,450.911987
1112.640015,575.840027,474.335999
1079.456055,415.776001,521.184021
1016.992004,-275.231995,542.656006
1151.680054,-1221.952026,568.031982
1175.104004,-1719.712036,632.447998
1220.000000,-1557.696045,610.976013
1147.776001,-767.135986,560.223999
1141.920044,234.240005,505.567993
1081.407959,956.479980,470.432007
1083.359985,1171.199951,425.536011
1085.312012,767.135986,355.264008
1007.231995,9.760000,316.223999
1034.560059,-595.359985,253.759995
1022.848022,-878.400024,232.287994
1001.375977,-874.495972,220.576004
1040.416016,-648.064026,167.871994
1059.936035,-339.648010,136.639999
1079.456055,-95.648003,121.024002
1100.927979,0.000000,119.071999
1077.504028,-3.904000,128.832001
1061.887939,-40.992001,152.255997
1034.560059,-19.520000,181.535995
1026.751953,121.024002,212.768005
1011.135986,255.712006,228.384003
1007.231995,249.856003,279.135986
1016.992004,162.016006,318.175995
1032.608032,-33.183998,337.696014
1056.031982,-263.519989,345.503998
1069.696045,-437.247986,366.976013
1098.975952,-478.239990,359.167999
1095.072021,-398.208008,351.359985
1098.975952,-240.095993,349.407990
1095.072021,-103.456001,329.888000
1093.119995,-11.712000,306.463989
1098.975952,-15.616000,292.799988
997.471985,-54.655998,294.752014
1147.776001,-78.080002,257.664001
1120.447998,-158.112000,267.424011
1118.495972,-150.304001,286.944000
1032.608032,-48.799999,318.175995
972.096008,40.992001,351.359985
999.424011,15.616000,382.592010
1016.992004,-85.888000,384.544006
1005.280029,-144.447998,370.880005
985.760010,-95.648003,347.455994
1102.880005,76.127998,335.743988
1083.359985,249.856003,318.175995
1100.927979,240.095993,292.799988
974.047974,35.136002,298.656006
1016.992004,-56.608002,292.799988
1108.735962,-25.375999,277.183990
1108.735962,-15.616000,273.279999
1106.784058,-93.695999,292.799988
1108.735962,-93.695999,296.704010
1042.368042,-115.167999,304.511993
1059.936035,-115.167999,302.559998
1075.552002,-56.608002,290.847992
1016.992004,37.088001,279.135986
987.711975,117.120003,288.895996
1005.280029,152.255997,273.279999
989.664001,111.264000,263.519989
966.239990,-31.232000,253.759995
974.047974,-167.871994,245.951996
956.479980,-261.567993,242.048004
977.952026,-269.376007,222.528000
993.567993,-17.568001,228.384003
1003.328003,189.343994,271.328003
1018.943970,130.783997,314.272003
1030.656006,-203.007996,355.264008
1063.839966,-605.119995,380.640015
1071.647949,-825.695984,407.967987
1073.599976,-698.815979,411.872009
1030.656006,-324.032013,386.496002
981.856018,83.935997,365.023987
958.432007,318.175995,343.552002
938.911987,306.463989,329.888000
935.007996,117.120003,304.511993
942.815979,-72.223999,286.944000
942.815979,-183.488007,263.519989
913.536011,-142.496002,214.720001
903.776001,-31.232000,189.343994
892.064026,52.703999,142.496002
837.408020,44.896000,111.264000
755.424011,7.808000,68.320000
890.112000,-160.063995,-9.760000
1069.696045,-499.712006,-66.367996
995.520020,-523.135986,-56.608002
784.703979,-187.391998,-17.568001
833.504028,66.367996,-1.952000
903.776001,195.199997,15.616000
903.776001,169.824005,19.520000
936.960022,-15.616000,35.136002
839.359985,-150.304001,66.367996
884.255981,-150.304001,54.655998
897.919983,-132.735992,52.703999
823.744019,-64.416000,50.751999
827.648010,72.223999,5.856000
786.656006,72.223999,-25.375999
794.463989,-62.464001,-56.608002
806.176025,-165.919998,-81.984001
868.640015,-177.632004,-109.311996
929.151978,-195.199997,-126.879997
929.151978,-247.904007,-115.167999
948.671997,-269.376007,-111.264000
921.343994,-197.151993,-115.167999
894.015991,-95.648003,-107.360001
909.632019,-11.712000,-91.744003
911.583984,37.088001,-91.744003
899.872009,-15.616000,-109.311996
901.823975,-87.839996,-95.648003
886.208008,-152.255997,-80.031998
866.687988,-169.824005,-68.320000
886.208008,-119.071999,-37.088001
913.536011,-1.952000,-21.472000
933.056030,72.223999,-5.856000
956.479980,9.760000,3.904000
956.479980,-130.783997,37.088001
979.903992,-193.248001,56.608002
981.856018,-171.776001,66.367996
989.664001,-87.839996,74.176003
987.711975,101.503998,99.552002
987.711975,357.216003,158.112000
1001.375977,443.104004,238.143997
1018.943970,203.007996,284.992004
1071.647949,-329.888000,316.223999
1122.400024,-829.599976,296.704010
1139.968018,-1056.031982,273.279999
1085.312012,-935.007996,251.807999
1013.088013,-534.848022,228.384003
952.575989,0.000000,220.576004
933.056030,378.687988,224.479996
962.335999,421.631989,216.671997
991.616028,162.016006,187.391998
1016.992004,-238.143997,162.016006
1028.703979,-550.463989,144.447998
993.567993,-579.744019,99.552002
942.815979,-370.880005,46.848000
874.495972,17.568001,-3.904000
829.599976,341.600006,-58.560001
851.072021,441.152008,-128.832001
853.023987,265.471985,-187.391998
827.648010,-29.280001,-234.240005
817.888000,-292.799988,-294.752014
819.840027,-324.032013,-341.600006
849.119995,-154.207993,-404.063995
806.176025,15.616000,-450.911987
837.408020,31.232000,-486.048004
804.223999,-58.560001,-521.184021
854.976013,-167.871994,-517.280029
886.208008,-242.048004,-513.375977
1040.416016,-72.223999,-464.575989
894.015991,437.247986,-359.167999
882.304016,821.791992,-245.951996
856.927979,583.648010,-124.928001
938.911987,-281.088013,-48.799999
1024.800049,-1177.056030,17.568001
1028.703979,-1590.880005,99.552002
991.616028,-1413.248047,150.304001
905.728027,-810.080017,160.063995
886.208008,-208.863998,150.304001
872.544006,138.591995,140.544006
892.064026,171.776001,140.544006
942.815979,-25.375999,142.496002
977.952026,-261.567993,126.879997
1016.992004,-382.592010,97.599998
1001.375977,-404.063995,58.560001
989.664001,-308.415985,7.808000
925.247986,-140.544006,-52.703999
833.504028,44.896000,-115.167999
1018.943970,179.584000,-247.904007
718.335999,163.968002,-247.904007
651.968018,158.112000,-339.648010
659.776001,212.768005,-413.824005
712.479980,286.944000,-480.191986
819.840027,298.656006,-507.519989
935.007996,165.919998,-482.144012
1030.656006,-19.520000,-384.544006
1052.128052,-74.176003,-251.807999
966.239990,-17.568001,-99.552002
929.151978,37.088001,-5.856000
979.903992,9.760000,35.136002
1095.072021,-11.712000,42.944000
1229.760010,-76.127998,64.416000
1190.719971,-283.040009,103.456001
1204.384033,-523.135986,154.207993
1161.439941,-527.039978,160.063995
1155.583984,-331.839996,119.071999
1175.104004,-189.343994,130.783997
1214.144043,-117.120003,107.360001
962.335999,-126.879997,152.255997
1067.744019,-35.136002,140.544006
1077.504028,201.056000,171.776001
1173.151978,394.303986,251.807999
1182.911987,288.895996,357.216003
1249.280029,-140.544006,417.727997
1262.943970,-728.096008,493.855988
1048.223999,-979.903992,577.791992
995.520020,-710.528015,599.263977
1042.368042,-126.879997,554.367981
991.616028,341.600006,499.712006
1030.656006,470.432007,370.880005
1104.832031,189.343994,222.528000
1208.287964,-273.279999,74.176003
1192.671997,-612.927979,-13.664000
1145.823975,-589.504028,-66.367996
1141.920044,-324.032013,-107.360001
1106.784058,-21.472000,-115.167999
1089.215942,218.623993,-122.975998
1087.264038,286.944000,-126.879997
1077.504028,185.440002,-130.783997
1052.128052,25.375999,-126.879997
1098.975952,-76.127998,-130.783997
1083.359985,-83.935997,-122.975998
1050.176025,7.808000,-113.216003
1048.223999,171.776001,-95.648003
1077.504028,249.856003,-91.744003
1069.696045,267.424011,-70.272003
1079.456055,242.048004,-81.984001
1083.359985,206.912003,-78.080002
1083.359985,189.343994,-81.984001
1083.359985,167.871994,-87.839996
1114.592041,173.727997,-111.264000
1180.959961,214.720001,-130.783997
1022.848022,277.183990,-46.848000
1116.543945,300.608002,-48.799999
1106.784058,292.799988,-15.616000
1198.527954,232.287994,5.856000
1401.536011,13.664000,13.664000
1305.887939,-81.984001,81.984001
1321.504028,128.832001,150.304001
1305.887939,447.007996,201.056000
1313.696045,657.823975,234.240005
1245.375977,759.328003,290.847992
1229.760010,831.552002,314.272003
1227.807983,689.056030,286.944000
1237.567993,322.079987,249.856003
1272.703979,-80.031998,212.768005
1245.375977,-214.720001,197.151993
1264.895996,-9.760000,160.063995
1255.135986,333.791992,134.688004
1196.576050,542.656006,115.167999
1134.112061,550.463989,87.839996
1071.647949,351.359985,66.367996
1071.647949,95.648003,39.040001
1102.880005,-66.367996,15.616000
1157.536011,-72.223999,-27.327999
1182.911987,35.136002,-58.560001
1216.095947,165.919998,-87.839996
1229.760010,238.143997,-107.360001
1214.144043,240.095993,-122.975998
1202.432007,148.352005,-132.735992
1179.008057,37.088001,-138.591995
1159.488037,0.000000,-134.688004
1155.583984,33.183998,-126.879997
1089.215942,101.503998,-115.167999
1065.791992,197.151993,-119.071999
1056.031982,210.815994,-126.879997
1067.744019,156.160004,-156.160004
1110.687988,42.944000,-169.824005
1130.208008,-62.464001,-189.343994
1155.583984,-74.176003,-189.343994
1161.439941,-25.375999,-185.440002
1145.823975,95.648003,-187.391998
1165.343994,210.815994,-181.535995
1136.063965,281.088013,-179.584000
1112.640015,283.040009,-187.391998
1100.927979,255.712006,-193.248001
1091.167969,214.720001,-218.623993
1069.696045,160.063995,-232.287994
1042.368042,138.591995,-275.231995
987.711975,249.856003,-304.511993
946.719971,472.384003,-298.656006
954.528015,667.583984,-292.799988
964.288025,751.520020,-240.095993
1009.184021,605.119995,-195.199997
1007.231995,263.519989,-142.496002
1034.560059,-111.264000,-144.447998
903.776001,-302.559998,-146.399994
977.952026,-220.576004,-218.623993
968.192017,11.712000,-277.183990
952.575989,263.519989,-318.175995
979.903992,345.503998,-368.928009
987.711975,210.815994,-409.920013
1011.135986,29.280001,-437.247986
1081.407959,-128.832001,-464.575989
1157.536011,-169.824005,-474.335999
1161.439941,-76.127998,-464.575989
1097.024048,83.935997,-433.343994
1042.368042,259.615997,-409.920013
976.000000,365.023987,-372.832001
966.239990,404.063995,-351.359985
995.520020,394.303986,-337.696014
1018.943970,327.936005,-329.888000
1020.895996,265.471985,-347.455994
1032.608032,220.576004,-355.264008
1052.128052,212.768005,-347.455994
1067.744019,259.615997,-339.648010
1085.312012,331.839996,-329.888000
1075.552002,355.264008,-327.936005
1077.504028,361.119995,-320.127991
1079.456055,327.936005,-281.088013
1071.647949,286.944000,-286.944000
1089.215942,253.759995,-259.615997
1110.687988,183.488007,-230.335999
1139.968018,132.735992,-158.112000
1177.056030,7.808000,-23.424000
1249.280029,-240.095993,179.584000
1350.784058,-528.992004,460.671997
1485.472046,-870.591980,810.080017
1602.592041,-1231.712036,1139.968018
1678.719971,-1424.959961,1253.183960
1686.527954,-1257.088013,1042.368042
1743.135986,-942.815979,683.200012
1827.072021,-954.528015,489.951996
1862.208008,-1319.552002,562.176025
1782.176025,-1456.192017,620.736023
1739.232056,-1208.287964,411.872009
1602.592041,-892.064026,122.975998
1454.239990,-513.375977,-163.968002
1296.128052,-136.639999,-411.872009
1073.599976,230.335999,-569.984009
874.495972,503.615997,-648.064026
710.528015,657.823975,-634.400024
741.760010,743.711975,-628.544006
671.487976,983.807983,-544.607971
784.703979,1194.624023,-456.768005
882.304016,1300.031982,-281.088013
1042.368042,1233.663940,-138.591995
1155.583984,1130.208008,-56.608002
1206.336060,974.047974,-21.472000
1255.135986,771.039978,-64.416000
1268.800049,536.799988,-146.399994
1272.703979,290.847992,-226.432007
1225.855957,134.688004,-265.471985
1167.296021,74.176003,-271.328003
1118.495972,17.568001,-253.759995
1061.887939,5.856000,-251.807999
1013.088013,19.520000,-269.376007
987.711975,19.520000,-304.511993
962.335999,19.520000,-341.600006
897.919983,-17.568001,-335.743988
915.487976,-128.832001,-347.455994
1032.608032,-97.599998,-386.496002
1065.791992,128.832001,-435.295990
993.567993,325.984009,-482.144012
1001.375977,456.768005,-523.135986
813.984009,554.367981,-460.671997
864.736023,474.335999,-421.631989
919.392029,337.696014,-370.880005
1020.895996,187.391998,-249.856003
1077.504028,48.799999,-197.151993
1075.552002,-1.952000,-245.951996
1085.312012,-15.616000,-304.511993
1063.839966,-33.183998,-325.984009
1034.560059,-29.280001,-365.023987
1013.088013,25.375999,-380.640015
972.096008,109.311996,-409.920013
933.056030,160.063995,-415.776001
935.007996,189.343994,-413.824005
958.432007,195.199997,-411.872009
964.288025,222.528000,-396.256012
976.000000,214.720001,-370.880005
981.856018,167.871994,-349.407990
954.528015,121.024002,-329.888000
936.960022,80.031998,-322.079987
917.440002,37.088001,-300.608002
1005.280029,-74.176003,-251.807999
1108.735962,-204.960007,-191.296005
1130.208008,-290.847992,-113.216003
1126.303955,-353.312012,-95.648003
1067.744019,-355.264008,-163.968002
1026.751953,-294.752014,-273.279999
1001.375977,-212.768005,-386.496002
966.239990,-152.255997,-472.384003
933.056030,-78.080002,-517.280029
909.632019,-23.424000,-544.607971
895.968018,-11.712000,-532.895996
866.687988,-11.712000,-527.039978
694.911987,23.424000,-454.816010
897.919983,-42.944000,-445.056000
862.783997,-68.320000,-327.936005
970.143982,-126.879997,-261.567993
1106.784058,-165.919998,-296.704010
1015.039978,-138.591995,-259.615997
1003.328003,-160.063995,-290.847992
1007.231995,-156.160004,-343.552002
1020.895996,-175.679993,-374.783997
1032.608032,-195.199997,-374.783997
962.335999,-163.968002,-351.359985
974.047974,-126.879997,-325.984009
862.783997,-105.407997,-244.000000
1065.791992,-199.104004,-251.807999
1229.760010,-249.856003,-261.567993
1120.447998,-107.360001,-269.376007
1015.039978,29.280001,-341.600006
1009.184021,-17.568001,-382.592010
972.096008,13.664000,-402.112000
886.208008,117.120003,-443.104004
913.536011,15.616000,-417.727997
997.471985,-144.447998,-267.424011
1032.608032,-158.112000,-105.407997
1151.680054,-185.440002,-52.703999
1202.432007,-288.895996,-21.472000
1179.008057,-242.048004,-15.616000
1196.576050,-121.024002,-70.272003
1194.624023,-68.320000,-144.447998
1132.160034,-56.608002,-183.488007
1087.264038,11.712000,-232.287994
1026.751953,23.424000,-277.183990
972.096008,-5.856000,-296.704010
987.711975,-37.088001,-286.944000
977.952026,-81.984001,-294.752014
974.047974,-160.063995,-267.424011
979.903992,-181.535995,-218.623993
995.520020,-163.968002,-236.192001
1003.328003,-171.776001,-277.183990
1018.943970,-199.104004,-292.799988
1036.511963,-175.679993,-298.656006
1050.176025,-87.839996,-341.600006
1089.215942,-64.416000,-376.735992
1120.447998,-11.712000,-419.679993
1059.936035,-3.904000,-468.480011
913.536011,160.063995,-527.039978
642.208008,402.112000,-437.247986
987.711975,-89.792000,-351.359985
419.679993,-400.160004,122.975998
698.815979,-378.687988,58.560001
1251.232056,-525.088013,-413.824005
960.383972,-140.544006,-691.007996
468.480011,554.367981,-677.343994
952.575989,263.519989,-679.296021
1243.423950,-42.944000,-605.119995
1235.615967,208.863998,-464.575989
1136.063965,279.135986,-267.424011
1112.640015,-1.952000,-68.320000
1227.807983,-124.928001,40.992001
1284.416016,-154.207993,-130.783997
1280.511963,-296.704010,-327.936005
1104.832031,-162.016006,-536.799988
989.664001,-39.040001,-798.367981
833.504028,-40.992001,-847.168030
827.648010,50.751999,-806.176025
911.583984,171.776001,-761.280029
1015.039978,177.632004,-651.968018
1188.767944,87.839996,-400.160004
1319.552002,27.327999,-372.832001
1301.984009,-189.343994,-156.160004
1171.199951,-324.032013,-52.703999
1087.264038,-441.152008,-130.783997
1063.839966,-593.408020,-220.576004
1075.552002,-554.367981,-353.312012
1171.199951,-335.743988,-573.888000
1108.735962,-171.776001,-620.736023
1044.319946,-249.856003,-398.208008
919.392029,-177.632004,-204.960007
952.575989,-85.888000,-154.207993
981.856018,122.975998,-232.287994
942.815979,290.847992,-265.471985
962.335999,261.567993,-195.199997
1026.751953,99.552002,-136.639999
1077.504028,52.703999,-99.552002
1118.495972,111.264000,-158.112000
1122.400024,29.280001,-208.863998
1100.927979,-101.503998,-115.167999
1083.359985,-228.384003,-27.327999
1089.215942,-343.552002,-3.904000
1038.463989,-199.104004,-216.671997
960.383972,-62.464001,-450.911987
925.247986,-156.160004,-427.488007
940.864014,-261.567993,-324.032013
983.807983,-210.815994,-339.648010
1044.319946,-298.656006,-269.376007
1091.167969,-341.600006,-185.440002
1085.312012,-341.600006,-105.407997
1104.832031,-335.743988,-95.648003
1093.119995,-279.135986,-148.352005
1073.599976,-273.279999,-206.912003
1028.703979,-234.240005,-134.688004
1061.887939,-162.016006,-115.167999
1116.543945,-39.040001,-169.824005
1124.352051,-121.024002,-218.623993
1091.167969,-142.496002,-224.479996
1056.031982,-298.656006,-230.335999
1063.839966,-203.007996,-195.199997
1151.680054,-275.231995,-322.079987
1184.864014,-126.879997,-312.320007
1141.920044,-70.272003,-240.095993
1126.303955,23.424000,-230.335999
1139.968018,17.568001,-148.352005
1180.959961,-64.416000,-271.328003
1139.968018,-220.576004,-204.960007
1130.208008,-162.016006,-173.727997
1161.439941,-208.863998,-160.063995
1143.871948,-97.599998,-17.568001
1139.968018,-128.832001,-111.264000
1141.920044,-107.360001,-245.951996
1077.504028,-107.360001,-244.000000
1069.696045,7.808000,-441.152008
1009.184021,-115.167999,-365.023987
1032.608032,-13.664000,-407.967987
1079.456055,-140.544006,-458.720001
1085.312012,-42.944000,-372.832001
1110.687988,-136.639999,-325.984009
1134.112061,56.608002,-212.768005
1165.343994,-154.207993,-324.032013
1112.640015,-85.888000,-318.175995
1110.687988,-72.223999,-433.343994
1079.456055,-25.375999,-263.519989
1145.823975,-23.424000,-406.015991
1112.640015,-95.648003,-390.399994
1100.927979,-5.856000,-411.872009
1083.359985,7.808000,-394.303986
1100.927979,15.616000,-415.776001
1151.680054,101.503998,-462.623993
1179.008057,74.176003,-480.191986
1138.015991,1.952000,-318.175995
1145.823975,-29.280001,-290.847992
1184.864014,33.183998,-407.967987
1155.583984,19.520000,-511.424011
1134.112061,-74.176003,-388.447998
1114.592041,-136.639999,-152.255997
1198.527954,23.424000,-302.559998
1138.015991,-1.952000,-316.223999
1134.112061,23.424000,-402.112000
1097.024048,5.856000,-468.480011
1102.880005,17.568001,-429.440002
1116.543945,58.560001,-460.671997
1106.784058,39.040001,-388.447998
1104.832031,-19.520000,-232.287994
1175.104004,60.512001,-353.312012
1128.255981,0.000000,-302.559998
1114.592041,-33.183998,-279.135986
1128.255981,-21.472000,-308.415985
1110.687988,-7.808000,-316.223999
1085.312012,85.888000,-484.096008
1057.984009,37.088001,-503.615997
1052.128052,-39.040001,-441.152008
1063.839966,-40.992001,-324.032013
1100.927979,48.799999,-341.600006
1089.215942,33.183998,-339.648010
1075.552002,5.856000,-281.088013
1102.880005,29.280001,-349.407990
1081.407959,-11.712000,-363.071991
1057.984009,17.568001,-370.880005
1038.463989,80.031998,-425.536011
1024.800049,29.280001,-425.536011
1054.079956,42.944000,-400.160004
1079.456055,76.127998,-470.432007
1052.128052,-54.655998,-212.768005
1104.832031,56.608002,-255.712006
1130.208008,46.848000,-339.648010
1067.744019,44.896000,-361.119995
1036.511963,-1.952000,-421.631989
1042.368042,56.608002,-486.048004
1026.751953,81.984001,-478.239990
1028.703979,76.127998,-460.671997
1042.368042,68.320000,-417.727997
1050.176025,46.848000,-335.743988
1085.312012,23.424000,-292.799988
1100.927979,31.232000,-240.095993
1138.015991,95.648003,-390.399994
1083.359985,64.416000,-386.496002
1032.608032,80.031998,-448.959991
1015.039978,80.031998,-435.295990
1040.416016,99.552002,-474.335999
1011.135986,42.944000,-437.247986
1018.943970,31.232000,-415.776001
1087.264038,9.760000,-382.592010
1075.552002,5.856000,-304.511993
1081.407959,85.888000,-310.368011
1104.832031,152.255997,-460.671997
1038.463989,105.407997,-454.816010
1020.895996,81.984001,-409.920013
1032.608032,107.360001,-308.415985
1116.543945,134.688004,-409.920013
1077.504028,56.608002,-365.023987
1050.176025,97.599998,-380.640015
1061.887939,80.031998,-448.959991
1056.031982,64.416000,-433.343994
1038.463989,72.223999,-435.295990
1022.848022,33.183998,-312.320007
1075.552002,85.888000,-261.567993
1134.112061,132.735992,-366.976013
1077.504028,23.424000,-394.303986
1009.184021,109.311996,-390.399994
1015.039978,136.639999,-511.424011
970.143982,134.688004,-433.343994
1024.800049,89.792000,-478.239990
1040.416016,154.207993,-431.391998
1048.223999,97.599998,-384.544006
1054.079956,152.255997,-394.303986
1038.463989,97.599998,-419.679993
1030.656006,152.255997,-433.343994
1026.751953,50.751999,-406.015991
1044.319946,138.591995,-406.015991
1046.271973,97.599998,-413.824005
1026.751953,87.839996,-435.295990
1003.328003,124.928001,-345.503998
1073.599976,218.623993,-513.375977
1005.280029,80.031998,-488.000000
989.664001,126.879997,-456.768005
1046.271973,150.304001,-474.335999
1057.984009,121.024002,-433.343994
1030.656006,93.695999,-294.752014
1075.552002,201.056000,-382.592010
1030.656006,101.503998,-392.351990
1007.231995,97.599998,-406.015991
1036.511963,181.535995,-452.864014
1046.271973,208.863998,-474.335999
1009.184021,156.160004,-427.488007
1003.328003,193.248001,-366.976013
1059.936035,109.311996,-443.104004
1040.416016,42.944000,-474.335999
999.424011,70.272003,-482.144012
1005.280029,171.776001,-482.144012
1018.943970,195.199997,-448.959991
1042.368042,218.623993,-407.967987
1073.599976,228.384003,-411.872009
1057.984009,150.304001,-423.584015
1046.271973,99.552002,-431.391998
1036.511963,109.311996,-435.295990
1032.608032,117.120003,-431.391998
1042.368042,132.735992,-417.727997
1054.079956,165.919998,-421.631989
1054.079956,175.679993,-425.536011
1046.271973,150.304001,-447.007996
1050.176025,138.591995,-443.104004
1056.031982,146.399994,-423.584015
1063.839966,148.352005,-415.776001
1067.744019,136.639999,-407.967987
1057.984009,132.735992,-431.391998
1057.984009,136.639999,-439.200012
1054.079956,142.496002,-456.768005
1063.839966,152.255997,-452.864014
1067.744019,138.591995,-429.440002
1071.647949,122.975998,-439.200012
1067.744019,107.360001,-419.679993
1056.031982,99.552002,-437.247986
1057.984009,95.648003,-445.056000
1042.368042,97.599998,-450.911987
1054.079956,109.311996,-452.864014
1056.031982,115.167999,-448.959991
1061.887939,111.264000,-447.007996
1059.936035,109.311996,-437.247986
1056.031982,107.360001,-441.152008
1063.839966,95.648003,-435.295990
1054.079956,97.599998,-435.295990
1046.271973,95.648003,-441.152008
1038.463989,87.839996,-441.152008
1042.368042,74.176003,-439.200012
1042.368042,80.031998,-433.343994
1030.656006,72.223999,-429.440002
1034.560059,78.080002,-425.536011
1034.560059,78.080002,-427.488007
1036.511963,97.599998,-423.584015
1036.511963,85.888000,-419.679993
1032.608032,109.311996,-425.536011
1034.560059,107.360001,-421.631989
1032.608032,109.311996,-427.488007
1028.703979,107.360001,-421.631989
1034.560059,111.264000,-423.584015
1030.656006,95.648003,-419.679993
1028.703979,97.599998,-413.824005
1022.848022,105.407997,-407.967987
1024.800049,107.360001,-406.015991
1020.895996,113.216003,-419.679993
1011.135986,101.503998,-415.776001
1015.039978,119.071999,-409.920013
1016.992004,113.216003,-411.872009
1013.088013,105.407997,-415.776001
1011.135986,93.695999,-409.920013
1022.848022,85.888000,-407.967987
1020.895996,89.792000,-404.063995
1024.800049,87.839996,-396.256012
1018.943970,83.935997,-406.015991
1022.848022,78.080002,-404.063995
1015.039978,83.935997,-413.824005
1016.992004,83.935997,-419.679993
1022.848022,80.031998,-417.727997
1013.088013,78.080002,-402.112000
1009.184021,56.608002,-407.967987
995.520020,66.367996,-415.776001
991.616028,80.031998,-425.536011
995.520020,80.031998,-419.679993
1001.375977,81.984001,-423.584015
1001.375977,80.031998,-425.536011
1001.375977,68.320000,-421.631989
1009.184021,54.655998,-423.584015
1003.328003,62.464001,-413.824005
997.471985,60.512001,-421.631989
993.567993,62.464001,-425.536011
995.520020,50.751999,-419.679993
991.616028,62.464001,-429.440002
983.807983,72.223999,-433.343994
983.807983,68.320000,-437.247986
981.856018,68.320000,-431.391998
979.903992,64.416000,-429.440002
985.760010,52.703999,-423.584015
983.807983,46.848000,-421.631989
972.096008,54.655998,-419.679993
974.047974,46.848000,-431.391998
960.383972,37.088001,-435.295990
960.383972,54.655998,-433.343994
968.192017,56.608002,-415.776001
985.760010,56.608002,-419.679993
977.952026,44.896000,-423.584015
989.664001,40.992001,-421.631989
981.856018,46.848000,-415.776001
981.856018,25.375999,-407.967987
974.047974,42.944000,-413.824005
976.000000,50.751999,-407.967987
962.335999,46.848000,-411.872009
964.288025,46.848000,-419.679993
962.335999,50.751999,-421.631989
964.288025,54.655998,-413.824005
966.239990,52.703999,-409.920013
964.288025,42.944000,-417.727997
966.239990,37.088001,-415.776001
966.239990,46.848000,-409.920013
954.528015,39.040001,-409.920013
950.624023,35.136002,-423.584015
950.624023,48.799999,-415.776001
948.671997,31.232000,-411.872009
958.432007,37.088001,-417.727997
954.528015,31.232000,-421.631989
958.432007,39.040001,-419.679993
958.432007,42.944000,-411.872009
950.624023,40.992001,-421.631989
962.335999,42.944000,-409.920013
952.575989,44.896000,-404.063995
958.432007,40.992001,-400.160004
956.479980,33.183998,-400.160004
968.192017,29.280001,-413.824005
960.383972,33.183998,-402.112000
952.575989,37.088001,-406.015991
956.479980,33.183998,-413.824005
960.383972,35.136002,-407.967987
950.624023,40.992001,-396.256012
954.528015,35.136002,-396.256012
960.383972,23.424000,-402.112000
956.479980,23.424000,-396.256012
970.143982,17.568001,-388.447998
962.335999,19.520000,-384.544006
952.575989,27.327999,-380.640015
956.479980,29.280001,-392.351990
956.479980,27.327999,-390.399994
966.239990,25.375999,-390.399994
956.479980,17.568001,-388.447998
968.192017,19.520000,-386.496002
968.192017,17.568001,-376.735992
968.192017,17.568001,-370.880005
962.335999,15.616000,-378.687988
960.383972,33.183998,-376.735992
956.479980,25.375999,-390.399994
948.671997,35.136002,-388.447998
944.768005,35.136002,-390.399994
954.528015,25.375999,-390.399994
952.575989,17.568001,-394.303986
944.768005,19.520000,-384.544006
950.624023,23.424000,-388.447998
950.624023,19.520000,-404.063995
950.624023,27.327999,-406.015991
946.719971,31.232000,-406.015991
940.864014,33.183998,-407.967987
952.575989,37.088001,-417.727997
956.479980,31.232000,-413.824005
944.768005,29.280001,-407.967987
952.575989,29.280001,-413.824005
952.575989,21.472000,-415.776001
960.383972,33.183998,-413.824005
950.624023,35.136002,-427.488007
936.960022,40.992001,-423.584015
946.719971,42.944000,-423.584015
952.575989,40.992001,-427.488007
962.335999,37.088001,-421.631989
960.383972,39.040001,-419.679993
966.239990,31.232000,-415.776001
968.192017,27.327999,-413.824005
976.000000,44.896000,-407.967987
983.807983,35.136002,-402.112000
977.952026,27.327999,-409.920013
968.192017,37.088001,-409.920013
960.383972,40.992001,-413.824005
966.239990,35.136002,-411.872009
977.952026,40.992001,-413.824005
983.807983,48.799999,-402.112000
985.760010,37.088001,-394.303986
993.567993,39.040001,-394.303986
993.567993,48.799999,-390.399994
997.471985,37.088001,-384.544006
991.616028,54.655998,-376.735992
987.711975,48.799999,-384.544006
991.616028,52.703999,-382.592010
993.567993,50.751999,-384.544006
993.567993,56.608002,-382.592010
997.471985,46.848000,-374.783997
999.424011,56.608002,-365.023987
993.567993,52.703999,-368.928009
995.520020,48.799999,-365.023987
993.567993,42.944000,-382.592010
981.856018,50.751999,-372.832001
985.760010,50.751999,-376.735992
993.567993,54.655998,-368.928009
989.664001,62.464001,-365.023987
995.520020,54.655998,-365.023987
985.760010,58.560001,-366.976013
979.903992,60.512001,-372.832001
976.000000,56.608002,-365.023987
964.288025,58.560001,-376.735992
968.192017,42.944000,-374.783997
974.047974,60.512001,-368.928009
962.335999,62.464001,-384.544006
970.143982,60.512001,-382.592010
964.288025,60.512001,-380.640015
960.383972,58.560001,-382.592010
952.575989,60.512001,-368.928009
964.288025,60.512001,-378.687988
952.575989,54.655998,-372.832001
950.624023,56.608002,-378.687988
942.815979,66.367996,-376.735992
948.671997,58.560001,-378.687988
940.864014,62.464001,-378.687988
940.864014,62.464001,-380.640015
933.056030,52.703999,-372.832001
933.056030,52.703999,-372.832001
935.007996,56.608002,-370.880005
927.200012,64.416000,-372.832001
929.151978,64.416000,-378.687988
919.392029,62.464001,-378.687988
911.583984,70.272003,-382.592010
911.583984,50.751999,-370.880005
913.536011,50.751999,-372.832001
905.728027,64.416000,-370.880005
919.392029,52.703999,-368.928009
911.583984,56.608002,-374.783997
911.583984,60.512001,-368.928009
901.823975,58.560001,-370.880005
894.015991,56.608002,-370.880005
897.919983,64.416000,-365.023987
901.823975,54.655998,-353.312012
901.823975,52.703999,-345.503998
892.064026,52.703999,-349.407990
888.159973,48.799999,-351.359985
890.112000,56.608002,-355.264008
890.112000,54.655998,-359.167999
884.255981,56.608002,-349.407990
888.159973,52.703999,-351.359985
886.208008,39.040001,-345.503998
884.255981,50.751999,-351.359985
880.351990,50.751999,-345.503998
872.544006,46.848000,-349.407990
868.640015,46.848000,-349.407990
868.640015,44.896000,-343.552002
876.447998,27.327999,-347.455994
876.447998,23.424000,-341.600006
858.880005,44.896000,-337.696014
868.640015,54.655998,-345.503998
862.783997,72.223999,-343.552002
854.976013,76.127998,-351.359985
856.927979,91.744003,-345.503998
851.072021,80.031998,-345.503998
851.072021,66.367996,-337.696014
841.312012,66.367996,-341.600006
835.455994,64.416000,-353.312012
829.599976,62.464001,-359.167999
841.312012,56.608002,-361.119995
833.504028,46.848000,-351.359985
825.695984,39.040001,-361.119995
821.791992,31.232000,-374.783997
825.695984,27.327999,-378.687988
821.791992,31.232000,-386.496002
821.791992,31.232000,-374.783997
819.840027,42.944000,-380.640015
821.791992,37.088001,-372.832001
817.888000,35.136002,-380.640015
808.127991,35.136002,-378.687988
810.080017,44.896000,-380.640015
810.080017,33.183998,-382.592010
796.416016,44.896000,-380.640015
802.271973,37.088001,-388.447998
806.176025,33.183998,-384.544006
808.127991,40.992001,-380.640015
802.271973,35.136002,-382.592010
808.127991,44.896000,-388.447998
804.223999,35.136002,-386.496002
810.080017,37.088001,-390.399994
804.223999,39.040001,-388.447998
813.984009,39.040001,-386.496002
812.031982,44.896000,-394.303986
810.080017,44.896000,-388.447998
808.127991,37.088001,-398.208008
817.888000,31.232000,-392.351990
815.935974,40.992001,-402.112000
819.840027,37.088001,-396.256012
819.840027,31.232000,-396.256012
823.744019,31.232000,-400.160004
825.695984,35.136002,-400.160004
825.695984,39.040001,-404.063995
821.791992,35.136002,-396.256012
823.744019,33.183998,-400.160004
835.455994,27.327999,-398.208008
825.695984,35.136002,-390.399994
833.504028,42.944000,-398.208008
841.312012,39.040001,-388.447998
835.455994,39.040001,-392.351990
835.455994,42.944000,-392.351990
839.359985,39.040001,-378.687988
845.216003,33.183998,-376.735992
853.023987,39.040001,-384.544006
860.831970,31.232000,-378.687988
864.736023,35.136002,-370.880005
868.640015,35.136002,-374.783997
862.783997,31.232000,-366.976013
872.544006,42.944000,-361.119995
874.495972,29.280001,-357.216003
878.400024,31.232000,-347.455994
886.208008,39.040001,-347.455994
886.208008,39.040001,-349.407990
892.064026,37.088001,-343.552002
892.064026,39.040001,-345.503998
897.919983,39.040001,-337.696014
903.776001,33.183998,-341.600006
905.728027,40.992001,-337.696014
897.919983,42.944000,-337.696014
897.919983,46.848000,-339.648010
905.728027,39.040001,-351.359985
907.679993,39.040001,-337.696014
909.632019,46.848000,-339.648010
905.728027,42.944000,-345.503998
905.728027,46.848000,-337.696014
905.728027,48.799999,-341.600006
894.015991,46.848000,-345.503998
890.112000,54.655998,-349.407990
903.776001,39.040001,-347.455994
894.015991,40.992001,-345.503998
897.919983,44.896000,-343.552002
899.872009,42.944000,-345.503998
899.872009,46.848000,-347.455994
886.208008,44.896000,-353.312012
888.159973,48.799999,-353.312012
890.112000,40.992001,-357.216003
895.968018,50.751999,-357.216003
903.776001,52.703999,-341.600006
894.015991,46.848000,-347.455994
897.919983,39.040001,-337.696014
895.968018,35.136002,-341.600006
897.919983,27.327999,-339.648010
892.064026,19.520000,-345.503998
897.919983,27.327999,-341.600006
892.064026,44.896000,-341.600006
886.208008,40.992001,-341.600006
892.064026,35.136002,-343.552002
892.064026,42.944000,-341.600006
892.064026,40.992001,-337.696014
878.400024,48.799999,-335.743988
880.351990,46.848000,-345.503998
888.159973,37.088001,-347.455994
884.255981,42.944000,-333.791992
886.208008,46.848000,-327.936005
880.351990,52.703999,-325.984009
884.255981,39.040001,-331.839996
874.495972,33.183998,-325.984009
874.495972,33.183998,-333.791992
874.495972,37.088001,-327.936005
878.400024,35.136002,-320.127991
872.544006,39.040001,-325.984009
870.591980,27.327999,-341.600006
870.591980,31.232000,-339.648010
868.640015,25.375999,-325.984009
872.544006,29.280001,-327.936005
868.640015,31.232000,-327.936005
880.351990,31.232000,-322.079987
868.640015,19.520000,-329.888000
866.687988,19.520000,-335.743988
868.640015,31.232000,-329.888000
872.544006,19.520000,-322.079987
862.783997,21.472000,-318.175995
866.687988,29.280001,-322.079987
872.544006,15.616000,-310.368011
864.736023,23.424000,-310.368011
862.783997,25.375999,-324.032013
862.783997,17.568001,-314.272003
868.640015,29.280001,-302.559998
864.736023,19.520000,-306.463989
866.687988,15.616000,-306.463989
868.640015,7.808000,-310.368011
874.495972,7.808000,-302.559998
868.640015,9.760000,-292.799988
866.687988,7.808000,-298.656006
862.783997,3.904000,-294.752014
864.736023,13.664000,-294.752014
866.687988,17.568001,-300.608002
866.687988,11.712000,-298.656006
864.736023,11.712000,-292.799988
862.783997,13.664000,-290.847992
