ACC_X,ACC_Y,ACC_Z
470.432007,493.855988,741.760010
480.191986,486.048004,745.664001
474.335999,489.951996,747.616028
468.480011,488.000000,753.471985
466.528015,495.808014,751.520020
470.432007,495.808014,745.664001
472.384003,493.855988,755.424011
472.384003,493.855988,755.424011
472.384003,497.760010,741.760010
474.335999,493.855988,749.567993
478.239990,497.760010,741.760010
478.239990,495.808014,755.424011
472.384003,489.951996,747.616028
480.191986,489.951996,757.375977
476.287994,501.664001,749.567993
474.335999,503.615997,747.616028
472.384003,495.808014,747.616028
470.432007,497.760010,747.616028
472.384003,499.712006,743.711975
466.528015,495.808014,747.616028
472.384003,491.903992,745.664001
476.287994,488.000000,751.520020
472.384003,497.760010,745.664001
472.384003,491.903992,747.616028
470.432007,491.903992,751.520020
470.432007,488.000000,747.616028
464.575989,491.903992,745.664001
472.384003,499.712006,743.711975
468.480011,489.951996,741.760010
478.239990,503.615997,739.807983
472.384003,488.000000,755.424011
472.384003,493.855988,749.567993
472.384003,495.808014,737.856018
472.384003,486.048004,743.711975
468.480011,491.903992,747.616028
466.528015,484.096008,743.711975
466.528015,489.951996,751.520020
476.287994,489.951996,730.047974
472.384003,488.000000,747.616028
474.335999,482.144012,753.471985
474.335999,480.191986,745.664001
476.287994,486.048004,745.664001
478.239990,491.903992,755.424011
474.335999,486.048004,741.760010
472.384003,482.144012,753.471985
476.287994,480.191986,753.471985
480.191986,486.048004,745.664001
472.384003,482.144012,759.328003
482.144012,476.287994,745.664001
476.287994,484.096008,747.616028
468.480011,478.239990,743.711975
480.191986,478.239990,745.664001
484.096008,476.287994,747.616028
472.384003,489.951996,751.520020
476.287994,488.000000,759.328003
478.239990,486.048004,751.520020
472.384003,482.144012,757.375977
480.191986,480.191986,755.424011
480.191986,486.048004,741.760010
478.239990,474.335999,755.424011
474.335999,480.191986,755.424011
480.191986,482.144012,749.567993
476.287994,486.048004,749.567993
478.239990,497.760010,749.567993
478.239990,472.384003,755.424011
474.335999,486.048004,745.664001
478.239990,484.096008,759.328003
476.287994,484.096008,753.471985
476.287994,486.048004,751.520020
468.480011,491.903992,749.567993
470.432007,495.808014,751.520020
470.432007,497.760010,741.760010
474.335999,486.048004,747.616028
478.239990,493.855988,745.664001
470.432007,489.951996,747.616028
474.335999,486.048004,741.760010
472.384003,493.855988,743.711975
468.480011,489.951996,747.616028
476.287994,488.000000,751.520020
470.432007,488.000000,737.856018
460.671997,491.903992,751.520020
464.575989,493.855988,751.520020
464.575989,489.951996,739.807983
460.671997,486.048004,737.856018
460.671997,497.760010,747.616028
464.575989,497.760010,741.760010
462.623993,480.191986,749.567993
470.432007,495.808014,749.567993
462.623993,503.615997,737.856018
460.671997,501.664001,743.711975
458.720001,497.760010,743.711975
458.720001,489.951996,735.903992
466.528015,486.048004,739.807983
470.432007,489.951996,739.807983
466.528015,482.144012,743.711975
464.575989,488.000000,737.856018
462.623993,484.096008,741.760010
462.623993,472.384003,743.711975
462.623993,484.096008,737.856018
462.623993,484.096008,737.856018
462.623993,484.096008,751.520020
456.768005,482.144012,745.664001
456.768005,480.191986,743.711975
456.768005,482.144012,743.711975
460.671997,486.048004,737.856018
452.864014,488.000000,747.616028
460.671997,474.335999,730.047974
448.959991,486.048004,739.807983
452.864014,489.951996,735.903992
458.720001,489.951996,739.807983
448.959991,493.855988,743.711975
454.816010,488.000000,745.664001
462.623993,491.903992,745.664001
462.623993,491.903992,743.711975
452.864014,484.096008,739.807983
454.816010,478.239990,733.952026
462.623993,472.384003,743.711975
452.864014,474.335999,743.711975
448.959991,476.287994,741.760010
458.720001,476.287994,743.711975
462.623993,476.287994,739.807983
462.623993,488.000000,739.807983
456.768005,470.432007,737.856018
458.720001,470.432007,739.807983
454.816010,482.144012,741.760010
454.816010,480.191986,743.711975
454.816010,474.335999,732.000000
452.864014,480.191986,726.143982
452.864014,480.191986,732.000000
456.768005,489.951996,735.903992
456.768005,489.951996,726.143982
450.911987,482.144012,735.903992
454.816010,480.191986,741.760010
458.720001,472.384003,733.952026
466.528015,482.144012,743.711975
456.768005,468.480011,733.952026
464.575989,482.144012,737.856018
448.959991,482.144012,739.807983
450.911987,482.144012,739.807983
456.768005,480.191986,739.807983
456.768005,478.239990,737.856018
450.911987,486.048004,745.664001
448.959991,486.048004,741.760010
454.816010,476.287994,741.760010
454.816010,486.048004,739.807983
462.623993,482.144012,737.856018
452.864014,478.239990,739.807983
458.720001,484.096008,745.664001
458.720001,480.191986,730.047974
454.816010,488.000000,743.711975
462.623993,476.287994,743.711975
452.864014,474.335999,735.903992
454.816010,476.287994,733.952026
445.056000,478.239990,737.856018
456.768005,478.239990,735.903992
448.959991,482.144012,739.807983
458.720001,474.335999,737.856018
454.816010,476.287994,741.760010
456.768005,480.191986,737.856018
452.864014,482.144012,739.807983
462.623993,478.239990,741.760010
460.671997,472.384003,741.760010
452.864014,474.335999,730.047974
454.816010,470.432007,735.903992
462.623993,480.191986,737.856018
458.720001,476.287994,730.047974
445.056000,470.432007,726.143982
454.816010,470.432007,732.000000
452.864014,472.384003,730.047974
456.768005,474.335999,747.616028
456.768005,478.239990,735.903992
450.911987,482.144012,735.903992
460.671997,474.335999,735.903992
452.864014,464.575989,737.856018
462.623993,474.335999,735.903992
460.671997,472.384003,741.760010
460.671997,470.432007,733.952026
460.671997,484.096008,726.143982
452.864014,484.096008,739.807983
448.959991,478.239990,739.807983
452.864014,470.432007,733.952026
452.864014,468.480011,737.856018
458.720001,484.096008,739.807983
454.816010,456.768005,745.664001
458.720001,472.384003,745.664001
462.623993,480.191986,743.711975
462.623993,472.384003,743.711975
462.623993,470.432007,741.760010
464.575989,470.432007,733.952026
460.671997,470.432007,741.760010
470.432007,470.432007,741.760010
462.623993,474.335999,739.807983
466.528015,468.480011,733.952026
464.575989,464.575989,739.807983
462.623993,472.384003,737.856018
466.528015,472.384003,743.711975
464.575989,474.335999,737.856018
466.528015,474.335999,732.000000
464.575989,480.191986,733.952026
462.623993,472.384003,741.760010
458.720001,470.432007,733.952026
466.528015,474.335999,739.807983
470.432007,474.335999,735.903992
466.528015,476.287994,743.711975
460.671997,468.480011,739.807983
466.528015,472.384003,743.711975
466.528015,472.384003,743.711975
472.384003,472.384003,751.520020
470.432007,460.671997,751.520020
464.575989,474.335999,739.807983
470.432007,489.951996,745.664001
468.480011,480.191986,743.711975
476.287994,476.287994,739.807983
474.335999,486.048004,743.711975
470.432007,478.239990,745.664001
470.432007,476.287994,747.616028
468.480011,482.144012,743.711975
470.432007,482.144012,755.424011
470.432007,480.191986,749.567993
476.287994,484.096008,745.664001
476.287994,482.144012,751.520020
468.480011,480.191986,749.567993
468.480011,484.096008,745.664001
478.239990,474.335999,751.520020
476.287994,474.335999,733.952026
476.287994,480.191986,745.664001
474.335999,482.144012,751.520020
476.287994,478.239990,745.664001
478.239990,478.239990,751.520020
480.191986,474.335999,747.616028
476.287994,476.287994,747.616028
478.239990,484.096008,759.328003
476.287994,478.239990,757.375977
476.287994,486.048004,751.520020
482.144012,480.191986,753.471985
484.096008,480.191986,759.328003
493.855988,476.287994,747.616028
480.191986,474.335999,751.520020
486.048004,486.048004,753.471985
484.096008,486.048004,751.520020
484.096008,486.048004,741.760010
480.191986,480.191986,747.616028
480.191986,478.239990,747.616028
480.191986,476.287994,741.760010
476.287994,474.335999,751.520020
480.191986,482.144012,745.664001
484.096008,476.287994,751.520020
488.000000,482.144012,749.567993
486.048004,482.144012,741.760010
486.048004,484.096008,757.375977
486.048004,476.287994,747.616028
486.048004,476.287994,751.520020
489.951996,470.432007,739.807983
484.096008,472.384003,753.471985
486.048004,482.144012,753.471985
488.000000,484.096008,743.711975
486.048004,478.239990,747.616028
486.048004,484.096008,751.520020
489.951996,480.191986,759.328003
486.048004,484.096008,757.375977
486.048004,472.384003,755.424011
486.048004,480.191986,749.567993
491.903992,482.144012,755.424011
497.760010,478.239990,759.328003
489.951996,480.191986,761.280029
480.191986,476.287994,753.471985
486.048004,474.335999,745.664001
489.951996,464.575989,751.520020
493.855988,472.384003,749.567993
488.000000,468.480011,751.520020
486.048004,474.335999,747.616028
489.951996,476.287994,757.375977
488.000000,466.528015,755.424011
489.951996,476.287994,759.328003
489.951996,480.191986,755.424011
480.191986,474.335999,751.520020
482.144012,480.191986,759.328003
478.239990,482.144012,759.328003
484.096008,466.528015,747.616028
484.096008,474.335999,749.567993
488.000000,472.384003,745.664001
488.000000,476.287994,745.664001
482.144012,468.480011,747.616028
486.048004,468.480011,743.711975
482.144012,468.480011,747.616028
480.191986,468.480011,755.424011
486.048004,476.287994,751.520020
484.096008,468.480011,749.567993
482.144012,468.480011,755.424011
482.144012,476.287994,753.471985
482.144012,468.480011,749.567993
478.239990,468.480011,755.424011
486.048004,476.287994,755.424011
486.048004,480.191986,751.520020
480.191986,476.287994,749.567993
482.144012,478.239990,759.328003
488.000000,472.384003,749.567993
486.048004,470.432007,759.328003
480.191986,476.287994,741.760010
486.048004,474.335999,751.520020
476.287994,482.144012,751.520020
486.048004,476.287994,745.664001
480.191986,468.480011,743.711975
482.144012,470.432007,745.664001
482.144012,468.480011,745.664001
478.239990,474.335999,751.520020
482.144012,464.575989,743.711975
480.191986,474.335999,751.520020
480.191986,474.335999,749.567993
480.191986,476.287994,743.711975
482.144012,468.480011,747.616028
486.048004,474.335999,753.471985
486.048004,468.480011,749.567993
480.191986,474.335999,741.760010
484.096008,474.335999,755.424011
482.144012,460.671997,747.616028
482.144012,468.480011,745.664001
482.144012,474.335999,741.760010
488.000000,468.480011,753.471985
476.287994,476.287994,745.664001
480.191986,470.432007,755.424011
484.096008,468.480011,755.424011
482.144012,480.191986,751.520020
478.239990,474.335999,755.424011
482.144012,470.432007,749.567993
486.048004,474.335999,747.616028
480.191986,474.335999,747.616028
482.144012,468.480011,747.616028
482.144012,474.335999,755.424011
478.239990,480.191986,753.471985
488.000000,472.384003,743.711975
480.191986,468.480011,735.903992
484.096008,480.191986,741.760010
488.000000,478.239990,743.711975
482.144012,468.480011,745.664001
478.239990,466.528015,743.711975
476.287994,468.480011,735.903992
480.191986,474.335999,741.760010
478.239990,472.384003,745.664001
472.384003,474.335999,745.664001
474.335999,466.528015,759.328003
472.384003,474.335999,741.760010
476.287994,476.287994,745.664001
484.096008,474.335999,743.711975
480.191986,476.287994,741.760010
478.239990,468.480011,747.616028
472.384003,478.239990,751.520020
476.287994,474.335999,739.807983
476.287994,474.335999,741.760010
476.287994,482.144012,741.760010
482.144012,468.480011,735.903992
482.144012,474.335999,743.711975
474.335999,474.335999,741.760010
478.239990,476.287994,747.616028
476.287994,480.191986,741.760010
468.480011,482.144012,743.711975
474.335999,478.239990,745.664001
468.480011,472.384003,747.616028
480.191986,476.287994,745.664001
472.384003,476.287994,728.096008
468.480011,480.191986,743.711975
474.335999,482.144012,739.807983
472.384003,478.239990,730.047974
468.480011,474.335999,733.952026
470.432007,482.144012,737.856018
472.384003,472.384003,741.760010
466.528015,480.191986,743.711975
464.575989,480.191986,745.664001
460.671997,474.335999,728.096008
474.335999,474.335999,741.760010
478.239990,482.144012,732.000000
466.528015,478.239990,737.856018
464.575989,486.048004,733.952026
476.287994,497.760010,730.047974
474.335999,491.903992,733.952026
464.575989,484.096008,735.903992
470.432007,489.951996,739.807983
478.239990,484.096008,733.952026
470.432007,486.048004,732.000000
466.528015,486.048004,724.192017
478.239990,480.191986,730.047974
470.432007,482.144012,730.047974
472.384003,484.096008,735.903992
470.432007,488.000000,726.143982
472.384003,478.239990,728.096008
472.384003,482.144012,737.856018
470.432007,489.951996,733.952026
470.432007,486.048004,733.952026
468.480011,489.951996,733.952026
474.335999,484.096008,735.903992
478.239990,489.951996,735.903992
474.335999,491.903992,733.952026
466.528015,484.096008,737.856018
472.384003,486.048004,737.856018
484.096008,484.096008,732.000000
482.144012,493.855988,745.664001
486.048004,488.000000,739.807983
476.287994,491.903992,737.856018
476.287994,486.048004,739.807983
480.191986,484.096008,735.903992
472.384003,488.000000,735.903992
480.191986,486.048004,739.807983
478.239990,489.951996,732.000000
478.239990,488.000000,743.711975
478.239990,486.048004,741.760010
480.191986,480.191986,728.096008
472.384003,482.144012,733.952026
472.384003,489.951996,728.096008
472.384003,480.191986,732.000000
470.432007,489.951996,741.760010
472.384003,480.191986,726.143982
476.287994,489.951996,735.903992
480.191986,489.951996,732.000000
478.239990,484.096008,733.952026
476.287994,486.048004,733.952026
466.528015,493.855988,730.047974
478.239990,484.096008,728.096008
472.384003,486.048004,735.903992
472.384003,489.951996,733.952026
470.432007,488.000000,726.143982
474.335999,489.951996,726.143982
476.287994,482.144012,728.096008
466.528015,491.903992,733.952026
478.239990,484.096008,728.096008
476.287994,489.951996,733.952026
472.384003,489.951996,728.096008
474.335999,495.808014,730.047974
474.335999,489.951996,735.903992
468.480011,486.048004,728.096008
472.384003,486.048004,733.952026
468.480011,488.000000,732.000000
478.239990,493.855988,743.711975
474.335999,491.903992,726.143982
472.384003,488.000000,741.760010
466.528015,488.000000,733.952026
472.384003,488.000000,737.856018
472.384003,480.191986,737.856018
476.287994,482.144012,733.952026
472.384003,484.096008,732.000000
470.432007,488.000000,726.143982
472.384003,482.144012,739.807983
476.287994,486.048004,733.952026
474.335999,488.000000,728.096008
470.432007,484.096008,732.000000
476.287994,486.048004,741.760010
476.287994,486.048004,745.664001
474.335999,486.048004,743.711975
476.287994,484.096008,728.096008
468.480011,489.951996,745.664001
478.239990,478.239990,730.047974
476.287994,484.096008,733.952026
480.191986,489.951996,735.903992
476.287994,482.144012,739.807983
486.048004,488.000000,741.760010
482.144012,493.855988,743.711975
484.096008,488.000000,745.664001
480.191986,488.000000,745.664001
482.144012,486.048004,741.760010
486.048004,480.191986,747.616028
480.191986,488.000000,741.760010
476.287994,482.144012,741.760010
484.096008,486.048004,735.903992
482.144012,476.287994,743.711975
480.191986,488.000000,741.760010
480.191986,486.048004,751.520020
482.144012,482.144012,745.664001
478.239990,488.000000,743.711975
480.191986,480.191986,747.616028
480.191986,488.000000,741.760010
493.855988,488.000000,741.760010
476.287994,486.048004,751.520020
493.855988,484.096008,745.664001
476.287994,484.096008,751.520020
484.096008,488.000000,745.664001
484.096008,486.048004,735.903992
488.000000,484.096008,743.711975
486.048004,480.191986,751.520020
488.000000,476.287994,749.567993
484.096008,489.951996,753.471985
486.048004,484.096008,747.616028
486.048004,482.144012,753.471985
493.855988,472.384003,751.520020
486.048004,486.048004,745.664001
484.096008,476.287994,761.280029
489.951996,472.384003,751.520020
488.000000,468.480011,755.424011
488.000000,472.384003,743.711975
493.855988,484.096008,747.616028
488.000000,482.144012,751.520020
488.000000,480.191986,745.664001
486.048004,480.191986,745.664001
480.191986,480.191986,759.328003
482.144012,476.287994,755.424011
484.096008,486.048004,749.567993
488.000000,474.335999,751.520020
480.191986,478.239990,755.424011
486.048004,480.191986,743.711975
486.048004,474.335999,751.520020
480.191986,468.480011,749.567993
480.191986,482.144012,739.807983
476.287994,480.191986,741.760010
482.144012,482.144012,747.616028
474.335999,482.144012,745.664001
476.287994,486.048004,747.616028
476.287994,480.191986,753.471985
476.287994,480.191986,741.760010
474.335999,484.096008,741.760010
476.287994,482.144012,745.664001
474.335999,476.287994,751.520020
476.287994,482.144012,751.520020
468.480011,484.096008,743.711975
470.432007,489.951996,741.760010
464.575989,476.287994,743.711975
464.575989,489.951996,741.760010
470.432007,480.191986,749.567993
466.528015,489.951996,747.616028
478.239990,474.335999,741.760010
464.575989,484.096008,743.711975
472.384003,489.951996,743.711975
474.335999,478.239990,745.664001
472.384003,472.384003,747.616028
478.239990,476.287994,743.711975
470.432007,484.096008,739.807983
468.480011,480.191986,749.567993
476.287994,486.048004,739.807983
474.335999,482.144012,739.807983
468.480011,472.384003,743.711975
482.144012,478.239990,733.952026
474.335999,482.144012,741.760010
468.480011,472.384003,743.711975
474.335999,476.287994,753.471985
472.384003,486.048004,755.424011
476.287994,474.335999,751.520020
476.287994,478.239990,749.567993
472.384003,468.480011,743.711975
478.239990,476.287994,747.616028
476.287994,486.048004,745.664001
480.191986,474.335999,745.664001
476.287994,480.191986,745.664001
482.144012,474.335999,745.664001
482.144012,476.287994,753.471985
484.096008,478.239990,757.375977
482.144012,478.239990,753.471985
478.239990,468.480011,749.567993
470.432007,470.432007,753.471985
486.048004,474.335999,759.328003
486.048004,476.287994,747.616028
489.951996,464.575989,745.664001
484.096008,468.480011,745.664001
474.335999,478.239990,741.760010
476.287994,470.432007,755.424011
482.144012,468.480011,749.567993
484.096008,470.432007,753.471985
486.048004,474.335999,753.471985
486.048004,476.287994,751.520020
484.096008,472.384003,761.280029
486.048004,474.335999,751.520020
478.239990,468.480011,743.711975
486.048004,474.335999,751.520020
486.048004,482.144012,743.711975
486.048004,472.384003,755.424011
482.144012,474.335999,749.567993
488.000000,480.191986,755.424011
486.048004,476.287994,753.471985
486.048004,474.335999,753.471985
489.951996,470.432007,759.328003
486.048004,464.575989,753.471985
486.048004,484.096008,755.424011
482.144012,478.239990,763.231995
482.144012,476.287994,753.471985
476.287994,474.335999,755.424011
476.287994,478.239990,745.664001
474.335999,474.335999,745.664001
480.191986,468.480011,755.424011
480.191986,468.480011,747.616028
480.191986,474.335999,751.520020
484.096008,474.335999,743.711975
482.144012,478.239990,753.471985
482.144012,470.432007,735.903992
484.096008,472.384003,745.664001
474.335999,480.191986,749.567993
476.287994,476.287994,751.520020
478.239990,489.951996,751.520020
486.048004,478.239990,741.760010
478.239990,474.335999,743.711975
472.384003,474.335999,737.856018
472.384003,468.480011,737.856018
470.432007,478.239990,741.760010
478.239990,468.480011,745.664001
474.335999,474.335999,745.664001
474.335999,482.144012,745.664001
474.335999,478.239990,747.616028
468.480011,478.239990,737.856018
476.287994,472.384003,730.047974
464.575989,470.432007,733.952026
476.287994,474.335999,733.952026
476.287994,482.144012,739.807983
474.335999,474.335999,747.616028
476.287994,476.287994,741.760010
476.287994,486.048004,741.760010
472.384003,476.287994,741.760010
478.239990,468.480011,745.664001
472.384003,468.480011,745.664001
486.048004,482.144012,745.664001
478.239990,476.287994,741.760010
486.048004,478.239990,749.567993
474.335999,474.335999,747.616028
474.335999,468.480011,753.471985
482.144012,468.480011,755.424011
474.335999,474.335999,753.471985
482.144012,478.239990,753.471985
478.239990,476.287994,747.616028
470.432007,474.335999,755.424011
472.384003,470.432007,747.616028
478.239990,478.239990,745.664001
478.239990,480.191986,751.520020
474.335999,478.239990,749.567993
482.144012,474.335999,743.711975
474.335999,474.335999,747.616028
476.287994,480.191986,751.520020
478.239990,486.048004,747.616028
470.432007,489.951996,745.664001
474.335999,482.144012,747.616028
478.239990,488.000000,735.903992
474.335999,486.048004,749.567993
478.239990,488.000000,749.567993
480.191986,486.048004,751.520020
470.432007,489.951996,745.664001
468.480011,486.048004,747.616028
468.480011,489.951996,749.567993
470.432007,491.903992,751.520020
474.335999,480.191986,743.711975
470.432007,480.191986,755.424011
474.335999,484.096008,749.567993
466.528015,484.096008,747.616028
474.335999,484.096008,749.567993
478.239990,486.048004,739.807983
480.191986,489.951996,737.856018
470.432007,488.000000,749.567993
472.384003,493.855988,749.567993
482.144012,488.000000,745.664001
464.575989,489.951996,741.760010
472.384003,488.000000,749.567993
474.335999,486.048004,747.616028
476.287994,491.903992,755.424011
476.287994,484.096008,747.616028
474.335999,484.096008,749.567993
482.144012,482.144012,759.328003
486.048004,480.191986,741.760010
480.191986,482.144012,745.664001
476.287994,476.287994,747.616028
484.096008,484.096008,751.520020
482.144012,488.000000,749.567993
480.191986,482.144012,741.760010
480.191986,480.191986,751.520020
486.048004,482.144012,751.520020
486.048004,480.191986,741.760010
480.191986,476.287994,741.760010
486.048004,474.335999,743.711975
480.191986,476.287994,739.807983
476.287994,478.239990,747.616028
476.287994,476.287994,747.616028
478.239990,476.287994,747.616028
480.191986,474.335999,745.664001
472.384003,476.287994,745.664001
468.480011,482.144012,745.664001
476.287994,480.191986,751.520020
474.335999,482.144012,741.760010
470.432007,482.144012,735.903992
478.239990,486.048004,749.567993
466.528015,484.096008,747.616028
474.335999,486.048004,751.520020
470.432007,480.191986,753.471985
474.335999,476.287994,741.760010
468.480011,489.951996,747.616028
474.335999,482.144012,753.471985
462.623993,484.096008,743.711975
464.575989,480.191986,741.760010
462.623993,486.048004,741.760010
466.528015,488.000000,739.807983
470.432007,476.287994,737.856018
460.671997,486.048004,730.047974
472.384003,488.000000,735.903992
468.480011,482.144012,747.616028
466.528015,486.048004,743.711975
462.623993,484.096008,743.711975
464.575989,491.903992,741.760010
460.671997,489.951996,743.711975
462.623993,499.712006,739.807983
470.432007,491.903992,741.760010
466.528015,495.808014,739.807983
456.768005,489.951996,737.856018
458.720001,491.903992,741.760010
462.623993,484.096008,749.567993
460.671997,486.048004,737.856018
460.671997,495.808014,741.760010
466.528015,489.951996,743.711975
462.623993,484.096008,743.711975
452.864014,493.855988,743.711975
456.768005,488.000000,735.903992
458.720001,486.048004,730.047974
462.623993,497.760010,728.096008
464.575989,486.048004,730.047974
458.720001,486.048004,730.047974
452.864014,482.144012,732.000000
458.720001,476.287994,730.047974
454.816010,478.239990,733.952026
460.671997,480.191986,728.096008
458.720001,486.048004,737.856018
466.528015,484.096008,735.903992
458.720001,478.239990,733.952026
454.816010,478.239990,743.711975
458.720001,480.191986,730.047974
464.575989,482.144012,732.000000
464.575989,474.335999,743.711975
464.575989,474.335999,728.096008
466.528015,472.384003,724.192017
472.384003,482.144012,741.760010
462.623993,478.239990,743.711975
464.575989,482.144012,730.047974
466.528015,474.335999,732.000000
454.816010,470.432007,732.000000
462.623993,478.239990,737.856018
460.671997,482.144012,739.807983
470.432007,474.335999,737.856018
468.480011,470.432007,737.856018
472.384003,472.384003,745.664001
476.287994,482.144012,737.856018
478.239990,472.384003,741.760010
470.432007,480.191986,737.856018
468.480011,478.239990,743.711975
476.287994,476.287994,743.711975
474.335999,482.144012,751.520020
480.191986,474.335999,745.664001
472.384003,468.480011,743.711975
466.528015,478.239990,745.664001
472.384003,476.287994,743.711975
482.144012,478.239990,730.047974
476.287994,468.480011,743.711975
472.384003,474.335999,737.856018
482.144012,474.335999,737.856018
470.432007,472.384003,747.616028
464.575989,484.096008,743.711975
470.432007,476.287994,737.856018
472.384003,484.096008,730.047974
470.432007,474.335999,735.903992
478.239990,472.384003,733.952026
478.239990,472.384003,733.952026
468.480011,484.096008,735.903992
478.239990,484.096008,728.096008
472.384003,478.239990,732.000000
468.480011,474.335999,732.000000
468.480011,478.239990,741.760010
468.480011,476.287994,735.903992
472.384003,478.239990,732.000000
476.287994,474.335999,743.711975
470.432007,476.287994,737.856018
468.480011,480.191986,737.856018
474.335999,478.239990,737.856018
482.144012,476.287994,741.760010
476.287994,486.048004,743.711975
474.335999,484.096008,743.711975
470.432007,478.239990,739.807983
478.239990,480.191986,728.096008
468.480011,474.335999,730.047974
478.239990,484.096008,739.807983
470.432007,488.000000,737.856018
468.480011,478.239990,743.711975
478.239990,484.096008,733.952026
468.480011,480.191986,743.711975
472.384003,478.239990,732.000000
482.144012,478.239990,733.952026
478.239990,480.191986,739.807983
470.432007,486.048004,737.856018
478.239990,482.144012,739.807983
476.287994,474.335999,745.664001
468.480011,474.335999,739.807983
468.480011,484.096008,743.711975
472.384003,480.191986,747.616028
474.335999,474.335999,741.760010
478.239990,476.287994,739.807983
474.335999,488.000000,739.807983
478.239990,484.096008,733.952026
474.335999,488.000000,733.952026
474.335999,489.951996,733.952026
468.480011,489.951996,737.856018
474.335999,486.048004,739.807983
478.239990,493.855988,743.711975
470.432007,493.855988,737.856018
464.575989,480.191986,737.856018
470.432007,486.048004,730.047974
466.528015,480.191986,743.711975
470.432007,486.048004,737.856018
466.528015,489.951996,741.760010
470.432007,489.951996,739.807983
474.335999,488.000000,743.711975
470.432007,491.903992,739.807983
474.335999,489.951996,732.000000
466.528015,489.951996,737.856018
470.432007,493.855988,737.856018
472.384003,499.712006,737.856018
466.528015,491.903992,739.807983
470.432007,499.712006,743.711975
466.528015,491.903992,735.903992
476.287994,501.664001,726.143982
468.480011,491.903992,739.807983
476.287994,495.808014,735.903992
476.287994,491.903992,730.047974
470.432007,501.664001,739.807983
472.384003,491.903992,733.952026
476.287994,501.664001,732.000000
468.480011,497.760010,737.856018
478.239990,493.855988,743.711975
474.335999,497.760010,732.000000
470.432007,493.855988,735.903992
474.335999,493.855988,733.952026
472.384003,489.951996,733.952026
474.335999,488.000000,728.096008
486.048004,497.760010,724.192017
478.239990,484.096008,739.807983
478.239990,489.951996,733.952026
480.191986,491.903992,737.856018
484.096008,488.000000,735.903992
478.239990,499.712006,747.616028
478.239990,484.096008,739.807983
486.048004,486.048004,741.760010
474.335999,486.048004,741.760010
480.191986,489.951996,730.047974
478.239990,488.000000,743.711975
480.191986,493.855988,745.664001
486.048004,495.808014,749.567993
476.287994,486.048004,741.760010
486.048004,488.000000,737.856018
484.096008,484.096008,739.807983
478.239990,488.000000,743.711975
486.048004,486.048004,747.616028
474.335999,486.048004,741.760010
476.287994,486.048004,741.760010
480.191986,488.000000,741.760010
484.096008,493.855988,737.856018
484.096008,482.144012,735.903992
486.048004,488.000000,741.760010
482.144012,493.855988,737.856018
476.287994,480.191986,741.760010
480.191986,488.000000,751.520020
478.239990,491.903992,747.616028
476.287994,488.000000,739.807983
486.048004,488.000000,739.807983
493.855988,484.096008,741.760010
489.951996,497.760010,737.856018
480.191986,491.903992,733.952026
484.096008,480.191986,733.952026
476.287994,488.000000,741.760010
484.096008,486.048004,735.903992
489.951996,493.855988,747.616028
482.144012,488.000000,745.664001
489.951996,491.903992,741.760010
488.000000,486.048004,741.760010
497.760010,497.760010,741.760010
491.903992,489.951996,745.664001
491.903992,491.903992,745.664001
484.096008,493.855988,747.616028
489.951996,488.000000,749.567993
495.808014,491.903992,741.760010
493.855988,489.951996,741.760010
491.903992,497.760010,741.760010
488.000000,493.855988,733.952026
493.855988,497.760010,739.807983
489.951996,493.855988,743.711975
488.000000,493.855988,745.664001
491.903992,497.760010,751.520020
497.760010,503.615997,741.760010
495.808014,489.951996,745.664001
495.808014,495.808014,741.760010
497.760010,491.903992,747.616028
495.808014,495.808014,751.520020
495.808014,497.760010,745.664001
488.000000,499.712006,732.000000
491.903992,503.615997,737.856018
491.903992,493.855988,747.616028
491.903992,489.951996,745.664001
491.903992,503.615997,745.664001
489.951996,489.951996,733.952026
495.808014,488.000000,737.856018
488.000000,495.808014,739.807983
491.903992,489.951996,739.807983
491.903992,495.808014,747.616028
495.808014,497.760010,743.711975
489.951996,495.808014,747.616028
491.903992,491.903992,739.807983
489.951996,493.855988,733.952026
497.760010,497.760010,737.856018
489.951996,501.664001,743.711975
489.951996,489.951996,741.760010
491.903992,491.903992,741.760010
493.855988,489.951996,743.711975
495.808014,486.048004,733.952026
491.903992,497.760010,741.760010
497.760010,497.760010,739.807983
491.903992,503.615997,747.616028
493.855988,503.615997,743.711975
488.000000,503.615997,739.807983
489.951996,495.808014,741.760010
484.096008,488.000000,751.520020
489.951996,501.664001,733.952026
486.048004,501.664001,726.143982
482.144012,489.951996,730.047974
484.096008,497.760010,739.807983
482.144012,493.855988,743.711975
486.048004,491.903992,726.143982
491.903992,501.664001,741.760010
491.903992,486.048004,730.047974
482.144012,489.951996,739.807983
476.287994,491.903992,737.856018
476.287994,491.903992,737.856018
484.096008,493.855988,732.000000
488.000000,501.664001,735.903992
486.048004,499.712006,732.000000
486.048004,495.808014,733.952026
484.096008,499.712006,735.903992
484.096008,495.808014,737.856018
480.191986,497.760010,730.047974
476.287994,497.760010,730.047974
476.287994,497.760010,732.000000
476.287994,503.615997,735.903992
476.287994,497.760010,724.192017
464.575989,507.519989,726.143982
476.287994,495.808014,730.047974
478.239990,501.664001,726.143982
468.480011,505.567993,732.000000
482.144012,503.615997,728.096008
482.144012,503.615997,728.096008
474.335999,491.903992,726.143982
464.575989,505.567993,726.143982
474.335999,495.808014,726.143982
474.335999,509.471985,732.000000
472.384003,499.712006,724.192017
468.480011,491.903992,726.143982
472.384003,501.664001,741.760010
478.239990,491.903992,732.000000
474.335999,497.760010,735.903992
478.239990,489.951996,728.096008
478.239990,489.951996,728.096008
474.335999,489.951996,722.239990
474.335999,497.760010,730.047974
472.384003,497.760010,737.856018
468.480011,499.712006,732.000000
478.239990,503.615997,732.000000
478.239990,493.855988,741.760010
482.144012,489.951996,732.000000
474.335999,486.048004,739.807983
480.191986,491.903992,733.952026
474.335999,497.760010,737.856018
476.287994,491.903992,735.903992
476.287994,489.951996,732.000000
472.384003,488.000000,749.567993
482.144012,493.855988,747.616028
480.191986,482.144012,741.760010
474.335999,486.048004,741.760010
482.144012,480.191986,739.807983
482.144012,476.287994,739.807983
486.048004,480.191986,733.952026
476.287994,474.335999,733.952026
486.048004,486.048004,741.760010
486.048004,480.191986,747.616028
489.951996,486.048004,737.856018
489.951996,480.191986,726.143982
476.287994,486.048004,743.711975
488.000000,482.144012,737.856018
493.855988,478.239990,747.616028
474.335999,474.335999,745.664001
489.951996,474.335999,743.711975
486.048004,476.287994,741.760010
486.048004,480.191986,741.760010
486.048004,486.048004,741.760010
482.144012,486.048004,741.760010
493.855988,478.239990,735.903992
486.048004,482.144012,741.760010
493.855988,484.096008,741.760010
482.144012,484.096008,732.000000
484.096008,474.335999,737.856018
484.096008,486.048004,747.616028
484.096008,482.144012,739.807983
488.000000,482.144012,745.664001
482.144012,474.335999,745.664001
488.000000,472.384003,743.711975
491.903992,480.191986,743.711975
493.855988,480.191986,745.664001
495.808014,489.951996,741.760010
493.855988,472.384003,743.711975
493.855988,480.191986,743.711975
493.855988,472.384003,747.616028
495.808014,464.575989,741.760010
488.000000,484.096008,737.856018
491.903992,466.528015,741.760010
505.567993,478.239990,741.760010
501.664001,470.432007,741.760010
493.855988,478.239990,743.711975
491.903992,478.239990,743.711975
495.808014,480.191986,745.664001
497.760010,480.191986,741.760010
491.903992,470.432007,747.616028
491.903992,478.239990,745.664001
493.855988,480.191986,745.664001
493.855988,480.191986,743.711975
491.903992,491.903992,739.807983
491.903992,482.144012,749.567993
497.760010,480.191986,737.856018
493.855988,472.384003,745.664001
493.855988,476.287994,749.567993
499.712006,484.096008,743.711975
497.760010,484.096008,743.711975
489.951996,476.287994,743.711975
497.760010,484.096008,747.616028
497.760010,486.048004,749.567993
495.808014,482.144012,735.903992
497.760010,480.191986,741.760010
491.903992,482.144012,743.711975
493.855988,478.239990,745.664001
495.808014,489.951996,751.520020
488.000000,482.144012,741.760010
488.000000,488.000000,732.000000
491.903992,486.048004,737.856018
491.903992,489.951996,741.760010
493.855988,484.096008,743.711975
497.760010,482.144012,743.711975
495.808014,472.384003,741.760010
493.855988,480.191986,745.664001
484.096008,480.191986,743.711975
486.048004,478.239990,745.664001
489.951996,478.239990,749.567993
489.951996,468.480011,743.711975
491.903992,489.951996,737.856018
486.048004,476.287994,741.760010
497.760010,476.287994,733.952026
486.048004,478.239990,747.616028
486.048004,486.048004,745.664001
486.048004,486.048004,741.760010
489.951996,482.144012,743.711975
489.951996,482.144012,741.760010
488.000000,484.096008,743.711975
482.144012,486.048004,728.096008
480.191986,489.951996,739.807983
476.287994,480.191986,741.760010
486.048004,488.000000,737.856018
476.287994,495.808014,735.903992
482.144012,484.096008,728.096008
478.239990,480.191986,735.903992
476.287994,489.951996,730.047974
484.096008,484.096008,728.096008
478.239990,476.287994,733.952026
482.144012,484.096008,732.000000
480.191986,486.048004,741.760010
474.335999,484.096008,732.000000
476.287994,489.951996,726.143982
470.432007,482.144012,726.143982
476.287994,480.191986,739.807983
472.384003,489.951996,732.000000
474.335999,491.903992,735.903992
478.239990,489.951996,733.952026
472.384003,488.000000,737.856018
474.335999,484.096008,737.856018
480.191986,493.855988,737.856018
468.480011,480.191986,743.711975
468.480011,488.000000,733.952026
476.287994,486.048004,741.760010
476.287994,491.903992,733.952026
478.239990,495.808014,743.711975
478.239990,486.048004,737.856018
476.287994,486.048004,733.952026
482.144012,488.000000,737.856018
486.048004,484.096008,730.047974
478.239990,484.096008,739.807983
482.144012,486.048004,739.807983
482.144012,493.855988,743.711975
472.384003,486.048004,732.000000
476.287994,491.903992,739.807983
476.287994,480.191986,732.000000
484.096008,486.048004,728.096008
486.048004,480.191986,741.760010
489.951996,484.096008,730.047974
488.000000,489.951996,743.711975
486.048004,482.144012,741.760010
486.048004,486.048004,741.760010
486.048004,488.000000,741.760010
484.096008,493.855988,747.616028
480.191986,480.191986,749.567993
489.951996,495.808014,741.760010
489.951996,488.000000,737.856018
493.855988,493.855988,732.000000
489.951996,489.951996,741.760010
493.855988,484.096008,747.616028
491.903992,480.191986,735.903992
497.760010,480.191986,743.711975
493.855988,482.144012,737.856018
491.903992,482.144012,749.567993
497.760010,484.096008,743.711975
503.615997,476.287994,728.096008
499.712006,476.287994,733.952026
491.903992,486.048004,730.047974
497.760010,489.951996,741.760010
488.000000,484.096008,743.711975
497.760010,478.239990,747.616028
495.808014,478.239990,743.711975
488.000000,480.191986,743.711975
493.855988,472.384003,743.711975
491.903992,478.239990,745.664001
493.855988,472.384003,747.616028
497.760010,480.191986,743.711975
495.808014,486.048004,737.856018
501.664001,476.287994,737.856018
499.712006,484.096008,747.616028
493.855988,478.239990,749.567993
499.712006,480.191986,751.520020
489.951996,474.335999,755.424011
493.855988,484.096008,737.856018
491.903992,470.432007,739.807983
491.903992,470.432007,739.807983
497.760010,482.144012,745.664001
493.855988,482.144012,745.664001
495.808014,482.144012,747.616028
495.808014,486.048004,730.047974
493.855988,484.096008,737.856018
495.808014,470.432007,741.760010
493.855988,484.096008,745.664001
497.760010,476.287994,743.711975
489.951996,476.287994,749.567993
499.712006,480.191986,755.424011
489.951996,478.239990,749.567993
499.712006,480.191986,747.616028
499.712006,486.048004,759.328003
499.712006,478.239990,745.664001
495.808014,476.287994,743.711975
497.760010,478.239990,745.664001
488.000000,484.096008,743.711975
491.903992,478.239990,745.664001
486.048004,474.335999,739.807983
488.000000,472.384003,747.616028
488.000000,476.287994,745.664001
493.855988,478.239990,743.711975
488.000000,472.384003,737.856018
493.855988,476.287994,743.711975
486.048004,476.287994,743.711975
488.000000,484.096008,745.664001
486.048004,482.144012,741.760010
493.855988,472.384003,743.711975
493.855988,476.287994,739.807983
488.000000,474.335999,751.520020
484.096008,482.144012,739.807983
486.048004,486.048004,753.471985
486.048004,480.191986,745.664001
493.855988,484.096008,747.616028
486.048004,480.191986,733.952026
478.239990,482.144012,739.807983
480.191986,474.335999,745.664001
480.191986,474.335999,739.807983
486.048004,476.287994,739.807983
480.191986,476.287994,747.616028
482.144012,478.239990,743.711975
480.191986,482.144012,739.807983
476.287994,468.480011,743.711975
482.144012,472.384003,739.807983
472.384003,470.432007,741.760010
486.048004,478.239990,735.903992
472.384003,484.096008,733.952026
474.335999,486.048004,739.807983
476.287994,472.384003,737.856018
480.191986,486.048004,733.952026
476.287994,474.335999,745.664001
478.239990,474.335999,730.047974
476.287994,482.144012,739.807983
480.191986,482.144012,732.000000
482.144012,478.239990,735.903992
474.335999,474.335999,745.664001
472.384003,474.335999,743.711975
468.480011,472.384003,743.711975
468.480011,484.096008,743.711975
478.239990,478.239990,741.760010
472.384003,476.287994,733.952026
468.480011,474.335999,733.952026
478.239990,472.384003,732.000000
468.480011,468.480011,733.952026
470.432007,470.432007,733.952026
472.384003,470.432007,739.807983
470.432007,472.384003,733.952026
472.384003,476.287994,733.952026
470.432007,480.191986,726.143982
472.384003,466.528015,737.856018
474.335999,472.384003,735.903992
464.575989,470.432007,741.760010
470.432007,472.384003,743.711975
476.287994,468.480011,737.856018
472.384003,468.480011,743.711975
466.528015,472.384003,743.711975
470.432007,470.432007,741.760010
470.432007,470.432007,739.807983
464.575989,478.239990,743.711975
468.480011,468.480011,733.952026
470.432007,476.287994,730.047974
472.384003,472.384003,732.000000
474.335999,460.671997,735.903992
476.287994,470.432007,726.143982
476.287994,474.335999,741.760010
474.335999,468.480011,741.760010
472.384003,478.239990,739.807983
474.335999,468.480011,739.807983
476.287994,476.287994,739.807983
468.480011,468.480011,739.807983
468.480011,476.287994,732.000000
476.287994,468.480011,737.856018
474.335999,478.239990,743.711975
466.528015,478.239990,743.711975
470.432007,470.432007,739.807983
482.144012,474.335999,741.760010
476.287994,470.432007,743.711975
476.287994,474.335999,745.664001
482.144012,468.480011,745.664001
478.239990,476.287994,739.807983
476.287994,474.335999,741.760010
480.191986,466.528015,743.711975
478.239990,468.480011,733.952026
474.335999,478.239990,755.424011
472.384003,468.480011,749.567993
480.191986,468.480011,747.616028
478.239990,474.335999,743.711975
476.287994,476.287994,739.807983
482.144012,468.480011,737.856018
474.335999,476.287994,747.616028
478.239990,478.239990,730.047974
480.191986,478.239990,741.760010
472.384003,468.480011,747.616028
476.287994,476.287994,741.760010
486.048004,476.287994,751.520020
474.335999,480.191986,743.711975
478.239990,466.528015,745.664001
484.096008,468.480011,737.856018
486.048004,478.239990,743.711975
474.335999,474.335999,739.807983
482.144012,476.287994,741.760010
482.144012,468.480011,735.903992
482.144012,474.335999,745.664001
476.287994,472.384003,747.616028
476.287994,474.335999,747.616028
476.287994,470.432007,733.952026
478.239990,472.384003,739.807983
468.480011,472.384003,737.856018
476.287994,474.335999,739.807983
470.432007,472.384003,745.664001
476.287994,474.335999,745.664001
476.287994,472.384003,730.047974
474.335999,470.432007,733.952026
476.287994,476.287994,741.760010
476.287994,482.144012,741.760010
484.096008,472.384003,728.096008
480.191986,470.432007,737.856018
484.096008,480.191986,735.903992
482.144012,478.239990,728.096008
480.191986,470.432007,735.903992
480.191986,474.335999,733.952026
476.287994,474.335999,733.952026
472.384003,484.096008,728.096008
480.191986,489.951996,730.047974
480.191986,478.239990,733.952026
472.384003,480.191986,733.952026
470.432007,472.384003,737.856018
480.191986,478.239990,735.903992
486.048004,484.096008,737.856018
476.287994,480.191986,733.952026
472.384003,482.144012,730.047974
472.384003,478.239990,735.903992
474.335999,478.239990,737.856018
480.191986,480.191986,741.760010
482.144012,476.287994,735.903992
472.384003,484.096008,739.807983
476.287994,474.335999,733.952026
482.144012,478.239990,732.000000
482.144012,478.239990,732.000000
478.239990,484.096008,732.000000
474.335999,486.048004,733.952026
478.239990,484.096008,733.952026
472.384003,482.144012,728.096008
478.239990,484.096008,732.000000
478.239990,489.951996,733.952026
470.432007,486.048004,735.903992
476.287994,489.951996,726.143982
486.048004,480.191986,722.239990
478.239990,493.855988,735.903992
482.144012,489.951996,728.096008
472.384003,489.951996,732.000000
480.191986,482.144012,730.047974
482.144012,489.951996,735.903992
480.191986,484.096008,739.807983
472.384003,480.191986,732.000000
472.384003,486.048004,726.143982
478.239990,486.048004,732.000000
472.384003,484.096008,728.096008
480.191986,486.048004,733.952026
476.287994,482.144012,733.952026
478.239990,480.191986,741.760010
480.191986,486.048004,741.760010
472.384003,486.048004,735.903992
474.335999,484.096008,733.952026
486.048004,484.096008,741.760010
476.287994,486.048004,739.807983
482.144012,488.000000,737.856018
480.191986,474.335999,733.952026
476.287994,484.096008,733.952026
480.191986,486.048004,741.760010
478.239990,491.903992,730.047974
478.239990,484.096008,733.952026
480.191986,480.191986,739.807983
478.239990,488.000000,743.711975
482.144012,493.855988,743.711975
484.096008,489.951996,741.760010
476.287994,486.048004,745.664001
480.191986,482.144012,741.760010
472.384003,486.048004,730.047974
478.239990,484.096008,732.000000
480.191986,491.903992,726.143982
482.144012,484.096008,739.807983
472.384003,489.951996,733.952026
476.287994,486.048004,741.760010
480.191986,489.951996,730.047974
484.096008,482.144012,739.807983
480.191986,489.951996,735.903992
484.096008,488.000000,743.711975
476.287994,486.048004,747.616028
486.048004,493.855988,739.807983
476.287994,489.951996,730.047974
470.432007,488.000000,733.952026
482.144012,489.951996,737.856018
476.287994,480.191986,751.520020
486.048004,482.144012,743.711975
482.144012,484.096008,735.903992
488.000000,482.144012,743.711975
478.239990,484.096008,733.952026
480.191986,478.239990,745.664001
478.239990,478.239990,739.807983
482.144012,482.144012,728.096008
478.239990,482.144012,735.903992
482.144012,484.096008,741.760010
486.048004,480.191986,741.760010
486.048004,482.144012,747.616028
486.048004,486.048004,741.760010
480.191986,488.000000,741.760010
480.191986,482.144012,739.807983
480.191986,482.144012,741.760010
486.048004,480.191986,741.760010
482.144012,476.287994,741.760010
484.096008,482.144012,739.807983
488.000000,480.191986,743.711975
484.096008,484.096008,733.952026
489.951996,489.951996,741.760010
488.000000,472.384003,747.616028
495.808014,474.335999,737.856018
489.951996,472.384003,751.520020
491.903992,489.951996,751.520020
493.855988,482.144012,755.424011
489.951996,478.239990,755.424011
495.808014,480.191986,757.375977
493.855988,480.191986,755.424011
493.855988,489.951996,751.520020
493.855988,478.239990,747.616028
493.855988,480.191986,749.567993
501.664001,489.951996,753.471985
488.000000,484.096008,751.520020
488.000000,486.048004,745.664001
489.951996,488.000000,749.567993
491.903992,491.903992,753.471985
488.000000,486.048004,753.471985
488.000000,491.903992,755.424011
497.760010,497.760010,753.471985
488.000000,497.760010,753.471985
497.760010,489.951996,749.567993
495.808014,486.048004,759.328003
501.664001,472.384003,747.616028
493.855988,484.096008,755.424011
480.191986,484.096008,745.664001
488.000000,482.144012,747.616028
489.951996,484.096008,753.471985
489.951996,491.903992,751.520020
493.855988,476.287994,747.616028
486.048004,482.144012,751.520020
480.191986,486.048004,751.520020
488.000000,493.855988,745.664001
484.096008,497.760010,743.711975
484.096008,488.000000,743.711975
489.951996,497.760010,755.424011
486.048004,497.760010,749.567993
486.048004,493.855988,751.520020
489.951996,493.855988,747.616028
493.855988,489.951996,743.711975
478.239990,493.855988,747.616028
482.144012,493.855988,743.711975
484.096008,499.712006,737.856018
478.239990,497.760010,743.711975
476.287994,488.000000,741.760010
476.287994,486.048004,745.664001
486.048004,489.951996,747.616028
478.239990,488.000000,747.616028
478.239990,493.855988,741.760010
482.144012,499.712006,745.664001
484.096008,493.855988,747.616028
482.144012,493.855988,743.711975
482.144012,489.951996,755.424011
476.287994,488.000000,745.664001
480.191986,493.855988,743.711975
478.239990,505.567993,743.711975
484.096008,495.808014,743.711975
478.239990,493.855988,735.903992
476.287994,486.048004,741.760010
476.287994,499.712006,741.760010
472.384003,495.808014,747.616028
470.432007,495.808014,743.711975
476.287994,509.471985,733.952026
478.239990,491.903992,741.760010
472.384003,501.664001,741.760010
482.144012,491.903992,743.711975
478.239990,497.760010,743.711975
474.335999,491.903992,737.856018
472.384003,491.903992,739.807983
462.623993,495.808014,735.903992
468.480011,491.903992,739.807983
470.432007,484.096008,733.952026
476.287994,488.000000,739.807983
464.575989,497.760010,739.807983
462.623993,495.808014,739.807983
468.480011,491.903992,739.807983
462.623993,491.903992,739.807983
470.432007,486.048004,732.000000
472.384003,489.951996,739.807983
468.480011,488.000000,733.952026
468.480011,493.855988,733.952026
470.432007,491.903992,743.711975
478.239990,488.000000,743.711975
476.287994,488.000000,743.711975
478.239990,493.855988,743.711975
468.480011,480.191986,751.520020
468.480011,486.048004,737.856018
470.432007,489.951996,745.664001
474.335999,486.048004,743.711975
484.096008,493.855988,743.711975
474.335999,484.096008,741.760010
480.191986,482.144012,751.520020
480.191986,488.000000,745.664001
480.191986,482.144012,749.567993
468.480011,484.096008,743.711975
474.335999,482.144012,741.760010
476.287994,493.855988,733.952026
472.384003,486.048004,747.616028
472.384003,484.096008,739.807983
478.239990,486.048004,751.520020
468.480011,488.000000,745.664001
476.287994,488.000000,751.520020
464.575989,489.951996,747.616028
474.335999,486.048004,747.616028
476.287994,493.855988,737.856018
474.335999,484.096008,726.143982
474.335999,486.048004,741.760010
474.335999,486.048004,747.616028
470.432007,486.048004,737.856018
468.480011,478.239990,737.856018
482.144012,484.096008,739.807983
486.048004,486.048004,745.664001
468.480011,486.048004,741.760010
474.335999,472.384003,747.616028
486.048004,484.096008,747.616028
474.335999,484.096008,743.711975
474.335999,486.048004,745.664001
480.191986,484.096008,737.856018
486.048004,486.048004,739.807983
480.191986,484.096008,751.520020
478.239990,480.191986,739.807983
486.048004,480.191986,741.760010
480.191986,476.287994,747.616028
484.096008,488.000000,743.711975
480.191986,480.191986,741.760010
486.048004,476.287994,733.952026
476.287994,486.048004,741.760010
482.144012,482.144012,741.760010
480.191986,480.191986,741.760010
484.096008,474.335999,743.711975
489.951996,488.000000,747.616028
486.048004,482.144012,743.711975
484.096008,474.335999,743.711975
497.760010,472.384003,747.616028
488.000000,478.239990,743.711975
488.000000,476.287994,747.616028
488.000000,486.048004,741.760010
482.144012,488.000000,755.424011
489.951996,480.191986,737.856018
489.951996,470.432007,751.520020
486.048004,476.287994,751.520020
493.855988,482.144012,737.856018
480.191986,486.048004,733.952026
480.191986,486.048004,747.616028
489.951996,474.335999,747.616028
491.903992,484.096008,747.616028
482.144012,488.000000,737.856018
488.000000,472.384003,743.711975
486.048004,476.287994,741.760010
480.191986,480.191986,741.760010
486.048004,476.287994,741.760010
491.903992,470.432007,741.760010
484.096008,482.144012,739.807983
488.000000,488.000000,732.000000
482.144012,482.144012,739.807983
480.191986,482.144012,741.760010
482.144012,482.144012,739.807983
480.191986,476.287994,739.807983
486.048004,486.048004,739.807983
482.144012,486.048004,747.616028
491.903992,486.048004,737.856018
484.096008,484.096008,739.807983
478.239990,472.384003,733.952026
489.951996,480.191986,732.000000
482.144012,472.384003,730.047974
482.144012,476.287994,743.711975
486.048004,476.287994,745.664001
486.048004,482.144012,741.760010
480.191986,480.191986,733.952026
491.903992,486.048004,726.143982
478.239990,480.191986,732.000000
486.048004,484.096008,730.047974
489.951996,486.048004,732.000000
482.144012,486.048004,732.000000
480.191986,476.287994,733.952026
480.191986,480.191986,739.807983
480.191986,484.096008,745.664001
484.096008,482.144012,739.807983
486.048004,482.144012,737.856018
486.048004,486.048004,733.952026
478.239990,480.191986,735.903992
482.144012,482.144012,739.807983
484.096008,468.480011,745.664001
476.287994,480.191986,741.760010
478.239990,478.239990,739.807983
486.048004,472.384003,743.711975
482.144012,478.239990,733.952026
480.191986,474.335999,733.952026
476.287994,474.335999,733.952026
476.287994,476.287994,739.807983
486.048004,478.239990,745.664001
472.384003,480.191986,733.952026
476.287994,482.144012,733.952026
472.384003,484.096008,739.807983
486.048004,476.287994,741.760010
484.096008,472.384003,732.000000
486.048004,480.191986,739.807983
482.144012,482.144012,733.952026
476.287994,478.239990,726.143982
478.239990,476.287994,732.000000
476.287994,480.191986,730.047974
476.287994,476.287994,735.903992
486.048004,478.239990,728.096008
478.239990,482.144012,739.807983
470.432007,482.144012,728.096008
478.239990,478.239990,733.952026
478.239990,476.287994,741.760010
472.384003,486.048004,735.903992
480.191986,478.239990,722.239990
476.287994,480.191986,730.047974
480.191986,484.096008,732.000000
472.384003,480.191986,730.047974
482.144012,482.144012,730.047974
472.384003,478.239990,726.143982
474.335999,484.096008,737.856018
472.384003,476.287994,732.000000
470.432007,478.239990,732.000000
474.335999,474.335999,733.952026
468.480011,482.144012,743.711975
474.335999,484.096008,735.903992
470.432007,476.287994,735.903992
478.239990,482.144012,730.047974
470.432007,484.096008,739.807983
460.671997,486.048004,735.903992
474.335999,478.239990,724.192017
478.239990,476.287994,730.047974
470.432007,478.239990,735.903992
478.239990,476.287994,739.807983
472.384003,480.191986,730.047974
474.335999,474.335999,733.952026
466.528015,472.384003,735.903992
478.239990,472.384003,728.096008
478.239990,474.335999,737.856018
472.384003,474.335999,737.856018
478.239990,480.191986,730.047974
470.432007,480.191986,730.047974
476.287994,464.575989,726.143982
476.287994,472.384003,732.000000
472.384003,472.384003,730.047974
482.144012,482.144012,739.807983
478.239990,472.384003,739.807983
470.432007,472.384003,739.807983
478.239990,468.480011,737.856018
484.096008,470.432007,737.856018
476.287994,470.432007,735.903992
478.239990,472.384003,728.096008
468.480011,476.287994,728.096008
472.384003,472.384003,728.096008
472.384003,474.335999,735.903992
482.144012,472.384003,730.047974
476.287994,482.144012,741.760010
472.384003,480.191986,728.096008
472.384003,468.480011,735.903992
478.239990,468.480011,743.711975
482.144012,482.144012,739.807983
480.191986,480.191986,741.760010
486.048004,472.384003,733.952026
480.191986,472.384003,737.856018
484.096008,476.287994,739.807983
482.144012,476.287994,745.664001
491.903992,478.239990,745.664001
489.951996,480.191986,737.856018
489.951996,474.335999,745.664001
486.048004,472.384003,749.567993
480.191986,482.144012,741.760010
488.000000,476.287994,745.664001
493.855988,478.239990,747.616028
486.048004,474.335999,743.711975
488.000000,476.287994,751.520020
488.000000,482.144012,743.711975
493.855988,468.480011,739.807983
484.096008,478.239990,730.047974
486.048004,472.384003,743.711975
489.951996,480.191986,737.856018
489.951996,482.144012,735.903992
488.000000,478.239990,743.711975
493.855988,480.191986,747.616028
482.144012,474.335999,743.711975
480.191986,480.191986,737.856018
486.048004,476.287994,741.760010
486.048004,482.144012,749.567993
484.096008,486.048004,730.047974
480.191986,480.191986,741.760010
480.191986,476.287994,741.760010
489.951996,482.144012,735.903992
486.048004,486.048004,749.567993
488.000000,472.384003,745.664001
488.000000,476.287994,751.520020
488.000000,482.144012,741.760010
486.048004,474.335999,735.903992
489.951996,472.384003,741.760010
486.048004,486.048004,741.760010
493.855988,480.191986,745.664001
486.048004,482.144012,745.664001
489.951996,480.191986,755.424011
493.855988,478.239990,751.520020
484.096008,478.239990,751.520020
497.760010,482.144012,757.375977
497.760010,480.191986,743.711975
489.951996,482.144012,755.424011
488.000000,484.096008,747.616028
488.000000,482.144012,757.375977
486.048004,476.287994,753.471985
488.000000,482.144012,747.616028
488.000000,480.191986,759.328003
493.855988,484.096008,745.664001
488.000000,482.144012,747.616028
493.855988,484.096008,755.424011
488.000000,478.239990,755.424011
493.855988,480.191986,749.567993
497.760010,482.144012,743.711975
488.000000,484.096008,749.567993
488.000000,474.335999,745.664001
486.048004,482.144012,745.664001
501.664001,489.951996,751.520020
499.712006,486.048004,751.520020
488.000000,482.144012,753.471985
486.048004,476.287994,753.471985
489.951996,478.239990,755.424011
489.951996,486.048004,755.424011
497.760010,480.191986,759.328003
493.855988,484.096008,745.664001
499.712006,478.239990,747.616028
493.855988,478.239990,749.567993
489.951996,489.951996,749.567993
486.048004,476.287994,749.567993
489.951996,488.000000,749.567993
488.000000,488.000000,747.616028
486.048004,486.048004,751.520020
493.855988,484.096008,743.711975
493.855988,489.951996,743.711975
488.000000,486.048004,741.760010
493.855988,484.096008,747.616028
488.000000,488.000000,747.616028
488.000000,482.144012,747.616028
493.855988,480.191986,747.616028
497.760010,484.096008,749.567993
493.855988,491.903992,749.567993
491.903992,489.951996,751.520020
493.855988,489.951996,751.520020
489.951996,480.191986,755.424011
493.855988,488.000000,759.328003
495.808014,493.855988,759.328003
499.712006,488.000000,757.375977
499.712006,493.855988,763.231995
501.664001,501.664001,749.567993
509.471985,491.903992,763.231995
511.424011,489.951996,757.375977
507.519989,489.951996,757.375977
505.567993,491.903992,759.328003
505.567993,491.903992,765.184021
505.567993,491.903992,755.424011
513.375977,484.096008,757.375977
507.519989,491.903992,763.231995
507.519989,495.808014,767.135986
511.424011,499.712006,769.088013
511.424011,495.808014,769.088013
511.424011,499.712006,767.135986
509.471985,493.855988,769.088013
515.328003,507.519989,772.992004
513.375977,503.615997,763.231995
513.375977,505.567993,767.135986
515.328003,495.808014,771.039978
511.424011,501.664001,769.088013
517.280029,493.855988,765.184021
513.375977,501.664001,761.280029
513.375977,501.664001,769.088013
507.519989,501.664001,767.135986
503.615997,501.664001,771.039978
499.712006,499.712006,763.231995
505.567993,499.712006,763.231995
495.808014,505.567993,761.280029
497.760010,493.855988,759.328003
497.760010,505.567993,759.328003
493.855988,505.567993,771.039978
488.000000,499.712006,772.992004
484.096008,505.567993,769.088013
478.239990,503.615997,771.039978
486.048004,499.712006,765.184021
480.191986,503.615997,765.184021
478.239990,513.375977,753.471985
474.335999,509.471985,767.135986
472.384003,509.471985,765.184021
460.671997,505.567993,761.280029
458.720001,505.567993,769.088013
454.816010,513.375977,772.992004
445.056000,511.424011,772.992004
445.056000,511.424011,776.895996
450.911987,509.471985,778.848022
448.959991,505.567993,780.799988
452.864014,499.712006,780.799988
448.959991,507.519989,772.992004
447.007996,499.712006,778.848022
443.104004,497.760010,763.231995
437.247986,491.903992,755.424011
441.152008,488.000000,747.616028
437.247986,497.760010,741.760010
437.247986,499.712006,732.000000
433.343994,489.951996,733.952026
429.440002,488.000000,726.143982
417.727997,482.144012,728.096008
419.679993,489.951996,726.143982
411.872009,491.903992,726.143982
415.776001,493.855988,714.432007
415.776001,493.855988,714.432007
407.967987,501.664001,720.288025
407.967987,495.808014,718.335999
411.872009,489.951996,733.952026
407.967987,493.855988,722.239990
411.872009,505.567993,730.047974
415.776001,509.471985,728.096008
406.015991,509.471985,724.192017
409.920013,511.424011,728.096008
406.015991,503.615997,720.288025
409.920013,513.375977,726.143982
409.920013,515.328003,722.239990
400.160004,513.375977,714.432007
402.112000,515.328003,718.335999
409.920013,517.280029,724.192017
406.015991,517.280029,710.528015
404.063995,509.471985,714.432007
404.063995,507.519989,710.528015
409.920013,499.712006,714.432007
398.208008,497.760010,710.528015
409.920013,505.567993,718.335999
409.920013,501.664001,710.528015
421.631989,497.760010,718.335999
417.727997,488.000000,720.288025
419.679993,488.000000,714.432007
431.391998,484.096008,718.335999
421.631989,491.903992,728.096008
431.391998,493.855988,739.807983
435.295990,503.615997,749.567993
450.911987,517.280029,741.760010
450.911987,507.519989,753.471985
452.864014,509.471985,759.328003
462.623993,515.328003,774.943970
462.623993,511.424011,774.943970
466.528015,515.328003,786.656006
472.384003,511.424011,788.607971
470.432007,497.760010,790.559998
472.384003,509.471985,792.512024
482.144012,501.664001,794.463989
474.335999,501.664001,788.607971
480.191986,491.903992,788.607971
470.432007,497.760010,776.895996
478.239990,488.000000,778.848022
478.239990,488.000000,778.848022
472.384003,493.855988,774.943970
468.480011,489.951996,774.943970
478.239990,497.760010,767.135986
478.239990,482.144012,759.328003
480.191986,501.664001,757.375977
474.335999,489.951996,755.424011
470.432007,495.808014,753.471985
472.384003,489.951996,759.328003
468.480011,488.000000,761.280029
472.384003,484.096008,767.135986
464.575989,476.287994,774.943970
472.384003,484.096008,782.752014
478.239990,482.144012,784.703979
476.287994,474.335999,780.799988
482.144012,484.096008,790.559998
488.000000,468.480011,792.512024
480.191986,484.096008,794.463989
484.096008,486.048004,788.607971
488.000000,486.048004,792.512024
484.096008,484.096008,802.271973
488.000000,486.048004,782.752014
480.191986,489.951996,786.656006
488.000000,501.664001,792.512024
488.000000,491.903992,788.607971
480.191986,489.951996,798.367981
482.144012,482.144012,802.271973
484.096008,489.951996,784.703979
484.096008,484.096008,802.271973
505.567993,486.048004,808.127991
493.855988,482.144012,812.031982
503.615997,478.239990,815.935974
505.567993,470.432007,812.031982
509.471985,468.480011,817.888000
509.471985,480.191986,819.840027
503.615997,478.239990,833.504028
503.615997,480.191986,823.744019
509.471985,488.000000,831.552002
503.615997,482.144012,825.695984
497.760010,486.048004,819.840027
491.903992,497.760010,825.695984
486.048004,491.903992,817.888000
484.096008,497.760010,810.080017
478.239990,499.712006,817.888000
480.191986,501.664001,821.791992
474.335999,495.808014,815.935974
460.671997,497.760010,829.599976
458.720001,489.951996,835.455994
447.007996,474.335999,849.119995
452.864014,458.720001,853.023987
450.911987,454.816010,851.072021
454.816010,433.343994,862.783997
452.864014,435.295990,870.591980
447.007996,433.343994,874.495972
437.247986,447.007996,872.544006
431.391998,452.864014,870.591980
411.872009,464.575989,874.495972
406.015991,472.384003,866.687988
400.160004,460.671997,851.072021
402.112000,478.239990,847.168030
400.160004,484.096008,837.408020
400.160004,482.144012,831.552002
419.679993,484.096008,829.599976
368.928009,488.000000,813.984009
361.119995,513.375977,808.127991
349.407990,527.039978,806.176025
343.552002,501.664001,798.367981
376.735992,450.911987,780.799988
388.447998,456.768005,771.039978
388.447998,452.864014,772.992004
374.783997,447.007996,776.895996
361.119995,448.959991,778.848022
353.312012,468.480011,790.559998
335.743988,486.048004,792.512024
324.032013,464.575989,800.320007
331.839996,452.864014,806.176025
312.320007,462.623993,792.512024
314.272003,454.816010,798.367981
314.272003,448.959991,792.512024
302.559998,452.864014,790.559998
296.704010,452.864014,790.559998
292.799988,452.864014,792.512024
290.847992,460.671997,786.656006
279.135986,474.335999,763.231995
279.135986,484.096008,741.760010
283.040009,478.239990,722.239990
275.231995,489.951996,716.383972
275.231995,499.712006,696.864014
261.567993,505.567993,675.392029
253.759995,505.567993,653.919983
244.000000,497.760010,626.591980
234.240005,497.760010,614.880005
228.384003,499.712006,583.648010
224.479996,509.471985,558.271973
216.671997,482.144012,548.512024
199.104004,484.096008,527.039978
197.151993,509.471985,513.375977
187.391998,515.328003,505.567993
195.199997,527.039978,507.519989
189.343994,513.375977,501.664001
195.199997,509.471985,501.664001
199.104004,480.191986,497.760010
206.912003,448.959991,503.615997
210.815994,431.391998,523.135986
216.671997,406.015991,544.607971
222.528000,374.783997,587.552002
232.287994,345.503998,610.976013
234.240005,312.320007,636.351990
245.951996,271.328003,667.583984
255.712006,226.432007,692.960022
261.567993,203.007996,700.768005
269.376007,201.056000,726.143982
269.376007,183.488007,735.903992
263.519989,181.535995,755.424011
263.519989,181.535995,755.424011
263.519989,183.488007,747.616028
265.471985,189.343994,737.856018
265.471985,206.912003,728.096008
273.279999,214.720001,712.479980
267.424011,232.287994,708.575989
261.567993,247.904007,687.104004
261.567993,271.328003,671.487976
263.519989,284.992004,669.536011
273.279999,298.656006,665.632019
273.279999,306.463989,663.679993
283.040009,314.272003,657.823975
288.895996,302.559998,663.679993
290.847992,294.752014,671.487976
292.799988,273.279999,692.960022
312.320007,257.664001,702.719971
312.320007,251.807999,720.288025
316.223999,226.432007,735.903992
324.032013,210.815994,745.664001
335.743988,199.104004,757.375977
341.600006,175.679993,767.135986
353.312012,165.919998,771.039978
361.119995,162.016006,772.992004
361.119995,162.016006,778.848022
368.928009,152.255997,784.703979
368.928009,154.207993,790.559998
388.447998,142.496002,782.752014
386.496002,142.496002,772.992004
386.496002,152.255997,774.943970
396.256012,154.207993,772.992004
388.447998,154.207993,769.088013
386.496002,169.824005,772.992004
400.160004,189.343994,765.184021
382.592010,199.104004,751.520020
376.735992,208.863998,753.471985
357.216003,203.007996,763.231995
468.480011,230.335999,759.328003
603.168030,273.279999,728.096008
265.471985,255.712006,704.671997
476.287994,74.176003,808.127991
671.487976,105.407997,837.408020
515.328003,337.696014,792.512024
571.935974,265.471985,821.791992
546.559998,-66.367996,862.783997
474.335999,281.088013,841.312012
534.848022,743.711975,829.599976
579.744019,310.368011,876.447998
486.048004,-9.760000,897.919983
421.631989,564.127991,884.255981
478.239990,714.432007,903.776001
437.247986,171.776001,925.247986
427.488007,160.063995,897.919983
521.184021,447.007996,845.216003
589.504028,173.727997,827.648010
585.599976,-35.136002,817.888000
591.455994,126.879997,815.935974
618.783997,101.503998,812.031982
609.023987,27.327999,819.840027
640.255981,214.720001,821.791992
661.728027,204.960007,819.840027
640.255981,109.311996,819.840027
585.599976,339.648010,831.552002
519.231995,517.280029,868.640015
482.144012,427.488007,901.823975
437.247986,448.959991,903.776001
441.152008,568.031982,897.919983
486.048004,466.528015,895.968018
517.280029,314.272003,897.919983
544.607971,365.023987,878.400024
558.271973,365.023987,868.640015
569.984009,212.768005,866.687988
587.552002,179.584000,858.880005
575.840027,251.807999,841.312012
562.176025,216.671997,845.216003
534.848022,177.632004,866.687988
513.375977,242.048004,874.495972
497.760010,283.040009,868.640015
501.664001,226.432007,870.591980
513.375977,193.248001,860.831970
505.567993,230.335999,851.072021
497.760010,281.088013,845.216003
486.048004,283.040009,837.408020
482.144012,267.424011,833.504028
482.144012,310.368011,827.648010
484.096008,365.023987,813.984009
491.903992,349.407990,798.367981
491.903992,329.888000,800.320007
472.384003,361.119995,796.416016
462.623993,374.783997,792.512024
470.432007,361.119995,788.607971
474.335999,347.455994,800.320007
486.048004,357.216003,784.703979
489.951996,359.167999,790.559998
493.855988,343.552002,798.367981
484.096008,335.743988,796.416016
493.855988,361.119995,798.367981
480.191986,368.928009,788.607971
456.768005,368.928009,784.703979
450.911987,382.592010,780.799988
429.440002,396.256012,774.943970
421.631989,402.112000,757.375977
419.679993,388.447998,759.328003
431.391998,378.687988,737.856018
425.536011,376.735992,732.000000
433.343994,363.071991,726.143982
425.536011,361.119995,712.479980
431.391998,372.832001,702.719971
425.536011,374.783997,696.864014
443.104004,368.928009,694.911987
437.247986,380.640015,696.864014
433.343994,384.544006,679.296021
435.295990,390.399994,685.151978
431.391998,406.015991,671.487976
429.440002,415.776001,675.392029
431.391998,425.536011,671.487976
417.727997,425.536011,689.056030
419.679993,427.488007,677.343994
419.679993,427.488007,659.776001
411.872009,439.200012,663.679993
411.872009,431.391998,665.632019
402.112000,429.440002,648.064026
411.872009,427.488007,644.159973
409.920013,423.584015,638.304016
421.631989,417.727997,636.351990
406.015991,415.776001,624.640015
417.727997,419.679993,630.495972
423.584015,406.015991,630.495972
421.631989,407.967987,630.495972
413.824005,411.872009,628.544006
427.488007,407.967987,626.591980
427.488007,409.920013,634.400024
421.631989,409.920013,638.304016
433.343994,411.872009,651.968018
427.488007,425.536011,661.728027
433.343994,415.776001,661.728027
431.391998,419.679993,667.583984
437.247986,429.440002,675.392029
445.056000,425.536011,673.440002
454.816010,413.824005,683.200012
462.623993,419.679993,673.440002
470.432007,421.631989,681.247986
468.480011,421.631989,685.151978
482.144012,417.727997,700.768005
476.287994,431.391998,702.719971
497.760010,421.631989,706.624023
501.664001,431.391998,704.671997
507.519989,423.584015,710.528015
509.471985,437.247986,712.479980
525.088013,447.007996,716.383972
519.231995,445.056000,710.528015
528.992004,437.247986,722.239990
521.184021,431.391998,720.288025
530.943970,452.864014,714.432007
550.463989,443.104004,710.528015
548.512024,429.440002,712.479980
544.607971,435.295990,712.479980
540.703979,433.343994,718.335999
544.607971,431.391998,724.192017
546.559998,437.247986,724.192017
554.367981,441.152008,724.192017
562.176025,462.623993,726.143982
568.031982,470.432007,735.903992
562.176025,464.575989,735.903992
564.127991,480.191986,743.711975
569.984009,486.048004,732.000000
575.840027,486.048004,747.616028
583.648010,491.903992,745.664001
583.648010,491.903992,747.616028
597.312012,495.808014,745.664001
599.263977,499.712006,759.328003
601.216003,503.615997,749.567993
599.263977,503.615997,745.664001
603.168030,507.519989,747.616028
605.119995,505.567993,753.471985
614.880005,491.903992,753.471985
607.072021,495.808014,743.711975
605.119995,497.760010,743.711975
607.072021,486.048004,745.664001
622.687988,491.903992,741.760010
616.831970,489.951996,739.807983
616.831970,495.808014,741.760010
628.544006,486.048004,737.856018
630.495972,488.000000,745.664001
624.640015,488.000000,745.664001
626.591980,505.567993,732.000000
628.544006,505.567993,724.192017
632.447998,513.375977,720.288025
622.687988,515.328003,743.711975
624.640015,515.328003,735.903992
626.591980,525.088013,722.239990
636.351990,532.895996,726.143982
634.400024,523.135986,732.000000
628.544006,528.992004,726.143982
628.544006,538.752014,724.192017
636.351990,538.752014,722.239990
634.400024,538.752014,722.239990
632.447998,534.848022,724.192017
622.687988,546.559998,720.288025
624.640015,546.559998,716.383972
620.736023,534.848022,718.335999
618.783997,538.752014,726.143982
626.591980,532.895996,722.239990
612.927979,536.799988,728.096008
616.831970,544.607971,722.239990
609.023987,548.512024,726.143982
609.023987,534.848022,728.096008
605.119995,548.512024,722.239990
609.023987,548.512024,724.192017
607.072021,548.512024,722.239990
597.312012,546.559998,728.096008
595.359985,552.416016,722.239990
579.744019,552.416016,718.335999
585.599976,548.512024,724.192017
575.840027,560.223999,712.479980
577.791992,564.127991,720.288025
566.080017,560.223999,716.383972
564.127991,554.367981,714.432007
564.127991,550.463989,712.479980
558.271973,554.367981,710.528015
560.223999,546.559998,712.479980
554.367981,546.559998,716.383972
546.559998,542.656006,708.575989
544.607971,540.703979,700.768005
542.656006,534.848022,694.911987
536.799988,540.703979,694.911987
532.895996,542.656006,696.864014
534.848022,546.559998,696.864014
532.895996,544.607971,687.104004
530.943970,540.703979,691.007996
523.135986,550.463989,687.104004
519.231995,546.559998,675.392029
511.424011,550.463989,689.056030
513.375977,546.559998,669.536011
515.328003,548.512024,675.392029
515.328003,542.656006,669.536011
523.135986,544.607971,673.440002
513.375977,542.656006,659.776001
521.184021,534.848022,657.823975
509.471985,527.039978,653.919983
513.375977,540.703979,653.919983
515.328003,523.135986,653.919983
509.471985,527.039978,650.015991
495.808014,517.280029,644.159973
503.615997,515.328003,642.208008
521.184021,501.664001,640.255981
515.328003,472.384003,634.400024
528.992004,468.480011,636.351990
521.184021,466.528015,646.112000
511.424011,470.432007,642.208008
513.375977,476.287994,636.351990
521.184021,470.432007,651.968018
517.280029,472.384003,644.159973
507.519989,486.048004,659.776001
523.135986,491.903992,661.728027
528.992004,499.712006,665.632019
528.992004,505.567993,677.343994
540.703979,505.567993,687.104004
548.512024,501.664001,694.911987
552.416016,503.615997,700.768005
558.271973,491.903992,698.815979
558.271973,476.287994,726.143982
558.271973,476.287994,726.143982
560.223999,464.575989,743.711975
548.512024,462.623993,733.952026
556.320007,450.911987,743.711975
556.320007,433.343994,745.664001
554.367981,407.967987,741.760010
569.984009,398.208008,735.903992
571.935974,400.160004,730.047974
566.080017,390.399994,722.239990
566.080017,374.783997,712.479980
566.080017,366.976013,702.719971
560.223999,374.783997,698.815979
562.176025,370.880005,698.815979
560.223999,384.544006,692.960022
564.127991,388.447998,692.960022
546.559998,394.303986,692.960022
558.271973,390.399994,708.575989
564.127991,382.592010,702.719971
566.080017,374.783997,706.624023
566.080017,378.687988,712.479980
575.840027,372.832001,724.192017
569.984009,365.023987,726.143982
581.695984,351.359985,743.711975
577.791992,353.312012,751.520020
577.791992,343.552002,743.711975
581.695984,345.503998,747.616028
583.648010,349.407990,755.424011
587.552002,341.600006,751.520020
575.840027,324.032013,753.471985
569.984009,325.984009,749.567993
573.888000,312.320007,749.567993
569.984009,314.272003,735.903992
573.888000,320.127991,733.952026
571.935974,316.223999,728.096008
564.127991,314.272003,720.288025
569.984009,318.175995,714.432007
569.984009,304.511993,712.479980
573.888000,288.895996,708.575989
568.031982,283.040009,700.768005
571.935974,261.567993,708.575989
566.080017,288.895996,704.671997
569.984009,294.752014,720.288025
568.031982,296.704010,720.288025
564.127991,296.704010,712.479980
569.984009,316.223999,706.624023
564.127991,322.079987,724.192017
569.984009,324.032013,728.096008
571.935974,324.032013,728.096008
566.080017,325.984009,726.143982
569.984009,324.032013,730.047974
577.791992,333.791992,728.096008
575.840027,335.743988,735.903992
575.840027,320.127991,730.047974
562.176025,312.320007,732.000000
560.223999,296.704010,724.192017
556.320007,288.895996,730.047974
550.463989,296.704010,724.192017
550.463989,277.183990,716.383972
556.320007,253.759995,712.479980
556.320007,257.664001,700.768005
560.223999,263.519989,687.104004
550.463989,255.712006,694.911987
546.559998,255.712006,683.200012
550.463989,257.664001,681.247986
548.512024,267.424011,677.343994
554.367981,267.424011,671.487976
548.512024,275.231995,689.056030
546.559998,290.847992,691.007996
548.512024,290.847992,681.247986
556.320007,292.799988,685.151978
556.320007,284.992004,692.960022
560.223999,281.088013,698.815979
571.935974,284.992004,702.719971
569.984009,271.328003,700.768005
577.791992,259.615997,702.719971
573.888000,253.759995,704.671997
577.791992,242.048004,716.383972
581.695984,232.287994,716.383972
585.599976,240.095993,724.192017
585.599976,236.192001,718.335999
591.455994,222.528000,724.192017
597.312012,212.768005,716.383972
593.408020,216.671997,710.528015
605.119995,208.863998,718.335999
607.072021,206.912003,720.288025
607.072021,212.768005,712.479980
603.168030,206.912003,710.528015
601.216003,204.960007,714.432007
607.072021,208.863998,722.239990
616.831970,214.720001,722.239990
616.831970,214.720001,710.528015
618.783997,208.863998,714.432007
624.640015,212.768005,728.096008
616.831970,210.815994,728.096008
628.544006,201.056000,726.143982
620.736023,197.151993,730.047974
632.447998,189.343994,726.143982
636.351990,187.391998,737.856018
636.351990,189.343994,732.000000
640.255981,191.296005,732.000000
644.159973,187.391998,730.047974
646.112000,171.776001,730.047974
648.064026,175.679993,730.047974
650.015991,171.776001,724.192017
653.919983,171.776001,726.143982
651.968018,150.304001,724.192017
655.872009,165.919998,718.335999
661.728027,156.160004,722.239990
663.679993,154.207993,716.383972
657.823975,146.399994,720.288025
663.679993,142.496002,714.432007
663.679993,144.447998,722.239990
661.728027,154.207993,726.143982
673.440002,148.352005,724.192017
673.440002,148.352005,724.192017
681.247986,146.399994,724.192017
681.247986,150.304001,733.952026
685.151978,144.447998,732.000000
681.247986,150.304001,735.903992
679.296021,148.352005,739.807983
683.200012,148.352005,733.952026
689.056030,144.447998,730.047974
683.200012,140.544006,737.856018
685.151978,140.544006,747.616028
681.247986,136.639999,747.616028
683.200012,142.496002,735.903992
681.247986,140.544006,743.711975
685.151978,148.352005,732.000000
683.200012,134.688004,720.288025
689.056030,142.496002,726.143982
689.056030,128.832001,720.288025
683.200012,142.496002,718.335999
675.392029,138.591995,710.528015
681.247986,134.688004,712.479980
681.247986,142.496002,712.479980
677.343994,148.352005,714.432007
671.487976,150.304001,706.624023
663.679993,154.207993,698.815979
663.679993,144.447998,708.575989
673.440002,148.352005,698.815979
677.343994,134.688004,696.864014
679.296021,126.879997,691.007996
671.487976,134.688004,702.719971
665.632019,132.735992,691.007996
659.776001,140.544006,698.815979
659.776001,138.591995,696.864014
651.968018,144.447998,692.960022
657.823975,156.160004,687.104004
644.159973,163.968002,696.864014
651.968018,171.776001,683.200012
657.823975,175.679993,683.200012
650.015991,171.776001,683.200012
644.159973,171.776001,675.392029
650.015991,177.632004,681.247986
646.112000,177.632004,679.296021
640.255981,175.679993,681.247986
636.351990,173.727997,679.296021
634.400024,173.727997,677.343994
632.447998,173.727997,667.583984
626.591980,173.727997,671.487976
626.591980,158.112000,671.487976
622.687988,154.207993,669.536011
616.831970,142.496002,669.536011
616.831970,148.352005,661.728027
620.736023,160.063995,657.823975
609.023987,156.160004,657.823975
618.783997,167.871994,653.919983
616.831970,185.440002,651.968018
595.359985,193.248001,650.015991
599.263977,203.007996,657.823975
595.359985,214.720001,650.015991
595.359985,214.720001,648.064026
583.648010,232.287994,632.447998
591.455994,230.335999,642.208008
583.648010,226.432007,630.495972
579.744019,220.576004,638.304016
587.552002,212.768005,634.400024
577.791992,208.863998,634.400024
569.984009,210.815994,634.400024
569.984009,212.768005,628.544006
577.791992,203.007996,628.544006
568.031982,204.960007,624.640015
571.935974,195.199997,626.591980
562.176025,201.056000,620.736023
568.031982,204.960007,628.544006
573.888000,204.960007,616.831970
562.176025,199.104004,630.495972
560.223999,214.720001,626.591980
562.176025,228.384003,620.736023
564.127991,218.623993,618.783997
550.463989,228.384003,618.783997
544.607971,245.951996,618.783997
564.127991,247.904007,616.831970
552.416016,242.048004,616.831970
548.512024,240.095993,612.927979
552.416016,255.712006,618.783997
558.271973,236.192001,622.687988
554.367981,228.384003,601.216003
560.223999,218.623993,609.023987
552.416016,226.432007,601.216003
548.512024,230.335999,603.168030
550.463989,214.720001,610.976013
548.512024,210.815994,605.119995
554.367981,212.768005,599.263977
562.176025,208.863998,601.216003
556.320007,203.007996,593.408020
554.367981,210.815994,597.312012
546.559998,216.671997,593.408020
562.176025,195.199997,593.408020
562.176025,199.104004,589.504028
560.223999,197.151993,585.599976
554.367981,204.960007,579.744019
558.271973,199.104004,587.552002
560.223999,204.960007,581.695984
558.271973,189.343994,591.455994
552.416016,208.863998,595.359985
566.080017,199.104004,587.552002
569.984009,195.199997,589.504028
568.031982,193.248001,595.359985
562.176025,199.104004,585.599976
575.840027,183.488007,599.263977
575.840027,171.776001,573.888000
579.744019,175.679993,581.695984
573.888000,169.824005,591.455994
579.744019,171.776001,591.455994
583.648010,165.919998,585.599976
579.744019,165.919998,591.455994
595.359985,162.016006,573.888000
599.263977,154.207993,579.744019
591.455994,154.207993,583.648010
593.408020,144.447998,589.504028
589.504028,160.063995,585.599976
603.168030,154.207993,585.599976
599.263977,146.399994,579.744019
605.119995,158.112000,573.888000
618.783997,148.352005,573.888000
612.927979,146.399994,579.744019
614.880005,140.544006,579.744019
610.976013,148.352005,579.744019
610.976013,128.832001,587.552002
622.687988,134.688004,589.504028
628.544006,128.832001,583.648010
630.495972,128.832001,589.504028
636.351990,113.216003,589.504028
636.351990,122.975998,593.408020
636.351990,109.311996,593.408020
642.208008,113.216003,585.599976
638.304016,119.071999,599.263977
650.015991,119.071999,603.168030
661.728027,101.503998,603.168030
659.776001,109.311996,597.312012
669.536011,103.456001,595.359985
679.296021,93.695999,597.312012
683.200012,101.503998,599.263977
687.104004,105.407997,601.216003
679.296021,93.695999,597.312012
692.960022,101.503998,597.312012
692.960022,105.407997,595.359985
696.864014,103.456001,605.119995
692.960022,99.552002,597.312012
706.624023,103.456001,593.408020
702.719971,103.456001,597.312012
712.479980,105.407997,601.216003
718.335999,97.599998,605.119995
728.096008,97.599998,595.359985
737.856018,87.839996,593.408020
726.143982,101.503998,589.504028
730.047974,93.695999,599.263977
739.807983,95.648003,593.408020
743.711975,89.792000,603.168030
743.711975,99.552002,609.023987
747.616028,91.744003,603.168030
747.616028,99.552002,609.023987
749.567993,99.552002,609.023987
753.471985,99.552002,605.119995
757.375977,101.503998,609.023987
759.328003,91.744003,605.119995
761.280029,101.503998,607.072021
774.943970,103.456001,618.783997
767.135986,97.599998,612.927979
765.184021,93.695999,612.927979
774.943970,93.695999,609.023987
774.943970,103.456001,618.783997
769.088013,111.264000,620.736023
771.039978,109.311996,614.880005
778.848022,109.311996,622.687988
778.848022,107.360001,610.976013
782.752014,105.407997,605.119995
776.895996,101.503998,610.976013
776.895996,97.599998,610.976013
778.848022,105.407997,605.119995
786.656006,103.456001,601.216003
784.703979,103.456001,603.168030
792.512024,93.695999,587.552002
784.703979,95.648003,585.599976
790.559998,105.407997,583.648010
798.367981,109.311996,587.552002
794.463989,111.264000,587.552002
796.416016,105.407997,577.791992
794.463989,109.311996,583.648010
782.752014,109.311996,583.648010
796.416016,109.311996,577.791992
792.512024,115.167999,569.984009
790.559998,124.928001,560.223999
794.463989,119.071999,562.176025
790.559998,119.071999,556.320007
792.512024,117.120003,550.463989
798.367981,122.975998,548.512024
804.223999,132.735992,548.512024
790.559998,109.311996,532.895996
804.223999,122.975998,523.135986
798.367981,128.832001,536.799988
790.559998,128.832001,540.703979
806.176025,136.639999,530.943970
806.176025,126.879997,528.992004
800.320007,130.783997,521.184021
796.416016,128.832001,528.992004
806.176025,142.496002,525.088013
810.080017,144.447998,519.231995
800.320007,150.304001,521.184021
806.176025,156.160004,515.328003
806.176025,154.207993,521.184021
806.176025,152.255997,515.328003
800.320007,158.112000,519.231995
804.223999,160.063995,525.088013
808.127991,152.255997,515.328003
821.791992,162.016006,519.231995
813.984009,173.727997,519.231995
823.744019,183.488007,517.280029
813.984009,181.535995,527.039978
806.176025,183.488007,521.184021
806.176025,189.343994,525.088013
802.271973,189.343994,523.135986
806.176025,191.296005,527.039978
810.080017,199.104004,525.088013
808.127991,191.296005,517.280029
810.080017,189.343994,509.471985
812.031982,189.343994,507.519989
796.416016,193.248001,505.567993
794.463989,199.104004,513.375977
798.367981,191.296005,499.712006
788.607971,197.151993,501.664001
790.559998,187.391998,497.760010
794.463989,193.248001,491.903992
788.607971,171.776001,493.855988
790.559998,171.776001,489.951996
790.559998,171.776001,476.287994
796.416016,160.063995,476.287994
788.607971,167.871994,466.528015
784.703979,158.112000,472.384003
798.367981,169.824005,472.384003
784.703979,165.919998,472.384003
778.848022,165.919998,464.575989
776.895996,156.160004,452.864014
784.703979,156.160004,464.575989
782.752014,158.112000,460.671997
784.703979,156.160004,462.623993
776.895996,165.919998,458.720001
782.752014,173.727997,456.768005
784.703979,162.016006,456.768005
786.656006,160.063995,456.768005
790.559998,177.632004,452.864014
788.607971,179.584000,456.768005
788.607971,177.632004,454.816010
800.320007,156.160004,447.007996
800.320007,156.160004,452.864014
796.416016,173.727997,450.911987
796.416016,185.440002,458.720001
802.271973,191.296005,458.720001
800.320007,167.871994,445.056000
800.320007,154.207993,448.959991
806.176025,163.968002,441.152008
802.271973,173.727997,431.391998
808.127991,160.063995,441.152008
812.031982,156.160004,427.488007
815.935974,148.352005,435.295990
815.935974,146.399994,437.247986
817.888000,134.688004,435.295990
819.840027,132.735992,441.152008
823.744019,121.024002,445.056000
835.455994,124.928001,452.864014
829.599976,126.879997,445.056000
835.455994,122.975998,441.152008
856.927979,124.928001,435.295990
858.880005,117.120003,439.200012
858.880005,119.071999,433.343994
870.591980,117.120003,431.391998
866.687988,121.024002,429.440002
878.400024,119.071999,431.391998
888.159973,111.264000,433.343994
886.208008,107.360001,421.631989
886.208008,119.071999,431.391998
905.728027,111.264000,435.295990
903.776001,115.167999,443.104004
915.487976,103.456001,462.623993
921.343994,105.407997,478.239990
925.247986,99.552002,478.239990
931.104004,97.599998,493.855988
946.719971,87.839996,495.808014
946.719971,83.935997,493.855988
962.335999,81.984001,499.712006
964.288025,74.176003,519.231995
977.952026,70.272003,530.943970
983.807983,68.320000,544.607971
993.567993,64.416000,554.367981
1005.280029,58.560001,566.080017
1007.231995,58.560001,581.695984
1011.135986,50.751999,595.359985
1016.992004,52.703999,601.216003
1022.848022,52.703999,609.023987
1048.223999,48.799999,624.640015
1038.463989,48.799999,634.400024
1040.416016,44.896000,636.351990
1046.271973,39.040001,650.015991
1042.368042,35.136002,661.728027
1056.031982,42.944000,659.776001
1059.936035,31.232000,667.583984
1067.744019,19.520000,677.343994
1071.647949,25.375999,692.960022
1075.552002,25.375999,706.624023
1073.599976,25.375999,704.671997
1077.504028,33.183998,708.575989
1077.504028,15.616000,702.719971
1087.264038,33.183998,700.768005
1089.215942,31.232000,692.960022
1091.167969,40.992001,694.911987
1085.312012,44.896000,694.911987
1085.312012,44.896000,704.671997
1097.024048,46.848000,708.575989
1100.927979,44.896000,708.575989
1108.735962,52.703999,710.528015
1108.735962,42.944000,722.239990
1104.832031,44.896000,722.239990
1093.119995,52.703999,722.239990
1098.975952,54.655998,726.143982
1104.832031,48.799999,722.239990
1100.927979,52.703999,726.143982
1097.024048,46.848000,728.096008
1100.927979,46.848000,724.192017
1097.024048,46.848000,732.000000
1098.975952,52.703999,730.047974
1098.975952,54.655998,726.143982
1089.215942,52.703999,722.239990
1097.024048,58.560001,720.288025
1085.312012,54.655998,720.288025
1093.119995,46.848000,716.383972
1085.312012,48.799999,710.528015
1075.552002,52.703999,704.671997
1079.456055,54.655998,698.815979
1075.552002,58.560001,694.911987
1071.647949,52.703999,691.007996
1071.647949,56.608002,687.104004
1057.984009,62.464001,683.200012
1067.744019,58.560001,669.536011
1059.936035,56.608002,667.583984
1056.031982,56.608002,659.776001
1048.223999,62.464001,648.064026
1042.368042,62.464001,634.400024
1046.271973,76.127998,628.544006
1046.271973,62.464001,618.783997
1038.463989,70.272003,603.168030
1032.608032,78.080002,589.504028
1026.751953,83.935997,575.840027
1016.992004,91.744003,562.176025
1007.231995,111.264000,546.559998
1001.375977,111.264000,544.607971
1001.375977,109.311996,532.895996
997.471985,109.311996,523.135986
987.711975,122.975998,505.567993
979.903992,117.120003,493.855988
977.952026,121.024002,480.191986
972.096008,122.975998,480.191986
974.047974,122.975998,486.048004
962.335999,119.071999,478.239990
954.528015,117.120003,476.287994
950.624023,122.975998,464.575989
948.671997,101.503998,466.528015
944.768005,107.360001,464.575989
946.719971,109.311996,458.720001
942.815979,99.552002,458.720001
946.719971,103.456001,460.671997
938.911987,101.503998,448.959991
944.768005,101.503998,458.720001
940.864014,103.456001,450.911987
938.911987,103.456001,450.911987
940.864014,89.792000,441.152008
942.815979,85.888000,454.816010
936.960022,76.127998,441.152008
929.151978,81.984001,439.200012
940.864014,78.080002,443.104004
931.104004,72.223999,431.391998
925.247986,76.127998,431.391998
933.056030,78.080002,425.536011
931.104004,76.127998,423.584015
921.343994,66.367996,409.920013
915.487976,81.984001,407.967987
909.632019,87.839996,404.063995
917.440002,85.888000,392.351990
907.679993,74.176003,386.496002
917.440002,76.127998,370.880005
923.296021,83.935997,380.640015
911.583984,83.935997,382.592010
911.583984,85.888000,380.640015
915.487976,87.839996,370.880005
913.536011,80.031998,370.880005
913.536011,80.031998,370.880005
915.487976,74.176003,376.735992
905.728027,72.223999,374.783997
913.536011,74.176003,372.832001
905.728027,74.176003,374.783997
913.536011,64.416000,380.640015
907.679993,74.176003,374.783997
897.919983,70.272003,380.640015
899.872009,80.031998,368.928009
897.919983,85.888000,368.928009
892.064026,74.176003,363.071991
897.919983,91.744003,365.023987
892.064026,87.839996,357.216003
892.064026,91.744003,355.264008
897.919983,97.599998,376.735992
892.064026,95.648003,353.312012
905.728027,93.695999,353.312012
911.583984,89.792000,351.359985
903.776001,87.839996,353.312012
911.583984,87.839996,353.312012
901.823975,95.648003,339.648010
907.679993,85.888000,341.600006
907.679993,81.984001,341.600006
901.823975,83.935997,341.600006
903.776001,76.127998,337.696014
894.015991,83.935997,337.696014
899.872009,81.984001,327.936005
903.776001,74.176003,322.079987
897.919983,83.935997,314.272003
899.872009,78.080002,312.320007
899.872009,81.984001,322.079987
907.679993,83.935997,314.272003
899.872009,80.031998,312.320007
899.872009,85.888000,310.368011
907.679993,89.792000,308.415985
901.823975,97.599998,302.559998
894.015991,93.695999,290.847992
907.679993,93.695999,294.752014
907.679993,93.695999,288.895996
913.536011,83.935997,288.895996
909.632019,81.984001,298.656006
911.583984,91.744003,296.704010
917.440002,95.648003,300.608002
917.440002,93.695999,306.463989
927.200012,93.695999,308.415985
931.104004,97.599998,310.368011
929.151978,97.599998,316.223999
923.296021,101.503998,314.272003
927.200012,119.071999,314.272003
915.487976,111.264000,320.127991
935.007996,99.552002,327.936005
944.768005,115.167999,324.032013
933.056030,113.216003,331.839996
958.432007,122.975998,341.600006
948.671997,124.928001,351.359985
952.575989,126.879997,363.071991
952.575989,132.735992,376.735992
950.624023,132.735992,384.544006
948.671997,128.832001,394.303986
958.432007,130.783997,406.015991
977.952026,136.639999,413.824005
977.952026,130.783997,427.488007
981.856018,124.928001,435.295990
991.616028,117.120003,441.152008
993.567993,122.975998,447.007996
1001.375977,132.735992,464.575989
1009.184021,126.879997,478.239990
1009.184021,122.975998,474.335999
1013.088013,115.167999,486.048004
1013.088013,117.120003,482.144012
1011.135986,140.544006,486.048004
1016.992004,136.639999,493.855988
1011.135986,136.639999,503.615997
1020.895996,136.639999,513.375977
1022.848022,142.496002,519.231995
1016.992004,138.591995,523.135986
1018.943970,146.399994,540.703979
1024.800049,138.591995,527.039978
1024.800049,138.591995,528.992004
1032.608032,142.496002,536.799988
1030.656006,138.591995,530.943970
1054.079956,124.928001,538.752014
1059.936035,111.264000,534.848022
1061.887939,119.071999,546.559998
1057.984009,140.544006,546.559998
1050.176025,124.928001,552.416016
1046.271973,130.783997,554.367981
1036.511963,144.447998,554.367981
1036.511963,162.016006,571.935974
1026.751953,158.112000,577.791992
1015.039978,156.160004,569.984009
1024.800049,156.160004,573.888000
1024.800049,162.016006,575.840027
1032.608032,162.016006,562.176025
1026.751953,152.255997,550.463989
1030.656006,158.112000,544.607971
1044.319946,146.399994,536.799988
1044.319946,126.879997,538.752014
1046.271973,124.928001,536.799988
1056.031982,113.216003,540.703979
1052.128052,105.407997,538.752014
1052.128052,99.552002,519.231995
1026.751953,101.503998,517.280029
1022.848022,103.456001,505.567993
1028.703979,76.127998,489.951996
995.520020,60.512001,484.096008
1003.328003,44.896000,482.144012
1001.375977,17.568001,486.048004
1013.088013,13.664000,470.432007
997.471985,5.856000,458.720001
985.760010,-27.327999,448.959991
976.000000,-81.984001,425.536011
987.711975,-74.176003,423.584015
985.760010,-29.280001,409.920013
974.047974,-54.655998,400.160004
976.000000,-87.839996,398.208008
960.383972,-91.744003,388.447998
940.864014,-52.703999,370.880005
935.007996,-42.944000,359.167999
936.960022,-68.320000,353.312012
944.768005,-62.464001,355.264008
935.007996,-46.848000,343.552002
935.007996,-48.799999,337.696014
931.104004,-58.560001,329.888000
927.200012,-44.896000,322.079987
940.864014,-29.280001,308.415985
950.624023,-27.327999,298.656006
974.047974,-31.232000,294.752014
1009.184021,-52.703999,281.088013
1075.552002,-52.703999,261.567993
1040.416016,-35.136002,259.615997
1034.560059,-37.088001,257.664001
1042.368042,-40.992001,245.951996
1026.751953,-83.935997,259.615997
999.424011,-29.280001,259.615997
964.288025,0.000000,277.183990
950.624023,-39.040001,286.944000
960.383972,-103.456001,304.511993
936.960022,-52.703999,304.511993
897.919983,1.952000,318.175995
858.880005,-48.799999,331.839996
895.968018,-132.735992,341.600006
907.679993,-128.832001,331.839996
895.968018,-56.608002,333.791992
860.831970,-42.944000,322.079987
860.831970,-107.360001,322.079987
866.687988,-163.968002,308.415985
862.783997,-107.360001,294.752014
853.023987,-39.040001,284.992004
854.976013,-72.223999,277.183990
868.640015,-146.399994,265.471985
884.255981,-138.591995,257.664001
878.400024,-56.608002,257.664001
866.687988,-27.327999,244.000000
854.976013,-101.503998,232.287994
864.736023,-140.544006,228.384003
878.400024,-109.311996,218.623993
886.208008,-58.560001,206.912003
872.544006,-76.127998,201.056000
882.304016,-99.552002,187.391998
872.544006,-103.456001,187.391998
860.831970,-66.367996,167.871994
868.640015,-42.944000,165.919998
860.831970,-60.512001,154.207993
851.072021,-81.984001,158.112000
864.736023,-62.464001,158.112000
856.927979,-35.136002,150.304001
849.119995,-33.183998,140.544006
854.976013,-62.464001,152.255997
856.927979,-62.464001,156.160004
853.023987,-40.992001,158.112000
845.216003,-31.232000,162.016006
845.216003,-44.896000,162.016006
845.216003,-54.655998,162.016006
853.023987,-39.040001,160.063995
843.263977,-29.280001,158.112000
854.976013,-40.992001,163.968002
864.736023,-40.992001,165.919998
872.544006,-42.944000,160.063995
864.736023,-46.848000,158.112000
872.544006,-35.136002,146.399994
858.880005,-46.848000,140.544006
853.023987,-33.183998,140.544006
853.023987,-9.760000,146.399994
856.927979,-27.327999,138.591995
854.976013,-33.183998,142.496002
858.880005,-17.568001,134.688004
860.831970,-11.712000,136.639999
847.168030,-15.616000,126.879997
851.072021,-17.568001,115.167999
831.552002,-3.904000,107.360001
819.840027,1.952000,99.552002
825.695984,-7.808000,93.695999
813.984009,-13.664000,81.984001
813.984009,13.664000,81.984001
812.031982,17.568001,78.080002
806.176025,3.904000,60.512001
776.895996,11.712000,46.848000
767.135986,27.327999,27.327999
771.039978,19.520000,25.375999
769.088013,9.760000,17.568001
790.559998,19.520000,7.808000
804.223999,23.424000,-5.856000
880.351990,3.904000,-17.568001
788.607971,-3.904000,-15.616000
767.135986,244.000000,-35.136002
704.671997,240.095993,-48.799999
724.192017,201.056000,-66.367996
733.952026,324.032013,-58.560001
788.607971,337.696014,-58.560001
800.320007,228.384003,-50.751999
823.744019,269.376007,-35.136002
829.599976,316.223999,-19.520000
806.176025,220.576004,-9.760000
862.783997,212.768005,25.375999
921.343994,232.287994,56.608002
936.960022,29.280001,66.367996
899.872009,109.311996,93.695999
895.968018,298.656006,128.832001
884.255981,181.535995,169.824005
913.536011,27.327999,179.584000
927.200012,107.360001,232.287994
925.247986,167.871994,255.712006
958.432007,1.952000,296.704010
991.616028,-105.407997,337.696014
999.424011,-54.655998,380.640015
1005.280029,78.080002,402.112000
966.239990,160.063995,437.247986
989.664001,109.311996,482.144012
1013.088013,-19.520000,501.664001
1007.231995,17.568001,515.328003
997.471985,74.176003,525.088013
993.567993,31.232000,538.752014
1009.184021,-91.744003,540.703979
993.567993,-78.080002,538.752014
991.616028,-87.839996,527.039978
1005.280029,-251.807999,507.519989
1056.031982,-365.023987,503.615997
1085.312012,-300.608002,497.760010
1063.839966,-193.248001,501.664001
1028.703979,-148.352005,489.951996
849.119995,40.992001,753.471985
927.200012,-189.343994,1054.079956
942.815979,-948.671997,833.504028
1104.832031,-669.536011,505.567993
1200.479980,-124.928001,363.071991
1079.456055,-203.007996,402.112000
1054.079956,-368.928009,536.799988
1028.703979,-435.295990,642.208008
1016.992004,-503.615997,558.271973
1056.031982,-294.752014,433.343994
1106.784058,-181.535995,384.544006
593.408020,-363.071991,486.048004
1016.992004,-318.175995,591.455994
1028.703979,-421.631989,579.744019
1147.776001,-478.239990,519.231995
1227.807983,-425.536011,513.375977
1145.823975,-324.032013,542.656006
1093.119995,-333.791992,528.992004
1022.848022,-441.152008,523.135986
1009.184021,-445.056000,511.424011
1083.359985,-421.631989,466.528015
1100.927979,-279.135986,407.967987
1116.543945,19.520000,376.735992
1091.167969,95.648003,359.167999
1020.895996,17.568001,355.264008
1038.463989,7.808000,339.648010
1032.608032,5.856000,300.608002
1034.560059,91.744003,273.279999
1044.319946,185.440002,261.567993
1026.751953,189.343994,251.807999
1011.135986,130.783997,210.815994
970.143982,146.399994,191.296005
958.432007,179.584000,187.391998
936.960022,206.912003,175.679993
933.056030,220.576004,154.207993
931.104004,191.296005,132.735992
897.919983,175.679993,121.024002
868.640015,122.975998,134.688004
728.096008,-93.695999,195.199997
1112.640015,-361.119995,165.919998
938.911987,-620.736023,230.335999
1116.543945,-583.648010,267.424011
1016.992004,-511.424011,263.519989
993.567993,-388.447998,197.151993
839.359985,-185.440002,128.832001
913.536011,17.568001,44.896000
870.591980,124.928001,1.952000
956.479980,80.031998,7.808000
1001.375977,-99.552002,29.280001
1020.895996,-318.175995,46.848000
1022.848022,-450.911987,54.655998
1022.848022,-462.623993,52.703999
1016.992004,-404.063995,56.608002
970.143982,-265.471985,50.751999
938.911987,-80.031998,31.232000
890.112000,87.839996,25.375999
895.968018,193.248001,29.280001
901.823975,136.639999,25.375999
909.632019,-17.568001,27.327999
913.536011,-191.296005,27.327999
907.679993,-283.040009,25.375999
919.392029,-247.904007,27.327999
936.960022,-173.727997,40.992001
946.719971,-119.071999,50.751999
958.432007,-160.063995,50.751999
952.575989,-271.328003,87.839996
966.239990,-314.272003,105.407997
958.432007,-208.863998,126.879997
944.768005,72.223999,167.871994
960.383972,439.200012,214.720001
960.383972,669.536011,288.895996
983.807983,681.247986,368.928009
1009.184021,505.567993,413.824005
1030.656006,232.287994,429.440002
1011.135986,-19.520000,425.536011
1007.231995,-113.216003,423.584015
995.520020,-5.856000,411.872009
1120.447998,222.528000,374.783997
1038.463989,404.063995,349.407990
1108.735962,361.119995,277.183990
987.711975,70.272003,232.287994
895.968018,-27.327999,204.960007
921.343994,156.160004,160.063995
972.096008,300.608002,136.639999
1024.800049,263.519989,146.399994
1038.463989,136.639999,144.447998
999.424011,-136.639999,154.207993
1011.135986,-407.967987,158.112000
1040.416016,-433.343994,136.639999
1028.703979,-210.815994,101.503998
989.664001,111.264000,97.599998
977.952026,341.600006,97.599998
942.815979,415.776001,101.503998
946.719971,238.143997,85.888000
948.671997,5.856000,87.839996
954.528015,-124.928001,81.984001
950.624023,-173.727997,64.416000
995.520020,-119.071999,52.703999
997.471985,31.232000,40.992001
977.952026,162.016006,35.136002
983.807983,187.391998,35.136002
1003.328003,121.024002,44.896000
1009.184021,27.327999,68.320000
1011.135986,-64.416000,76.127998
977.952026,-117.120003,87.839996
948.671997,-87.839996,91.744003
929.151978,27.327999,93.695999
935.007996,179.584000,93.695999
929.151978,294.752014,93.695999
927.200012,433.343994,83.935997
919.392029,577.791992,115.167999
935.007996,441.152008,144.447998
958.432007,78.080002,189.343994
993.567993,-404.063995,204.960007
1034.560059,-749.567993,214.720001
1124.352051,-704.671997,189.343994
1036.511963,-417.727997,165.919998
1001.375977,-70.272003,109.311996
769.088013,175.679993,93.695999
841.312012,388.447998,37.088001
905.728027,314.272003,5.856000
921.343994,-95.648003,0.000000
956.479980,-365.023987,-1.952000
1048.223999,-380.640015,-5.856000
1050.176025,-419.679993,15.616000
1098.975952,-333.791992,37.088001
1085.312012,-134.688004,72.223999
1040.416016,-17.568001,93.695999
1030.656006,52.703999,115.167999
1016.992004,122.975998,126.879997
985.760010,80.031998,134.688004
1009.184021,-50.751999,136.639999
1003.328003,-97.599998,140.544006
1026.751953,-134.688004,130.783997
1026.751953,-162.016006,122.975998
1015.039978,-122.975998,107.360001
1015.039978,-54.655998,89.792000
991.616028,-15.616000,80.031998
983.807983,11.712000,50.751999
1001.375977,5.856000,31.232000
991.616028,-27.327999,19.520000
993.567993,-46.848000,17.568001
993.567993,-58.560001,-11.712000
993.567993,-62.464001,-23.424000
997.471985,-62.464001,-46.848000
985.760010,-70.272003,-56.608002
977.952026,-70.272003,-81.984001
956.479980,-58.560001,-124.928001
948.671997,-13.664000,-152.255997
940.864014,39.040001,-156.160004
936.960022,60.512001,-140.544006
933.056030,76.127998,-140.544006
960.383972,83.935997,-124.928001
958.432007,48.799999,-111.264000
981.856018,-21.472000,-109.311996
985.760010,-111.264000,-99.552002
985.760010,-124.928001,-101.503998
985.760010,-72.223999,-111.264000
954.528015,-35.136002,-107.360001
950.624023,-19.520000,-121.024002
956.479980,37.088001,-146.399994
944.768005,46.848000,-160.063995
909.632019,74.176003,-195.199997
895.968018,162.016006,-210.815994
905.728027,275.231995,-189.343994
907.679993,316.223999,-158.112000
919.392029,179.584000,-122.975998
952.575989,-167.871994,-134.688004
993.567993,-538.752014,-152.255997
1030.656006,-776.895996,-163.968002
1001.375977,-905.728027,-165.919998
938.911987,-819.840027,-158.112000
874.495972,-415.776001,-154.207993
802.271973,162.016006,-162.016006
812.031982,556.320007,-187.391998
849.119995,513.375977,-228.384003
872.544006,93.695999,-257.664001
950.624023,-464.575989,-314.272003
935.007996,-835.455994,-365.023987
880.351990,-765.184021,-398.208008
825.695984,-300.608002,-439.200012
874.495972,255.712006,-554.367981
821.791992,468.480011,-640.255981
741.760010,325.984009,-724.192017
653.919983,113.216003,-747.616028
769.088013,-9.760000,-810.080017
755.424011,-160.063995,-847.168030
730.047974,-228.384003,-880.351990
929.151978,-187.391998,-956.479980
794.463989,-177.632004,-972.096008
854.976013,208.863998,-958.432007
882.304016,970.143982,-854.976013
862.783997,1288.319946,-683.200012
870.591980,677.343994,-554.367981
989.664001,-365.023987,-488.000000
1015.039978,-1321.504028,-411.872009
1054.079956,-1838.784058,-335.743988
929.151978,-1436.671997,-269.376007
880.351990,-327.936005,-325.984009
888.159973,696.864014,-366.976013
782.752014,1220.000000,-382.592010
607.072021,1151.680054,-333.791992
919.392029,495.808014,-452.864014
962.335999,-503.615997,-484.096008
1157.536011,-1313.696045,-556.320007
1251.232056,-1667.008057,-640.255981
1182.911987,-1577.215942,-634.400024
1104.832031,-499.712006,-530.943970
798.367981,870.591980,-316.223999
1015.039978,1493.280029,-292.799988
958.432007,1581.119995,-245.951996
1087.264038,1225.855957,-265.471985
1018.943970,-101.503998,-242.048004
1054.079956,-1674.816040,-230.335999
1077.504028,-2346.303955,-247.904007
1034.560059,-1912.959961,-343.552002
935.007996,-921.343994,-454.816010
1001.375977,306.463989,-622.687988
1362.495972,1301.984009,-659.776001
681.247986,1967.615967,-355.264008
815.935974,2285.791992,-242.048004
837.408020,1946.144043,-89.792000
929.151978,-214.720001,-64.416000
1171.199951,-2240.895996,-224.479996
1126.303955,-2765.983887,-304.511993
1005.280029,-1641.631958,-331.839996
827.648010,265.471985,-345.503998
835.455994,1622.112061,-419.679993
1116.543945,1924.671997,-564.127991
1198.527954,1136.063965,-632.447998
1151.680054,-363.071991,-659.776001
1015.039978,-1337.119995,-650.015991
1093.119995,-1196.576050,-665.632019
1501.088013,-335.743988,-763.231995
1356.640015,253.759995,-644.159973
1071.647949,530.943970,-400.160004
1216.095947,683.200012,-259.615997
1118.495972,1122.400024,-72.223999
1294.176025,1549.887939,-103.456001
1247.328003,1832.927979,-142.496002
1151.680054,1914.911987,-210.815994
1309.791992,1953.952026,-318.175995
1208.287964,1977.375977,-372.832001
989.664001,1973.472046,-421.631989
974.047974,1782.176025,-491.903992
1128.255981,1553.791992,-589.504028
892.064026,673.440002,-569.984009
1128.255981,-1952.000000,-702.719971
1305.887939,-3925.471924,-640.255981
962.335999,-3609.248047,-366.976013
1009.184021,-1102.880005,-341.600006
812.031982,1204.384033,-337.696014
1259.040039,1706.047974,-573.888000
493.855988,1791.936035,-411.872009
888.159973,1637.728027,-609.023987
679.296021,614.880005,-659.776001
747.616028,-1588.927979,-749.567993
956.479980,-2812.832031,-769.088013
985.760010,-2765.983887,-726.143982
1085.312012,-1735.328003,-710.528015
1071.647949,-191.296005,-642.208008
1077.504028,732.000000,-544.607971
1300.031982,790.559998,-501.664001
1383.968018,581.695984,-472.384003
1530.368042,327.936005,-435.295990
1469.855957,167.871994,-316.223999
1403.488037,-48.799999,-163.968002
1358.592041,-624.640015,-48.799999
1358.592041,-935.007996,7.808000
1303.936035,-860.831970,56.608002
1284.416016,-470.432007,76.127998
1249.280029,64.416000,37.088001
1301.984009,478.239990,-25.375999
1313.696045,679.296021,-39.040001
1454.239990,767.135986,-117.120003
1594.784058,786.656006,-201.056000
1264.895996,774.943970,-74.176003
1739.232056,691.007996,-220.576004
1672.864014,542.656006,-146.399994
1668.959961,322.079987,-56.608002
1561.599976,355.264008,52.703999
1614.303955,398.208008,107.360001
1524.511963,238.143997,216.671997
1288.319946,185.440002,331.839996
1653.343994,331.839996,236.192001
1940.287964,222.528000,165.919998
1626.015991,68.320000,210.815994
1569.407959,251.807999,152.255997
966.239990,113.216003,310.368011
1003.328003,35.136002,249.856003
1729.472046,337.696014,-33.183998
1897.343994,368.928009,-171.776001
1423.008057,-187.391998,-35.136002
1485.472046,-769.088013,-87.839996
1510.848022,-895.968018,-132.735992
1454.239990,-704.671997,-230.335999
1594.784058,-601.216003,-267.424011
1727.520020,-445.056000,1.952000
1352.735962,-624.640015,882.304016
1858.303955,-1508.895996,2014.463989
2674.239990,-2479.040039,3283.263916
3052.927979,-2453.664062,4128.479980
3101.728027,-1309.791992,3671.711914
3185.664062,218.623993,2139.392090
3250.080078,460.671997,1259.040039
2771.840088,128.832001,1095.072021
2529.791992,-249.856003,618.783997
2096.447998,-142.496002,-11.712000
1684.576050,175.679993,-587.552002
1071.647949,292.799988,-944.768005
880.351990,253.759995,-1190.719971
269.376007,374.783997,-1264.895996
56.608002,509.471985,-1436.671997
-177.632004,609.023987,-1475.712036
-99.552002,603.168030,-1360.543945
117.120003,450.911987,-1098.975952
460.671997,277.183990,-823.744019
977.952026,236.192001,-620.736023
1354.687988,124.928001,-448.959991
1577.215942,-46.848000,-226.432007
1678.719971,-171.776001,-40.992001
1633.823975,-380.640015,25.375999
1376.160034,-484.096008,5.856000
1272.703979,-528.992004,-218.623993
1200.479980,-610.976013,-513.375977
1046.271973,-380.640015,-730.047974
819.840027,119.071999,-776.895996
685.151978,341.600006,-747.616028
669.536011,458.720001,-745.664001
716.383972,597.312012,-761.280029
691.007996,595.359985,-716.383972
632.447998,454.816010,-632.447998
702.719971,203.007996,-573.888000
854.976013,-107.360001,-495.808014
1040.416016,-286.944000,-380.640015
1163.391968,-337.696014,-308.415985
1198.527954,-333.791992,-273.279999
1184.864014,-253.759995,-275.231995
1169.248047,-124.928001,-312.320007
1079.456055,5.856000,-353.312012
976.000000,107.360001,-380.640015
874.495972,171.776001,-400.160004
897.919983,105.407997,-435.295990
931.104004,-9.760000,-433.343994
1044.319946,-81.984001,-431.391998
1093.119995,-103.456001,-400.160004
1110.687988,-91.744003,-382.592010
1059.936035,-66.367996,-361.119995
1046.271973,-23.424000,-370.880005
1011.135986,15.616000,-374.783997
1022.848022,15.616000,-398.208008
1057.984009,-15.616000,-417.727997
1108.735962,-52.703999,-394.303986
1161.439941,-122.975998,-347.455994
1204.384033,-197.151993,-316.223999
1225.855957,-242.048004,-314.272003
1202.432007,-261.567993,-296.704010
1188.767944,-273.279999,-284.992004
1149.728027,-257.664001,-294.752014
1104.832031,-204.960007,-308.415985
1089.215942,-132.735992,-331.839996
1071.647949,-66.367996,-331.839996
1075.552002,-7.808000,-308.415985
1102.880005,44.896000,-269.376007
1126.303955,68.320000,-216.671997
1141.920044,124.928001,-183.488007
1155.583984,177.632004,-171.776001
1159.488037,226.432007,-152.255997
1151.680054,226.432007,-146.399994
1155.583984,228.384003,-173.727997
1138.015991,203.007996,-193.248001
1116.543945,150.304001,-214.720001
1097.024048,111.264000,-247.904007
1061.887939,66.367996,-284.992004
1042.368042,21.472000,-304.511993
1016.992004,-9.760000,-310.368011
999.424011,-46.848000,-296.704010
983.807983,-70.272003,-271.328003
985.760010,-66.367996,-273.279999
993.567993,-60.512001,-300.608002
968.192017,-64.416000,-300.608002
960.383972,-33.183998,-310.368011
960.383972,-21.472000,-310.368011
954.528015,-5.856000,-337.696014
956.479980,-25.375999,-347.455994
946.719971,-25.375999,-347.455994
962.335999,-21.472000,-347.455994
962.335999,-42.944000,-345.503998
960.383972,-56.608002,-359.167999
964.288025,-25.375999,-378.687988
944.768005,-25.375999,-366.976013
935.007996,-1.952000,-366.976013
931.104004,-13.664000,-388.447998
923.296021,-40.992001,-402.112000
917.440002,-40.992001,-396.256012
913.536011,-9.760000,-400.160004
901.823975,-35.136002,-413.824005
892.064026,-5.856000,-411.872009
890.112000,17.568001,-419.679993
892.064026,-9.760000,-427.488007
884.255981,-35.136002,-448.959991
858.880005,-17.568001,-452.864014
868.640015,-46.848000,-448.959991
874.495972,-58.560001,-441.152008
880.351990,-58.560001,-443.104004
866.687988,-35.136002,-445.056000
858.880005,-46.848000,-454.816010
851.072021,-35.136002,-470.432007
854.976013,-39.040001,-491.903992
856.927979,-23.424000,-505.567993
872.544006,-15.616000,-499.712006
864.736023,-5.856000,-491.903992
880.351990,-21.472000,-474.335999
880.351990,-29.280001,-482.144012
872.544006,-37.088001,-484.096008
866.687988,-58.560001,-480.191986
866.687988,-52.703999,-478.239990
870.591980,-58.560001,-482.144012
872.544006,-44.896000,-470.432007
870.591980,-39.040001,-505.567993
870.591980,-25.375999,-523.135986
868.640015,-35.136002,-499.712006
874.495972,-21.472000,-480.191986
890.112000,-29.280001,-482.144012
903.776001,-44.896000,-499.712006
895.968018,-33.183998,-505.567993
892.064026,-46.848000,-515.328003
884.255981,-122.975998,-530.943970
872.544006,-115.167999,-546.559998
894.015991,-50.751999,-548.512024
894.015991,-33.183998,-501.664001
917.440002,-33.183998,-450.911987
911.583984,-5.856000,-452.864014
917.440002,-3.904000,-464.575989
917.440002,-52.703999,-458.720001
909.632019,-76.127998,-456.768005
927.200012,-68.320000,-478.239990
923.296021,-99.552002,-511.424011
911.583984,-103.456001,-495.808014
923.296021,-56.608002,-493.855988
927.200012,-60.512001,-482.144012
940.864014,-62.464001,-486.048004
940.864014,-50.751999,-491.903992
933.056030,-50.751999,-470.432007
935.007996,1.952000,-491.903992
923.296021,40.992001,-478.239990
895.968018,78.080002,-443.104004
884.255981,121.024002,-478.239990
854.976013,124.928001,-497.760010
827.648010,117.120003,-497.760010
827.648010,89.792000,-497.760010
829.599976,44.896000,-486.048004
847.168030,-42.944000,-480.191986
882.304016,-103.456001,-464.575989
921.343994,-136.639999,-450.911987
1022.848022,-163.968002,-501.664001
989.664001,-183.488007,-476.287994
985.760010,-124.928001,-450.911987
919.392029,-48.799999,-456.768005
919.392029,7.808000,-491.903992
954.528015,64.416000,-507.519989
1030.656006,42.944000,-503.615997
1083.359985,-3.904000,-488.000000
1063.839966,-31.232000,-435.295990
1022.848022,27.327999,-435.295990
997.471985,85.888000,-450.911987
987.711975,105.407997,-470.432007
962.335999,138.591995,-488.000000
929.151978,121.024002,-482.144012
901.823975,117.120003,-478.239990
907.679993,103.456001,-480.191986
936.960022,74.176003,-497.760010
960.383972,11.712000,-488.000000
962.335999,-7.808000,-462.623993
966.239990,3.904000,-474.335999
972.096008,7.808000,-489.951996
976.000000,25.375999,-499.712006
983.807983,13.664000,-493.855988
979.903992,25.375999,-503.615997
972.096008,33.183998,-488.000000
964.288025,37.088001,-458.720001
962.335999,68.320000,-445.056000
962.335999,72.223999,-450.911987
948.671997,72.223999,-445.056000
946.719971,62.464001,-486.048004
938.911987,50.751999,-493.855988
921.343994,44.896000,-476.287994
929.151978,52.703999,-474.335999
935.007996,23.424000,-484.096008
942.815979,15.616000,-511.424011
929.151978,29.280001,-501.664001
944.768005,31.232000,-482.144012
944.768005,27.327999,-484.096008
948.671997,40.992001,-488.000000
952.575989,46.848000,-501.664001
936.960022,17.568001,-462.623993
929.151978,23.424000,-484.096008
929.151978,1.952000,-495.808014
909.632019,-5.856000,-466.528015
915.487976,-3.904000,-468.480011
923.296021,-31.232000,-486.048004
931.104004,-27.327999,-511.424011
872.544006,-29.280001,-536.799988
815.935974,-9.760000,-587.552002
782.752014,31.232000,-609.023987
808.127991,54.655998,-568.031982
892.064026,-1.952000,-527.039978
983.807983,-29.280001,-497.760010
1011.135986,-15.616000,-448.959991
1022.848022,-7.808000,-448.959991
1015.039978,-3.904000,-474.335999
987.711975,-19.520000,-488.000000
981.856018,-29.280001,-488.000000
958.432007,1.952000,-499.712006
917.440002,60.512001,-503.615997
921.343994,13.664000,-499.712006
915.487976,-7.808000,-482.144012
878.400024,40.992001,-468.480011
802.271973,-1.952000,-450.911987
720.288025,-31.232000,-452.864014
659.776001,-130.783997,-462.623993
634.400024,-271.328003,-497.760010
644.159973,-343.552002,-515.328003
739.807983,-390.399994,-515.328003
856.927979,-292.799988,-466.528015
968.192017,-134.688004,-368.928009
1046.271973,-48.799999,-283.040009
1122.400024,-76.127998,-226.432007
1145.823975,-189.343994,-224.479996
1130.208008,-298.656006,-232.287994
1095.072021,-378.687988,-286.944000
1057.984009,-374.783997,-333.791992
1044.319946,-261.567993,-380.640015
1056.031982,-181.535995,-415.776001
1056.031982,-83.935997,-445.056000
1036.511963,-111.264000,-454.816010
989.664001,-365.023987,-472.384003
938.911987,-663.679993,-558.271973
919.392029,-849.119995,-663.679993
892.064026,-970.143982,-675.392029
890.112000,-897.919983,-669.536011
878.400024,-757.375977,-698.815979
860.831970,-556.320007,-741.760010
827.648010,-341.600006,-761.280029
817.888000,-156.160004,-735.903992
823.744019,-25.375999,-706.624023
802.271973,91.744003,-700.768005
790.559998,156.160004,-730.047974
794.463989,171.776001,-751.520020
849.119995,165.919998,-745.664001
888.159973,89.792000,-679.296021
929.151978,33.183998,-632.447998
944.768005,-11.712000,-607.072021
952.575989,-7.808000,-614.880005
954.528015,19.520000,-622.687988
929.151978,46.848000,-638.304016
929.151978,83.935997,-648.064026
944.768005,122.975998,-622.687988
962.335999,144.447998,-575.840027
981.856018,78.080002,-558.271973
948.671997,-419.679993,-568.031982
856.927979,-527.039978,-739.807983
804.223999,-429.440002,-800.320007
843.263977,-394.303986,-620.736023
919.392029,-113.216003,-488.000000
958.432007,255.712006,-439.200012
966.239990,472.384003,-398.208008
946.719971,540.703979,-398.208008
929.151978,569.984009,-454.816010
858.880005,488.000000,-503.615997
776.895996,359.167999,-525.088013
786.656006,273.279999,-527.039978
837.408020,105.407997,-466.528015
954.528015,-87.839996,-376.735992
1052.128052,-240.095993,-308.415985
1102.880005,-281.088013,-298.656006
1097.024048,-201.056000,-351.359985
1050.176025,-91.744003,-419.679993
1030.656006,46.848000,-484.096008
1016.992004,179.584000,-507.519989
1013.088013,238.143997,-482.144012
1038.463989,236.192001,-445.056000
1083.359985,169.824005,-402.112000
1126.303955,95.648003,-390.399994
1157.536011,21.472000,-392.351990
1139.968018,-21.472000,-388.447998
1087.264038,-15.616000,-419.679993
1016.992004,19.520000,-427.488007
974.047974,48.799999,-460.671997
931.104004,54.655998,-466.528015
911.583984,72.223999,-460.671997
935.007996,37.088001,-435.295990
962.335999,-25.375999,-419.679993
989.664001,-113.216003,-435.295990
1009.184021,-195.199997,-460.671997
1032.608032,-214.720001,-468.480011
1061.887939,-197.151993,-447.007996
1079.456055,-175.679993,-419.679993
1093.119995,-152.255997,-407.967987
1079.456055,-160.063995,-421.631989
1050.176025,-148.352005,-464.575989
1013.088013,-167.871994,-489.951996
989.664001,-154.207993,-507.519989
979.903992,-181.535995,-509.471985
972.096008,-181.535995,-513.375977
979.903992,-191.296005,-519.231995
974.047974,-185.440002,-525.088013
983.807983,-195.199997,-521.184021
981.856018,-201.056000,-528.992004
989.664001,-201.056000,-544.607971
979.903992,-193.248001,-546.559998
989.664001,-195.199997,-556.320007
985.760010,-177.632004,-568.031982
976.000000,-179.584000,-568.031982
981.856018,-173.727997,-583.648010
987.711975,-160.063995,-587.552002
977.952026,-156.160004,-599.263977
979.903992,-154.207993,-605.119995
976.000000,-154.207993,-605.119995
972.096008,-144.447998,-614.880005
979.903992,-122.975998,-616.831970
985.760010,-117.120003,-614.880005
993.567993,-101.503998,-614.880005
1003.328003,-99.552002,-624.640015
1009.184021,-103.456001,-614.880005
1007.231995,-93.695999,-607.072021
1015.039978,-93.695999,-593.408020
1011.135986,-81.984001,-597.312012
1015.039978,-74.176003,-597.312012
1016.992004,-70.272003,-597.312012
1024.800049,-58.560001,-597.312012
1022.848022,-56.608002,-591.455994
1030.656006,-42.944000,-591.455994
1026.751953,-37.088001,-581.695984
1044.319946,-50.751999,-589.504028
1046.271973,-50.751999,-575.840027
1046.271973,-58.560001,-569.984009
1044.319946,-54.655998,-568.031982
1048.223999,-56.608002,-577.791992
1048.223999,-62.464001,-569.984009
1048.223999,-68.320000,-569.984009
1048.223999,-70.272003,-568.031982
1044.319946,-66.367996,-573.888000
1046.271973,-76.127998,-579.744019
1040.416016,-81.984001,-577.791992
1040.416016,-80.031998,-577.791992
1038.463989,-91.744003,-573.888000
1046.271973,-95.648003,-566.080017
1054.079956,-101.503998,-571.935974
1046.271973,-87.839996,-575.840027
1040.416016,-91.744003,-581.695984
1030.656006,-97.599998,-581.695984
1036.511963,-91.744003,-587.552002
1028.703979,-105.407997,-587.552002
1036.511963,-103.456001,-587.552002
1028.703979,-97.599998,-581.695984
1024.800049,-97.599998,-583.648010
1038.463989,-105.407997,-591.455994
1028.703979,-103.456001,-593.408020
1024.800049,-103.456001,-599.263977
1018.943970,-105.407997,-601.216003
1015.039978,-105.407997,-605.119995
1018.943970,-105.407997,-603.168030
1022.848022,-95.648003,-595.359985
1011.135986,-99.552002,-607.072021
1016.992004,-87.839996,-609.023987
1009.184021,-99.552002,-599.263977
1009.184021,-99.552002,-605.119995
1009.184021,-103.456001,-609.023987
999.424011,-91.744003,-599.263977
999.424011,-101.503998,-603.168030
1007.231995,-99.552002,-603.168030
995.520020,-101.503998,-601.216003
1005.280029,-93.695999,-601.216003
989.664001,-95.648003,-595.359985
991.616028,-93.695999,-595.359985
991.616028,-97.599998,-599.263977
981.856018,-87.839996,-599.263977
981.856018,-87.839996,-597.312012
979.903992,-85.888000,-595.359985
966.239990,-80.031998,-597.312012
962.335999,-72.223999,-587.552002
956.479980,-83.935997,-595.359985
944.768005,-76.127998,-610.976013
944.768005,-64.416000,-616.831970
954.528015,-64.416000,-610.976013
960.383972,-46.848000,-589.504028
968.192017,-72.223999,-583.648010
960.383972,-81.984001,-597.312012
944.768005,-89.792000,-605.119995
935.007996,-91.744003,-609.023987
