ACC_X,ACC_Y,ACC_Z
648.064026,407.967987,651.968018
651.968018,413.824005,650.015991
659.776001,409.920013,648.064026
655.872009,409.920013,650.015991
651.968018,407.967987,651.968018
650.015991,415.776001,651.968018
651.968018,409.920013,651.968018
650.015991,406.015991,659.776001
651.968018,409.920013,651.968018
650.015991,407.967987,655.872009
650.015991,402.112000,648.064026
648.064026,404.063995,653.919983
651.968018,407.967987,657.823975
650.015991,406.015991,659.776001
648.064026,409.920013,653.919983
640.255981,411.872009,650.015991
648.064026,407.967987,651.968018
646.112000,407.967987,648.064026
646.112000,411.872009,650.015991
646.112000,407.967987,655.872009
646.112000,407.967987,657.823975
646.112000,407.967987,646.112000
651.968018,407.967987,648.064026
648.064026,407.967987,651.968018
653.919983,407.967987,655.872009
646.112000,407.967987,651.968018
642.208008,409.920013,651.968018
644.159973,409.920013,653.919983
646.112000,406.015991,655.872009
636.351990,411.872009,648.064026
640.255981,407.967987,653.919983
634.400024,411.872009,650.015991
642.208008,413.824005,651.968018
638.304016,411.872009,650.015991
634.400024,402.112000,644.159973
632.447998,404.063995,644.159973
634.400024,402.112000,650.015991
628.544006,394.303986,655.872009
628.544006,400.160004,644.159973
636.351990,411.872009,653.919983
634.400024,411.872009,653.919983
638.304016,406.015991,650.015991
632.447998,407.967987,644.159973
638.304016,411.872009,648.064026
628.544006,406.015991,650.015991
632.447998,407.967987,644.159973
630.495972,407.967987,642.208008
628.544006,406.015991,644.159973
634.400024,406.015991,644.159973
630.495972,406.015991,648.064026
624.640015,404.063995,646.112000
628.544006,406.015991,651.968018
632.447998,411.872009,640.255981
632.447998,407.967987,644.159973
628.544006,411.872009,644.159973
634.400024,406.015991,650.015991
630.495972,407.967987,644.159973
624.640015,407.967987,642.208008
628.544006,402.112000,648.064026
634.400024,394.303986,644.159973
634.400024,400.160004,644.159973
634.400024,402.112000,644.159973
628.544006,396.256012,648.064026
626.591980,402.112000,650.015991
628.544006,396.256012,646.112000
634.400024,394.303986,653.919983
626.591980,402.112000,646.112000
630.495972,404.063995,642.208008
620.736023,404.063995,646.112000
620.736023,402.112000,648.064026
626.591980,400.160004,640.255981
624.640015,404.063995,646.112000
628.544006,404.063995,646.112000
638.304016,404.063995,655.872009
634.400024,394.303986,651.968018
620.736023,398.208008,648.064026
630.495972,406.015991,653.919983
628.544006,400.160004,651.968018
634.400024,404.063995,653.919983
628.544006,400.160004,642.208008
634.400024,394.303986,650.015991
630.495972,398.208008,661.728027
638.304016,398.208008,650.015991
630.495972,404.063995,642.208008
636.351990,402.112000,642.208008
634.400024,398.208008,644.159973
628.544006,404.063995,651.968018
640.255981,394.303986,650.015991
634.400024,404.063995,650.015991
628.544006,404.063995,650.015991
632.447998,402.112000,655.872009
638.304016,400.160004,661.728027
638.304016,404.063995,648.064026
632.447998,396.256012,655.872009
626.591980,406.015991,651.968018
632.447998,402.112000,642.208008
638.304016,404.063995,644.159973
640.255981,406.015991,653.919983
638.304016,409.920013,659.776001
636.351990,406.015991,644.159973
638.304016,406.015991,651.968018
642.208008,402.112000,650.015991
636.351990,394.303986,648.064026
640.255981,407.967987,650.015991
644.159973,409.920013,650.015991
640.255981,402.112000,650.015991
644.159973,409.920013,655.872009
638.304016,402.112000,651.968018
642.208008,409.920013,650.015991
644.159973,411.872009,651.968018
636.351990,406.015991,650.015991
644.159973,398.208008,650.015991
634.400024,406.015991,655.872009
642.208008,411.872009,651.968018
640.255981,415.776001,653.919983
640.255981,409.920013,646.112000
646.112000,411.872009,644.159973
651.968018,402.112000,650.015991
644.159973,404.063995,640.255981
640.255981,404.063995,650.015991
638.304016,406.015991,655.872009
650.015991,407.967987,646.112000
651.968018,407.967987,657.823975
653.919983,398.208008,657.823975
644.159973,406.015991,646.112000
650.015991,407.967987,653.919983
651.968018,407.967987,657.823975
648.064026,398.208008,651.968018
653.919983,402.112000,651.968018
661.728027,411.872009,655.872009
657.823975,404.063995,653.919983
665.632019,406.015991,661.728027
648.064026,411.872009,661.728027
650.015991,409.920013,661.728027
651.968018,407.967987,659.776001
653.919983,407.967987,651.968018
651.968018,409.920013,657.823975
655.872009,407.967987,650.015991
648.064026,407.967987,657.823975
651.968018,411.872009,661.728027
659.776001,406.015991,653.919983
650.015991,409.920013,650.015991
657.823975,407.967987,648.064026
644.159973,415.776001,650.015991
653.919983,417.727997,653.919983
653.919983,406.015991,646.112000
653.919983,409.920013,650.015991
650.015991,406.015991,657.823975
653.919983,411.872009,661.728027
650.015991,409.920013,655.872009
651.968018,407.967987,655.872009
648.064026,409.920013,648.064026
644.159973,406.015991,646.112000
648.064026,409.920013,651.968018
651.968018,407.967987,657.823975
655.872009,415.776001,650.015991
651.968018,417.727997,650.015991
650.015991,409.920013,657.823975
650.015991,419.679993,650.015991
644.159973,409.920013,655.872009
653.919983,415.776001,650.015991
648.064026,407.967987,648.064026
651.968018,409.920013,650.015991
650.015991,411.872009,646.112000
661.728027,415.776001,650.015991
655.872009,421.631989,653.919983
653.919983,415.776001,653.919983
648.064026,415.776001,644.159973
650.015991,419.679993,650.015991
653.919983,427.488007,650.015991
644.159973,419.679993,651.968018
651.968018,407.967987,646.112000
651.968018,419.679993,650.015991
651.968018,417.727997,650.015991
653.919983,417.727997,650.015991
653.919983,415.776001,653.919983
657.823975,409.920013,657.823975
653.919983,417.727997,650.015991
650.015991,419.679993,651.968018
665.632019,423.584015,650.015991
655.872009,421.631989,655.872009
655.872009,419.679993,648.064026
653.919983,427.488007,653.919983
661.728027,417.727997,650.015991
650.015991,409.920013,653.919983
653.919983,423.584015,653.919983
655.872009,427.488007,653.919983
659.776001,425.536011,653.919983
661.728027,423.584015,657.823975
659.776001,421.631989,657.823975
661.728027,423.584015,653.919983
661.728027,427.488007,655.872009
655.872009,423.584015,648.064026
655.872009,427.488007,650.015991
661.728027,425.536011,653.919983
655.872009,419.679993,653.919983
657.823975,429.440002,653.919983
651.968018,429.440002,650.015991
655.872009,427.488007,651.968018
653.919983,423.584015,642.208008
646.112000,423.584015,650.015991
653.919983,427.488007,644.159973
657.823975,421.631989,640.255981
655.872009,427.488007,644.159973
648.064026,421.631989,646.112000
655.872009,425.536011,657.823975
650.015991,427.488007,650.015991
648.064026,427.488007,653.919983
650.015991,427.488007,651.968018
653.919983,431.391998,648.064026
655.872009,423.584015,657.823975
648.064026,439.200012,657.823975
653.919983,439.200012,653.919983
657.823975,427.488007,653.919983
651.968018,425.536011,651.968018
648.064026,427.488007,659.776001
653.919983,421.631989,651.968018
648.064026,429.440002,648.064026
648.064026,429.440002,651.968018
648.064026,427.488007,648.064026
651.968018,427.488007,651.968018
657.823975,431.391998,646.112000
651.968018,433.343994,650.015991
657.823975,435.295990,653.919983
648.064026,427.488007,648.064026
650.015991,415.776001,655.872009
653.919983,429.440002,651.968018
665.632019,431.391998,655.872009
657.823975,425.536011,653.919983
648.064026,435.295990,659.776001
648.064026,433.343994,657.823975
655.872009,429.440002,661.728027
657.823975,421.631989,661.728027
648.064026,425.536011,663.679993
644.159973,421.631989,661.728027
653.919983,433.343994,655.872009
644.159973,439.200012,663.679993
640.255981,435.295990,661.728027
640.255981,431.391998,650.015991
651.968018,425.536011,655.872009
648.064026,429.440002,659.776001
646.112000,433.343994,653.919983
648.064026,429.440002,657.823975
648.064026,439.200012,648.064026
640.255981,433.343994,651.968018
640.255981,431.391998,653.919983
632.447998,427.488007,650.015991
648.064026,433.343994,657.823975
644.159973,427.488007,642.208008
648.064026,429.440002,651.968018
648.064026,429.440002,657.823975
642.208008,423.584015,648.064026
646.112000,429.440002,648.064026
638.304016,423.584015,657.823975
632.447998,423.584015,648.064026
640.255981,425.536011,651.968018
640.255981,431.391998,655.872009
642.208008,425.536011,651.968018
636.351990,423.584015,653.919983
642.208008,425.536011,657.823975
632.447998,425.536011,655.872009
636.351990,431.391998,651.968018
640.255981,431.391998,650.015991
646.112000,435.295990,653.919983
644.159973,417.727997,655.872009
638.304016,425.536011,653.919983
644.159973,421.631989,661.728027
644.159973,421.631989,650.015991
638.304016,417.727997,657.823975
638.304016,413.824005,655.872009
644.159973,423.584015,651.968018
642.208008,413.824005,651.968018
648.064026,427.488007,651.968018
638.304016,421.631989,657.823975
636.351990,417.727997,653.919983
642.208008,423.584015,651.968018
646.112000,425.536011,655.872009
636.351990,427.488007,661.728027
644.159973,419.679993,659.776001
644.159973,413.824005,657.823975
632.447998,419.679993,651.968018
636.351990,411.872009,648.064026
636.351990,411.872009,651.968018
636.351990,423.584015,659.776001
632.447998,419.679993,663.679993
642.208008,411.872009,659.776001
640.255981,406.015991,655.872009
640.255981,406.015991,651.968018
640.255981,406.015991,661.728027
638.304016,413.824005,657.823975
638.304016,406.015991,653.919983
636.351990,406.015991,655.872009
638.304016,404.063995,651.968018
630.495972,411.872009,659.776001
644.159973,415.776001,655.872009
642.208008,411.872009,659.776001
640.255981,404.063995,655.872009
638.304016,406.015991,661.728027
638.304016,411.872009,653.919983
632.447998,409.920013,650.015991
634.400024,413.824005,651.968018
634.400024,407.967987,650.015991
636.351990,411.872009,646.112000
636.351990,415.776001,644.159973
628.544006,413.824005,650.015991
626.591980,409.920013,655.872009
634.400024,411.872009,650.015991
634.400024,409.920013,657.823975
642.208008,407.967987,644.159973
634.400024,413.824005,659.776001
630.495972,415.776001,655.872009
628.544006,409.920013,646.112000
628.544006,402.112000,650.015991
642.208008,409.920013,655.872009
626.591980,409.920013,651.968018
628.544006,407.967987,651.968018
628.544006,406.015991,650.015991
632.447998,411.872009,651.968018
628.544006,406.015991,653.919983
634.400024,415.776001,657.823975
630.495972,411.872009,646.112000
622.687988,409.920013,651.968018
630.495972,413.824005,646.112000
630.495972,419.679993,650.015991
626.591980,407.967987,650.015991
622.687988,421.631989,650.015991
628.544006,407.967987,648.064026
624.640015,415.776001,650.015991
628.544006,402.112000,651.968018
624.640015,409.920013,651.968018
620.736023,407.967987,646.112000
620.736023,402.112000,640.255981
620.736023,407.967987,651.968018
628.544006,407.967987,657.823975
628.544006,411.872009,650.015991
634.400024,406.015991,650.015991
626.591980,407.967987,657.823975
624.640015,415.776001,653.919983
628.544006,404.063995,646.112000
632.447998,407.967987,642.208008
624.640015,411.872009,648.064026
624.640015,409.920013,651.968018
616.831970,411.872009,644.159973
622.687988,417.727997,650.015991
624.640015,417.727997,648.064026
626.591980,409.920013,651.968018
626.591980,413.824005,642.208008
622.687988,419.679993,644.159973
624.640015,417.727997,644.159973
628.544006,407.967987,651.968018
624.640015,417.727997,651.968018
626.591980,407.967987,648.064026
630.495972,415.776001,655.872009
626.591980,415.776001,644.159973
626.591980,407.967987,657.823975
624.640015,413.824005,655.872009
620.736023,409.920013,659.776001
620.736023,413.824005,642.208008
630.495972,413.824005,648.064026
624.640015,417.727997,655.872009
630.495972,413.824005,648.064026
622.687988,419.679993,650.015991
618.783997,419.679993,653.919983
628.544006,427.488007,646.112000
630.495972,413.824005,651.968018
632.447998,415.776001,642.208008
624.640015,417.727997,651.968018
624.640015,421.631989,650.015991
620.736023,423.584015,650.015991
626.591980,427.488007,648.064026
630.495972,419.679993,653.919983
630.495972,415.776001,644.159973
624.640015,417.727997,650.015991
628.544006,415.776001,650.015991
620.736023,417.727997,650.015991
630.495972,417.727997,651.968018
634.400024,421.631989,640.255981
626.591980,421.631989,646.112000
624.640015,421.631989,650.015991
620.736023,417.727997,644.159973
626.591980,419.679993,642.208008
622.687988,419.679993,650.015991
630.495972,415.776001,650.015991
618.783997,417.727997,644.159973
624.640015,421.631989,642.208008
628.544006,423.584015,638.304016
628.544006,425.536011,644.159973
624.640015,423.584015,651.968018
620.736023,423.584015,644.159973
632.447998,421.631989,648.064026
624.640015,421.631989,648.064026
624.640015,425.536011,648.064026
634.400024,427.488007,644.159973
630.495972,431.391998,644.159973
624.640015,421.631989,650.015991
628.544006,423.584015,644.159973
636.351990,419.679993,651.968018
632.447998,417.727997,650.015991
634.400024,421.631989,644.159973
628.544006,411.872009,642.208008
628.544006,425.536011,653.919983
632.447998,423.584015,651.968018
630.495972,423.584015,651.968018
636.351990,417.727997,653.919983
636.351990,423.584015,640.255981
638.304016,425.536011,650.015991
638.304016,417.727997,648.064026
636.351990,425.536011,651.968018
628.544006,425.536011,651.968018
630.495972,421.631989,646.112000
630.495972,419.679993,651.968018
630.495972,425.536011,648.064026
628.544006,423.584015,651.968018
632.447998,413.824005,640.255981
630.495972,415.776001,650.015991
638.304016,421.631989,646.112000
638.304016,417.727997,646.112000
630.495972,419.679993,648.064026
636.351990,423.584015,648.064026
634.400024,419.679993,646.112000
636.351990,419.679993,646.112000
632.447998,427.488007,650.015991
638.304016,411.872009,648.064026
632.447998,419.679993,648.064026
632.447998,423.584015,648.064026
642.208008,402.112000,636.351990
638.304016,417.727997,657.823975
630.495972,415.776001,648.064026
630.495972,413.824005,646.112000
632.447998,411.872009,648.064026
638.304016,406.015991,651.968018
630.495972,411.872009,648.064026
632.447998,411.872009,653.919983
642.208008,419.679993,653.919983
632.447998,415.776001,642.208008
642.208008,421.631989,650.015991
640.255981,413.824005,653.919983
636.351990,411.872009,648.064026
644.159973,409.920013,657.823975
644.159973,415.776001,651.968018
642.208008,411.872009,648.064026
642.208008,417.727997,653.919983
648.064026,415.776001,646.112000
642.208008,409.920013,653.919983
640.255981,409.920013,665.632019
644.159973,411.872009,657.823975
648.064026,417.727997,651.968018
640.255981,409.920013,665.632019
648.064026,411.872009,661.728027
644.159973,415.776001,659.776001
646.112000,411.872009,650.015991
644.159973,417.727997,653.919983
644.159973,415.776001,651.968018
650.015991,419.679993,655.872009
636.351990,417.727997,651.968018
644.159973,419.679993,655.872009
644.159973,415.776001,650.015991
642.208008,417.727997,648.064026
640.255981,411.872009,644.159973
636.351990,411.872009,648.064026
640.255981,411.872009,653.919983
642.208008,415.776001,650.015991
646.112000,417.727997,642.208008
642.208008,409.920013,644.159973
632.447998,415.776001,655.872009
640.255981,407.967987,646.112000
634.400024,409.920013,646.112000
634.400024,419.679993,646.112000
632.447998,423.584015,651.968018
646.112000,404.063995,653.919983
634.400024,415.776001,659.776001
636.351990,417.727997,651.968018
636.351990,417.727997,648.064026
640.255981,419.679993,646.112000
636.351990,417.727997,657.823975
636.351990,417.727997,648.064026
638.304016,425.536011,650.015991
648.064026,417.727997,644.159973
642.208008,419.679993,655.872009
642.208008,417.727997,655.872009
632.447998,419.679993,651.968018
646.112000,411.872009,653.919983
638.304016,411.872009,648.064026
634.400024,406.015991,653.919983
642.208008,413.824005,648.064026
642.208008,415.776001,650.015991
650.015991,417.727997,653.919983
644.159973,421.631989,650.015991
648.064026,421.631989,655.872009
644.159973,415.776001,653.919983
644.159973,413.824005,648.064026
636.351990,417.727997,648.064026
642.208008,413.824005,648.064026
642.208008,423.584015,653.919983
648.064026,407.967987,651.968018
653.919983,406.015991,669.536011
648.064026,419.679993,663.679993
644.159973,411.872009,657.823975
646.112000,415.776001,648.064026
642.208008,411.872009,653.919983
640.255981,407.967987,648.064026
644.159973,417.727997,653.919983
644.159973,409.920013,653.919983
636.351990,413.824005,648.064026
634.400024,419.679993,646.112000
640.255981,415.776001,640.255981
644.159973,409.920013,655.872009
638.304016,411.872009,653.919983
630.495972,417.727997,648.064026
648.064026,419.679993,644.159973
642.208008,413.824005,659.776001
644.159973,417.727997,655.872009
644.159973,413.824005,648.064026
650.015991,415.776001,650.015991
640.255981,417.727997,653.919983
640.255981,423.584015,659.776001
642.208008,409.920013,657.823975
640.255981,421.631989,653.919983
642.208008,411.872009,650.015991
636.351990,419.679993,653.919983
644.159973,413.824005,650.015991
640.255981,419.679993,655.872009
642.208008,409.920013,650.015991
642.208008,421.631989,653.919983
642.208008,415.776001,650.015991
638.304016,415.776001,659.776001
642.208008,419.679993,651.968018
638.304016,419.679993,653.919983
638.304016,419.679993,648.064026
644.159973,415.776001,644.159973
636.351990,413.824005,648.064026
646.112000,411.872009,655.872009
640.255981,411.872009,655.872009
634.400024,419.679993,659.776001
640.255981,411.872009,646.112000
644.159973,415.776001,653.919983
650.015991,411.872009,646.112000
640.255981,411.872009,650.015991
644.159973,423.584015,648.064026
638.304016,400.160004,657.823975
642.208008,411.872009,648.064026
640.255981,415.776001,651.968018
646.112000,407.967987,648.064026
648.064026,404.063995,648.064026
644.159973,407.967987,661.728027
644.159973,409.920013,661.728027
648.064026,404.063995,657.823975
650.015991,415.776001,657.823975
648.064026,407.967987,648.064026
650.015991,409.920013,653.919983
640.255981,415.776001,651.968018
638.304016,406.015991,650.015991
646.112000,396.256012,659.776001
642.208008,400.160004,650.015991
651.968018,404.063995,651.968018
644.159973,409.920013,653.919983
651.968018,402.112000,648.064026
648.064026,407.967987,648.064026
644.159973,400.160004,651.968018
651.968018,402.112000,657.823975
650.015991,398.208008,651.968018
644.159973,402.112000,661.728027
651.968018,407.967987,651.968018
650.015991,390.399994,655.872009
657.823975,404.063995,657.823975
653.919983,409.920013,653.919983
653.919983,407.967987,657.823975
644.159973,409.920013,655.872009
651.968018,400.160004,659.776001
653.919983,390.399994,651.968018
650.015991,398.208008,651.968018
653.919983,390.399994,661.728027
651.968018,400.160004,659.776001
646.112000,400.160004,657.823975
646.112000,402.112000,661.728027
651.968018,398.208008,657.823975
655.872009,407.967987,659.776001
650.015991,409.920013,657.823975
648.064026,402.112000,651.968018
648.064026,407.967987,657.823975
653.919983,400.160004,659.776001
655.872009,390.399994,650.015991
642.208008,404.063995,661.728027
653.919983,415.776001,653.919983
650.015991,406.015991,665.632019
648.064026,411.872009,667.583984
651.968018,404.063995,653.919983
644.159973,411.872009,655.872009
648.064026,394.303986,655.872009
648.064026,400.160004,655.872009
651.968018,407.967987,653.919983
648.064026,419.679993,653.919983
651.968018,413.824005,655.872009
650.015991,409.920013,655.872009
648.064026,407.967987,659.776001
640.255981,411.872009,663.679993
650.015991,421.631989,651.968018
640.255981,411.872009,661.728027
650.015991,406.015991,665.632019
655.872009,415.776001,661.728027
650.015991,409.920013,657.823975
646.112000,421.631989,665.632019
657.823975,425.536011,653.919983
651.968018,409.920013,648.064026
646.112000,427.488007,659.776001
655.872009,421.631989,655.872009
650.015991,419.679993,651.968018
653.919983,425.536011,665.632019
651.968018,427.488007,659.776001
648.064026,427.488007,659.776001
648.064026,423.584015,667.583984
650.015991,417.727997,661.728027
650.015991,415.776001,661.728027
653.919983,415.776001,653.919983
644.159973,417.727997,653.919983
653.919983,427.488007,657.823975
644.159973,423.584015,659.776001
650.015991,429.440002,661.728027
651.968018,433.343994,657.823975
648.064026,425.536011,655.872009
653.919983,431.391998,665.632019
657.823975,435.295990,659.776001
655.872009,429.440002,665.632019
657.823975,425.536011,661.728027
648.064026,435.295990,669.536011
646.112000,421.631989,665.632019
650.015991,433.343994,665.632019
651.968018,433.343994,665.632019
655.872009,429.440002,665.632019
657.823975,437.247986,661.728027
653.919983,429.440002,665.632019
653.919983,433.343994,659.776001
653.919983,431.391998,667.583984
653.919983,433.343994,665.632019
655.872009,429.440002,665.632019
653.919983,437.247986,665.632019
657.823975,437.247986,655.872009
644.159973,439.200012,667.583984
657.823975,431.391998,651.968018
650.015991,437.247986,665.632019
653.919983,437.247986,657.823975
657.823975,429.440002,659.776001
653.919983,431.391998,659.776001
646.112000,433.343994,655.872009
646.112000,433.343994,659.776001
636.351990,443.104004,657.823975
638.304016,435.295990,655.872009
640.255981,435.295990,651.968018
644.159973,447.007996,655.872009
650.015991,433.343994,659.776001
642.208008,447.007996,653.919983
648.064026,437.247986,661.728027
640.255981,435.295990,650.015991
642.208008,441.152008,651.968018
640.255981,439.200012,661.728027
642.208008,433.343994,661.728027
644.159973,437.247986,651.968018
636.351990,431.391998,653.919983
642.208008,443.104004,651.968018
640.255981,431.391998,653.919983
638.304016,443.104004,650.015991
636.351990,435.295990,650.015991
638.304016,437.247986,651.968018
638.304016,433.343994,650.015991
628.544006,435.295990,655.872009
634.400024,435.295990,653.919983
634.400024,425.536011,653.919983
634.400024,429.440002,653.919983
634.400024,433.343994,653.919983
628.544006,441.152008,657.823975
628.544006,435.295990,650.015991
634.400024,431.391998,650.015991
630.495972,431.391998,651.968018
634.400024,431.391998,661.728027
630.495972,437.247986,659.776001
626.591980,427.488007,655.872009
624.640015,425.536011,648.064026
634.400024,431.391998,653.919983
630.495972,421.631989,651.968018
634.400024,437.247986,661.728027
626.591980,439.200012,657.823975
630.495972,435.295990,657.823975
634.400024,431.391998,661.728027
628.544006,437.247986,651.968018
626.591980,431.391998,653.919983
632.447998,435.295990,661.728027
624.640015,441.152008,657.823975
628.544006,431.391998,650.015991
622.687988,435.295990,659.776001
628.544006,437.247986,655.872009
624.640015,447.007996,655.872009
626.591980,439.200012,657.823975
632.447998,454.816010,657.823975
626.591980,448.959991,655.872009
620.736023,447.007996,661.728027
620.736023,450.911987,653.919983
622.687988,445.056000,661.728027
618.783997,447.007996,655.872009
632.447998,448.959991,651.968018
630.495972,448.959991,651.968018
626.591980,454.816010,663.679993
626.591980,458.720001,659.776001
638.304016,462.623993,661.728027
638.304016,445.056000,665.632019
632.447998,456.768005,659.776001
632.447998,466.528015,667.583984
634.400024,470.432007,669.536011
638.304016,478.239990,673.440002
638.304016,470.432007,663.679993
646.112000,468.480011,671.487976
642.208008,476.287994,677.343994
646.112000,484.096008,667.583984
638.304016,489.951996,679.296021
640.255981,489.951996,671.487976
640.255981,488.000000,675.392029
640.255981,489.951996,679.296021
640.255981,501.664001,675.392029
646.112000,503.615997,669.536011
650.015991,503.615997,681.247986
650.015991,509.471985,681.247986
644.159973,497.760010,671.487976
648.064026,476.287994,671.487976
673.440002,486.048004,651.968018
681.247986,472.384003,655.872009
667.583984,447.007996,653.919983
640.255981,499.712006,663.679993
634.400024,552.416016,667.583984
628.544006,505.567993,665.632019
626.591980,503.615997,653.919983
636.351990,556.320007,646.112000
640.255981,556.320007,640.255981
636.351990,517.280029,648.064026
634.400024,550.463989,640.255981
640.255981,573.888000,646.112000
642.208008,560.223999,644.159973
657.823975,560.223999,628.544006
648.064026,538.752014,638.304016
648.064026,552.416016,642.208008
650.015991,566.080017,661.728027
648.064026,513.375977,659.776001
651.968018,501.664001,667.583984
661.728027,532.895996,681.247986
673.440002,501.664001,679.296021
687.104004,441.152008,683.200012
691.007996,474.335999,685.151978
696.864014,501.664001,698.815979
692.960022,452.864014,702.719971
694.911987,458.720001,708.575989
700.768005,501.664001,712.479980
691.007996,495.808014,706.624023
691.007996,505.567993,706.624023
691.007996,509.471985,708.575989
687.104004,511.424011,706.624023
694.911987,536.799988,708.575989
696.864014,536.799988,692.960022
708.575989,519.231995,681.247986
708.575989,538.752014,667.583984
698.815979,544.607971,661.728027
706.624023,513.375977,651.968018
708.575989,505.567993,655.872009
702.719971,523.135986,650.015991
712.479980,501.664001,644.159973
708.575989,474.335999,644.159973
706.624023,464.575989,642.208008
706.624023,474.335999,640.255981
708.575989,452.864014,646.112000
714.432007,437.247986,650.015991
716.383972,452.864014,661.728027
724.192017,454.816010,661.728027
728.096008,441.152008,665.632019
714.432007,447.007996,679.296021
720.288025,468.480011,681.247986
710.528015,474.335999,694.911987
714.432007,456.768005,700.768005
716.383972,486.048004,704.671997
720.288025,497.760010,691.007996
733.952026,474.335999,716.383972
739.807983,476.287994,706.624023
751.520020,488.000000,702.719971
739.807983,489.951996,708.575989
745.664001,472.384003,712.479980
733.952026,470.432007,710.528015
730.047974,474.335999,712.479980
726.143982,478.239990,708.575989
714.432007,447.007996,698.815979
724.192017,437.247986,698.815979
714.432007,450.911987,702.719971
708.575989,443.104004,698.815979
704.671997,415.776001,691.007996
710.528015,411.872009,689.056030
700.768005,431.391998,685.151978
696.864014,423.584015,681.247986
689.056030,398.208008,681.247986
679.296021,409.920013,683.200012
675.392029,433.343994,667.583984
692.960022,429.440002,669.536011
691.007996,419.679993,665.632019
694.911987,427.488007,659.776001
681.247986,425.536011,669.536011
681.247986,437.247986,677.343994
671.487976,437.247986,679.296021
669.536011,445.056000,683.200012
673.440002,448.959991,685.151978
665.632019,454.816010,681.247986
663.679993,450.911987,689.056030
663.679993,429.440002,694.911987
667.583984,443.104004,683.200012
671.487976,417.727997,683.200012
661.728027,404.063995,683.200012
663.679993,404.063995,685.151978
659.776001,400.160004,687.104004
667.583984,386.496002,677.343994
665.632019,380.640015,681.247986
659.776001,386.496002,679.296021
665.632019,374.783997,675.392029
650.015991,378.687988,677.343994
653.919983,376.735992,671.487976
671.487976,388.447998,667.583984
673.440002,390.399994,675.392029
671.487976,402.112000,685.151978
659.776001,407.967987,679.296021
667.583984,406.015991,681.247986
671.487976,411.872009,687.104004
673.440002,421.631989,685.151978
673.440002,419.679993,689.056030
663.679993,413.824005,691.007996
665.632019,415.776001,696.864014
673.440002,404.063995,696.864014
665.632019,390.399994,696.864014
663.679993,396.256012,694.911987
669.536011,378.687988,702.719971
665.632019,370.880005,704.671997
663.679993,370.880005,706.624023
663.679993,357.216003,710.528015
669.536011,361.119995,714.432007
657.823975,363.071991,706.624023
663.679993,361.119995,710.528015
655.872009,359.167999,720.288025
653.919983,370.880005,739.807983
661.728027,380.640015,739.807983
667.583984,386.496002,739.807983
667.583984,388.447998,759.328003
671.487976,386.496002,759.328003
677.343994,398.208008,771.039978
679.296021,402.112000,765.184021
681.247986,404.063995,759.328003
675.392029,398.208008,769.088013
675.392029,406.015991,771.039978
679.296021,396.256012,771.039978
675.392029,384.544006,769.088013
677.343994,386.496002,759.328003
659.776001,392.351990,749.567993
671.487976,378.687988,733.952026
661.728027,368.928009,730.047974
655.872009,374.783997,726.143982
651.968018,368.928009,702.719971
624.640015,343.552002,691.007996
618.783997,392.351990,667.583984
585.599976,407.967987,628.544006
595.359985,382.592010,587.552002
587.552002,388.447998,546.559998
587.552002,402.112000,525.088013
589.504028,386.496002,517.280029
560.223999,382.592010,517.280029
571.935974,386.496002,523.135986
558.271973,370.880005,530.943970
569.984009,351.359985,556.320007
579.744019,349.407990,562.176025
585.599976,349.407990,569.984009
599.263977,343.552002,585.599976
603.168030,349.407990,607.072021
597.312012,359.167999,642.208008
597.312012,374.783997,663.679993
597.312012,390.399994,667.583984
597.312012,394.303986,673.440002
593.408020,409.920013,675.392029
599.263977,421.631989,679.296021
595.359985,429.440002,681.247986
591.455994,419.679993,683.200012
591.455994,417.727997,673.440002
589.504028,431.391998,669.536011
581.695984,421.631989,663.679993
579.744019,400.160004,669.536011
568.031982,398.208008,663.679993
571.935974,374.783997,650.015991
571.935974,361.119995,653.919983
566.080017,363.071991,653.919983
554.367981,353.312012,642.208008
560.223999,353.312012,644.159973
560.223999,343.552002,640.255981
554.367981,361.119995,644.159973
558.271973,357.216003,624.640015
552.416016,365.023987,626.591980
556.320007,384.544006,624.640015
554.367981,378.687988,626.591980
556.320007,392.351990,634.400024
556.320007,404.063995,628.544006
550.463989,413.824005,628.544006
556.320007,413.824005,634.400024
548.512024,415.776001,630.495972
558.271973,419.679993,638.304016
552.416016,419.679993,630.495972
554.367981,423.584015,632.447998
560.223999,406.015991,634.400024
560.223999,402.112000,628.544006
550.463989,396.256012,632.447998
562.176025,396.256012,642.208008
554.367981,386.496002,632.447998
556.320007,376.735992,640.255981
558.271973,374.783997,636.351990
554.367981,384.544006,636.351990
558.271973,388.447998,638.304016
552.416016,382.592010,638.304016
554.367981,388.447998,626.591980
554.367981,382.592010,640.255981
550.463989,392.351990,636.351990
546.559998,390.399994,640.255981
552.416016,402.112000,644.159973
556.320007,406.015991,638.304016
556.320007,406.015991,640.255981
554.367981,411.872009,632.447998
552.416016,417.727997,638.304016
550.463989,417.727997,644.159973
556.320007,415.776001,644.159973
554.367981,407.967987,651.968018
560.223999,407.967987,657.823975
558.271973,415.776001,648.064026
560.223999,429.440002,655.872009
560.223999,409.920013,663.679993
550.463989,374.783997,659.776001
562.176025,386.496002,661.728027
560.223999,390.399994,650.015991
554.367981,378.687988,648.064026
564.127991,404.063995,655.872009
568.031982,409.920013,650.015991
554.367981,398.208008,646.112000
562.176025,406.015991,638.304016
564.127991,392.351990,638.304016
562.176025,386.496002,638.304016
704.671997,74.176003,653.919983
689.056030,97.599998,698.815979
571.935974,308.415985,733.952026
474.335999,345.503998,724.192017
538.752014,374.783997,698.815979
595.359985,378.687988,679.296021
591.455994,374.783997,681.247986
577.791992,394.303986,681.247986
571.935974,445.056000,683.200012
573.888000,495.808014,687.104004
579.744019,519.231995,691.007996
571.935974,538.752014,692.960022
581.695984,564.127991,673.440002
589.504028,556.320007,659.776001
581.695984,528.992004,651.968018
575.840027,439.200012,640.255981
591.455994,421.631989,640.255981
599.263977,478.239990,624.640015
583.648010,493.855988,628.544006
577.791992,466.528015,634.400024
583.648010,400.160004,628.544006
577.791992,341.600006,632.447998
583.648010,310.368011,630.495972
573.888000,286.944000,620.736023
571.935974,284.992004,634.400024
568.031982,288.895996,616.831970
562.176025,296.704010,620.736023
564.127991,302.559998,616.831970
566.080017,314.272003,618.783997
566.080017,339.648010,622.687988
568.031982,368.928009,622.687988
577.791992,392.351990,628.544006
579.744019,398.208008,636.351990
579.744019,419.679993,640.255981
587.552002,429.440002,650.015991
577.791992,433.343994,653.919983
579.744019,433.343994,669.536011
587.552002,445.056000,677.343994
583.648010,441.152008,671.487976
585.599976,443.104004,677.343994
587.552002,433.343994,681.247986
599.263977,411.872009,679.296021
589.504028,394.303986,669.536011
599.263977,382.592010,679.296021
589.504028,372.832001,677.343994
587.552002,359.167999,675.392029
593.408020,359.167999,675.392029
591.455994,339.648010,671.487976
587.552002,341.600006,667.583984
599.263977,339.648010,667.583984
593.408020,333.791992,663.679993
599.263977,335.743988,655.872009
589.504028,333.791992,657.823975
591.455994,351.359985,659.776001
593.408020,361.119995,669.536011
610.976013,376.735992,667.583984
599.263977,388.447998,679.296021
599.263977,390.399994,673.440002
599.263977,392.351990,679.296021
605.119995,392.351990,691.007996
605.119995,392.351990,691.007996
618.783997,394.303986,691.007996
609.023987,398.208008,700.768005
618.783997,398.208008,694.911987
610.976013,396.256012,712.479980
609.023987,390.399994,696.864014
605.119995,398.208008,700.768005
607.072021,390.399994,698.815979
607.072021,382.592010,689.056030
609.023987,376.735992,696.864014
610.976013,370.880005,691.007996
597.312012,363.071991,687.104004
607.072021,376.735992,696.864014
589.504028,365.023987,687.104004
597.312012,366.976013,691.007996
599.263977,363.071991,679.296021
587.552002,365.023987,687.104004
595.359985,370.880005,702.719971
595.359985,380.640015,696.864014
593.408020,384.544006,692.960022
587.552002,392.351990,685.151978
595.359985,396.256012,689.056030
587.552002,394.303986,694.911987
593.408020,400.160004,700.768005
587.552002,406.015991,698.815979
591.455994,406.015991,696.864014
595.359985,413.824005,694.911987
587.552002,406.015991,698.815979
601.216003,407.967987,700.768005
603.168030,407.967987,704.671997
593.408020,404.063995,702.719971
595.359985,382.592010,704.671997
597.312012,396.256012,708.575989
603.168030,384.544006,700.768005
603.168030,382.592010,696.864014
609.023987,376.735992,704.671997
605.119995,378.687988,694.911987
597.312012,384.544006,691.007996
595.359985,380.640015,685.151978
593.408020,384.544006,689.056030
599.263977,388.447998,691.007996
593.408020,402.112000,696.864014
681.247986,396.256012,696.864014
935.007996,435.295990,708.575989
452.864014,415.776001,749.567993
804.223999,478.239990,837.408020
542.656006,425.536011,853.023987
653.919983,396.256012,907.679993
694.911987,413.824005,933.056030
739.807983,312.320007,956.479980
790.559998,347.455994,976.000000
622.687988,382.592010,989.664001
772.992004,409.920013,987.711975
778.848022,355.264008,970.143982
911.583984,390.399994,997.471985
780.799988,244.000000,1024.800049
726.143982,189.343994,1026.751953
689.056030,363.071991,1040.416016
640.255981,513.375977,1052.128052
710.528015,534.848022,1034.560059
675.392029,530.943970,1032.608032
646.112000,579.744019,1018.943970
657.823975,605.119995,1005.280029
687.104004,447.007996,993.567993
671.487976,228.384003,956.479980
673.440002,296.704010,938.911987
661.728027,564.127991,917.440002
614.880005,691.007996,895.968018
626.591980,609.023987,866.687988
661.728027,491.903992,841.312012
644.159973,464.575989,851.072021
681.247986,493.855988,835.455994
675.392029,511.424011,839.359985
632.447998,482.144012,827.648010
640.255981,447.007996,815.935974
638.304016,437.247986,806.176025
642.208008,433.343994,786.656006
624.640015,431.391998,763.231995
620.736023,417.727997,753.471985
591.455994,417.727997,739.807983
603.168030,386.496002,730.047974
603.168030,357.216003,718.335999
585.599976,349.407990,708.575989
575.840027,335.743988,696.864014
281.088013,107.360001,661.728027
730.047974,236.192001,569.984009
571.935974,341.600006,534.848022
663.679993,503.615997,499.712006
562.176025,493.855988,489.951996
521.184021,556.320007,484.096008
507.519989,605.119995,484.096008
476.287994,564.127991,503.615997
493.855988,489.951996,511.424011
489.951996,452.864014,515.328003
534.848022,460.671997,530.943970
536.799988,464.575989,536.799988
527.039978,521.184021,544.607971
517.280029,577.791992,558.271973
497.760010,575.840027,556.320007
486.048004,519.231995,544.607971
460.671997,476.287994,530.943970
448.959991,450.911987,513.375977
443.104004,435.295990,503.615997
610.976013,378.687988,470.432007
284.992004,333.791992,452.864014
528.992004,366.976013,460.671997
644.159973,136.639999,464.575989
564.127991,21.472000,482.144012
622.687988,150.304001,546.559998
571.935974,331.839996,599.263977
519.231995,482.144012,653.919983
515.328003,624.640015,669.536011
476.287994,704.671997,673.440002
489.951996,730.047974,677.343994
493.855988,679.296021,681.247986
495.808014,569.984009,669.536011
499.712006,515.328003,655.872009
521.184021,532.895996,653.919983
552.416016,548.512024,624.640015
550.463989,491.903992,618.783997
552.416016,450.911987,601.216003
552.416016,462.623993,597.312012
519.231995,456.768005,569.984009
507.519989,447.007996,554.367981
507.519989,419.679993,538.752014
523.135986,386.496002,525.088013
527.039978,347.455994,505.567993
521.184021,320.127991,509.471985
530.943970,308.415985,515.328003
521.184021,327.936005,521.184021
505.567993,368.928009,523.135986
488.000000,407.967987,528.992004
476.287994,450.911987,534.848022
468.480011,488.000000,536.799988
474.335999,511.424011,530.943970
478.239990,525.088013,530.943970
476.287994,517.280029,525.088013
486.048004,513.375977,523.135986
499.712006,505.567993,538.752014
505.567993,499.712006,546.559998
507.519989,499.712006,550.463989
509.471985,488.000000,558.271973
511.424011,488.000000,562.176025
511.424011,497.760010,568.031982
511.424011,503.615997,571.935974
511.424011,491.903992,569.984009
515.328003,486.048004,573.888000
521.184021,482.144012,573.888000
519.231995,488.000000,591.455994
515.328003,489.951996,603.168030
517.280029,501.664001,601.216003
511.424011,499.712006,601.216003
507.519989,503.615997,612.927979
509.471985,491.903992,612.927979
509.471985,482.144012,609.023987
507.519989,482.144012,614.880005
509.471985,472.384003,607.072021
503.615997,472.384003,609.023987
505.567993,470.432007,610.976013
497.760010,458.720001,614.880005
511.424011,460.671997,610.976013
507.519989,458.720001,612.927979
513.375977,454.816010,626.591980
519.231995,454.816010,626.591980
528.992004,437.247986,632.447998
523.135986,443.104004,632.447998
528.992004,447.007996,630.495972
528.992004,443.104004,640.255981
525.088013,443.104004,646.112000
528.992004,454.816010,642.208008
530.943970,458.720001,650.015991
534.848022,454.816010,661.728027
540.703979,452.864014,669.536011
538.752014,460.671997,673.440002
546.559998,450.911987,669.536011
554.367981,450.911987,673.440002
558.271973,447.007996,681.247986
558.271973,439.200012,689.056030
566.080017,439.200012,691.007996
577.791992,437.247986,687.104004
577.791992,423.584015,692.960022
583.648010,419.679993,696.864014
589.504028,419.679993,700.768005
589.504028,423.584015,706.624023
593.408020,419.679993,712.479980
603.168030,421.631989,722.239990
601.216003,421.631989,720.288025
612.927979,421.631989,712.479980
616.831970,429.440002,722.239990
620.736023,427.488007,724.192017
620.736023,435.295990,714.432007
624.640015,429.440002,716.383972
630.495972,429.440002,724.192017
630.495972,425.536011,728.096008
624.640015,431.391998,739.807983
638.304016,435.295990,724.192017
634.400024,425.536011,718.335999
638.304016,419.679993,722.239990
632.447998,417.727997,714.432007
628.544006,406.015991,718.335999
638.304016,406.015991,726.143982
642.208008,413.824005,714.432007
638.304016,409.920013,722.239990
630.495972,413.824005,714.432007
624.640015,415.776001,716.383972
622.687988,411.872009,724.192017
626.591980,409.920013,716.383972
630.495972,423.584015,710.528015
624.640015,417.727997,712.479980
622.687988,421.631989,712.479980
624.640015,427.488007,712.479980
612.927979,437.247986,702.719971
616.831970,441.152008,710.528015
610.976013,437.247986,702.719971
609.023987,437.247986,712.479980
614.880005,439.200012,714.432007
605.119995,423.584015,702.719971
599.263977,435.295990,698.815979
601.216003,433.343994,698.815979
593.408020,433.343994,694.911987
591.455994,425.536011,708.575989
597.312012,423.584015,700.768005
595.359985,423.584015,694.911987
595.359985,421.631989,687.104004
599.263977,427.488007,694.911987
585.599976,423.584015,694.911987
585.599976,423.584015,694.911987
585.599976,431.391998,689.056030
577.791992,431.391998,692.960022
577.791992,431.391998,692.960022
573.888000,439.200012,691.007996
571.935974,437.247986,681.247986
571.935974,435.295990,675.392029
564.127991,439.200012,679.296021
562.176025,435.295990,681.247986
558.271973,429.440002,687.104004
556.320007,433.343994,689.056030
554.367981,433.343994,671.487976
550.463989,429.440002,673.440002
554.367981,435.295990,669.536011
548.512024,431.391998,665.632019
548.512024,435.295990,677.343994
554.367981,431.391998,669.536011
540.703979,425.536011,675.392029
546.559998,423.584015,673.440002
548.512024,429.440002,675.392029
548.512024,433.343994,675.392029
552.416016,431.391998,681.247986
544.607971,433.343994,673.440002
550.463989,425.536011,677.343994
552.416016,429.440002,683.200012
556.320007,421.631989,675.392029
554.367981,433.343994,689.056030
552.416016,427.488007,683.200012
546.559998,431.391998,681.247986
552.416016,439.200012,689.056030
550.463989,427.488007,692.960022
546.559998,431.391998,687.104004
556.320007,437.247986,696.864014
548.512024,429.440002,694.911987
558.271973,417.727997,692.960022
554.367981,425.536011,692.960022
556.320007,427.488007,687.104004
552.416016,419.679993,691.007996
548.512024,431.391998,689.056030
546.559998,425.536011,692.960022
554.367981,429.440002,689.056030
556.320007,421.631989,685.151978
550.463989,427.488007,698.815979
552.416016,423.584015,696.864014
554.367981,437.247986,694.911987
554.367981,427.488007,685.151978
552.416016,417.727997,691.007996
548.512024,435.295990,692.960022
560.223999,431.391998,689.056030
560.223999,427.488007,679.296021
560.223999,429.440002,689.056030
554.367981,419.679993,692.960022
560.223999,421.631989,687.104004
554.367981,429.440002,691.007996
552.416016,425.536011,692.960022
568.031982,435.295990,696.864014
558.271973,427.488007,687.104004
556.320007,437.247986,696.864014
560.223999,433.343994,698.815979
569.984009,421.631989,700.768005
562.176025,431.391998,700.768005
564.127991,421.631989,696.864014
564.127991,425.536011,692.960022
569.984009,427.488007,702.719971
562.176025,425.536011,700.768005
562.176025,435.295990,698.815979
569.984009,433.343994,694.911987
564.127991,425.536011,706.624023
566.080017,429.440002,698.815979
569.984009,427.488007,691.007996
575.840027,439.200012,698.815979
560.223999,435.295990,698.815979
571.935974,429.440002,704.671997
568.031982,433.343994,694.911987
566.080017,425.536011,698.815979
571.935974,421.631989,698.815979
562.176025,425.536011,694.911987
566.080017,435.295990,706.624023
560.223999,425.536011,700.768005
568.031982,429.440002,698.815979
562.176025,435.295990,700.768005
568.031982,439.200012,692.960022
568.031982,425.536011,696.864014
564.127991,427.488007,691.007996
560.223999,431.391998,691.007996
562.176025,425.536011,696.864014
560.223999,431.391998,700.768005
554.367981,431.391998,694.911987
550.463989,437.247986,700.768005
552.416016,431.391998,692.960022
548.512024,431.391998,687.104004
542.656006,427.488007,696.864014
548.512024,435.295990,692.960022
550.463989,435.295990,694.911987
548.512024,437.247986,696.864014
542.656006,439.200012,694.911987
538.752014,433.343994,694.911987
544.607971,429.440002,687.104004
538.752014,439.200012,692.960022
544.607971,429.440002,685.151978
538.752014,431.391998,694.911987
540.703979,431.391998,675.392029
538.752014,429.440002,671.487976
527.039978,443.104004,667.583984
536.799988,435.295990,671.487976
530.943970,435.295990,671.487976
527.039978,437.247986,667.583984
528.992004,437.247986,669.536011
527.039978,437.247986,667.583984
528.992004,437.247986,669.536011
517.280029,435.295990,667.583984
532.895996,443.104004,673.440002
528.992004,437.247986,667.583984
528.992004,433.343994,671.487976
528.992004,435.295990,677.343994
532.895996,431.391998,667.583984
530.943970,431.391998,669.536011
527.039978,439.200012,677.343994
536.799988,435.295990,675.392029
532.895996,435.295990,677.343994
538.752014,425.536011,677.343994
540.703979,429.440002,679.296021
544.607971,437.247986,681.247986
544.607971,435.295990,687.104004
552.416016,439.200012,683.200012
544.607971,431.391998,687.104004
552.416016,429.440002,679.296021
554.367981,431.391998,687.104004
558.271973,433.343994,687.104004
554.367981,435.295990,683.200012
548.512024,433.343994,687.104004
554.367981,431.391998,692.960022
558.271973,437.247986,694.911987
558.271973,425.536011,694.911987
558.271973,419.679993,694.911987
566.080017,419.679993,694.911987
568.031982,419.679993,687.104004
558.271973,421.631989,694.911987
568.031982,431.391998,694.911987
566.080017,427.488007,696.864014
568.031982,431.391998,698.815979
562.176025,431.391998,696.864014
566.080017,421.631989,696.864014
569.984009,423.584015,708.575989
566.080017,425.536011,698.815979
571.935974,421.631989,696.864014
569.984009,429.440002,694.911987
568.031982,437.247986,696.864014
562.176025,429.440002,700.768005
569.984009,439.200012,706.624023
575.840027,433.343994,704.671997
575.840027,437.247986,704.671997
568.031982,439.200012,698.815979
575.840027,439.200012,694.911987
579.744019,437.247986,696.864014
569.984009,433.343994,694.911987
583.648010,429.440002,696.864014
579.744019,425.536011,700.768005
579.744019,427.488007,698.815979
587.552002,429.440002,700.768005
577.791992,421.631989,696.864014
583.648010,421.631989,700.768005
583.648010,423.584015,698.815979
575.840027,423.584015,696.864014
575.840027,421.631989,696.864014
583.648010,421.631989,700.768005
583.648010,423.584015,700.768005
577.791992,425.536011,698.815979
583.648010,421.631989,698.815979
585.599976,427.488007,714.432007
587.552002,417.727997,704.671997
573.888000,427.488007,704.671997
577.791992,425.536011,698.815979
575.840027,427.488007,704.671997
577.791992,429.440002,700.768005
571.935974,427.488007,698.815979
573.888000,431.391998,704.671997
569.984009,435.295990,698.815979
569.984009,441.152008,694.911987
577.791992,433.343994,694.911987
575.840027,427.488007,696.864014
575.840027,425.536011,692.960022
568.031982,429.440002,706.624023
575.840027,421.631989,700.768005
562.176025,415.776001,698.815979
562.176025,429.440002,696.864014
566.080017,425.536011,692.960022
569.984009,421.631989,700.768005
573.888000,421.631989,696.864014
575.840027,419.679993,700.768005
577.791992,421.631989,698.815979
575.840027,421.631989,702.719971
581.695984,425.536011,702.719971
573.888000,435.295990,698.815979
577.791992,427.488007,698.815979
581.695984,433.343994,702.719971
587.552002,421.631989,712.479980
579.744019,421.631989,706.624023
581.695984,417.727997,716.383972
589.504028,427.488007,704.671997
581.695984,419.679993,710.528015
589.504028,429.440002,714.432007
589.504028,427.488007,710.528015
591.455994,417.727997,706.624023
591.455994,427.488007,706.624023
595.359985,425.536011,712.479980
589.504028,417.727997,698.815979
591.455994,423.584015,706.624023
585.599976,423.584015,704.671997
599.263977,421.631989,716.383972
599.263977,421.631989,706.624023
597.312012,417.727997,696.864014
597.312012,429.440002,704.671997
593.408020,421.631989,712.479980
591.455994,423.584015,704.671997
595.359985,427.488007,714.432007
601.216003,425.536011,702.719971
599.263977,421.631989,712.479980
603.168030,421.631989,710.528015
593.408020,427.488007,714.432007
599.263977,417.727997,710.528015
589.504028,427.488007,710.528015
595.359985,435.295990,704.671997
595.359985,435.295990,714.432007
593.408020,435.295990,714.432007
603.168030,433.343994,712.479980
587.552002,431.391998,708.575989
591.455994,421.631989,706.624023
591.455994,439.200012,710.528015
593.408020,433.343994,702.719971
591.455994,433.343994,708.575989
589.504028,433.343994,710.528015
581.695984,431.391998,704.671997
587.552002,425.536011,704.671997
579.744019,433.343994,704.671997
577.791992,427.488007,700.768005
569.984009,439.200012,698.815979
575.840027,421.631989,700.768005
581.695984,437.247986,694.911987
581.695984,437.247986,696.864014
571.935974,439.200012,698.815979
573.888000,433.343994,702.719971
575.840027,441.152008,702.719971
581.695984,441.152008,692.960022
577.791992,441.152008,698.815979
587.552002,445.056000,694.911987
587.552002,437.247986,700.768005
591.455994,435.295990,700.768005
581.695984,437.247986,700.768005
585.599976,439.200012,720.288025
591.455994,447.007996,706.624023
589.504028,452.864014,712.479980
589.504028,433.343994,718.335999
599.263977,443.104004,720.288025
603.168030,437.247986,714.432007
601.216003,437.247986,710.528015
610.976013,439.200012,726.143982
605.119995,437.247986,718.335999
603.168030,433.343994,724.192017
597.312012,439.200012,714.432007
597.312012,439.200012,716.383972
605.119995,450.911987,722.239990
607.072021,450.911987,722.239990
605.119995,443.104004,712.479980
607.072021,445.056000,720.288025
614.880005,448.959991,724.192017
614.880005,445.056000,726.143982
607.072021,448.959991,728.096008
610.976013,448.959991,710.528015
610.976013,450.911987,714.432007
609.023987,437.247986,718.335999
610.976013,448.959991,712.479980
601.216003,448.959991,710.528015
607.072021,437.247986,712.479980
607.072021,448.959991,728.096008
593.408020,452.864014,714.432007
610.976013,450.911987,710.528015
610.976013,450.911987,716.383972
603.168030,454.816010,710.528015
601.216003,450.911987,708.575989
599.263977,441.152008,712.479980
599.263977,448.959991,712.479980
585.599976,445.056000,704.671997
587.552002,443.104004,708.575989
603.168030,452.864014,700.768005
591.455994,448.959991,692.960022
591.455994,450.911987,694.911987
589.504028,454.816010,694.911987
583.648010,452.864014,696.864014
591.455994,456.768005,696.864014
581.695984,445.056000,698.815979
579.744019,454.816010,691.007996
585.599976,450.911987,694.911987
589.504028,447.007996,694.911987
577.791992,450.911987,694.911987
577.791992,448.959991,683.200012
585.599976,445.056000,694.911987
581.695984,448.959991,694.911987
577.791992,441.152008,704.671997
583.648010,452.864014,696.864014
571.935974,450.911987,696.864014
575.840027,454.816010,692.960022
566.080017,458.720001,698.815979
577.791992,454.816010,694.911987
577.791992,450.911987,698.815979
577.791992,447.007996,700.768005
571.935974,452.864014,691.007996
577.791992,452.864014,696.864014
571.935974,452.864014,694.911987
577.791992,450.911987,696.864014
581.695984,445.056000,704.671997
577.791992,447.007996,691.007996
577.791992,452.864014,696.864014
579.744019,458.720001,704.671997
579.744019,450.911987,698.815979
577.791992,441.152008,698.815979
579.744019,448.959991,694.911987
577.791992,452.864014,700.768005
577.791992,452.864014,694.911987
573.888000,448.959991,696.864014
579.744019,458.720001,706.624023
579.744019,448.959991,691.007996
583.648010,448.959991,692.960022
569.984009,447.007996,691.007996
573.888000,458.720001,694.911987
583.648010,456.768005,692.960022
571.935974,450.911987,696.864014
577.791992,452.864014,698.815979
573.888000,460.671997,694.911987
573.888000,441.152008,696.864014
575.840027,452.864014,696.864014
575.840027,445.056000,692.960022
566.080017,450.911987,687.104004
566.080017,445.056000,692.960022
569.984009,454.816010,683.200012
573.888000,441.152008,694.911987
575.840027,441.152008,696.864014
573.888000,445.056000,687.104004
579.744019,452.864014,687.104004
575.840027,447.007996,696.864014
571.935974,450.911987,696.864014
571.935974,452.864014,696.864014
562.176025,454.816010,692.960022
566.080017,454.816010,692.960022
575.840027,441.152008,691.007996
569.984009,447.007996,689.056030
571.935974,452.864014,696.864014
566.080017,445.056000,691.007996
562.176025,450.911987,704.671997
564.127991,454.816010,694.911987
569.984009,458.720001,694.911987
569.984009,458.720001,694.911987
569.984009,460.671997,694.911987
568.031982,452.864014,687.104004
571.935974,452.864014,691.007996
562.176025,452.864014,687.104004
558.271973,448.959991,692.960022
564.127991,452.864014,687.104004
571.935974,466.528015,687.104004
569.984009,454.816010,689.056030
564.127991,454.816010,685.151978
571.935974,456.768005,685.151978
566.080017,458.720001,679.296021
569.984009,450.911987,689.056030
560.223999,448.959991,692.960022
554.367981,445.056000,692.960022
568.031982,456.768005,683.200012
569.984009,443.104004,679.296021
554.367981,454.816010,694.911987
564.127991,447.007996,692.960022
568.031982,441.152008,692.960022
562.176025,445.056000,689.056030
562.176025,448.959991,689.056030
560.223999,441.152008,687.104004
562.176025,437.247986,691.007996
560.223999,439.200012,687.104004
566.080017,445.056000,694.911987
566.080017,439.200012,687.104004
568.031982,433.343994,692.960022
564.127991,439.200012,685.151978
569.984009,450.911987,685.151978
562.176025,454.816010,683.200012
564.127991,439.200012,683.200012
560.223999,439.200012,683.200012
558.271973,439.200012,679.296021
562.176025,447.007996,687.104004
560.223999,439.200012,683.200012
562.176025,437.247986,691.007996
562.176025,441.152008,692.960022
558.271973,435.295990,683.200012
558.271973,429.440002,685.151978
560.223999,427.488007,685.151978
564.127991,421.631989,683.200012
560.223999,433.343994,689.056030
569.984009,425.536011,683.200012
564.127991,427.488007,679.296021
566.080017,427.488007,696.864014
562.176025,427.488007,692.960022
573.888000,429.440002,675.392029
575.840027,433.343994,687.104004
577.791992,421.631989,691.007996
581.695984,417.727997,692.960022
571.935974,421.631989,696.864014
577.791992,421.631989,689.056030
579.744019,421.631989,694.911987
573.888000,421.631989,696.864014
587.552002,417.727997,692.960022
583.648010,421.631989,700.768005
581.695984,419.679993,683.200012
577.791992,427.488007,704.671997
585.599976,423.584015,694.911987
587.552002,417.727997,691.007996
577.791992,423.584015,700.768005
575.840027,425.536011,698.815979
585.599976,425.536011,694.911987
577.791992,429.440002,689.056030
589.504028,423.584015,694.911987
577.791992,427.488007,691.007996
573.888000,421.631989,691.007996
583.648010,411.872009,694.911987
579.744019,417.727997,687.104004
575.840027,423.584015,692.960022
573.888000,419.679993,689.056030
571.935974,417.727997,696.864014
569.984009,427.488007,692.960022
571.935974,421.631989,689.056030
568.031982,419.679993,685.151978
575.840027,419.679993,691.007996
573.888000,423.584015,689.056030
569.984009,423.584015,689.056030
562.176025,427.488007,691.007996
568.031982,417.727997,683.200012
568.031982,419.679993,689.056030
562.176025,427.488007,694.911987
568.031982,417.727997,689.056030
560.223999,417.727997,692.960022
566.080017,423.584015,687.104004
562.176025,421.631989,687.104004
564.127991,421.631989,691.007996
560.223999,429.440002,685.151978
560.223999,421.631989,687.104004
554.367981,433.343994,689.056030
560.223999,419.679993,685.151978
560.223999,417.727997,681.247986
562.176025,413.824005,677.343994
560.223999,421.631989,687.104004
550.463989,423.584015,681.247986
560.223999,423.584015,687.104004
562.176025,421.631989,683.200012
560.223999,417.727997,681.247986
556.320007,419.679993,685.151978
560.223999,417.727997,675.392029
554.367981,427.488007,679.296021
560.223999,421.631989,685.151978
556.320007,421.631989,681.247986
560.223999,421.631989,681.247986
564.127991,429.440002,685.151978
560.223999,429.440002,683.200012
564.127991,427.488007,687.104004
558.271973,419.679993,692.960022
562.176025,427.488007,687.104004
558.271973,427.488007,683.200012
560.223999,433.343994,683.200012
562.176025,423.584015,691.007996
568.031982,425.536011,691.007996
566.080017,417.727997,689.056030
564.127991,427.488007,683.200012
568.031982,419.679993,689.056030
562.176025,421.631989,687.104004
562.176025,421.631989,692.960022
566.080017,433.343994,685.151978
568.031982,421.631989,687.104004
560.223999,421.631989,685.151978
562.176025,421.631989,687.104004
558.271973,417.727997,689.056030
564.127991,419.679993,692.960022
564.127991,431.391998,681.247986
560.223999,421.631989,685.151978
568.031982,425.536011,689.056030
564.127991,431.391998,681.247986
560.223999,417.727997,689.056030
558.271973,419.679993,692.960022
554.367981,425.536011,694.911987
554.367981,423.584015,698.815979
560.223999,421.631989,687.104004
562.176025,423.584015,689.056030
568.031982,425.536011,689.056030
558.271973,435.295990,685.151978
568.031982,423.584015,685.151978
560.223999,423.584015,692.960022
566.080017,429.440002,689.056030
558.271973,413.824005,694.911987
558.271973,417.727997,694.911987
560.223999,425.536011,694.911987
568.031982,427.488007,692.960022
560.223999,429.440002,685.151978
562.176025,421.631989,687.104004
566.080017,425.536011,681.247986
571.935974,427.488007,689.056030
569.984009,431.391998,681.247986
562.176025,431.391998,679.296021
571.935974,431.391998,681.247986
569.984009,429.440002,692.960022
569.984009,431.391998,691.007996
575.840027,431.391998,681.247986
573.888000,429.440002,692.960022
573.888000,429.440002,698.815979
568.031982,427.488007,694.911987
579.744019,421.631989,700.768005
577.791992,431.391998,694.911987
571.935974,421.631989,696.864014
575.840027,437.247986,687.104004
577.791992,423.584015,700.768005
585.599976,417.727997,694.911987
583.648010,419.679993,694.911987
587.552002,429.440002,700.768005
581.695984,425.536011,696.864014
585.599976,425.536011,692.960022
577.791992,425.536011,692.960022
585.599976,419.679993,700.768005
583.648010,431.391998,694.911987
587.552002,431.391998,696.864014
591.455994,431.391998,704.671997
589.504028,423.584015,704.671997
583.648010,423.584015,696.864014
587.552002,435.295990,696.864014
589.504028,437.247986,696.864014
585.599976,437.247986,700.768005
589.504028,431.391998,700.768005
603.168030,437.247986,706.624023
591.455994,433.343994,700.768005
587.552002,431.391998,696.864014
587.552002,431.391998,704.671997
595.359985,435.295990,708.575989
595.359985,425.536011,704.671997
603.168030,427.488007,708.575989
599.263977,431.391998,702.719971
614.880005,417.727997,700.768005
612.927979,431.391998,696.864014
618.783997,431.391998,696.864014
614.880005,433.343994,689.056030
622.687988,417.727997,696.864014
595.359985,439.200012,692.960022
581.695984,468.480011,702.719971
585.599976,462.623993,706.624023
579.744019,433.343994,694.911987
577.791992,439.200012,691.007996
589.504028,454.816010,694.911987
595.359985,435.295990,696.864014
603.168030,423.584015,692.960022
607.072021,445.056000,687.104004
595.359985,448.959991,685.151978
599.263977,431.391998,696.864014
595.359985,413.824005,696.864014
589.504028,439.200012,704.671997
597.312012,460.671997,704.671997
597.312012,445.056000,696.864014
605.119995,431.391998,712.479980
607.072021,431.391998,706.624023
618.783997,441.152008,712.479980
612.927979,441.152008,720.288025
620.736023,425.536011,726.143982
614.880005,435.295990,720.288025
618.783997,448.959991,724.192017
618.783997,445.056000,718.335999
618.783997,425.536011,728.096008
624.640015,433.343994,730.047974
616.831970,441.152008,722.239990
622.687988,447.007996,724.192017
630.495972,411.872009,710.528015
626.591980,415.776001,722.239990
626.591980,445.056000,724.192017
634.400024,425.536011,714.432007
622.687988,417.727997,716.383972
624.640015,433.343994,714.432007
622.687988,448.959991,704.671997
614.880005,443.104004,704.671997
618.783997,429.440002,716.383972
620.736023,441.152008,710.528015
618.783997,456.768005,702.719971
614.880005,443.104004,704.671997
616.831970,435.295990,694.911987
614.880005,425.536011,706.624023
616.831970,435.295990,708.575989
614.880005,429.440002,710.528015
616.831970,427.488007,710.528015
618.783997,423.584015,704.671997
614.880005,439.200012,710.528015
610.976013,431.391998,702.719971
609.023987,419.679993,698.815979
610.976013,429.440002,706.624023
614.880005,439.200012,702.719971
614.880005,429.440002,712.479980
610.976013,429.440002,704.671997
607.072021,431.391998,694.911987
605.119995,450.911987,708.575989
605.119995,441.152008,698.815979
609.023987,421.631989,700.768005
601.216003,429.440002,700.768005
603.168030,441.152008,694.911987
605.119995,429.440002,692.960022
609.023987,425.536011,694.911987
605.119995,429.440002,698.815979
601.216003,427.488007,692.960022
601.216003,427.488007,694.911987
603.168030,421.631989,700.768005
597.312012,421.631989,696.864014
599.263977,429.440002,698.815979
603.168030,419.679993,691.007996
599.263977,419.679993,689.056030
601.216003,419.679993,702.719971
603.168030,421.631989,696.864014
607.072021,407.967987,696.864014
607.072021,415.776001,696.864014
607.072021,421.631989,691.007996
595.359985,429.440002,691.007996
599.263977,421.631989,704.671997
597.312012,421.631989,696.864014
593.408020,425.536011,694.911987
597.312012,427.488007,683.200012
589.504028,429.440002,691.007996
599.263977,429.440002,694.911987
591.455994,425.536011,691.007996
585.599976,427.488007,689.056030
591.455994,427.488007,683.200012
589.504028,421.631989,685.151978
585.599976,417.727997,687.104004
589.504028,417.727997,694.911987
589.504028,413.824005,692.960022
591.455994,417.727997,681.247986
589.504028,417.727997,685.151978
591.455994,419.679993,687.104004
587.552002,413.824005,685.151978
587.552002,427.488007,689.056030
593.408020,429.440002,679.296021
585.599976,435.295990,685.151978
591.455994,429.440002,679.296021
585.599976,435.295990,679.296021
585.599976,439.200012,689.056030
585.599976,435.295990,679.296021
581.695984,427.488007,692.960022
585.599976,435.295990,691.007996
585.599976,439.200012,689.056030
599.263977,435.295990,696.864014
601.216003,429.440002,694.911987
603.168030,435.295990,692.960022
595.359985,433.343994,691.007996
591.455994,435.295990,702.719971
593.408020,429.440002,692.960022
587.552002,427.488007,689.056030
591.455994,431.391998,696.864014
587.552002,431.391998,696.864014
591.455994,435.295990,700.768005
591.455994,421.631989,687.104004
585.599976,431.391998,689.056030
593.408020,443.104004,694.911987
593.408020,425.536011,696.864014
603.168030,427.488007,691.007996
593.408020,435.295990,691.007996
603.168030,425.536011,689.056030
603.168030,435.295990,689.056030
595.359985,433.343994,683.200012
591.455994,425.536011,691.007996
591.455994,431.391998,696.864014
587.552002,431.391998,696.864014
591.455994,431.391998,696.864014
589.504028,423.584015,698.815979
587.552002,443.104004,696.864014
599.263977,439.200012,694.911987
595.359985,439.200012,691.007996
593.408020,437.247986,698.815979
597.312012,441.152008,696.864014
591.455994,431.391998,691.007996
589.504028,435.295990,696.864014
585.599976,435.295990,691.007996
589.504028,435.295990,691.007996
581.695984,437.247986,696.864014
599.263977,433.343994,694.911987
595.359985,431.391998,692.960022
593.408020,433.343994,691.007996
593.408020,435.295990,691.007996
595.359985,443.104004,694.911987
577.791992,429.440002,696.864014
591.455994,439.200012,685.151978
595.359985,437.247986,691.007996
599.263977,439.200012,696.864014
599.263977,433.343994,694.911987
593.408020,425.536011,696.864014
581.695984,437.247986,698.815979
591.455994,431.391998,708.575989
585.599976,443.104004,698.815979
589.504028,437.247986,696.864014
581.695984,437.247986,700.768005
587.552002,433.343994,700.768005
589.504028,439.200012,696.864014
585.599976,437.247986,698.815979
597.312012,429.440002,708.575989
595.359985,427.488007,698.815979
589.504028,425.536011,704.671997
587.552002,431.391998,702.719971
589.504028,423.584015,704.671997
585.599976,423.584015,700.768005
587.552002,425.536011,696.864014
577.791992,421.631989,691.007996
577.791992,421.631989,696.864014
577.791992,417.727997,692.960022
581.695984,427.488007,692.960022
589.504028,417.727997,692.960022
585.599976,415.776001,691.007996
581.695984,431.391998,700.768005
577.791992,421.631989,696.864014
579.744019,427.488007,698.815979
583.648010,423.584015,698.815979
585.599976,423.584015,692.960022
583.648010,419.679993,691.007996
581.695984,425.536011,700.768005
585.599976,419.679993,698.815979
573.888000,415.776001,691.007996
579.744019,423.584015,700.768005
579.744019,411.872009,691.007996
581.695984,425.536011,696.864014
579.744019,411.872009,698.815979
573.888000,409.920013,696.864014
583.648010,417.727997,694.911987
581.695984,406.015991,696.864014
581.695984,413.824005,696.864014
583.648010,421.631989,700.768005
577.791992,419.679993,694.911987
573.888000,435.295990,692.960022
583.648010,421.631989,696.864014
583.648010,423.584015,706.624023
591.455994,423.584015,704.671997
579.744019,433.343994,698.815979
583.648010,423.584015,700.768005
585.599976,417.727997,704.671997
589.504028,425.536011,696.864014
581.695984,421.631989,698.815979
589.504028,417.727997,698.815979
585.599976,423.584015,698.815979
581.695984,421.631989,698.815979
581.695984,425.536011,696.864014
577.791992,431.391998,714.432007
591.455994,421.631989,704.671997
587.552002,425.536011,700.768005
587.552002,425.536011,702.719971
589.504028,423.584015,704.671997
589.504028,423.584015,706.624023
585.599976,423.584015,706.624023
587.552002,427.488007,704.671997
581.695984,431.391998,702.719971
587.552002,435.295990,708.575989
587.552002,425.536011,704.671997
569.984009,429.440002,694.911987
581.695984,435.295990,708.575989
579.744019,429.440002,702.719971
575.840027,421.631989,708.575989
581.695984,431.391998,696.864014
581.695984,427.488007,706.624023
587.552002,431.391998,700.768005
581.695984,431.391998,700.768005
583.648010,443.104004,698.815979
593.408020,439.200012,706.624023
581.695984,437.247986,700.768005
589.504028,425.536011,700.768005
589.504028,425.536011,704.671997
583.648010,431.391998,704.671997
591.455994,439.200012,698.815979
597.312012,437.247986,704.671997
595.359985,433.343994,708.575989
595.359985,441.152008,710.528015
603.168030,439.200012,694.911987
593.408020,425.536011,702.719971
603.168030,439.200012,706.624023
597.312012,429.440002,702.719971
595.359985,431.391998,710.528015
585.599976,439.200012,702.719971
591.455994,433.343994,698.815979
587.552002,433.343994,696.864014
591.455994,433.343994,700.768005
585.599976,433.343994,698.815979
593.408020,439.200012,698.815979
589.504028,445.056000,704.671997
585.599976,443.104004,698.815979
589.504028,437.247986,702.719971
595.359985,445.056000,712.479980
591.455994,439.200012,708.575989
595.359985,441.152008,708.575989
595.359985,447.007996,702.719971
597.312012,443.104004,704.671997
585.599976,437.247986,704.671997
591.455994,437.247986,702.719971
593.408020,445.056000,706.624023
591.455994,443.104004,700.768005
583.648010,445.056000,700.768005
585.599976,439.200012,708.575989
585.599976,448.959991,704.671997
589.504028,454.816010,694.911987
579.744019,450.911987,708.575989
579.744019,456.768005,700.768005
583.648010,447.007996,700.768005
585.599976,450.911987,694.911987
577.791992,452.864014,700.768005
583.648010,450.911987,692.960022
583.648010,450.911987,694.911987
577.791992,441.152008,700.768005
585.599976,450.911987,692.960022
585.599976,450.911987,687.104004
581.695984,454.816010,702.719971
587.552002,454.816010,691.007996
585.599976,454.816010,696.864014
575.840027,447.007996,696.864014
577.791992,443.104004,692.960022
583.648010,448.959991,696.864014
587.552002,450.911987,687.104004
581.695984,452.864014,689.056030
583.648010,450.911987,687.104004
579.744019,452.864014,692.960022
569.984009,448.959991,689.056030
575.840027,447.007996,671.487976
581.695984,448.959991,683.200012
575.840027,447.007996,691.007996
573.888000,445.056000,685.151978
569.984009,448.959991,681.247986
577.791992,437.247986,685.151978
579.744019,454.816010,683.200012
569.984009,448.959991,679.296021
568.031982,445.056000,689.056030
569.984009,448.959991,689.056030
573.888000,454.816010,687.104004
562.176025,450.911987,687.104004
569.984009,454.816010,691.007996
575.840027,456.768005,687.104004
571.935974,452.864014,691.007996
569.984009,448.959991,689.056030
566.080017,447.007996,683.200012
575.840027,441.152008,691.007996
568.031982,454.816010,679.296021
569.984009,448.959991,691.007996
575.840027,447.007996,691.007996
562.176025,443.104004,677.343994
569.984009,448.959991,691.007996
571.935974,443.104004,685.151978
569.984009,441.152008,692.960022
571.935974,437.247986,692.960022
568.031982,448.959991,683.200012
568.031982,452.864014,687.104004
571.935974,439.200012,691.007996
571.935974,443.104004,687.104004
569.984009,437.247986,691.007996
569.984009,437.247986,689.056030
571.935974,437.247986,679.296021
564.127991,435.295990,679.296021
571.935974,433.343994,692.960022
562.176025,443.104004,696.864014
568.031982,435.295990,700.768005
566.080017,431.391998,687.104004
568.031982,437.247986,696.864014
556.320007,425.536011,696.864014
566.080017,427.488007,689.056030
568.031982,431.391998,700.768005
564.127991,429.440002,689.056030
571.935974,421.631989,696.864014
560.223999,431.391998,696.864014
569.984009,431.391998,694.911987
564.127991,429.440002,691.007996
558.271973,429.440002,691.007996
569.984009,429.440002,692.960022
568.031982,437.247986,689.056030
568.031982,427.488007,692.960022
569.984009,429.440002,694.911987
568.031982,423.584015,691.007996
571.935974,427.488007,691.007996
564.127991,423.584015,692.960022
562.176025,425.536011,691.007996
560.223999,429.440002,692.960022
564.127991,419.679993,698.815979
564.127991,423.584015,694.911987
569.984009,429.440002,698.815979
569.984009,427.488007,704.671997
568.031982,419.679993,702.719971
566.080017,417.727997,696.864014
569.984009,421.631989,702.719971
569.984009,427.488007,692.960022
558.271973,421.631989,692.960022
564.127991,427.488007,702.719971
562.176025,421.631989,692.960022
569.984009,427.488007,694.911987
564.127991,423.584015,694.911987
566.080017,423.584015,694.911987
566.080017,421.631989,696.864014
575.840027,421.631989,696.864014
566.080017,415.776001,691.007996
571.935974,417.727997,691.007996
564.127991,423.584015,700.768005
566.080017,411.872009,704.671997
558.271973,409.920013,702.719971
562.176025,409.920013,706.624023
589.504028,417.727997,706.624023
583.648010,419.679993,704.671997
593.408020,407.967987,698.815979
589.504028,415.776001,704.671997
571.935974,390.399994,706.624023
552.416016,435.295990,706.624023
542.656006,466.528015,704.671997
544.607971,445.056000,706.624023
540.703979,415.776001,708.575989
540.703979,445.056000,692.960022
544.607971,454.816010,685.151978
534.848022,425.536011,681.247986
538.752014,421.631989,683.200012
540.703979,443.104004,692.960022
548.512024,443.104004,679.296021
542.656006,417.727997,689.056030
556.320007,415.776001,691.007996
536.799988,439.200012,700.768005
544.607971,450.911987,708.575989
540.703979,427.488007,712.479980
544.607971,404.063995,716.383972
550.463989,421.631989,710.528015
556.320007,441.152008,718.335999
566.080017,413.824005,730.047974
564.127991,415.776001,739.807983
564.127991,427.488007,741.760010
560.223999,437.247986,735.903992
558.271973,431.391998,739.807983
560.223999,419.679993,747.616028
554.367981,431.391998,728.096008
556.320007,452.864014,724.192017
556.320007,427.488007,728.096008
548.512024,404.063995,724.192017
550.463989,421.631989,716.383972
552.416016,439.200012,714.432007
548.512024,409.920013,714.432007
548.512024,400.160004,708.575989
556.320007,413.824005,700.768005
546.559998,423.584015,700.768005
548.512024,396.256012,700.768005
544.607971,390.399994,698.815979
538.752014,407.967987,704.671997
534.848022,407.967987,700.768005
534.848022,390.399994,708.575989
540.703979,378.687988,700.768005
554.367981,394.303986,698.815979
538.752014,396.256012,706.624023
540.703979,376.735992,704.671997
538.752014,363.071991,710.528015
552.416016,370.880005,708.575989
544.607971,374.783997,724.192017
538.752014,372.832001,714.432007
540.703979,353.312012,716.383972
538.752014,366.976013,716.383972
536.799988,365.023987,726.143982
536.799988,347.455994,714.432007
536.799988,345.503998,726.143982
532.895996,351.359985,718.335999
534.848022,351.359985,728.096008
540.703979,335.743988,716.383972
536.799988,329.888000,716.383972
525.088013,327.936005,716.383972
528.992004,331.839996,702.719971
523.135986,333.791992,712.479980
527.039978,339.648010,714.432007
523.135986,337.696014,700.768005
517.280029,337.696014,702.719971
525.088013,339.648010,702.719971
517.280029,335.743988,704.671997
521.184021,327.936005,698.815979
519.231995,331.839996,708.575989
517.280029,327.936005,700.768005
521.184021,327.936005,708.575989
523.135986,325.984009,702.719971
528.992004,327.936005,712.479980
534.848022,327.936005,702.719971
530.943970,325.984009,712.479980
532.895996,318.175995,712.479980
528.992004,322.079987,716.383972
538.752014,324.032013,710.528015
536.799988,320.127991,716.383972
536.799988,324.032013,704.671997
542.656006,316.223999,692.960022
538.752014,308.415985,698.815979
548.512024,318.175995,696.864014
542.656006,322.079987,700.768005
548.512024,324.032013,708.575989
550.463989,333.791992,700.768005
548.512024,324.032013,710.528015
556.320007,322.079987,704.671997
556.320007,320.127991,702.719971
558.271973,331.839996,706.624023
558.271973,325.984009,704.671997
558.271973,322.079987,704.671997
564.127991,324.032013,712.479980
569.984009,329.888000,708.575989
571.935974,324.032013,708.575989
575.840027,324.032013,710.528015
587.552002,325.984009,718.335999
587.552002,327.936005,716.383972
591.455994,325.984009,716.383972
597.312012,324.032013,728.096008
589.504028,327.936005,732.000000
589.504028,331.839996,728.096008
603.168030,337.696014,718.335999
599.263977,327.936005,732.000000
605.119995,335.743988,726.143982
612.927979,333.791992,743.711975
609.023987,343.552002,737.856018
609.023987,339.648010,737.856018
605.119995,331.839996,741.760010
618.783997,341.600006,741.760010
620.736023,339.648010,739.807983
618.783997,347.455994,743.711975
618.783997,347.455994,737.856018
618.783997,347.455994,747.616028
624.640015,353.312012,745.664001
628.544006,337.696014,737.856018
634.400024,343.552002,735.903992
630.495972,351.359985,743.711975
626.591980,349.407990,726.143982
628.544006,341.600006,743.711975
634.400024,349.407990,743.711975
634.400024,351.359985,735.903992
626.591980,345.503998,741.760010
636.351990,345.503998,755.424011
632.447998,353.312012,751.520020
628.544006,339.648010,749.567993
634.400024,343.552002,747.616028
634.400024,351.359985,745.664001
632.447998,361.119995,745.664001
642.208008,365.023987,739.807983
636.351990,359.167999,733.952026
638.304016,359.167999,733.952026
632.447998,374.783997,735.903992
644.159973,376.735992,732.000000
644.159973,380.640015,732.000000
646.112000,380.640015,735.903992
648.064026,384.544006,724.192017
650.015991,388.447998,743.711975
644.159973,378.687988,743.711975
650.015991,384.544006,743.711975
644.159973,386.496002,747.616028
644.159973,388.447998,739.807983
648.064026,396.256012,745.664001
650.015991,390.399994,743.711975
644.159973,386.496002,749.567993
646.112000,400.160004,743.711975
648.064026,396.256012,751.520020
650.015991,390.399994,747.616028
644.159973,396.256012,747.616028
642.208008,411.872009,741.760010
636.351990,411.872009,737.856018
634.400024,411.872009,735.903992
640.255981,417.727997,732.000000
640.255981,427.488007,728.096008
636.351990,421.631989,726.143982
632.447998,439.200012,726.143982
640.255981,435.295990,728.096008
638.304016,439.200012,724.192017
636.351990,433.343994,724.192017
630.495972,443.104004,722.239990
630.495972,450.911987,724.192017
646.112000,454.816010,726.143982
634.400024,448.959991,722.239990
630.495972,450.911987,720.288025
630.495972,441.152008,722.239990
642.208008,445.056000,718.335999
624.640015,447.007996,726.143982
634.400024,452.864014,728.096008
628.544006,450.911987,728.096008
634.400024,452.864014,728.096008
632.447998,458.720001,726.143982
634.400024,448.959991,728.096008
622.687988,456.768005,728.096008
628.544006,460.671997,728.096008
630.495972,464.575989,718.335999
632.447998,468.480011,716.383972
638.304016,466.528015,714.432007
634.400024,474.335999,710.528015
622.687988,472.384003,712.479980
630.495972,474.335999,714.432007
620.736023,478.239990,716.383972
624.640015,478.239990,712.479980
622.687988,472.384003,718.335999
618.783997,482.144012,718.335999
616.831970,464.575989,702.719971
618.783997,468.480011,708.575989
610.976013,476.287994,710.528015
616.831970,474.335999,706.624023
612.927979,464.575989,708.575989
614.880005,468.480011,712.479980
618.783997,464.575989,708.575989
610.976013,466.528015,700.768005
603.168030,478.239990,708.575989
607.072021,482.144012,700.768005
610.976013,470.432007,702.719971
610.976013,464.575989,694.911987
601.216003,470.432007,694.911987
603.168030,472.384003,696.864014
605.119995,472.384003,698.815979
614.880005,478.239990,694.911987
607.072021,464.575989,692.960022
603.168030,470.432007,698.815979
599.263977,472.384003,694.911987
603.168030,472.384003,700.768005
601.216003,464.575989,694.911987
601.216003,458.720001,700.768005
599.263977,470.432007,706.624023
593.408020,460.671997,698.815979
593.408020,466.528015,702.719971
595.359985,472.384003,702.719971
589.504028,452.864014,704.671997
603.168030,460.671997,700.768005
593.408020,466.528015,696.864014
587.552002,456.768005,696.864014
585.599976,454.816010,692.960022
599.263977,454.816010,683.200012
587.552002,458.720001,681.247986
589.504028,458.720001,677.343994
587.552002,445.056000,683.200012
585.599976,441.152008,679.296021
585.599976,448.959991,675.392029
593.408020,445.056000,681.247986
593.408020,441.152008,675.392029
589.504028,447.007996,677.343994
587.552002,441.152008,687.104004
595.359985,433.343994,683.200012
593.408020,429.440002,679.296021
597.312012,427.488007,679.296021
593.408020,425.536011,681.247986
591.455994,427.488007,679.296021
587.552002,417.727997,687.104004
589.504028,421.631989,689.056030
585.599976,429.440002,679.296021
599.263977,423.584015,685.151978
599.263977,427.488007,675.392029
587.552002,431.391998,696.864014
595.359985,425.536011,681.247986
585.599976,419.679993,683.200012
591.455994,421.631989,675.392029
591.455994,421.631989,681.247986
583.648010,425.536011,673.440002
583.648010,413.824005,681.247986
571.935974,415.776001,671.487976
573.888000,423.584015,677.343994
562.176025,415.776001,685.151978
568.031982,407.967987,663.679993
569.984009,409.920013,671.487976
558.271973,409.920013,687.104004
556.320007,409.920013,685.151978
558.271973,394.303986,679.296021
560.223999,390.399994,689.056030
554.367981,411.872009,694.911987
560.223999,398.208008,689.056030
550.463989,394.303986,696.864014
550.463989,394.303986,691.007996
546.559998,396.256012,698.815979
544.607971,398.208008,698.815979
546.559998,396.256012,698.815979
542.656006,404.063995,698.815979
538.752014,407.967987,704.671997
542.656006,400.160004,706.624023
542.656006,404.063995,704.671997
546.559998,419.679993,704.671997
534.848022,421.631989,702.719971
534.848022,417.727997,704.671997
542.656006,402.112000,698.815979
538.752014,402.112000,698.815979
546.559998,419.679993,698.815979
534.848022,421.631989,696.864014
534.848022,407.967987,700.768005
542.656006,407.967987,694.911987
534.848022,415.776001,696.864014
544.607971,409.920013,698.815979
538.752014,400.160004,692.960022
542.656006,409.920013,696.864014
540.703979,419.679993,691.007996
540.703979,407.967987,692.960022
536.799988,411.872009,691.007996
530.943970,404.063995,687.104004
530.943970,417.727997,692.960022
542.656006,415.776001,691.007996
546.559998,394.303986,694.911987
544.607971,404.063995,685.151978
554.367981,407.967987,689.056030
546.559998,390.399994,696.864014
556.320007,398.208008,685.151978
552.416016,398.208008,689.056030
552.416016,400.160004,683.200012
564.127991,398.208008,683.200012
562.176025,386.496002,685.151978
562.176025,394.303986,691.007996
560.223999,406.015991,691.007996
556.320007,394.303986,696.864014
562.176025,392.351990,696.864014
564.127991,388.447998,692.960022
571.935974,390.399994,689.056030
571.935974,390.399994,691.007996
573.888000,374.783997,691.007996
573.888000,384.544006,694.911987
579.744019,380.640015,687.104004
573.888000,378.687988,694.911987
571.935974,376.735992,696.864014
577.791992,370.880005,704.671997
579.744019,376.735992,694.911987
573.888000,376.735992,698.815979
583.648010,374.783997,692.960022
579.744019,365.023987,700.768005
591.455994,374.783997,710.528015
587.552002,372.832001,708.575989
591.455994,361.119995,700.768005
585.599976,357.216003,704.671997
583.648010,365.023987,708.575989
585.599976,365.023987,710.528015
587.552002,359.167999,714.432007
591.455994,355.264008,716.383972
601.216003,368.928009,712.479980
593.408020,355.264008,710.528015
599.263977,349.407990,720.288025
595.359985,349.407990,706.624023
599.263977,353.312012,712.479980
601.216003,349.407990,710.528015
589.504028,339.648010,708.575989
601.216003,345.503998,704.671997
601.216003,343.552002,702.719971
593.408020,339.648010,706.624023
595.359985,331.839996,700.768005
593.408020,343.552002,698.815979
605.119995,339.648010,706.624023
599.263977,339.648010,702.719971
597.312012,329.888000,704.671997
605.119995,337.696014,710.528015
597.312012,335.743988,710.528015
614.880005,337.696014,710.528015
620.736023,333.791992,714.432007
620.736023,335.743988,710.528015
609.023987,335.743988,708.575989
607.072021,337.696014,712.479980
614.880005,343.552002,714.432007
610.976013,335.743988,706.624023
614.880005,345.503998,710.528015
614.880005,335.743988,708.575989
618.783997,327.936005,712.479980
614.880005,341.600006,712.479980
605.119995,347.455994,708.575989
616.831970,341.600006,712.479980
620.736023,345.503998,708.575989
618.783997,331.839996,700.768005
618.783997,337.696014,702.719971
618.783997,335.743988,698.815979
616.831970,337.696014,708.575989
612.927979,343.552002,698.815979
612.927979,341.600006,704.671997
622.687988,341.600006,691.007996
612.927979,339.648010,698.815979
612.927979,345.503998,698.815979
616.831970,335.743988,691.007996
616.831970,337.696014,694.911987
618.783997,339.648010,700.768005
618.783997,331.839996,691.007996
634.400024,327.936005,698.815979
622.687988,331.839996,696.864014
618.783997,331.839996,698.815979
632.447998,331.839996,691.007996
628.544006,333.791992,691.007996
632.447998,325.984009,691.007996
628.544006,318.175995,683.200012
624.640015,327.936005,687.104004
632.447998,325.984009,679.296021
626.591980,327.936005,691.007996
636.351990,324.032013,679.296021
642.208008,320.127991,679.296021
642.208008,320.127991,683.200012
636.351990,324.032013,689.056030
638.304016,310.368011,683.200012
638.304016,318.175995,683.200012
636.351990,304.511993,692.960022
644.159973,312.320007,679.296021
640.255981,308.415985,694.911987
642.208008,314.272003,698.815979
640.255981,302.559998,702.719971
644.159973,306.463989,691.007996
646.112000,308.415985,691.007996
650.015991,302.559998,685.151978
651.968018,314.272003,689.056030
657.823975,300.608002,692.960022
648.064026,298.656006,687.104004
646.112000,304.511993,689.056030
648.064026,308.415985,687.104004
651.968018,310.368011,696.864014
651.968018,298.656006,692.960022
648.064026,292.799988,692.960022
650.015991,292.799988,692.960022
653.919983,298.656006,694.911987
657.823975,296.704010,685.151978
657.823975,281.088013,681.247986
665.632019,281.088013,687.104004
667.583984,283.040009,692.960022
665.632019,279.135986,687.104004
675.392029,271.328003,687.104004
663.679993,273.279999,694.911987
661.728027,263.519989,685.151978
669.536011,269.376007,689.056030
659.776001,277.183990,685.151978
661.728027,284.992004,687.104004
667.583984,277.183990,675.392029
667.583984,271.328003,675.392029
669.536011,273.279999,675.392029
669.536011,275.231995,681.247986
673.440002,267.424011,683.200012
667.583984,267.424011,679.296021
667.583984,265.471985,667.583984
669.536011,259.615997,679.296021
679.296021,259.615997,683.200012
671.487976,269.376007,675.392029
663.679993,257.664001,677.343994
677.343994,257.664001,675.392029
671.487976,259.615997,675.392029
665.632019,249.856003,683.200012
665.632019,247.904007,675.392029
663.679993,257.664001,681.247986
677.343994,265.471985,677.343994
673.440002,251.807999,663.679993
671.487976,242.048004,669.536011
683.200012,244.000000,663.679993
685.151978,240.095993,661.728027
679.296021,236.192001,669.536011
681.247986,238.143997,671.487976
677.343994,234.240005,669.536011
677.343994,226.432007,663.679993
679.296021,226.432007,661.728027
681.247986,218.623993,659.776001
677.343994,228.384003,659.776001
687.104004,230.335999,665.632019
685.151978,224.479996,661.728027
679.296021,216.671997,659.776001
689.056030,206.912003,659.776001
683.200012,210.815994,653.919983
685.151978,208.863998,650.015991
689.056030,203.007996,655.872009
679.296021,189.343994,657.823975
687.104004,203.007996,653.919983
696.864014,187.391998,650.015991
700.768005,199.104004,665.632019
692.960022,197.151993,653.919983
691.007996,197.151993,659.776001
700.768005,183.488007,657.823975
698.815979,183.488007,655.872009
696.864014,187.391998,655.872009
679.296021,185.440002,657.823975
689.056030,189.343994,657.823975
694.911987,193.248001,648.064026
700.768005,185.440002,650.015991
689.056030,183.488007,644.159973
700.768005,185.440002,653.919983
696.864014,175.679993,636.351990
696.864014,181.535995,642.208008
704.671997,177.632004,642.208008
694.911987,175.679993,642.208008
689.056030,175.679993,646.112000
683.200012,179.584000,650.015991
692.960022,181.535995,650.015991
685.151978,173.727997,650.015991
702.719971,173.727997,644.159973
692.960022,167.871994,646.112000
696.864014,175.679993,644.159973
706.624023,171.776001,651.968018
710.528015,171.776001,655.872009
702.719971,173.727997,648.064026
712.479980,181.535995,646.112000
712.479980,167.871994,651.968018
702.719971,169.824005,653.919983
700.768005,179.584000,657.823975
720.288025,185.440002,657.823975
696.864014,187.391998,655.872009
724.192017,181.535995,653.919983
700.768005,175.679993,646.112000
712.479980,183.488007,650.015991
706.624023,193.248001,642.208008
698.815979,189.343994,632.447998
722.239990,183.488007,644.159973
714.432007,173.727997,646.112000
722.239990,187.391998,642.208008
716.383972,191.296005,648.064026
704.671997,191.296005,644.159973
716.383972,185.440002,648.064026
712.479980,195.199997,644.159973
710.528015,187.391998,644.159973
710.528015,183.488007,650.015991
712.479980,203.007996,651.968018
712.479980,203.007996,653.919983
720.288025,193.248001,653.919983
714.432007,197.151993,648.064026
716.383972,203.007996,642.208008
716.383972,216.671997,640.255981
718.335999,216.671997,646.112000
718.335999,220.576004,644.159973
702.719971,218.623993,648.064026
706.624023,220.576004,644.159973
714.432007,218.623993,651.968018
702.719971,232.287994,642.208008
702.719971,232.287994,646.112000
706.624023,204.960007,648.064026
698.815979,224.479996,646.112000
712.479980,226.432007,640.255981
700.768005,232.287994,642.208008
712.479980,230.335999,644.159973
692.960022,234.240005,640.255981
706.624023,238.143997,634.400024
708.575989,236.192001,638.304016
708.575989,232.287994,624.640015
692.960022,226.432007,638.304016
694.911987,222.528000,634.400024
694.911987,244.000000,626.591980
691.007996,247.904007,620.736023
689.056030,242.048004,626.591980
692.960022,230.335999,616.831970
694.911987,247.904007,626.591980
692.960022,236.192001,622.687988
704.671997,236.192001,628.544006
698.815979,236.192001,626.591980
687.104004,234.240005,624.640015
700.768005,236.192001,622.687988
692.960022,244.000000,628.544006
733.952026,247.904007,622.687988
743.711975,247.904007,628.544006
708.575989,284.992004,622.687988
698.815979,294.752014,630.495972
696.864014,271.328003,636.351990
694.911987,284.992004,638.304016
718.335999,302.559998,632.447998
704.671997,249.856003,636.351990
716.383972,212.768005,624.640015
702.719971,228.384003,632.447998
704.671997,249.856003,628.544006
700.768005,220.576004,630.495972
694.911987,195.199997,628.544006
696.864014,218.623993,626.591980
712.479980,245.951996,624.640015
694.911987,228.384003,626.591980
698.815979,220.576004,624.640015
692.960022,240.095993,632.447998
694.911987,261.567993,624.640015
700.768005,242.048004,612.927979
704.671997,247.904007,618.783997
706.624023,255.712006,614.880005
698.815979,286.944000,626.591980
685.151978,281.088013,612.927979
698.815979,273.279999,612.927979
687.104004,279.135986,622.687988
683.200012,283.040009,612.927979
694.911987,265.471985,612.927979
687.104004,245.951996,612.927979
683.200012,242.048004,620.736023
692.960022,253.759995,616.831970
704.671997,253.759995,618.783997
698.815979,226.432007,609.023987
692.960022,234.240005,616.831970
691.007996,253.759995,610.976013
687.104004,245.951996,603.168030
675.392029,224.479996,610.976013
692.960022,240.095993,612.927979
671.487976,263.519989,607.072021
681.247986,271.328003,599.263977
675.392029,240.095993,599.263977
675.392029,245.951996,607.072021
685.151978,269.376007,601.216003
673.440002,269.376007,603.168030
673.440002,253.759995,595.359985
665.632019,261.567993,595.359985
673.440002,269.376007,591.455994
671.487976,269.376007,599.263977
657.823975,251.807999,585.599976
665.632019,245.951996,593.408020
671.487976,257.664001,589.504028
669.536011,275.231995,585.599976
667.583984,255.712006,585.599976
659.776001,244.000000,581.695984
673.440002,255.712006,581.695984
673.440002,265.471985,587.552002
665.632019,247.904007,587.552002
655.872009,242.048004,579.744019
663.679993,251.807999,593.408020
655.872009,255.712006,589.504028
659.776001,251.807999,585.599976
655.872009,240.095993,587.552002
659.776001,244.000000,587.552002
659.776001,249.856003,589.504028
655.872009,249.856003,585.599976
653.919983,242.048004,589.504028
648.064026,251.807999,589.504028
651.968018,245.951996,585.599976
659.776001,240.095993,587.552002
653.919983,232.287994,587.552002
657.823975,236.192001,579.744019
663.679993,242.048004,573.888000
653.919983,234.240005,581.695984
646.112000,236.192001,577.791992
646.112000,242.048004,583.648010
648.064026,234.240005,583.648010
642.208008,232.287994,579.744019
640.255981,218.623993,568.031982
644.159973,230.335999,579.744019
638.304016,230.335999,585.599976
646.112000,218.623993,571.935974
640.255981,214.720001,583.648010
642.208008,203.007996,568.031982
646.112000,199.104004,566.080017
644.159973,203.007996,568.031982
636.351990,197.151993,571.935974
634.400024,189.343994,566.080017
638.304016,197.151993,566.080017
642.208008,208.863998,556.320007
636.351990,191.296005,562.176025
638.304016,208.863998,544.607971
638.304016,216.671997,548.512024
632.447998,195.199997,552.416016
632.447998,203.007996,534.848022
624.640015,201.056000,532.895996
630.495972,193.248001,540.703979
624.640015,201.056000,534.848022
626.591980,204.960007,538.752014
624.640015,197.151993,532.895996
624.640015,189.343994,530.943970
624.640015,187.391998,534.848022
626.591980,185.440002,523.135986
624.640015,181.535995,521.184021
630.495972,181.535995,517.280029
622.687988,175.679993,511.424011
610.976013,169.824005,519.231995
609.023987,177.632004,513.375977
601.216003,169.824005,523.135986
607.072021,160.063995,513.375977
622.687988,167.871994,507.519989
616.831970,162.016006,507.519989
618.783997,165.919998,505.567993
609.023987,152.255997,493.855988
601.216003,144.447998,497.760010
609.023987,148.352005,493.855988
618.783997,144.447998,484.096008
622.687988,144.447998,486.048004
616.831970,142.496002,486.048004
605.119995,146.399994,480.191986
614.880005,132.735992,476.287994
607.072021,142.496002,470.432007
603.168030,142.496002,462.623993
589.504028,134.688004,462.623993
597.312012,128.832001,458.720001
595.359985,115.167999,448.959991
593.408020,117.120003,462.623993
589.504028,115.167999,470.432007
593.408020,95.648003,474.335999
591.455994,74.176003,474.335999
595.359985,58.560001,466.528015
603.168030,42.944000,476.287994
605.119995,40.992001,482.144012
605.119995,33.183998,486.048004
610.976013,39.040001,478.239990
607.072021,40.992001,472.384003
618.783997,37.088001,472.384003
616.831970,50.751999,474.335999
614.880005,60.512001,464.575989
618.783997,72.223999,466.528015
614.880005,91.744003,452.864014
612.927979,93.695999,441.152008
618.783997,97.599998,437.247986
618.783997,105.407997,425.536011
618.783997,119.071999,419.679993
634.400024,105.407997,415.776001
630.495972,101.503998,402.112000
632.447998,80.031998,396.256012
640.255981,72.223999,392.351990
644.159973,39.040001,374.783997
661.728027,37.088001,378.687988
669.536011,21.472000,363.071991
655.872009,11.712000,366.976013
655.872009,11.712000,363.071991
663.679993,7.808000,365.023987
669.536011,9.760000,347.455994
677.343994,11.712000,347.455994
679.296021,3.904000,347.455994
691.007996,17.568001,355.264008
694.911987,29.280001,343.552002
689.056030,31.232000,343.552002
687.104004,33.183998,335.743988
692.960022,40.992001,341.600006
694.911987,44.896000,339.648010
700.768005,37.088001,335.743988
712.479980,35.136002,335.743988
722.239990,52.703999,341.600006
718.335999,31.232000,337.696014
714.432007,52.703999,335.743988
720.288025,52.703999,341.600006
714.432007,48.799999,327.936005
732.000000,31.232000,329.888000
733.952026,23.424000,329.888000
737.856018,13.664000,329.888000
745.664001,0.000000,327.936005
759.328003,5.856000,337.696014
767.135986,7.808000,347.455994
755.424011,-3.904000,355.264008
769.088013,3.904000,355.264008
782.752014,25.375999,361.119995
780.799988,40.992001,368.928009
776.895996,42.944000,372.832001
794.463989,60.512001,368.928009
792.512024,46.848000,386.496002
806.176025,58.560001,386.496002
810.080017,70.272003,392.351990
821.791992,46.848000,398.208008
825.695984,31.232000,419.679993
829.599976,39.040001,437.247986
835.455994,44.896000,454.816010
843.263977,42.944000,466.528015
841.312012,31.232000,472.384003
845.216003,39.040001,476.287994
841.312012,56.608002,480.191986
853.023987,52.703999,491.903992
851.072021,35.136002,491.903992
847.168030,33.183998,503.615997
860.831970,40.992001,505.567993
862.783997,44.896000,521.184021
862.783997,40.992001,523.135986
870.591980,21.472000,532.895996
870.591980,23.424000,530.943970
874.495972,42.944000,527.039978
868.640015,58.560001,523.135986
862.783997,42.944000,525.088013
862.783997,48.799999,523.135986
868.640015,46.848000,497.760010
864.736023,64.416000,491.903992
866.687988,80.031998,478.239990
868.640015,66.367996,464.575989
868.640015,58.560001,470.432007
860.831970,87.839996,441.152008
870.591980,81.984001,433.343994
864.736023,109.311996,423.584015
864.736023,146.399994,413.824005
860.831970,150.304001,411.872009
862.783997,134.688004,396.256012
866.687988,132.735992,394.303986
864.736023,156.160004,390.399994
886.208008,169.824005,372.832001
866.687988,140.544006,357.216003
884.255981,148.352005,343.552002
884.255981,154.207993,349.407990
878.400024,144.447998,341.600006
886.208008,165.919998,329.888000
874.495972,156.160004,329.888000
886.208008,134.688004,333.791992
894.015991,136.639999,331.839996
899.872009,169.824005,331.839996
892.064026,150.304001,331.839996
895.968018,111.264000,339.648010
911.583984,95.648003,349.407990
894.015991,113.216003,351.359985
890.112000,93.695999,355.264008
915.487976,60.512001,363.071991
915.487976,62.464001,361.119995
921.343994,80.031998,370.880005
905.728027,58.560001,366.976013
927.200012,46.848000,347.455994
933.056030,62.464001,347.455994
929.151978,60.512001,355.264008
944.768005,40.992001,365.023987
942.815979,37.088001,359.167999
950.624023,56.608002,372.832001
944.768005,56.608002,382.592010
952.575989,25.375999,368.928009
964.288025,33.183998,384.544006
970.143982,31.232000,392.351990
977.952026,15.616000,396.256012
985.760010,15.616000,411.872009
991.616028,33.183998,439.200012
989.664001,11.712000,452.864014
987.711975,1.952000,458.720001
999.424011,25.375999,472.384003
1003.328003,7.808000,480.191986
1013.088013,-23.424000,488.000000
1001.375977,1.952000,497.760010
1007.231995,7.808000,503.615997
1011.135986,-21.472000,503.615997
1022.848022,-13.664000,517.280029
1016.992004,-19.520000,532.895996
1032.608032,-23.424000,534.848022
1081.407959,-62.464001,544.607971
1020.895996,-70.272003,544.607971
948.671997,156.160004,534.848022
974.047974,302.559998,548.512024
1024.800049,39.040001,548.512024
1034.560059,-50.751999,544.607971
1040.416016,251.807999,548.512024
1030.656006,230.335999,546.559998
1083.359985,-11.712000,554.367981
1093.119995,40.992001,575.840027
1071.647949,130.783997,591.455994
1075.552002,72.223999,605.119995
1100.927979,60.512001,612.927979
1098.975952,46.848000,632.447998
1091.167969,-9.760000,646.112000
1093.119995,33.183998,661.728027
1083.359985,66.367996,673.440002
1093.119995,31.232000,704.671997
1087.264038,-31.232000,702.719971
1110.687988,42.944000,716.383972
1110.687988,72.223999,724.192017
1110.687988,19.520000,730.047974
1116.543945,15.616000,724.192017
1110.687988,46.848000,720.288025
1114.592041,66.367996,714.432007
1110.687988,83.935997,718.335999
1108.735962,87.839996,726.143982
1095.072021,62.464001,716.383972
1089.215942,97.599998,706.624023
1095.072021,162.016006,700.768005
1106.784058,119.071999,689.056030
1114.592041,121.024002,677.343994
1167.296021,163.968002,661.728027
1173.151978,216.671997,644.159973
1151.680054,244.000000,632.447998
1136.063965,210.815994,612.927979
1128.255981,179.584000,599.263977
1110.687988,226.432007,595.359985
1087.264038,234.240005,579.744019
1073.599976,214.720001,581.695984
1087.264038,99.552002,564.127991
1083.359985,58.560001,560.223999
1077.504028,193.248001,550.463989
1040.416016,171.776001,542.656006
1028.703979,64.416000,552.416016
1005.280029,119.071999,534.848022
1005.280029,242.048004,532.895996
974.047974,187.391998,515.328003
960.383972,97.599998,495.808014
931.104004,163.968002,480.191986
911.583984,275.231995,458.720001
907.679993,238.143997,445.056000
899.872009,169.824005,417.727997
899.872009,212.768005,398.208008
899.872009,275.231995,372.832001
895.968018,279.135986,361.119995
874.495972,220.576004,339.648010
870.591980,216.671997,316.223999
858.880005,273.279999,310.368011
847.168030,294.752014,290.847992
851.072021,220.576004,277.183990
854.976013,204.960007,265.471985
853.023987,249.856003,261.567993
864.736023,244.000000,253.759995
854.976013,193.248001,251.807999
856.927979,171.776001,232.287994
847.168030,210.815994,228.384003
841.312012,232.287994,220.576004
833.504028,189.343994,204.960007
821.791992,173.727997,197.151993
821.791992,201.056000,183.488007
819.840027,214.720001,167.871994
808.127991,179.584000,162.016006
804.223999,163.968002,136.639999
802.271973,183.488007,130.783997
806.176025,189.343994,119.071999
796.416016,175.679993,103.456001
806.176025,171.776001,85.888000
817.888000,175.679993,83.935997
817.888000,171.776001,81.984001
821.791992,154.207993,89.792000
829.599976,121.024002,111.264000
847.168030,122.975998,122.975998
833.504028,140.544006,144.447998
829.599976,130.783997,163.968002
833.504028,76.127998,179.584000
819.840027,85.888000,187.391998
810.080017,138.591995,197.151993
802.271973,122.975998,195.199997
804.223999,103.456001,206.912003
817.888000,101.503998,216.671997
802.271973,78.080002,232.287994
813.984009,-19.520000,320.127991
790.559998,199.104004,390.399994
776.895996,290.847992,363.071991
790.559998,44.896000,265.471985
843.263977,5.856000,175.679993
854.976013,3.904000,148.352005
856.927979,13.664000,185.440002
837.408020,154.207993,210.815994
815.935974,183.488007,210.815994
813.984009,130.783997,183.488007
833.504028,97.599998,146.399994
821.791992,42.944000,121.024002
794.463989,167.871994,119.071999
798.367981,255.712006,134.688004
772.992004,247.904007,128.832001
823.744019,156.160004,119.071999
851.072021,144.447998,93.695999
806.176025,165.919998,97.599998
886.208008,-107.360001,132.735992
761.280029,-181.535995,290.847992
1036.511963,-382.592010,472.384003
1054.079956,-511.424011,618.783997
1018.943970,-620.736023,712.479980
1048.223999,-655.872009,732.000000
1059.936035,-493.855988,683.200012
1034.560059,-519.231995,659.776001
1032.608032,-581.695984,644.159973
976.000000,-505.567993,609.023987
942.815979,-624.640015,632.447998
972.096008,-853.023987,673.440002
1022.848022,-569.984009,587.552002
1077.504028,-466.528015,528.992004
1067.744019,-417.727997,488.000000
1044.319946,-349.407990,443.104004
991.616028,-415.776001,398.208008
938.911987,-269.376007,333.791992
929.151978,-115.167999,236.192001
923.296021,-81.984001,185.440002
927.200012,7.808000,138.591995
911.583984,58.560001,119.071999
907.679993,97.599998,121.024002
917.440002,126.879997,132.735992
927.200012,105.407997,150.304001
933.056030,83.935997,173.727997
948.671997,27.327999,212.768005
968.192017,17.568001,244.000000
987.711975,0.000000,273.279999
989.664001,-17.568001,310.368011
997.471985,-58.560001,331.839996
1005.280029,-91.744003,335.743988
999.424011,-62.464001,361.119995
999.424011,-25.375999,349.407990
1005.280029,-7.808000,355.264008
1011.135986,-19.520000,347.455994
1013.088013,-15.616000,353.312012
1011.135986,-1.952000,351.359985
1013.088013,17.568001,351.359985
999.424011,33.183998,345.503998
999.424011,54.655998,343.552002
985.760010,56.608002,327.936005
983.807983,54.655998,308.415985
974.047974,78.080002,290.847992
954.528015,101.503998,275.231995
944.768005,89.792000,261.567993
958.432007,81.984001,249.856003
964.288025,74.176003,257.664001
976.000000,46.848000,257.664001
972.096008,13.664000,271.328003
976.000000,-25.375999,271.328003
974.047974,-39.040001,261.567993
985.760010,-62.464001,259.615997
968.192017,-62.464001,251.807999
970.143982,-60.512001,216.671997
964.288025,-23.424000,206.912003
944.768005,1.952000,191.296005
921.343994,-5.856000,191.296005
935.007996,-9.760000,181.535995
952.575989,-9.760000,183.488007
936.960022,-1.952000,175.679993
938.911987,7.808000,177.632004
929.151978,17.568001,173.727997
915.487976,27.327999,175.679993
935.007996,80.031998,185.440002
935.007996,122.975998,195.199997
933.056030,124.928001,203.007996
917.440002,115.167999,228.384003
903.776001,39.040001,240.095993
929.151978,-27.327999,242.048004
917.440002,-39.040001,245.951996
915.487976,-50.751999,226.432007
901.823975,-25.375999,199.104004
884.255981,-33.183998,167.871994
870.591980,13.664000,128.832001
823.744019,40.992001,89.792000
956.479980,89.792000,54.655998
806.176025,64.416000,48.799999
755.424011,5.856000,29.280001
759.328003,27.327999,-3.904000
845.216003,138.591995,-29.280001
864.736023,83.935997,-17.568001
946.719971,-181.535995,29.280001
991.616028,-406.015991,74.176003
925.247986,-341.600006,122.975998
954.528015,11.712000,220.576004
935.007996,521.184021,359.167999
940.864014,876.447998,452.864014
923.296021,952.575989,484.096008
956.479980,556.320007,480.191986
1003.328003,-234.240005,458.720001
1061.887939,-905.728027,443.104004
1063.839966,-997.471985,431.391998
1016.992004,-669.536011,419.679993
981.856018,-195.199997,370.880005
956.479980,244.000000,320.127991
936.960022,431.391998,269.376007
921.343994,333.791992,222.528000
923.296021,105.407997,183.488007
915.487976,-76.127998,158.112000
927.200012,-150.304001,156.160004
915.487976,-105.407997,165.919998
929.151978,-42.944000,160.063995
901.823975,11.712000,152.255997
890.112000,31.232000,158.112000
880.351990,48.799999,146.399994
862.783997,76.127998,134.688004
856.927979,91.744003,128.832001
856.927979,115.167999,119.071999
884.255981,130.783997,99.552002
841.312012,140.544006,91.744003
792.512024,148.352005,72.223999
782.752014,214.720001,44.896000
905.728027,320.127991,1.952000
933.056030,378.687988,-21.472000
929.151978,316.223999,-50.751999
837.408020,218.623993,-21.472000
827.648010,265.471985,-11.712000
825.695984,394.303986,-23.424000
895.968018,427.488007,-19.520000
968.192017,521.184021,5.856000
931.104004,706.624023,101.503998
938.911987,663.679993,175.679993
968.192017,324.032013,275.231995
1016.992004,-91.744003,312.320007
1040.416016,-394.303986,357.216003
1036.511963,-421.631989,372.832001
1015.039978,-183.488007,386.496002
981.856018,113.216003,396.256012
960.383972,99.552002,406.015991
960.383972,-124.928001,443.104004
968.192017,-300.608002,468.480011
1001.375977,-195.199997,484.096008
1028.703979,74.176003,476.287994
1024.800049,242.048004,445.056000
985.760010,132.735992,400.160004
938.911987,-68.320000,349.407990
925.247986,-165.919998,296.704010
909.632019,-56.608002,251.807999
921.343994,142.496002,212.768005
895.968018,247.904007,167.871994
878.400024,204.960007,132.735992
870.591980,62.464001,91.744003
876.447998,-13.664000,52.703999
868.640015,3.904000,19.520000
864.736023,101.503998,-11.712000
835.455994,197.151993,-25.375999
808.127991,247.904007,-54.655998
784.703979,247.904007,-91.744003
808.127991,173.727997,-107.360001
952.575989,146.399994,-165.919998
817.888000,5.856000,-160.063995
798.367981,-70.272003,-171.776001
616.831970,80.031998,-175.679993
683.200012,355.264008,-208.863998
804.223999,437.247986,-242.048004
788.607971,208.863998,-232.287994
835.455994,-111.264000,-226.432007
1024.800049,-331.839996,-212.768005
1005.280029,-462.623993,-167.871994
970.143982,-349.407990,-144.447998
940.864014,23.424000,-146.399994
851.072021,327.936005,-122.975998
856.927979,355.264008,-101.503998
890.112000,384.544006,-50.751999
886.208008,456.768005,37.088001
917.440002,425.536011,158.112000
960.383972,169.824005,255.712006
1026.751953,-296.704010,261.567993
1069.696045,-890.112000,251.807999
1108.735962,-1366.400024,261.567993
1063.839966,-1065.791992,320.127991
977.952026,27.327999,355.264008
1009.184021,897.919983,335.743988
1020.895996,944.768005,314.272003
1022.848022,267.424011,255.712006
1071.647949,-610.976013,203.007996
1095.072021,-1034.560059,156.160004
1061.887939,-712.479980,128.832001
1042.368042,50.751999,81.984001
1073.599976,610.976013,29.280001
1102.880005,714.432007,-11.712000
1077.504028,333.791992,-42.944000
1061.887939,-232.287994,-74.176003
1075.552002,-542.656006,-91.744003
1061.887939,-423.584015,-103.456001
1067.744019,-44.896000,-124.928001
1036.511963,366.976013,-169.824005
960.383972,595.359985,-232.287994
958.432007,505.567993,-290.847992
870.591980,224.479996,-318.175995
911.583984,56.608002,-368.928009
860.831970,27.327999,-361.119995
895.968018,230.335999,-345.503998
921.343994,571.935974,-263.519989
1016.992004,804.223999,-195.199997
1020.895996,612.927979,-122.975998
1079.456055,183.488007,-122.975998
1149.728027,-316.223999,-134.688004
1173.151978,-704.671997,-99.552002
1104.832031,-780.799988,-7.808000
1065.791992,-427.488007,52.703999
1028.703979,89.792000,95.648003
976.000000,378.687988,109.311996
977.952026,302.559998,97.599998
970.143982,-3.904000,72.223999
1016.992004,-298.656006,7.808000
1032.608032,-429.440002,-35.136002
1048.223999,-290.847992,-76.127998
1056.031982,19.520000,-103.456001
1048.223999,292.799988,-126.879997
1095.072021,392.351990,-162.016006
1095.072021,325.984009,-179.584000
1114.592041,160.063995,-179.584000
1145.823975,-21.472000,-187.391998
1108.735962,-130.783997,-158.112000
1130.208008,-97.599998,-158.112000
1069.696045,-29.280001,-130.783997
1089.215942,78.080002,-138.591995
1104.832031,117.120003,-162.016006
1110.687988,-124.928001,-140.544006
1050.176025,-327.936005,-64.416000
1097.024048,-60.512001,11.712000
1077.504028,370.880005,101.503998
1042.368042,657.823975,119.071999
763.231995,568.031982,163.968002
948.671997,212.768005,68.320000
976.000000,-302.559998,21.472000
999.424011,-607.072021,-21.472000
1034.560059,-540.703979,-89.792000
1069.696045,-187.391998,-154.207993
1067.744019,167.871994,-214.720001
1139.968018,335.743988,-290.847992
1155.583984,267.424011,-337.696014
1138.015991,52.703999,-368.928009
1175.104004,-152.255997,-404.063995
1122.400024,-281.088013,-419.679993
1095.072021,-304.511993,-423.584015
1091.167969,201.056000,-386.496002
1018.943970,976.000000,-245.951996
1114.592041,1456.192017,-99.552002
985.760010,1130.208008,74.176003
901.823975,-48.799999,189.343994
952.575989,-1247.328003,206.912003
979.903992,-1600.640015,158.112000
1005.280029,-921.343994,87.839996
944.768005,218.623993,3.904000
1270.751953,1054.079956,-163.968002
800.320007,1075.552002,-138.591995
632.447998,448.959991,-216.671997
827.648010,-318.175995,-372.832001
935.007996,-880.351990,-484.096008
1016.992004,-866.687988,-577.791992
1122.400024,-448.959991,-640.255981
1118.495972,101.503998,-667.583984
989.664001,486.048004,-634.400024
995.520020,566.080017,-630.495972
1085.312012,314.272003,-620.736023
1093.119995,-165.919998,-595.359985
1050.176025,-579.744019,-527.039978
1069.696045,-833.504028,-443.104004
1052.128052,-868.640015,-343.552002
1173.151978,-562.176025,-279.135986
1180.959961,-101.503998,-165.919998
1175.104004,462.623993,-89.792000
1147.776001,888.159973,-1.952000
1118.495972,1089.215942,60.512001
1093.119995,771.039978,80.031998
1022.848022,-95.648003,35.136002
1044.319946,-901.823975,-15.616000
1071.647949,-1095.072021,-56.608002
1040.416016,-751.520020,-99.552002
1015.039978,-66.367996,-169.824005
1013.088013,493.855988,-238.143997
960.383972,624.640015,-281.088013
940.864014,363.071991,-331.839996
952.575989,-91.744003,-419.679993
974.047974,-409.920013,-486.048004
966.239990,-425.536011,-534.848022
1003.328003,-189.343994,-607.072021
1048.223999,107.360001,-671.487976
870.591980,226.432007,-646.112000
739.807983,277.183990,-601.216003
841.312012,191.296005,-644.159973
804.223999,40.992001,-679.296021
944.768005,-115.167999,-755.424011
892.064026,-226.432007,-763.231995
888.159973,-314.272003,-782.752014
1169.248047,-230.335999,-884.255981
1098.975952,-156.160004,-806.176025
1292.223999,-140.544006,-786.656006
1073.599976,275.231995,-605.119995
1011.135986,771.039978,-423.584015
792.512024,735.903992,-265.471985
1042.368042,335.743988,-320.127991
1155.583984,-218.623993,-380.640015
1050.176025,-585.599976,-404.063995
1200.479980,-573.888000,-488.000000
909.632019,-349.407990,-423.584015
1073.599976,56.608002,-447.007996
1204.384033,421.631989,-388.447998
1165.343994,394.303986,-78.080002
1477.663940,-210.815994,542.656006
1969.567993,-1013.088013,1534.271973
2637.152100,-1653.343994,2799.167969
3382.815918,-2141.343994,4163.616211
4075.775879,-2358.016113,5012.735840
4479.839844,-1372.255981,4999.071777
4405.664062,183.488007,4181.184082
4163.616211,1204.384033,3209.087891
3661.951904,1594.784058,2475.135986
3199.327881,1348.832031,1871.968018
2650.815918,917.440002,1241.472046
2096.447998,650.015991,542.656006
1499.135986,581.695984,-87.839996
1046.271973,585.599976,-614.880005
675.392029,650.015991,-1009.184021
368.928009,733.952026,-1319.552002
150.304001,812.031982,-1514.751953
154.207993,341.600006,-1702.144043
279.135986,-382.592010,-1791.936035
400.160004,-441.152008,-1741.183960
550.463989,-42.944000,-1520.608032
812.031982,286.944000,-1186.816040
1214.144043,249.856003,-669.536011
1540.128052,-44.896000,44.896000
2121.823975,-306.463989,646.112000
2498.560059,-478.239990,1034.560059
2424.384033,-396.256012,1257.088013
2463.424072,-113.216003,1182.911987
2281.887939,-222.528000,956.479980
2180.384033,-720.288025,542.656006
1692.384033,-1192.671997,89.792000
1315.647949,-1118.495972,-435.295990
911.583984,-747.616028,-823.744019
648.064026,-251.807999,-1020.895996
501.664001,286.944000,-993.567993
370.880005,140.544006,-806.176025
443.104004,-458.720001,-599.263977
318.175995,-390.399994,-878.400024
156.160004,790.559998,-1337.119995
-87.839996,2100.352051,-1298.079956
261.567993,2510.271973,-923.296021
821.791992,2178.431885,-365.023987
1233.663940,1768.511963,87.839996
1428.864014,1149.728027,269.376007
1838.784058,-173.727997,42.944000
1544.031982,-1547.936035,-160.063995
560.223999,-2459.520020,3.904000
1175.104004,-1916.864014,-214.720001
1481.567993,-1600.640015,-249.856003
1614.303955,-1895.391968,-386.496002
1540.128052,-2129.632080,-429.440002
1606.495972,-1856.352051,-573.888000
1530.368042,-1284.416016,-720.288025
819.840027,-995.520020,-548.512024
979.903992,-1087.264038,-691.007996
972.096008,122.975998,-763.231995
562.176025,1961.760010,-462.623993
702.719971,2438.048096,-423.584015
585.599976,2543.456055,-484.096008
630.495972,2547.360107,-646.112000
1179.008057,2430.239990,-897.919983
1239.520020,2178.431885,-730.047974
1301.984009,1647.488037,-339.648010
1391.776001,1013.088013,13.664000
1483.520020,501.664001,66.367996
1469.855957,64.416000,-91.744003
1358.592041,-312.320007,-236.192001
1350.784058,-747.616028,-359.167999
1171.199951,-1097.024048,-431.391998
1003.328003,-1194.624023,-614.880005
784.703979,-1110.687988,-753.471985
671.487976,-1022.848022,-732.000000
609.023987,-942.815979,-591.455994
628.544006,-812.031982,-587.552002
854.976013,-554.367981,-724.192017
1020.895996,-146.399994,-755.424011
1139.968018,234.240005,-560.223999
1227.807983,560.223999,-298.656006
1262.943970,737.856018,-113.216003
1325.407959,792.512024,-97.599998
1333.215942,741.760010,-167.871994
1247.328003,638.304016,-238.143997
1223.904053,431.391998,-359.167999
1038.463989,329.888000,-445.056000
903.776001,329.888000,-495.808014
851.072021,144.447998,-527.039978
979.903992,-148.352005,-513.375977
1075.552002,-271.328003,-411.872009
1114.592041,-665.632019,-316.223999
1100.927979,-851.072021,-380.640015
1007.231995,-749.567993,-554.367981
915.487976,-527.039978,-655.872009
837.408020,-163.968002,-650.015991
743.711975,99.552002,-546.559998
724.192017,191.296005,-450.911987
702.719971,206.912003,-368.928009
595.359985,288.895996,-339.648010
962.335999,72.223999,-505.567993
976.000000,33.183998,-519.231995
958.432007,117.120003,-443.104004
974.047974,85.888000,-417.727997
976.000000,0.000000,-406.015991
1046.271973,15.616000,-384.544006
1040.416016,91.744003,-361.119995
1036.511963,35.136002,-376.735992
1001.375977,27.327999,-374.783997
987.711975,130.783997,-394.303986
1001.375977,140.544006,-392.351990
1009.184021,85.888000,-390.399994
1009.184021,50.751999,-384.544006
1003.328003,35.136002,-394.303986
1005.280029,40.992001,-394.303986
981.856018,40.992001,-392.351990
977.952026,25.375999,-372.832001
1007.231995,-5.856000,-378.687988
1038.463989,-39.040001,-394.303986
1056.031982,-46.848000,-400.160004
1054.079956,-40.992001,-409.920013
1056.031982,-42.944000,-417.727997
1063.839966,-29.280001,-404.063995
1083.359985,-3.904000,-404.063995
1100.927979,15.616000,-396.256012
1095.072021,15.616000,-390.399994
1065.791992,29.280001,-380.640015
1044.319946,44.896000,-398.208008
1030.656006,35.136002,-415.776001
1036.511963,33.183998,-419.679993
1034.560059,40.992001,-407.967987
1034.560059,62.464001,-392.351990
1020.895996,70.272003,-376.735992
1022.848022,70.272003,-404.063995
1022.848022,72.223999,-425.536011
1020.895996,17.568001,-443.104004
1016.992004,13.664000,-425.536011
1007.231995,39.040001,-407.967987
997.471985,58.560001,-433.343994
1001.375977,56.608002,-433.343994
1013.088013,66.367996,-417.727997
1028.703979,66.367996,-361.119995
1050.176025,91.744003,-329.888000
1057.984009,191.296005,-365.023987
1077.504028,281.088013,-398.208008
1071.647949,292.799988,-415.776001
1048.223999,275.231995,-404.063995
1024.800049,204.960007,-365.023987
983.807983,179.584000,-392.351990
960.383972,154.207993,-470.432007
958.432007,81.984001,-468.480011
954.528015,44.896000,-468.480011
962.335999,7.808000,-480.191986
970.143982,-13.664000,-480.191986
993.567993,-23.424000,-464.575989
1013.088013,-1.952000,-443.104004
1050.176025,7.808000,-407.967987
1083.359985,15.616000,-382.592010
1098.975952,44.896000,-359.167999
1089.215942,89.792000,-376.735992
1073.599976,115.167999,-382.592010
1057.984009,140.544006,-413.824005
1050.176025,169.824005,-462.623993
1046.271973,181.535995,-493.855988
1044.319946,148.352005,-464.575989
1042.368042,119.071999,-435.295990
1038.463989,89.792000,-386.496002
1032.608032,68.320000,-366.976013
1034.560059,66.367996,-398.208008
1038.463989,25.375999,-378.687988
1042.368042,-5.856000,-349.407990
1052.128052,19.520000,-372.832001
1030.656006,42.944000,-419.679993
1032.608032,46.848000,-413.824005
1026.751953,54.655998,-404.063995
1024.800049,62.464001,-394.303986
1015.039978,76.127998,-400.160004
983.807983,74.176003,-394.303986
985.760010,66.367996,-400.160004
966.239990,68.320000,-409.920013
972.096008,58.560001,-441.152008
974.047974,68.320000,-460.671997
979.903992,81.984001,-470.432007
989.664001,87.839996,-452.864014
1003.328003,70.272003,-382.592010
1003.328003,66.367996,-365.023987
1018.943970,35.136002,-386.496002
1016.992004,31.232000,-421.631989
1011.135986,50.751999,-433.343994
1009.184021,80.031998,-415.776001
999.424011,76.127998,-435.295990
987.711975,99.552002,-466.528015
976.000000,119.071999,-501.664001
966.239990,119.071999,-480.191986
974.047974,140.544006,-470.432007
987.711975,121.024002,-486.048004
997.471985,111.264000,-460.671997
995.520020,117.120003,-441.152008
989.664001,103.456001,-429.440002
976.000000,107.360001,-458.720001
976.000000,95.648003,-476.287994
976.000000,91.744003,-443.104004
970.143982,95.648003,-433.343994
977.952026,80.031998,-437.247986
977.952026,66.367996,-472.384003
987.711975,74.176003,-491.903992
977.952026,89.792000,-458.720001
966.239990,95.648003,-413.824005
979.903992,76.127998,-429.440002
972.096008,52.703999,-435.295990
966.239990,62.464001,-433.343994
968.192017,62.464001,-454.816010
956.479980,78.080002,-474.335999
952.575989,83.935997,-470.432007
938.911987,113.216003,-452.864014
938.911987,111.264000,-458.720001
942.815979,97.599998,-488.000000
936.960022,85.888000,-478.239990
921.343994,72.223999,-439.200012
923.296021,80.031998,-447.007996
936.960022,66.367996,-480.191986
944.768005,87.839996,-458.720001
929.151978,89.792000,-441.152008
923.296021,78.080002,-458.720001
921.343994,66.367996,-464.575989
909.632019,78.080002,-470.432007
890.112000,89.792000,-470.432007
890.112000,85.888000,-513.375977
892.064026,72.223999,-505.567993
888.159973,95.648003,-482.144012
915.487976,64.416000,-521.184021
913.536011,58.560001,-474.335999
940.864014,72.223999,-458.720001
970.143982,64.416000,-515.328003
1001.375977,58.560001,-511.424011
1013.088013,101.503998,-456.768005
999.424011,183.488007,-466.528015
931.104004,179.584000,-427.488007
899.872009,142.496002,-466.528015
892.064026,78.080002,-605.119995
864.736023,66.367996,-579.744019
849.119995,48.799999,-519.231995
849.119995,9.760000,-534.848022
853.023987,0.000000,-491.903992
870.591980,-11.712000,-452.864014
909.632019,0.000000,-472.384003
942.815979,35.136002,-464.575989
968.192017,103.456001,-452.864014
1003.328003,171.776001,-482.144012
1005.280029,222.528000,-470.432007
999.424011,226.432007,-411.872009
1007.231995,171.776001,-454.816010
1001.375977,142.496002,-480.191986
997.471985,89.792000,-445.056000
1003.328003,109.311996,-400.160004
1026.751953,101.503998,-392.351990
1042.368042,119.071999,-404.063995
1048.223999,158.112000,-413.824005
1057.984009,165.919998,-423.584015
1054.079956,193.248001,-388.447998
1040.416016,214.720001,-349.407990
1034.560059,201.056000,-349.407990
1020.895996,167.871994,-363.071991
987.711975,122.975998,-339.648010
972.096008,31.232000,-327.936005
966.239990,29.280001,-341.600006
964.288025,21.472000,-357.216003
972.096008,-50.751999,-318.175995
972.096008,27.327999,-329.888000
989.664001,52.703999,-306.463989
946.719971,80.031998,-279.135986
888.159973,11.712000,-327.936005
817.888000,-68.320000,-384.544006
792.512024,-80.031998,-437.247986
800.320007,-101.503998,-447.007996
851.072021,-101.503998,-466.528015
942.815979,-89.792000,-437.247986
1009.184021,-54.655998,-361.119995
1069.696045,-117.120003,-255.712006
1108.735962,-206.912003,-189.343994
1134.112061,-302.559998,-187.391998
1106.784058,-366.976013,-222.528000
1071.647949,-400.160004,-314.272003
999.424011,-365.023987,-390.399994
956.479980,-234.240005,-452.864014
942.815979,-121.024002,-505.567993
942.815979,-37.088001,-501.664001
964.288025,13.664000,-484.096008
993.567993,11.712000,-466.528015
1038.463989,-42.944000,-454.816010
1044.319946,-117.120003,-460.671997
1050.176025,-154.207993,-474.335999
1030.656006,-156.160004,-495.808014
1024.800049,-119.071999,-501.664001
1030.656006,-54.655998,-509.471985
1036.511963,-7.808000,-523.135986
1028.703979,17.568001,-540.703979
1013.088013,25.375999,-573.888000
999.424011,23.424000,-587.552002
1013.088013,17.568001,-591.455994
1032.608032,39.040001,-583.648010
1061.887939,42.944000,-552.416016
