ACC_X,ACC_Y,ACC_Z
425.536011,491.903992,753.471985
431.391998,488.000000,753.471985
429.440002,491.903992,745.664001
429.440002,501.664001,751.520020
433.343994,497.760010,741.760010
427.488007,493.855988,745.664001
431.391998,497.760010,751.520020
435.295990,499.712006,761.280029
427.488007,499.712006,749.567993
429.440002,505.567993,753.471985
429.440002,495.808014,753.471985
431.391998,497.760010,759.328003
437.247986,505.567993,759.328003
435.295990,495.808014,759.328003
433.343994,495.808014,759.328003
429.440002,501.664001,753.471985
433.343994,501.664001,747.616028
433.343994,495.808014,741.760010
435.295990,491.903992,749.567993
439.200012,497.760010,751.520020
439.200012,497.760010,759.328003
443.104004,497.760010,757.375977
443.104004,505.567993,753.471985
443.104004,499.712006,759.328003
439.200012,505.567993,757.375977
433.343994,501.664001,753.471985
435.295990,503.615997,753.471985
441.152008,499.712006,747.616028
447.007996,497.760010,751.520020
441.152008,499.712006,745.664001
429.440002,501.664001,753.471985
441.152008,501.664001,753.471985
443.104004,501.664001,757.375977
439.200012,495.808014,753.471985
443.104004,505.567993,759.328003
448.959991,501.664001,755.424011
454.816010,499.712006,759.328003
450.911987,501.664001,761.280029
443.104004,495.808014,757.375977
439.200012,495.808014,755.424011
447.007996,499.712006,749.567993
443.104004,495.808014,759.328003
447.007996,499.712006,755.424011
443.104004,501.664001,757.375977
445.056000,491.903992,757.375977
447.007996,503.615997,763.231995
445.056000,501.664001,757.375977
441.152008,495.808014,749.567993
443.104004,501.664001,761.280029
443.104004,499.712006,753.471985
437.247986,501.664001,757.375977
439.200012,491.903992,753.471985
437.247986,488.000000,753.471985
439.200012,505.567993,769.088013
443.104004,493.855988,763.231995
437.247986,488.000000,759.328003
437.247986,495.808014,753.471985
435.295990,497.760010,747.616028
435.295990,493.855988,759.328003
437.247986,495.808014,753.471985
439.200012,499.712006,747.616028
427.488007,495.808014,741.760010
427.488007,503.615997,753.471985
433.343994,497.760010,755.424011
425.536011,489.951996,755.424011
435.295990,488.000000,759.328003
439.200012,488.000000,757.375977
433.343994,489.951996,747.616028
435.295990,497.760010,759.328003
431.391998,497.760010,753.471985
425.536011,484.096008,761.280029
427.488007,491.903992,753.471985
417.727997,499.712006,755.424011
425.536011,497.760010,753.471985
421.631989,486.048004,743.711975
427.488007,503.615997,745.664001
419.679993,493.855988,747.616028
427.488007,493.855988,751.520020
419.679993,497.760010,757.375977
425.536011,495.808014,753.471985
427.488007,505.567993,737.856018
427.488007,503.615997,743.711975
419.679993,497.760010,749.567993
421.631989,495.808014,753.471985
421.631989,497.760010,747.616028
415.776001,499.712006,747.616028
415.776001,493.855988,743.711975
419.679993,499.712006,745.664001
419.679993,505.567993,745.664001
415.776001,491.903992,741.760010
425.536011,493.855988,745.664001
421.631989,501.664001,751.520020
413.824005,495.808014,743.711975
423.584015,505.567993,753.471985
413.824005,507.519989,745.664001
421.631989,499.712006,743.711975
419.679993,507.519989,741.760010
413.824005,505.567993,741.760010
413.824005,505.567993,745.664001
423.584015,513.375977,743.711975
413.824005,507.519989,745.664001
417.727997,495.808014,737.856018
415.776001,495.808014,743.711975
413.824005,505.567993,751.520020
417.727997,505.567993,741.760010
413.824005,513.375977,747.616028
419.679993,511.424011,759.328003
421.631989,495.808014,747.616028
423.584015,509.471985,745.664001
421.631989,507.519989,749.567993
413.824005,513.375977,745.664001
415.776001,511.424011,753.471985
417.727997,503.615997,759.328003
427.488007,507.519989,755.424011
423.584015,503.615997,747.616028
419.679993,505.567993,743.711975
417.727997,507.519989,747.616028
423.584015,507.519989,751.520020
419.679993,517.280029,741.760010
417.727997,509.471985,745.664001
421.631989,511.424011,753.471985
417.727997,509.471985,753.471985
431.391998,513.375977,737.856018
421.631989,499.712006,745.664001
423.584015,511.424011,737.856018
419.679993,507.519989,747.616028
415.776001,513.375977,753.471985
419.679993,499.712006,743.711975
419.679993,507.519989,743.711975
423.584015,513.375977,747.616028
417.727997,503.615997,757.375977
413.824005,509.471985,745.664001
411.872009,507.519989,741.760010
415.776001,511.424011,753.471985
421.631989,505.567993,745.664001
411.872009,505.567993,751.520020
413.824005,507.519989,739.807983
419.679993,509.471985,739.807983
419.679993,509.471985,739.807983
411.872009,511.424011,743.711975
406.015991,511.424011,745.664001
409.920013,507.519989,749.567993
406.015991,515.328003,755.424011
398.208008,513.375977,749.567993
406.015991,511.424011,743.711975
400.160004,517.280029,741.760010
407.967987,505.567993,735.903992
400.160004,509.471985,743.711975
404.063995,513.375977,737.856018
404.063995,515.328003,743.711975
400.160004,515.328003,743.711975
400.160004,517.280029,747.616028
404.063995,517.280029,735.903992
404.063995,519.231995,739.807983
402.112000,513.375977,737.856018
402.112000,517.280029,737.856018
394.303986,505.567993,739.807983
398.208008,517.280029,730.047974
406.015991,495.808014,730.047974
398.208008,509.471985,743.711975
394.303986,503.615997,735.903992
400.160004,505.567993,730.047974
407.967987,507.519989,737.856018
407.967987,503.615997,733.952026
411.872009,507.519989,733.952026
402.112000,511.424011,733.952026
404.063995,513.375977,743.711975
400.160004,499.712006,735.903992
402.112000,499.712006,745.664001
404.063995,509.471985,745.664001
407.967987,503.615997,745.664001
402.112000,509.471985,743.711975
411.872009,505.567993,747.616028
413.824005,501.664001,737.856018
415.776001,499.712006,747.616028
409.920013,501.664001,747.616028
419.679993,507.519989,745.664001
413.824005,505.567993,753.471985
419.679993,499.712006,755.424011
417.727997,501.664001,755.424011
423.584015,493.855988,755.424011
423.584015,497.760010,757.375977
419.679993,491.903992,749.567993
421.631989,497.760010,749.567993
421.631989,505.567993,749.567993
425.536011,495.808014,759.328003
433.343994,497.760010,751.520020
437.247986,495.808014,759.328003
435.295990,513.375977,749.567993
435.295990,495.808014,763.231995
429.440002,499.712006,761.280029
433.343994,501.664001,747.616028
437.247986,491.903992,757.375977
437.247986,495.808014,763.231995
443.104004,495.808014,757.375977
441.152008,507.519989,761.280029
437.247986,493.855988,753.471985
437.247986,499.712006,759.328003
441.152008,493.855988,757.375977
441.152008,497.760010,755.424011
445.056000,489.951996,757.375977
448.959991,495.808014,761.280029
450.911987,501.664001,767.135986
448.959991,503.615997,763.231995
447.007996,484.096008,765.184021
454.816010,493.855988,757.375977
448.959991,495.808014,767.135986
456.768005,499.712006,765.184021
448.959991,484.096008,763.231995
452.864014,493.855988,774.943970
460.671997,495.808014,772.992004
458.720001,486.048004,761.280029
468.480011,489.951996,767.135986
460.671997,495.808014,772.992004
460.671997,489.951996,771.039978
462.623993,497.760010,761.280029
460.671997,486.048004,763.231995
458.720001,493.855988,771.039978
464.575989,488.000000,763.231995
466.528015,493.855988,765.184021
470.432007,491.903992,774.943970
460.671997,491.903992,772.992004
460.671997,491.903992,765.184021
464.575989,497.760010,765.184021
464.575989,493.855988,765.184021
464.575989,495.808014,772.992004
468.480011,497.760010,771.039978
460.671997,495.808014,771.039978
460.671997,505.567993,767.135986
464.575989,497.760010,761.280029
458.720001,489.951996,771.039978
460.671997,493.855988,772.992004
462.623993,495.808014,763.231995
466.528015,499.712006,763.231995
466.528015,491.903992,755.424011
464.575989,493.855988,763.231995
466.528015,493.855988,761.280029
458.720001,499.712006,757.375977
456.768005,501.664001,761.280029
456.768005,493.855988,759.328003
456.768005,497.760010,771.039978
462.623993,499.712006,767.135986
460.671997,501.664001,749.567993
452.864014,505.567993,761.280029
460.671997,491.903992,753.471985
450.911987,497.760010,757.375977
454.816010,505.567993,753.471985
454.816010,509.471985,749.567993
448.959991,505.567993,755.424011
454.816010,501.664001,757.375977
454.816010,503.615997,755.424011
441.152008,503.615997,753.471985
447.007996,511.424011,753.471985
447.007996,501.664001,749.567993
447.007996,509.471985,759.328003
448.959991,505.567993,753.471985
441.152008,497.760010,749.567993
447.007996,505.567993,749.567993
445.056000,505.567993,741.760010
445.056000,509.471985,753.471985
437.247986,509.471985,749.567993
443.104004,513.375977,749.567993
445.056000,517.280029,753.471985
443.104004,509.471985,747.616028
445.056000,507.519989,741.760010
437.247986,517.280029,755.424011
443.104004,517.280029,743.711975
443.104004,507.519989,741.760010
437.247986,515.328003,749.567993
437.247986,513.375977,743.711975
443.104004,509.471985,741.760010
443.104004,513.375977,741.760010
437.247986,517.280029,747.616028
437.247986,515.328003,745.664001
437.247986,515.328003,737.856018
437.247986,509.471985,743.711975
443.104004,515.328003,745.664001
447.007996,509.471985,741.760010
443.104004,513.375977,747.616028
437.247986,517.280029,741.760010
437.247986,519.231995,753.471985
429.440002,507.519989,733.952026
435.295990,515.328003,747.616028
439.200012,507.519989,755.424011
437.247986,511.424011,743.711975
433.343994,503.615997,743.711975
441.152008,517.280029,749.567993
437.247986,511.424011,749.567993
429.440002,517.280029,759.328003
437.247986,521.184021,747.616028
435.295990,511.424011,749.567993
443.104004,507.519989,737.856018
437.247986,515.328003,745.664001
435.295990,511.424011,749.567993
445.056000,517.280029,745.664001
439.200012,513.375977,759.328003
445.056000,505.567993,751.520020
447.007996,499.712006,749.567993
450.911987,513.375977,749.567993
447.007996,521.184021,753.471985
447.007996,511.424011,759.328003
447.007996,515.328003,753.471985
447.007996,513.375977,759.328003
447.007996,515.328003,753.471985
443.104004,511.424011,751.520020
441.152008,513.375977,757.375977
447.007996,517.280029,753.471985
441.152008,517.280029,755.424011
448.959991,517.280029,753.471985
448.959991,511.424011,753.471985
462.623993,505.567993,763.231995
445.056000,509.471985,757.375977
445.056000,497.760010,761.280029
450.911987,509.471985,759.328003
447.007996,513.375977,753.471985
448.959991,509.471985,753.471985
454.816010,505.567993,753.471985
448.959991,507.519989,749.567993
456.768005,505.567993,749.567993
454.816010,501.664001,757.375977
445.056000,501.664001,757.375977
447.007996,503.615997,757.375977
462.623993,503.615997,749.567993
445.056000,499.712006,749.567993
454.816010,511.424011,749.567993
452.864014,509.471985,753.471985
450.911987,505.567993,753.471985
447.007996,503.615997,753.471985
454.816010,497.760010,759.328003
447.007996,491.903992,749.567993
447.007996,499.712006,749.567993
447.007996,495.808014,757.375977
447.007996,499.712006,749.567993
447.007996,507.519989,755.424011
447.007996,499.712006,749.567993
441.152008,495.808014,749.567993
447.007996,493.855988,747.616028
445.056000,503.615997,751.520020
441.152008,499.712006,743.711975
443.104004,495.808014,753.471985
433.343994,501.664001,745.664001
441.152008,495.808014,745.664001
443.104004,488.000000,745.664001
443.104004,486.048004,747.616028
447.007996,488.000000,747.616028
443.104004,491.903992,757.375977
439.200012,491.903992,749.567993
435.295990,489.951996,749.567993
435.295990,489.951996,747.616028
429.440002,484.096008,737.856018
435.295990,489.951996,737.856018
427.488007,497.760010,739.807983
429.440002,497.760010,741.760010
427.488007,484.096008,739.807983
435.295990,484.096008,745.664001
431.391998,478.239990,745.664001
435.295990,476.287994,749.567993
431.391998,480.191986,747.616028
431.391998,478.239990,737.856018
431.391998,482.144012,743.711975
429.440002,489.951996,745.664001
427.488007,482.144012,751.520020
435.295990,488.000000,739.807983
435.295990,478.239990,747.616028
431.391998,484.096008,743.711975
433.343994,482.144012,741.760010
431.391998,486.048004,749.567993
425.536011,482.144012,743.711975
431.391998,480.191986,743.711975
437.247986,478.239990,747.616028
435.295990,478.239990,737.856018
431.391998,482.144012,747.616028
431.391998,480.191986,745.664001
431.391998,486.048004,737.856018
423.584015,476.287994,741.760010
423.584015,486.048004,751.520020
431.391998,470.432007,741.760010
435.295990,480.191986,743.711975
435.295990,472.384003,745.664001
435.295990,478.239990,755.424011
439.200012,466.528015,747.616028
431.391998,472.384003,745.664001
429.440002,470.432007,749.567993
431.391998,474.335999,745.664001
435.295990,472.384003,751.520020
437.247986,484.096008,745.664001
429.440002,474.335999,749.567993
437.247986,476.287994,759.328003
439.200012,470.432007,747.616028
439.200012,474.335999,755.424011
443.104004,476.287994,745.664001
441.152008,468.480011,749.567993
443.104004,464.575989,755.424011
445.056000,476.287994,753.471985
439.200012,470.432007,753.471985
447.007996,458.720001,759.328003
447.007996,458.720001,759.328003
452.864014,468.480011,749.567993
454.816010,470.432007,757.375977
447.007996,468.480011,755.424011
441.152008,472.384003,757.375977
454.816010,470.432007,757.375977
452.864014,466.528015,757.375977
454.816010,464.575989,759.328003
454.816010,470.432007,759.328003
458.720001,474.335999,757.375977
454.816010,472.384003,759.328003
460.671997,474.335999,761.280029
456.768005,468.480011,759.328003
445.056000,472.384003,763.231995
454.816010,482.144012,759.328003
460.671997,480.191986,757.375977
456.768005,478.239990,769.088013
460.671997,464.575989,763.231995
462.623993,464.575989,759.328003
464.575989,474.335999,761.280029
464.575989,474.335999,763.231995
466.528015,468.480011,763.231995
460.671997,478.239990,757.375977
466.528015,468.480011,763.231995
464.575989,474.335999,755.424011
468.480011,474.335999,759.328003
460.671997,482.144012,763.231995
460.671997,482.144012,763.231995
466.528015,482.144012,763.231995
470.432007,474.335999,755.424011
458.720001,476.287994,761.280029
470.432007,482.144012,763.231995
456.768005,480.191986,759.328003
456.768005,478.239990,755.424011
464.575989,476.287994,757.375977
468.480011,478.239990,755.424011
470.432007,470.432007,759.328003
464.575989,480.191986,763.231995
460.671997,489.951996,759.328003
464.575989,486.048004,757.375977
464.575989,474.335999,757.375977
460.671997,488.000000,767.135986
458.720001,472.384003,745.664001
462.623993,472.384003,749.567993
452.864014,484.096008,753.471985
466.528015,484.096008,749.567993
460.671997,489.951996,745.664001
466.528015,489.951996,749.567993
456.768005,488.000000,759.328003
456.768005,480.191986,749.567993
466.528015,486.048004,749.567993
456.768005,488.000000,753.471985
460.671997,497.760010,751.520020
445.056000,486.048004,741.760010
452.864014,493.855988,747.616028
450.911987,493.855988,751.520020
452.864014,486.048004,751.520020
458.720001,489.951996,741.760010
445.056000,488.000000,741.760010
454.816010,489.951996,743.711975
450.911987,497.760010,747.616028
448.959991,486.048004,741.760010
456.768005,505.567993,743.711975
456.768005,484.096008,743.711975
450.911987,495.808014,743.711975
458.720001,491.903992,741.760010
454.816010,493.855988,745.664001
448.959991,493.855988,745.664001
448.959991,493.855988,743.711975
450.911987,493.855988,745.664001
448.959991,488.000000,741.760010
448.959991,493.855988,747.616028
452.864014,493.855988,749.567993
458.720001,489.951996,733.952026
450.911987,493.855988,755.424011
448.959991,499.712006,747.616028
447.007996,488.000000,747.616028
447.007996,491.903992,747.616028
454.816010,497.760010,737.856018
448.959991,488.000000,745.664001
458.720001,491.903992,751.520020
462.623993,497.760010,753.471985
462.623993,484.096008,745.664001
458.720001,501.664001,751.520020
462.623993,488.000000,741.760010
460.671997,491.903992,741.760010
456.768005,489.951996,759.328003
460.671997,491.903992,751.520020
464.575989,493.855988,753.471985
462.623993,491.903992,749.567993
458.720001,484.096008,751.520020
458.720001,491.903992,745.664001
460.671997,489.951996,741.760010
466.528015,497.760010,741.760010
460.671997,491.903992,749.567993
456.768005,493.855988,759.328003
458.720001,493.855988,745.664001
458.720001,497.760010,743.711975
458.720001,486.048004,755.424011
452.864014,495.808014,747.616028
456.768005,489.951996,751.520020
458.720001,484.096008,753.471985
456.768005,488.000000,753.471985
460.671997,491.903992,753.471985
460.671997,488.000000,755.424011
460.671997,493.855988,743.711975
454.816010,488.000000,753.471985
464.575989,491.903992,753.471985
470.432007,501.664001,747.616028
466.528015,493.855988,759.328003
456.768005,497.760010,751.520020
470.432007,488.000000,743.711975
478.239990,495.808014,755.424011
468.480011,493.855988,751.520020
462.623993,491.903992,751.520020
462.623993,493.855988,753.471985
470.432007,480.191986,755.424011
460.671997,491.903992,753.471985
466.528015,495.808014,753.471985
460.671997,499.712006,753.471985
460.671997,491.903992,753.471985
466.528015,488.000000,763.231995
462.623993,497.760010,753.471985
464.575989,495.808014,745.664001
468.480011,488.000000,759.328003
466.528015,493.855988,763.231995
462.623993,499.712006,761.280029
468.480011,505.567993,757.375977
456.768005,488.000000,761.280029
466.528015,491.903992,765.184021
468.480011,493.855988,751.520020
478.239990,503.615997,763.231995
468.480011,497.760010,753.471985
464.575989,501.664001,753.471985
472.384003,495.808014,753.471985
464.575989,493.855988,757.375977
466.528015,488.000000,757.375977
472.384003,489.951996,765.184021
468.480011,495.808014,763.231995
464.575989,495.808014,751.520020
466.528015,493.855988,759.328003
466.528015,505.567993,757.375977
468.480011,491.903992,765.184021
464.575989,493.855988,757.375977
464.575989,501.664001,751.520020
466.528015,497.760010,759.328003
466.528015,495.808014,759.328003
464.575989,505.567993,757.375977
460.671997,493.855988,753.471985
472.384003,491.903992,753.471985
474.335999,497.760010,753.471985
470.432007,501.664001,753.471985
466.528015,499.712006,759.328003
474.335999,499.712006,759.328003
474.335999,499.712006,759.328003
464.575989,501.664001,753.471985
464.575989,507.519989,757.375977
462.623993,497.760010,759.328003
464.575989,501.664001,753.471985
466.528015,503.615997,745.664001
464.575989,493.855988,751.520020
466.528015,497.760010,759.328003
474.335999,495.808014,749.567993
468.480011,491.903992,743.711975
478.239990,503.615997,759.328003
468.480011,495.808014,765.184021
466.528015,495.808014,765.184021
456.768005,501.664001,759.328003
456.768005,495.808014,759.328003
452.864014,505.567993,755.424011
460.671997,495.808014,745.664001
456.768005,509.471985,757.375977
458.720001,513.375977,757.375977
456.768005,499.712006,763.231995
456.768005,499.712006,753.471985
460.671997,497.760010,753.471985
458.720001,509.471985,753.471985
462.623993,491.903992,759.328003
456.768005,509.471985,755.424011
454.816010,499.712006,759.328003
452.864014,499.712006,755.424011
460.671997,495.808014,753.471985
452.864014,503.615997,763.231995
456.768005,489.951996,755.424011
454.816010,495.808014,755.424011
448.959991,497.760010,759.328003
454.816010,497.760010,755.424011
454.816010,491.903992,757.375977
450.911987,489.951996,761.280029
448.959991,499.712006,759.328003
448.959991,491.903992,749.567993
447.007996,493.855988,751.520020
458.720001,489.951996,753.471985
448.959991,488.000000,751.520020
456.768005,493.855988,751.520020
452.864014,491.903992,753.471985
445.056000,497.760010,757.375977
458.720001,489.951996,761.280029
452.864014,491.903992,753.471985
450.911987,495.808014,755.424011
445.056000,501.664001,755.424011
448.959991,501.664001,755.424011
450.911987,499.712006,749.567993
445.056000,488.000000,753.471985
448.959991,491.903992,763.231995
454.816010,499.712006,761.280029
448.959991,491.903992,757.375977
452.864014,491.903992,753.471985
450.911987,491.903992,757.375977
447.007996,493.855988,749.567993
450.911987,497.760010,755.424011
448.959991,495.808014,761.280029
445.056000,499.712006,749.567993
447.007996,495.808014,749.567993
450.911987,489.951996,753.471985
454.816010,495.808014,763.231995
458.720001,495.808014,753.471985
445.056000,499.712006,751.520020
447.007996,489.951996,759.328003
445.056000,495.808014,759.328003
445.056000,491.903992,757.375977
458.720001,493.855988,757.375977
450.911987,497.760010,755.424011
445.056000,497.760010,757.375977
443.104004,505.567993,751.520020
447.007996,493.855988,747.616028
456.768005,491.903992,749.567993
445.056000,493.855988,745.664001
447.007996,501.664001,749.567993
447.007996,497.760010,749.567993
445.056000,495.808014,755.424011
447.007996,499.712006,747.616028
441.152008,497.760010,747.616028
435.295990,493.855988,753.471985
450.911987,503.615997,757.375977
445.056000,495.808014,757.375977
450.911987,497.760010,755.424011
447.007996,495.808014,749.567993
437.247986,505.567993,759.328003
443.104004,499.712006,759.328003
445.056000,509.471985,749.567993
441.152008,499.712006,755.424011
447.007996,499.712006,745.664001
437.247986,501.664001,757.375977
445.056000,491.903992,757.375977
450.911987,497.760010,757.375977
445.056000,495.808014,757.375977
447.007996,497.760010,755.424011
450.911987,493.855988,745.664001
443.104004,495.808014,749.567993
445.056000,488.000000,751.520020
450.911987,493.855988,753.471985
445.056000,495.808014,757.375977
445.056000,501.664001,755.424011
443.104004,495.808014,753.471985
441.152008,495.808014,749.567993
437.247986,501.664001,743.711975
447.007996,488.000000,745.664001
433.343994,489.951996,745.664001
448.959991,488.000000,753.471985
448.959991,505.567993,751.520020
445.056000,493.855988,751.520020
443.104004,505.567993,745.664001
445.056000,499.712006,751.520020
441.152008,491.903992,753.471985
447.007996,495.808014,755.424011
448.959991,497.760010,755.424011
441.152008,499.712006,753.471985
439.200012,501.664001,753.471985
437.247986,497.760010,753.471985
435.295990,499.712006,753.471985
445.056000,503.615997,757.375977
447.007996,488.000000,745.664001
445.056000,503.615997,757.375977
441.152008,499.712006,745.664001
447.007996,499.712006,747.616028
437.247986,515.328003,747.616028
443.104004,505.567993,741.760010
437.247986,491.903992,753.471985
437.247986,503.615997,745.664001
441.152008,493.855988,747.616028
433.343994,501.664001,747.616028
437.247986,503.615997,755.424011
448.959991,511.424011,753.471985
439.200012,497.760010,745.664001
435.295990,501.664001,751.520020
443.104004,505.567993,755.424011
443.104004,509.471985,741.760010
439.200012,501.664001,741.760010
439.200012,503.615997,745.664001
443.104004,499.712006,751.520020
439.200012,491.903992,747.616028
447.007996,499.712006,747.616028
448.959991,499.712006,749.567993
437.247986,503.615997,749.567993
450.911987,497.760010,751.520020
439.200012,499.712006,751.520020
441.152008,509.471985,741.760010
443.104004,509.471985,743.711975
443.104004,503.615997,755.424011
439.200012,497.760010,749.567993
439.200012,501.664001,741.760010
447.007996,495.808014,743.711975
437.247986,503.615997,743.711975
441.152008,499.712006,745.664001
435.295990,501.664001,751.520020
454.816010,495.808014,755.424011
445.056000,505.567993,751.520020
447.007996,493.855988,737.856018
441.152008,491.903992,741.760010
443.104004,505.567993,741.760010
433.343994,493.855988,747.616028
435.295990,491.903992,747.616028
441.152008,499.712006,755.424011
433.343994,501.664001,745.664001
443.104004,503.615997,743.711975
441.152008,493.855988,741.760010
439.200012,495.808014,751.520020
443.104004,501.664001,749.567993
445.056000,488.000000,745.664001
441.152008,493.855988,749.567993
445.056000,503.615997,755.424011
443.104004,491.903992,757.375977
433.343994,495.808014,759.328003
429.440002,497.760010,745.664001
439.200012,495.808014,745.664001
437.247986,505.567993,751.520020
441.152008,493.855988,749.567993
441.152008,493.855988,745.664001
441.152008,493.855988,747.616028
439.200012,493.855988,749.567993
439.200012,491.903992,745.664001
437.247986,488.000000,753.471985
443.104004,488.000000,747.616028
441.152008,489.951996,753.471985
433.343994,493.855988,747.616028
433.343994,486.048004,751.520020
433.343994,493.855988,753.471985
437.247986,493.855988,755.424011
437.247986,493.855988,751.520020
439.200012,501.664001,751.520020
439.200012,489.951996,747.616028
439.200012,501.664001,745.664001
439.200012,497.760010,741.760010
437.247986,488.000000,739.807983
431.391998,489.951996,743.711975
437.247986,482.144012,751.520020
435.295990,489.951996,743.711975
439.200012,489.951996,749.567993
433.343994,491.903992,753.471985
439.200012,489.951996,751.520020
445.056000,488.000000,749.567993
439.200012,495.808014,743.711975
431.391998,484.096008,747.616028
435.295990,493.855988,753.471985
433.343994,489.951996,747.616028
437.247986,493.855988,759.328003
435.295990,486.048004,759.328003
435.295990,491.903992,747.616028
433.343994,488.000000,755.424011
437.247986,484.096008,755.424011
439.200012,491.903992,749.567993
441.152008,489.951996,747.616028
435.295990,489.951996,747.616028
443.104004,493.855988,757.375977
435.295990,488.000000,763.231995
439.200012,489.951996,745.664001
433.343994,489.951996,741.760010
437.247986,491.903992,751.520020
435.295990,488.000000,759.328003
443.104004,491.903992,757.375977
443.104004,489.951996,755.424011
441.152008,491.903992,749.567993
433.343994,486.048004,757.375977
439.200012,486.048004,757.375977
443.104004,501.664001,759.328003
439.200012,489.951996,751.520020
443.104004,486.048004,753.471985
439.200012,488.000000,757.375977
441.152008,488.000000,757.375977
443.104004,486.048004,753.471985
439.200012,495.808014,753.471985
443.104004,489.951996,755.424011
439.200012,491.903992,753.471985
429.440002,486.048004,761.280029
431.391998,482.144012,757.375977
435.295990,488.000000,759.328003
439.200012,493.855988,753.471985
437.247986,491.903992,753.471985
439.200012,493.855988,759.328003
437.247986,488.000000,751.520020
437.247986,484.096008,749.567993
425.536011,488.000000,763.231995
429.440002,486.048004,759.328003
431.391998,482.144012,747.616028
443.104004,489.951996,755.424011
425.536011,497.760010,759.328003
431.391998,497.760010,761.280029
433.343994,488.000000,755.424011
427.488007,486.048004,757.375977
433.343994,484.096008,755.424011
433.343994,484.096008,757.375977
431.391998,489.951996,743.711975
427.488007,491.903992,753.471985
423.584015,489.951996,763.231995
429.440002,488.000000,761.280029
433.343994,491.903992,753.471985
435.295990,497.760010,757.375977
431.391998,491.903992,753.471985
431.391998,493.855988,761.280029
431.391998,491.903992,759.328003
435.295990,499.712006,759.328003
431.391998,493.855988,759.328003
433.343994,491.903992,759.328003
425.536011,491.903992,757.375977
437.247986,497.760010,751.520020
439.200012,493.855988,753.471985
433.343994,484.096008,747.616028
437.247986,486.048004,751.520020
425.536011,484.096008,755.424011
427.488007,486.048004,753.471985
429.440002,495.808014,747.616028
435.295990,491.903992,751.520020
431.391998,484.096008,749.567993
439.200012,486.048004,741.760010
441.152008,495.808014,745.664001
431.391998,491.903992,749.567993
433.343994,495.808014,753.471985
435.295990,491.903992,745.664001
441.152008,493.855988,745.664001
441.152008,491.903992,759.328003
441.152008,491.903992,751.520020
437.247986,488.000000,753.471985
435.295990,491.903992,755.424011
435.295990,497.760010,753.471985
435.295990,493.855988,753.471985
439.200012,489.951996,753.471985
441.152008,489.951996,763.231995
441.152008,497.760010,755.424011
437.247986,488.000000,753.471985
443.104004,478.239990,757.375977
445.056000,480.191986,753.471985
437.247986,488.000000,759.328003
443.104004,493.855988,753.471985
450.911987,493.855988,757.375977
450.911987,482.144012,759.328003
448.959991,491.903992,757.375977
448.959991,493.855988,761.280029
443.104004,489.951996,761.280029
445.056000,486.048004,753.471985
454.816010,484.096008,759.328003
447.007996,484.096008,759.328003
454.816010,491.903992,767.135986
450.911987,493.855988,767.135986
443.104004,486.048004,771.039978
450.911987,489.951996,761.280029
445.056000,489.951996,763.231995
452.864014,484.096008,765.184021
454.816010,493.855988,755.424011
452.864014,486.048004,767.135986
448.959991,484.096008,757.375977
452.864014,484.096008,761.280029
458.720001,476.287994,763.231995
448.959991,484.096008,763.231995
447.007996,482.144012,759.328003
448.959991,491.903992,763.231995
445.056000,470.432007,757.375977
447.007996,486.048004,767.135986
450.911987,482.144012,759.328003
441.152008,484.096008,763.231995
443.104004,489.951996,755.424011
450.911987,489.951996,759.328003
452.864014,486.048004,759.328003
450.911987,493.855988,755.424011
450.911987,489.951996,761.280029
452.864014,489.951996,751.520020
447.007996,484.096008,759.328003
447.007996,489.951996,757.375977
441.152008,482.144012,759.328003
452.864014,480.191986,757.375977
450.911987,480.191986,747.616028
443.104004,476.287994,751.520020
445.056000,489.951996,761.280029
447.007996,484.096008,759.328003
450.911987,491.903992,757.375977
437.247986,484.096008,755.424011
433.343994,482.144012,757.375977
445.056000,486.048004,753.471985
450.911987,480.191986,741.760010
448.959991,491.903992,763.231995
445.056000,488.000000,749.567993
447.007996,491.903992,759.328003
447.007996,489.951996,759.328003
445.056000,501.664001,757.375977
439.200012,495.808014,751.520020
448.959991,486.048004,753.471985
445.056000,484.096008,759.328003
447.007996,482.144012,753.471985
445.056000,488.000000,745.664001
447.007996,488.000000,741.760010
443.104004,493.855988,751.520020
443.104004,491.903992,753.471985
447.007996,482.144012,753.471985
443.104004,491.903992,755.424011
437.247986,489.951996,749.567993
447.007996,493.855988,749.567993
445.056000,489.951996,757.375977
447.007996,489.951996,759.328003
443.104004,495.808014,749.567993
439.200012,497.760010,749.567993
433.343994,495.808014,753.471985
435.295990,495.808014,761.280029
447.007996,493.855988,745.664001
448.959991,493.855988,749.567993
445.056000,488.000000,751.520020
437.247986,491.903992,757.375977
443.104004,501.664001,757.375977
441.152008,497.760010,749.567993
435.295990,489.951996,749.567993
435.295990,499.712006,759.328003
439.200012,497.760010,753.471985
433.343994,497.760010,751.520020
441.152008,495.808014,755.424011
437.247986,493.855988,753.471985
429.440002,491.903992,745.664001
439.200012,495.808014,751.520020
435.295990,491.903992,745.664001
443.104004,488.000000,749.567993
437.247986,497.760010,751.520020
433.343994,488.000000,749.567993
431.391998,484.096008,741.760010
441.152008,499.712006,749.567993
435.295990,491.903992,745.664001
441.152008,493.855988,741.760010
439.200012,488.000000,755.424011
433.343994,489.951996,745.664001
435.295990,484.096008,749.567993
439.200012,486.048004,739.807983
443.104004,488.000000,745.664001
437.247986,489.951996,745.664001
437.247986,495.808014,741.760010
431.391998,491.903992,745.664001
433.343994,501.664001,747.616028
431.391998,491.903992,751.520020
433.343994,491.903992,739.807983
435.295990,501.664001,747.616028
429.440002,495.808014,749.567993
429.440002,501.664001,739.807983
429.440002,486.048004,743.711975
435.295990,489.951996,743.711975
435.295990,486.048004,737.856018
437.247986,489.951996,747.616028
431.391998,503.615997,743.711975
435.295990,501.664001,749.567993
427.488007,497.760010,747.616028
429.440002,491.903992,751.520020
435.295990,489.951996,749.567993
427.488007,488.000000,747.616028
439.200012,491.903992,745.664001
437.247986,497.760010,747.616028
435.295990,501.664001,741.760010
433.343994,488.000000,753.471985
441.152008,488.000000,747.616028
435.295990,484.096008,755.424011
439.200012,493.855988,749.567993
437.247986,493.855988,759.328003
435.295990,493.855988,763.231995
433.343994,491.903992,751.520020
439.200012,497.760010,753.471985
439.200012,489.951996,745.664001
443.104004,493.855988,751.520020
447.007996,499.712006,737.856018
447.007996,499.712006,743.711975
447.007996,495.808014,743.711975
447.007996,497.760010,747.616028
447.007996,489.951996,735.903992
437.247986,488.000000,728.096008
435.295990,484.096008,735.903992
445.056000,491.903992,726.143982
443.104004,491.903992,730.047974
447.007996,476.287994,732.000000
445.056000,478.239990,730.047974
445.056000,482.144012,741.760010
445.056000,474.335999,741.760010
450.911987,474.335999,749.567993
450.911987,474.335999,755.424011
445.056000,486.048004,745.664001
454.816010,476.287994,753.471985
458.720001,482.144012,753.471985
464.575989,488.000000,757.375977
464.575989,488.000000,761.280029
466.528015,495.808014,772.992004
464.575989,480.191986,774.943970
464.575989,488.000000,765.184021
478.239990,499.712006,774.943970
470.432007,501.664001,772.992004
472.384003,489.951996,772.992004
464.575989,486.048004,761.280029
464.575989,486.048004,757.375977
464.575989,486.048004,757.375977
472.384003,484.096008,759.328003
460.671997,468.480011,751.520020
466.528015,472.384003,749.567993
466.528015,468.480011,751.520020
468.480011,474.335999,745.664001
466.528015,472.384003,755.424011
474.335999,474.335999,751.520020
478.239990,464.575989,757.375977
476.287994,460.671997,749.567993
472.384003,464.575989,753.471985
472.384003,466.528015,749.567993
474.335999,470.432007,763.231995
476.287994,472.384003,761.280029
476.287994,476.287994,772.992004
484.096008,468.480011,769.088013
478.239990,478.239990,765.184021
484.096008,482.144012,765.184021
480.191986,484.096008,772.992004
478.239990,486.048004,769.088013
480.191986,489.951996,769.088013
480.191986,486.048004,771.039978
480.191986,486.048004,772.992004
482.144012,489.951996,765.184021
480.191986,476.287994,763.231995
482.144012,472.384003,763.231995
486.048004,476.287994,753.471985
482.144012,468.480011,755.424011
480.191986,474.335999,759.328003
478.239990,460.671997,757.375977
478.239990,470.432007,755.424011
478.239990,464.575989,755.424011
480.191986,460.671997,755.424011
476.287994,460.671997,759.328003
482.144012,468.480011,749.567993
484.096008,484.096008,763.231995
488.000000,472.384003,774.943970
480.191986,484.096008,772.992004
476.287994,484.096008,782.752014
476.287994,480.191986,772.992004
482.144012,486.048004,790.559998
480.191986,482.144012,792.512024
486.048004,491.903992,788.607971
493.855988,493.855988,790.559998
493.855988,493.855988,790.559998
497.760010,486.048004,788.607971
501.664001,476.287994,792.512024
497.760010,476.287994,786.656006
495.808014,472.384003,776.895996
503.615997,476.287994,790.559998
495.808014,478.239990,769.088013
482.144012,472.384003,763.231995
478.239990,470.432007,755.424011
489.951996,470.432007,739.807983
476.287994,464.575989,737.856018
476.287994,466.528015,730.047974
480.191986,472.384003,733.952026
472.384003,470.432007,733.952026
472.384003,480.191986,722.239990
462.623993,484.096008,720.288025
468.480011,480.191986,737.856018
460.671997,482.144012,724.192017
468.480011,497.760010,728.096008
472.384003,495.808014,743.711975
466.528015,488.000000,733.952026
466.528015,495.808014,753.471985
472.384003,499.712006,749.567993
472.384003,495.808014,753.471985
486.048004,499.712006,759.328003
472.384003,501.664001,771.039978
482.144012,491.903992,763.231995
484.096008,499.712006,769.088013
478.239990,484.096008,763.231995
480.191986,491.903992,757.375977
476.287994,489.951996,757.375977
476.287994,488.000000,753.471985
474.335999,497.760010,757.375977
476.287994,488.000000,753.471985
470.432007,491.903992,747.616028
466.528015,484.096008,737.856018
468.480011,484.096008,747.616028
468.480011,489.951996,745.664001
472.384003,493.855988,745.664001
462.623993,497.760010,751.520020
468.480011,489.951996,747.616028
472.384003,497.760010,755.424011
468.480011,489.951996,755.424011
472.384003,503.615997,763.231995
468.480011,499.712006,759.328003
464.575989,505.567993,757.375977
474.335999,505.567993,759.328003
472.384003,509.471985,759.328003
466.528015,505.567993,763.231995
470.432007,517.280029,755.424011
460.671997,507.519989,763.231995
472.384003,511.424011,759.328003
466.528015,509.471985,755.424011
466.528015,503.615997,755.424011
450.911987,505.567993,737.856018
456.768005,495.808014,737.856018
458.720001,491.903992,733.952026
454.816010,507.519989,733.952026
448.959991,509.471985,739.807983
458.720001,509.471985,733.952026
452.864014,503.615997,733.952026
454.816010,503.615997,730.047974
458.720001,505.567993,733.952026
452.864014,497.760010,741.760010
448.959991,503.615997,730.047974
448.959991,513.375977,745.664001
450.911987,517.280029,741.760010
445.056000,517.280029,741.760010
445.056000,517.280029,747.616028
448.959991,517.280029,753.471985
445.056000,525.088013,743.711975
445.056000,519.231995,745.664001
445.056000,519.231995,755.424011
437.247986,515.328003,747.616028
447.007996,525.088013,743.711975
439.200012,519.231995,743.711975
443.104004,517.280029,732.000000
447.007996,509.471985,728.096008
443.104004,507.519989,732.000000
435.295990,503.615997,714.432007
443.104004,501.664001,726.143982
437.247986,505.567993,732.000000
447.007996,513.375977,728.096008
435.295990,507.519989,730.047974
435.295990,503.615997,737.856018
437.247986,497.760010,739.807983
437.247986,503.615997,743.711975
443.104004,513.375977,743.711975
437.247986,509.471985,733.952026
437.247986,511.424011,741.760010
443.104004,515.328003,749.567993
433.343994,513.375977,755.424011
439.200012,515.328003,753.471985
433.343994,515.328003,749.567993
437.247986,521.184021,751.520020
435.295990,515.328003,747.616028
435.295990,515.328003,747.616028
437.247986,517.280029,741.760010
443.104004,511.424011,743.711975
437.247986,511.424011,747.616028
437.247986,513.375977,745.664001
443.104004,505.567993,751.520020
437.247986,505.567993,741.760010
439.200012,503.615997,741.760010
429.440002,491.903992,739.807983
441.152008,503.615997,741.760010
443.104004,505.567993,747.616028
439.200012,501.664001,745.664001
433.343994,501.664001,741.760010
439.200012,501.664001,741.760010
443.104004,501.664001,757.375977
439.200012,515.328003,759.328003
443.104004,509.471985,751.520020
437.247986,515.328003,749.567993
437.247986,509.471985,747.616028
447.007996,495.808014,749.567993
445.056000,507.519989,753.471985
441.152008,509.471985,751.520020
443.104004,499.712006,751.520020
445.056000,499.712006,749.567993
452.864014,491.903992,755.424011
443.104004,501.664001,757.375977
448.959991,513.375977,765.184021
447.007996,489.951996,761.280029
437.247986,493.855988,753.471985
441.152008,482.144012,759.328003
437.247986,480.191986,749.567993
450.911987,488.000000,759.328003
450.911987,476.287994,759.328003
450.911987,470.432007,755.424011
447.007996,474.335999,757.375977
447.007996,484.096008,759.328003
447.007996,484.096008,763.231995
447.007996,489.951996,759.328003
443.104004,493.855988,763.231995
441.152008,486.048004,749.567993
447.007996,497.760010,749.567993
448.959991,495.808014,757.375977
441.152008,505.567993,749.567993
445.056000,493.855988,757.375977
447.007996,484.096008,759.328003
439.200012,488.000000,763.231995
443.104004,497.760010,761.280029
439.200012,497.760010,765.184021
441.152008,476.287994,763.231995
439.200012,486.048004,763.231995
450.911987,484.096008,765.184021
450.911987,482.144012,763.231995
447.007996,472.384003,761.280029
445.056000,474.335999,755.424011
445.056000,474.335999,753.471985
443.104004,468.480011,751.520020
441.152008,470.432007,745.664001
439.200012,470.432007,751.520020
431.391998,480.191986,737.856018
437.247986,478.239990,743.711975
437.247986,480.191986,743.711975
433.343994,489.951996,753.471985
431.391998,484.096008,743.711975
431.391998,484.096008,747.616028
421.631989,478.239990,759.328003
439.200012,480.191986,767.135986
437.247986,470.432007,759.328003
441.152008,484.096008,759.328003
439.200012,478.239990,763.231995
435.295990,486.048004,761.280029
439.200012,476.287994,759.328003
437.247986,470.432007,763.231995
439.200012,472.384003,765.184021
429.440002,474.335999,757.375977
441.152008,468.480011,757.375977
437.247986,464.575989,759.328003
421.631989,474.335999,751.520020
425.536011,472.384003,757.375977
437.247986,476.287994,751.520020
441.152008,472.384003,753.471985
443.104004,476.287994,745.664001
431.391998,476.287994,745.664001
437.247986,478.239990,755.424011
435.295990,466.528015,753.471985
431.391998,466.528015,751.520020
435.295990,478.239990,767.135986
445.056000,466.528015,767.135986
439.200012,474.335999,761.280029
443.104004,470.432007,761.280029
447.007996,478.239990,763.231995
448.959991,470.432007,757.375977
447.007996,478.239990,759.328003
448.959991,470.432007,757.375977
448.959991,474.335999,753.471985
441.152008,478.239990,757.375977
450.911987,472.384003,753.471985
450.911987,474.335999,755.424011
447.007996,474.335999,745.664001
450.911987,478.239990,759.328003
454.816010,476.287994,745.664001
445.056000,470.432007,755.424011
450.911987,458.720001,759.328003
448.959991,470.432007,757.375977
450.911987,470.432007,759.328003
450.911987,468.480011,769.088013
448.959991,470.432007,757.375977
456.768005,470.432007,761.280029
456.768005,474.335999,771.039978
454.816010,472.384003,757.375977
454.816010,464.575989,761.280029
454.816010,478.239990,755.424011
456.768005,486.048004,759.328003
452.864014,470.432007,753.471985
450.911987,476.287994,749.567993
448.959991,480.191986,753.471985
450.911987,468.480011,755.424011
450.911987,478.239990,759.328003
448.959991,478.239990,749.567993
454.816010,470.432007,757.375977
447.007996,472.384003,751.520020
450.911987,470.432007,747.616028
450.911987,468.480011,749.567993
441.152008,468.480011,753.471985
445.056000,472.384003,755.424011
443.104004,474.335999,753.471985
431.391998,466.528015,759.328003
443.104004,468.480011,757.375977
445.056000,474.335999,745.664001
443.104004,482.144012,747.616028
437.247986,474.335999,741.760010
447.007996,478.239990,753.471985
431.391998,478.239990,755.424011
443.104004,480.191986,745.664001
441.152008,480.191986,755.424011
433.343994,486.048004,757.375977
443.104004,480.191986,747.616028
443.104004,484.096008,751.520020
439.200012,489.951996,751.520020
431.391998,489.951996,743.711975
437.247986,476.287994,757.375977
433.343994,488.000000,763.231995
427.488007,478.239990,753.471985
433.343994,484.096008,745.664001
429.440002,486.048004,755.424011
433.343994,489.951996,753.471985
439.200012,486.048004,755.424011
433.343994,480.191986,761.280029
425.536011,470.432007,757.375977
429.440002,474.335999,755.424011
427.488007,470.432007,745.664001
433.343994,484.096008,749.567993
431.391998,482.144012,755.424011
429.440002,489.951996,753.471985
423.584015,491.903992,763.231995
423.584015,491.903992,757.375977
425.536011,488.000000,753.471985
425.536011,489.951996,755.424011
431.391998,497.760010,753.471985
425.536011,497.760010,751.520020
427.488007,488.000000,757.375977
425.536011,495.808014,759.328003
423.584015,495.808014,753.471985
429.440002,497.760010,753.471985
423.584015,501.664001,765.184021
423.584015,495.808014,757.375977
425.536011,495.808014,755.424011
419.679993,493.855988,755.424011
413.824005,501.664001,761.280029
425.536011,495.808014,761.280029
421.631989,499.712006,745.664001
417.727997,486.048004,753.471985
413.824005,501.664001,761.280029
417.727997,501.664001,757.375977
417.727997,497.760010,757.375977
411.872009,497.760010,757.375977
417.727997,497.760010,757.375977
423.584015,503.615997,763.231995
419.679993,499.712006,753.471985
417.727997,511.424011,747.616028
415.776001,509.471985,759.328003
415.776001,503.615997,763.231995
413.824005,509.471985,757.375977
415.776001,503.615997,765.184021
417.727997,509.471985,763.231995
415.776001,509.471985,751.520020
425.536011,513.375977,751.520020
421.631989,511.424011,759.328003
421.631989,517.280029,761.280029
419.679993,513.375977,759.328003
419.679993,507.519989,753.471985
427.488007,515.328003,759.328003
423.584015,517.280029,753.471985
417.727997,515.328003,759.328003
425.536011,511.424011,755.424011
431.391998,513.375977,755.424011
433.343994,519.231995,769.088013
423.584015,521.184021,757.375977
421.631989,515.328003,759.328003
427.488007,515.328003,759.328003
421.631989,515.328003,759.328003
429.440002,517.280029,757.375977
427.488007,515.328003,767.135986
431.391998,519.231995,771.039978
433.343994,521.184021,763.231995
431.391998,519.231995,759.328003
423.584015,519.231995,763.231995
423.584015,521.184021,757.375977
429.440002,517.280029,761.280029
427.488007,517.280029,755.424011
435.295990,521.184021,755.424011
431.391998,515.328003,755.424011
423.584015,517.280029,745.664001
423.584015,525.088013,745.664001
421.631989,519.231995,755.424011
425.536011,519.231995,751.520020
431.391998,511.424011,747.616028
427.488007,525.088013,749.567993
435.295990,519.231995,763.231995
435.295990,521.184021,753.471985
425.536011,515.328003,749.567993
427.488007,511.424011,755.424011
431.391998,525.088013,759.328003
433.343994,519.231995,759.328003
429.440002,519.231995,759.328003
429.440002,515.328003,753.471985
431.391998,523.135986,765.184021
431.391998,513.375977,769.088013
431.391998,517.280029,761.280029
431.391998,517.280029,757.375977
421.631989,503.615997,761.280029
429.440002,513.375977,755.424011
427.488007,513.375977,757.375977
427.488007,509.471985,759.328003
431.391998,509.471985,749.567993
425.536011,509.471985,755.424011
421.631989,501.664001,755.424011
435.295990,503.615997,755.424011
431.391998,495.808014,751.520020
421.631989,497.760010,755.424011
425.536011,499.712006,751.520020
431.391998,493.855988,759.328003
431.391998,497.760010,763.231995
425.536011,488.000000,763.231995
425.536011,491.903992,757.375977
421.631989,486.048004,757.375977
417.727997,491.903992,751.520020
419.679993,489.951996,763.231995
419.679993,489.951996,761.280029
417.727997,491.903992,751.520020
421.631989,489.951996,759.328003
421.631989,489.951996,753.471985
417.727997,495.808014,755.424011
415.776001,484.096008,753.471985
419.679993,493.855988,747.616028
409.920013,493.855988,743.711975
406.015991,497.760010,759.328003
409.920013,493.855988,747.616028
406.015991,497.760010,759.328003
400.160004,489.951996,745.664001
406.015991,484.096008,737.856018
406.015991,480.191986,743.711975
400.160004,482.144012,745.664001
400.160004,489.951996,747.616028
411.872009,489.951996,737.856018
400.160004,489.951996,741.760010
400.160004,480.191986,743.711975
400.160004,480.191986,755.424011
396.256012,486.048004,749.567993
394.303986,482.144012,743.711975
398.208008,476.287994,739.807983
400.160004,488.000000,747.616028
394.303986,488.000000,733.952026
402.112000,484.096008,743.711975
400.160004,484.096008,743.711975
392.351990,488.000000,739.807983
400.160004,488.000000,739.807983
390.399994,493.855988,737.856018
400.160004,493.855988,732.000000
400.160004,497.760010,739.807983
400.160004,484.096008,737.856018
400.160004,484.096008,747.616028
407.967987,486.048004,733.952026
394.303986,495.808014,735.903992
394.303986,493.855988,735.903992
392.351990,489.951996,737.856018
396.256012,493.855988,743.711975
400.160004,493.855988,739.807983
400.160004,493.855988,730.047974
398.208008,501.664001,741.760010
409.920013,501.664001,751.520020
404.063995,509.471985,751.520020
409.920013,507.519989,749.567993
407.967987,505.567993,755.424011
398.208008,495.808014,751.520020
409.920013,503.615997,751.520020
411.872009,513.375977,749.567993
407.967987,517.280029,749.567993
407.967987,515.328003,753.471985
409.920013,505.567993,755.424011
413.824005,517.280029,751.520020
417.727997,515.328003,759.328003
413.824005,505.567993,759.328003
415.776001,507.519989,771.039978
421.631989,517.280029,765.184021
429.440002,511.424011,769.088013
433.343994,501.664001,771.039978
429.440002,499.712006,772.992004
441.152008,517.280029,769.088013
443.104004,517.280029,772.992004
437.247986,511.424011,772.992004
443.104004,515.328003,774.943970
448.959991,517.280029,782.752014
447.007996,515.328003,782.752014
447.007996,525.088013,780.799988
448.959991,523.135986,780.799988
448.959991,527.039978,788.607971
447.007996,528.992004,792.512024
445.056000,523.135986,788.607971
445.056000,534.848022,800.320007
454.816010,536.799988,804.223999
458.720001,525.088013,806.176025
456.768005,530.943970,802.271973
452.864014,536.799988,794.463989
452.864014,544.607971,802.271973
456.768005,540.703979,808.127991
456.768005,544.607971,806.176025
445.056000,538.752014,813.984009
445.056000,544.607971,804.223999
445.056000,538.752014,815.935974
437.247986,534.848022,812.031982
443.104004,550.463989,813.984009
439.200012,548.512024,812.031982
427.488007,548.512024,812.031982
429.440002,546.559998,817.888000
429.440002,556.320007,815.935974
421.631989,550.463989,806.176025
415.776001,550.463989,804.223999
419.679993,560.223999,806.176025
407.967987,556.320007,806.176025
402.112000,560.223999,806.176025
406.015991,556.320007,798.367981
400.160004,556.320007,802.271973
396.256012,556.320007,804.223999
394.303986,548.512024,802.271973
396.256012,544.607971,792.512024
390.399994,540.703979,790.559998
384.544006,540.703979,796.416016
380.640015,536.799988,794.463989
378.687988,534.848022,784.703979
370.880005,530.943970,788.607971
366.976013,528.992004,782.752014
366.976013,530.943970,782.752014
359.167999,528.992004,774.943970
357.216003,530.943970,778.848022
349.407990,528.992004,767.135986
353.312012,523.135986,759.328003
353.312012,527.039978,755.424011
347.455994,525.088013,757.375977
345.503998,523.135986,749.567993
337.696014,519.231995,759.328003
337.696014,511.424011,755.424011
325.984009,517.280029,741.760010
324.032013,513.375977,745.664001
333.791992,511.424011,759.328003
333.791992,517.280029,755.424011
325.984009,497.760010,749.567993
324.032013,491.903992,753.471985
327.936005,501.664001,753.471985
331.839996,489.951996,757.375977
325.984009,488.000000,759.328003
324.032013,484.096008,763.231995
333.791992,480.191986,757.375977
322.079987,484.096008,753.471985
324.032013,489.951996,763.231995
327.936005,482.144012,759.328003
339.648010,493.855988,759.328003
335.743988,491.903992,751.520020
333.791992,495.808014,753.471985
331.839996,491.903992,757.375977
337.696014,491.903992,749.567993
341.600006,491.903992,753.471985
339.648010,489.951996,747.616028
335.743988,476.287994,757.375977
331.839996,488.000000,753.471985
341.600006,480.191986,755.424011
341.600006,472.384003,755.424011
347.455994,480.191986,757.375977
359.167999,478.239990,751.520020
351.359985,474.335999,749.567993
351.359985,476.287994,745.664001
355.264008,470.432007,747.616028
355.264008,476.287994,751.520020
357.216003,468.480011,743.711975
359.167999,462.623993,753.471985
361.119995,456.768005,743.711975
359.167999,468.480011,741.760010
365.023987,462.623993,745.664001
366.976013,454.816010,749.567993
363.071991,452.864014,743.711975
365.023987,462.623993,745.664001
372.832001,454.816010,739.807983
370.880005,439.200012,733.952026
372.832001,448.959991,747.616028
370.880005,443.104004,737.856018
366.976013,433.343994,741.760010
370.880005,433.343994,745.664001
384.544006,437.247986,743.711975
376.735992,429.440002,747.616028
388.447998,439.200012,743.711975
392.351990,435.295990,743.711975
392.351990,429.440002,745.664001
386.496002,433.343994,757.375977
384.544006,421.631989,763.231995
407.967987,431.391998,761.280029
396.256012,429.440002,753.471985
413.824005,421.631989,757.375977
402.112000,419.679993,759.328003
407.967987,421.631989,774.943970
411.872009,429.440002,769.088013
411.872009,427.488007,767.135986
419.679993,425.536011,769.088013
417.727997,421.631989,767.135986
417.727997,427.488007,771.039978
429.440002,427.488007,772.992004
425.536011,421.631989,780.799988
423.584015,423.584015,778.848022
425.536011,421.631989,774.943970
433.343994,421.631989,778.848022
425.536011,419.679993,786.656006
433.343994,421.631989,782.752014
437.247986,419.679993,786.656006
429.440002,423.584015,788.607971
429.440002,411.872009,786.656006
429.440002,417.727997,786.656006
429.440002,427.488007,776.895996
437.247986,419.679993,774.943970
433.343994,419.679993,767.135986
437.247986,427.488007,761.280029
429.440002,435.295990,771.039978
425.536011,433.343994,763.231995
429.440002,435.295990,753.471985
423.584015,437.247986,759.328003
429.440002,437.247986,759.328003
431.391998,437.247986,759.328003
425.536011,439.200012,757.375977
421.631989,445.056000,761.280029
423.584015,435.295990,761.280029
417.727997,429.440002,769.088013
429.440002,413.824005,755.424011
423.584015,411.872009,757.375977
425.536011,419.679993,755.424011
419.679993,406.015991,747.616028
419.679993,409.920013,741.760010
411.872009,419.679993,749.567993
407.967987,409.920013,745.664001
411.872009,415.776001,735.903992
411.872009,421.631989,735.903992
421.631989,431.391998,726.143982
402.112000,435.295990,722.239990
396.256012,433.343994,728.096008
402.112000,425.536011,726.143982
402.112000,445.056000,724.192017
400.160004,437.247986,728.096008
402.112000,429.440002,732.000000
409.920013,431.391998,745.664001
411.872009,433.343994,739.807983
409.920013,441.152008,745.664001
411.872009,445.056000,753.471985
415.776001,419.679993,761.280029
409.920013,423.584015,763.231995
423.584015,441.152008,769.088013
407.967987,435.295990,761.280029
415.776001,421.631989,765.184021
415.776001,439.200012,761.280029
415.776001,433.343994,765.184021
409.920013,427.488007,753.471985
411.872009,441.152008,763.231995
415.776001,447.007996,761.280029
411.872009,443.104004,765.184021
413.824005,447.007996,757.375977
415.776001,445.056000,763.231995
413.824005,429.440002,763.231995
409.920013,452.864014,767.135986
413.824005,458.720001,767.135986
411.872009,437.247986,757.375977
419.679993,439.200012,765.184021
421.631989,437.247986,767.135986
419.679993,429.440002,769.088013
411.872009,429.440002,763.231995
417.727997,447.007996,771.039978
415.776001,437.247986,767.135986
419.679993,441.152008,761.280029
421.631989,437.247986,751.520020
425.536011,448.959991,755.424011
431.391998,452.864014,755.424011
415.776001,464.575989,749.567993
415.776001,456.768005,755.424011
431.391998,466.528015,757.375977
431.391998,464.575989,755.424011
427.488007,460.671997,745.664001
433.343994,460.671997,745.664001
421.631989,458.720001,741.760010
425.536011,447.007996,743.711975
423.584015,443.104004,741.760010
427.488007,441.152008,741.760010
431.391998,448.959991,743.711975
429.440002,443.104004,739.807983
435.295990,417.727997,735.903992
427.488007,425.536011,726.143982
431.391998,435.295990,728.096008
431.391998,431.391998,728.096008
439.200012,429.440002,722.239990
435.295990,448.959991,706.624023
429.440002,443.104004,712.479980
433.343994,435.295990,710.528015
425.536011,452.864014,712.479980
431.391998,456.768005,708.575989
431.391998,448.959991,706.624023
425.536011,441.152008,704.671997
433.343994,437.247986,700.768005
427.488007,441.152008,714.432007
425.536011,439.200012,704.671997
433.343994,433.343994,702.719971
439.200012,417.727997,696.864014
443.104004,419.679993,700.768005
435.295990,419.679993,685.151978
437.247986,421.631989,683.200012
441.152008,406.015991,689.056030
443.104004,413.824005,689.056030
429.440002,419.679993,694.911987
443.104004,406.015991,691.007996
447.007996,419.679993,685.151978
445.056000,411.872009,671.487976
448.959991,402.112000,675.392029
447.007996,404.063995,681.247986
448.959991,402.112000,681.247986
450.911987,406.015991,675.392029
450.911987,407.967987,667.583984
458.720001,400.160004,669.536011
458.720001,394.303986,661.728027
448.959991,404.063995,663.679993
458.720001,394.303986,671.487976
462.623993,390.399994,655.872009
456.768005,398.208008,665.632019
460.671997,386.496002,667.583984
458.720001,394.303986,667.583984
452.864014,394.303986,663.679993
448.959991,398.208008,663.679993
445.056000,380.640015,669.536011
445.056000,388.447998,651.968018
447.007996,382.592010,657.823975
437.247986,386.496002,651.968018
437.247986,390.399994,655.872009
441.152008,376.735992,653.919983
433.343994,370.880005,648.064026
429.440002,372.832001,646.112000
435.295990,370.880005,646.112000
439.200012,366.976013,648.064026
429.440002,376.735992,648.064026
425.536011,372.832001,646.112000
431.391998,361.119995,630.495972
421.631989,365.023987,646.112000
431.391998,363.071991,636.351990
427.488007,363.071991,644.159973
427.488007,361.119995,644.159973
421.631989,357.216003,638.304016
423.584015,341.600006,632.447998
423.584015,343.552002,640.255981
417.727997,345.503998,644.159973
427.488007,341.600006,650.015991
427.488007,335.743988,646.112000
415.776001,337.696014,642.208008
423.584015,333.791992,644.159973
421.631989,327.936005,646.112000
415.776001,320.127991,648.064026
415.776001,318.175995,644.159973
411.872009,308.415985,638.304016
417.727997,308.415985,642.208008
413.824005,322.079987,653.919983
407.967987,314.272003,646.112000
413.824005,320.127991,646.112000
415.776001,306.463989,644.159973
413.824005,302.559998,644.159973
413.824005,300.608002,648.064026
409.920013,306.463989,650.015991
415.776001,312.320007,644.159973
413.824005,298.656006,646.112000
409.920013,302.559998,646.112000
411.872009,304.511993,642.208008
411.872009,298.656006,648.064026
415.776001,296.704010,638.304016
409.920013,292.799988,644.159973
419.679993,288.895996,640.255981
417.727997,286.944000,644.159973
421.631989,286.944000,644.159973
431.391998,277.183990,644.159973
429.440002,273.279999,648.064026
433.343994,283.040009,648.064026
429.440002,271.328003,648.064026
439.200012,263.519989,638.304016
439.200012,273.279999,648.064026
439.200012,269.376007,650.015991
437.247986,265.471985,655.872009
437.247986,253.759995,655.872009
445.056000,261.567993,648.064026
447.007996,267.424011,650.015991
445.056000,267.424011,650.015991
452.864014,259.615997,657.823975
450.911987,255.712006,657.823975
454.816010,255.712006,648.064026
454.816010,249.856003,653.919983
462.623993,255.712006,659.776001
458.720001,257.664001,661.728027
460.671997,253.759995,659.776001
464.575989,249.856003,659.776001
458.720001,261.567993,663.679993
460.671997,261.567993,663.679993
470.432007,251.807999,671.487976
468.480011,263.519989,669.536011
484.096008,253.759995,667.583984
489.951996,249.856003,681.247986
486.048004,251.807999,675.392029
488.000000,275.231995,691.007996
493.855988,263.519989,704.671997
493.855988,255.712006,704.671997
489.951996,263.519989,710.528015
497.760010,259.615997,716.383972
505.567993,253.759995,714.432007
505.567993,253.759995,712.479980
509.471985,249.856003,716.383972
503.615997,242.048004,716.383972
511.424011,247.904007,706.624023
511.424011,257.664001,706.624023
515.328003,261.567993,706.624023
505.567993,257.664001,710.528015
505.567993,259.615997,712.479980
509.471985,259.615997,704.671997
505.567993,245.951996,698.815979
513.375977,240.095993,696.864014
501.664001,244.000000,702.719971
507.519989,240.095993,696.864014
503.615997,242.048004,712.479980
499.712006,245.951996,714.432007
509.471985,249.856003,712.479980
507.519989,255.712006,708.575989
507.519989,238.143997,710.528015
501.664001,253.759995,710.528015
497.760010,253.759995,714.432007
497.760010,261.567993,716.383972
489.951996,255.712006,698.815979
491.903992,257.664001,692.960022
489.951996,273.279999,689.056030
484.096008,275.231995,687.104004
476.287994,261.567993,689.056030
486.048004,275.231995,679.296021
474.335999,273.279999,667.583984
474.335999,277.183990,663.679993
468.480011,267.424011,669.536011
464.575989,257.664001,667.583984
464.575989,269.376007,667.583984
468.480011,269.376007,665.632019
462.623993,265.471985,653.919983
466.528015,249.856003,665.632019
458.720001,265.471985,667.583984
460.671997,255.712006,663.679993
466.528015,249.856003,651.968018
450.911987,255.712006,648.064026
458.720001,257.664001,644.159973
456.768005,275.231995,640.255981
454.816010,273.279999,642.208008
452.864014,267.424011,630.495972
456.768005,279.135986,636.351990
460.671997,273.279999,620.736023
458.720001,269.376007,612.927979
458.720001,281.088013,624.640015
460.671997,283.040009,616.831970
464.575989,271.328003,614.880005
460.671997,279.135986,616.831970
460.671997,261.567993,607.072021
462.623993,275.231995,609.023987
474.335999,269.376007,607.072021
480.191986,251.807999,607.072021
486.048004,253.759995,601.216003
480.191986,245.951996,601.216003
488.000000,247.904007,603.168030
493.855988,236.192001,605.119995
499.712006,236.192001,605.119995
501.664001,234.240005,609.023987
501.664001,232.287994,605.119995
505.567993,222.528000,607.072021
513.375977,220.576004,605.119995
519.231995,222.528000,612.927979
515.328003,212.768005,605.119995
532.895996,216.671997,603.168030
542.656006,197.151993,603.168030
548.512024,189.343994,593.408020
562.176025,175.679993,603.168030
564.127991,181.535995,601.216003
573.888000,185.440002,601.216003
573.888000,189.343994,610.976013
573.888000,173.727997,616.831970
581.695984,169.824005,618.783997
585.599976,163.968002,610.976013
589.504028,158.112000,616.831970
601.216003,167.871994,620.736023
622.687988,150.304001,616.831970
636.351990,124.928001,618.783997
653.919983,126.879997,628.544006
653.919983,124.928001,638.304016
663.679993,121.024002,636.351990
651.968018,122.975998,646.112000
665.632019,119.071999,644.159973
681.247986,109.311996,653.919983
685.151978,121.024002,655.872009
692.960022,122.975998,665.632019
698.815979,124.928001,665.632019
692.960022,130.783997,659.776001
714.432007,132.735992,659.776001
722.239990,128.832001,655.872009
728.096008,154.207993,669.536011
730.047974,179.584000,673.440002
735.903992,183.488007,675.392029
759.328003,177.632004,689.056030
776.895996,140.544006,694.911987
804.223999,130.783997,698.815979
831.552002,146.399994,712.479980
843.263977,93.695999,714.432007
853.023987,56.608002,718.335999
853.023987,76.127998,718.335999
868.640015,74.176003,741.760010
849.119995,56.608002,749.567993
851.072021,87.839996,753.471985
858.880005,95.648003,759.328003
864.736023,70.272003,767.135986
858.880005,95.648003,757.375977
864.736023,99.552002,767.135986
862.783997,97.599998,763.231995
860.831970,136.639999,761.280029
874.495972,130.783997,747.616028
884.255981,97.599998,730.047974
870.591980,144.447998,722.239990
866.687988,181.535995,728.096008
864.736023,167.871994,730.047974
862.783997,193.248001,733.952026
872.544006,193.248001,718.335999
884.255981,158.112000,728.096008
897.919983,154.207993,718.335999
895.968018,158.112000,733.952026
894.015991,140.544006,747.616028
895.968018,148.352005,741.760010
903.776001,126.879997,755.424011
897.919983,111.264000,755.424011
894.015991,169.824005,771.039978
895.968018,175.679993,769.088013
903.776001,146.399994,772.992004
897.919983,173.727997,771.039978
901.823975,189.343994,772.992004
895.968018,177.632004,772.992004
888.159973,195.199997,778.848022
894.015991,214.720001,757.375977
892.064026,201.056000,755.424011
897.919983,197.151993,741.760010
888.159973,206.912003,747.616028
872.544006,212.768005,733.952026
866.687988,216.671997,732.000000
862.783997,220.576004,716.383972
876.447998,201.056000,714.432007
862.783997,212.768005,702.719971
856.927979,216.671997,712.479980
839.359985,204.960007,706.624023
837.408020,208.863998,710.528015
847.168030,201.056000,704.671997
843.263977,189.343994,698.815979
831.552002,193.248001,696.864014
833.504028,195.199997,698.815979
819.840027,203.007996,700.768005
821.791992,208.863998,696.864014
810.080017,218.623993,692.960022
788.607971,249.856003,692.960022
780.799988,263.519989,687.104004
772.992004,261.567993,669.536011
782.752014,263.519989,681.247986
778.848022,275.231995,665.632019
786.656006,273.279999,663.679993
774.943970,269.376007,669.536011
778.848022,269.376007,665.632019
772.992004,259.615997,665.632019
767.135986,259.615997,663.679993
767.135986,273.279999,653.919983
753.471985,261.567993,659.776001
743.711975,245.951996,657.823975
733.952026,240.095993,651.968018
741.760010,222.528000,653.919983
741.760010,220.576004,648.064026
737.856018,201.056000,651.968018
743.711975,204.960007,650.015991
743.711975,206.912003,640.255981
743.711975,203.007996,644.159973
743.711975,199.104004,651.968018
733.952026,214.720001,646.112000
732.000000,224.479996,648.064026
732.000000,224.479996,653.919983
728.096008,240.095993,646.112000
720.288025,240.095993,651.968018
732.000000,240.095993,640.255981
714.432007,238.143997,640.255981
733.952026,257.664001,636.351990
720.288025,259.615997,628.544006
720.288025,269.376007,632.447998
710.528015,269.376007,626.591980
718.335999,265.471985,622.687988
718.335999,273.279999,614.880005
724.192017,257.664001,614.880005
720.288025,255.712006,609.023987
712.479980,247.904007,614.880005
722.239990,247.904007,618.783997
722.239990,240.095993,622.687988
735.903992,232.287994,622.687988
737.856018,208.863998,612.927979
751.520020,214.720001,622.687988
747.616028,210.815994,642.208008
751.520020,208.863998,642.208008
745.664001,204.960007,640.255981
753.471985,214.720001,646.112000
749.567993,228.384003,644.159973
769.088013,222.528000,648.064026
761.280029,240.095993,650.015991
757.375977,253.759995,642.208008
765.184021,261.567993,646.112000
749.567993,283.040009,632.447998
759.328003,283.040009,634.400024
761.280029,283.040009,638.304016
755.424011,284.992004,632.447998
751.520020,288.895996,622.687988
761.280029,271.328003,624.640015
757.375977,255.712006,626.591980
763.231995,249.856003,630.495972
772.992004,230.335999,638.304016
761.280029,222.528000,634.400024
778.848022,218.623993,638.304016
780.799988,195.199997,638.304016
780.799988,189.343994,632.447998
794.463989,179.584000,642.208008
784.703979,193.248001,630.495972
790.559998,197.151993,640.255981
790.559998,206.912003,638.304016
794.463989,203.007996,636.351990
802.271973,199.104004,634.400024
790.559998,230.335999,634.400024
796.416016,255.712006,622.687988
786.656006,242.048004,634.400024
786.656006,245.951996,640.255981
800.320007,271.328003,636.351990
796.416016,244.000000,642.208008
800.320007,238.143997,640.255981
796.416016,230.335999,653.919983
798.367981,234.240005,655.872009
800.320007,220.576004,655.872009
802.271973,222.528000,665.632019
810.080017,201.056000,661.728027
806.176025,197.151993,655.872009
808.127991,191.296005,657.823975
815.935974,206.912003,653.919983
796.416016,187.391998,650.015991
806.176025,191.296005,648.064026
808.127991,206.912003,638.304016
800.320007,212.768005,638.304016
815.935974,206.912003,624.640015
810.080017,222.528000,626.591980
819.840027,224.479996,626.591980
806.176025,234.240005,622.687988
806.176025,240.095993,620.736023
810.080017,234.240005,624.640015
810.080017,240.095993,630.495972
804.223999,236.192001,638.304016
817.888000,228.384003,636.351990
812.031982,226.432007,646.112000
821.791992,244.000000,650.015991
815.935974,220.576004,653.919983
821.791992,212.768005,651.968018
815.935974,218.623993,651.968018
825.695984,212.768005,655.872009
825.695984,214.720001,661.728027
808.127991,210.815994,655.872009
808.127991,208.863998,646.112000
812.031982,220.576004,644.159973
800.320007,218.623993,646.112000
800.320007,220.576004,632.447998
806.176025,228.384003,620.736023
810.080017,238.143997,609.023987
810.080017,238.143997,601.216003
813.984009,238.143997,599.263977
817.888000,257.664001,595.359985
813.984009,244.000000,589.504028
817.888000,238.143997,595.359985
813.984009,259.615997,593.408020
808.127991,251.807999,603.168030
833.504028,226.432007,610.976013
819.840027,236.192001,620.736023
829.599976,240.095993,620.736023
829.599976,214.720001,644.159973
835.455994,206.912003,642.208008
837.408020,226.432007,650.015991
847.168030,210.815994,650.015991
849.119995,201.056000,648.064026
854.976013,218.623993,651.968018
853.023987,212.768005,663.679993
858.880005,212.768005,673.440002
854.976013,232.287994,679.296021
853.023987,222.528000,669.536011
845.216003,224.479996,661.728027
856.927979,261.567993,657.823975
839.359985,265.471985,648.064026
841.312012,238.143997,646.112000
839.359985,275.231995,630.495972
823.744019,290.847992,622.687988
833.504028,271.328003,616.831970
837.408020,269.376007,614.880005
825.695984,279.135986,610.976013
825.695984,269.376007,616.831970
817.888000,265.471985,612.927979
819.840027,253.759995,614.880005
812.031982,245.951996,614.880005
817.888000,245.951996,610.976013
817.888000,222.528000,609.023987
808.127991,214.720001,610.976013
808.127991,244.000000,616.831970
813.984009,224.479996,605.119995
794.463989,210.815994,607.072021
802.271973,242.048004,593.408020
794.463989,234.240005,597.312012
788.607971,255.712006,593.408020
784.703979,251.807999,585.599976
780.799988,267.424011,583.648010
776.895996,286.944000,579.744019
774.943970,273.279999,579.744019
774.943970,275.231995,583.648010
778.848022,283.040009,573.888000
780.799988,279.135986,575.840027
778.848022,251.807999,566.080017
776.895996,255.712006,568.031982
771.039978,257.664001,573.888000
767.135986,253.759995,560.223999
771.039978,236.192001,562.176025
765.184021,236.192001,568.031982
753.471985,238.143997,558.271973
749.567993,222.528000,562.176025
747.616028,214.720001,558.271973
751.520020,222.528000,560.223999
747.616028,242.048004,554.367981
745.664001,226.432007,548.512024
741.760010,232.287994,544.607971
753.471985,228.384003,540.703979
755.424011,226.432007,540.703979
741.760010,238.143997,528.992004
749.567993,236.192001,528.992004
753.471985,240.095993,532.895996
743.711975,251.807999,532.895996
747.616028,251.807999,530.943970
737.856018,242.048004,530.943970
733.952026,244.000000,536.799988
735.903992,251.807999,536.799988
735.903992,244.000000,534.848022
726.143982,236.192001,532.895996
743.711975,236.192001,538.752014
735.903992,232.287994,536.799988
739.807983,232.287994,540.703979
747.616028,234.240005,536.799988
735.903992,226.432007,527.039978
743.711975,222.528000,536.799988
741.760010,232.287994,538.752014
739.807983,226.432007,538.752014
743.711975,226.432007,536.799988
733.952026,218.623993,530.943970
733.952026,236.192001,534.848022
747.616028,234.240005,527.039978
747.616028,222.528000,525.088013
753.471985,236.192001,515.328003
755.424011,236.192001,521.184021
741.760010,238.143997,519.231995
741.760010,238.143997,517.280029
749.567993,245.951996,515.328003
741.760010,240.095993,523.135986
732.000000,247.904007,517.280029
737.856018,245.951996,519.231995
747.616028,238.143997,509.471985
745.664001,236.192001,511.424011
745.664001,236.192001,511.424011
761.280029,224.479996,517.280029
751.520020,230.335999,513.375977
759.328003,232.287994,521.184021
759.328003,220.576004,517.280029
759.328003,222.528000,521.184021
759.328003,218.623993,525.088013
774.943970,234.240005,525.088013
757.375977,236.192001,527.039978
757.375977,226.432007,515.328003
753.471985,238.143997,515.328003
761.280029,242.048004,513.375977
769.088013,247.904007,509.471985
767.135986,245.951996,507.519989
761.280029,251.807999,511.424011
771.039978,247.904007,495.808014
771.039978,240.095993,495.808014
761.280029,244.000000,501.664001
767.135986,245.951996,501.664001
765.184021,240.095993,513.375977
763.231995,234.240005,513.375977
769.088013,228.384003,499.712006
774.943970,222.528000,495.808014
765.184021,224.479996,497.760010
763.231995,222.528000,505.567993
765.184021,230.335999,509.471985
759.328003,232.287994,503.615997
763.231995,222.528000,497.760010
763.231995,218.623993,493.855988
761.280029,228.384003,495.808014
761.280029,230.335999,495.808014
749.567993,228.384003,493.855988
759.328003,222.528000,489.951996
753.471985,234.240005,484.096008
763.231995,240.095993,486.048004
759.328003,230.335999,484.096008
759.328003,234.240005,484.096008
755.424011,230.335999,472.384003
755.424011,236.192001,472.384003
747.616028,240.095993,456.768005
753.471985,222.528000,470.432007
747.616028,230.335999,458.720001
749.567993,234.240005,445.056000
753.471985,226.432007,443.104004
749.567993,226.432007,441.152008
747.616028,232.287994,443.104004
747.616028,228.384003,437.247986
741.760010,228.384003,435.295990
751.520020,234.240005,441.152008
745.664001,228.384003,431.391998
757.375977,226.432007,429.440002
755.424011,230.335999,425.536011
761.280029,242.048004,413.824005
753.471985,226.432007,413.824005
759.328003,236.192001,415.776001
776.895996,249.856003,417.727997
780.799988,245.951996,415.776001
794.463989,261.567993,415.776001
790.559998,283.040009,431.391998
788.607971,259.615997,429.440002
794.463989,265.471985,441.152008
810.080017,310.368011,441.152008
812.031982,314.272003,445.056000
806.176025,302.559998,458.720001
804.223999,306.463989,456.768005
804.223999,337.696014,448.959991
806.176025,329.888000,452.864014
810.080017,308.415985,448.959991
806.176025,310.368011,447.007996
817.888000,318.175995,441.152008
819.840027,288.895996,429.440002
819.840027,261.567993,431.391998
831.552002,238.143997,421.631989
835.455994,238.143997,425.536011
845.216003,228.384003,423.584015
817.888000,201.056000,419.679993
833.504028,203.007996,415.776001
829.599976,204.960007,407.967987
835.455994,193.248001,413.824005
851.072021,177.632004,411.872009
858.880005,183.488007,425.536011
870.591980,189.343994,433.343994
872.544006,175.679993,429.440002
866.687988,185.440002,439.200012
868.640015,199.104004,437.247986
868.640015,214.720001,441.152008
864.736023,204.960007,445.056000
872.544006,203.007996,454.816010
882.304016,208.863998,456.768005
886.208008,203.007996,452.864014
901.823975,199.104004,462.623993
905.728027,201.056000,460.671997
911.583984,197.151993,466.528015
919.392029,193.248001,472.384003
925.247986,189.343994,476.287994
933.056030,195.199997,476.287994
929.151978,204.960007,488.000000
942.815979,206.912003,499.712006
938.911987,199.104004,511.424011
958.432007,208.863998,521.184021
974.047974,191.296005,534.848022
962.335999,181.535995,552.416016
962.335999,197.151993,562.176025
974.047974,204.960007,577.791992
972.096008,181.535995,585.599976
985.760010,173.727997,593.408020
997.471985,177.632004,616.831970
1005.280029,181.535995,634.400024
1007.231995,152.255997,644.159973
1009.184021,148.352005,655.872009
1011.135986,148.352005,669.536011
1013.088013,152.255997,683.200012
1013.088013,148.352005,694.911987
1028.703979,136.639999,706.624023
1030.656006,117.120003,706.624023
1030.656006,121.024002,708.575989
1044.319946,130.783997,728.096008
1059.936035,105.407997,737.856018
1052.128052,91.744003,722.239990
1018.943970,152.255997,706.624023
1013.088013,253.759995,694.911987
1016.992004,238.143997,698.815979
1018.943970,156.160004,692.960022
1034.560059,128.832001,679.296021
1050.176025,150.304001,679.296021
1042.368042,160.063995,681.247986
1022.848022,130.783997,700.768005
1028.703979,124.928001,702.719971
1030.656006,142.496002,708.575989
1036.511963,119.071999,704.671997
1042.368042,74.176003,712.479980
1061.887939,29.280001,724.192017
1075.552002,-21.472000,712.479980
1069.696045,-52.703999,714.432007
1071.647949,-93.695999,708.575989
1071.647949,-87.839996,712.479980
1054.079956,-81.984001,712.479980
1048.223999,-62.464001,706.624023
1038.463989,-37.088001,710.528015
1030.656006,-23.424000,710.528015
1016.992004,-9.760000,712.479980
1003.328003,-3.904000,710.528015
1009.184021,-11.712000,704.671997
1001.375977,-9.760000,694.911987
1015.039978,-5.856000,679.296021
1016.992004,-21.472000,671.487976
1009.184021,-13.664000,665.632019
1001.375977,0.000000,644.159973
991.616028,17.568001,634.400024
989.664001,31.232000,609.023987
972.096008,42.944000,605.119995
952.575989,70.272003,577.791992
884.255981,259.615997,566.080017
784.703979,1473.760010,513.375977
938.911987,1145.823975,509.471985
841.312012,-443.104004,507.519989
870.591980,-564.127991,478.239990
909.632019,486.048004,429.440002
862.783997,610.976013,419.679993
862.783997,19.520000,443.104004
845.216003,-126.879997,450.911987
876.447998,93.695999,431.391998
880.351990,335.743988,409.920013
870.591980,212.768005,435.295990
851.072021,-80.031998,460.671997
862.783997,-91.744003,456.768005
880.351990,214.720001,450.911987
860.831970,210.815994,464.575989
856.927979,-44.896000,480.191986
872.544006,-107.360001,480.191986
878.400024,101.503998,484.096008
864.736023,171.776001,488.000000
854.976013,-7.808000,491.903992
854.976013,-78.080002,493.855988
856.927979,31.232000,488.000000
862.783997,85.888000,484.096008
847.168030,21.472000,486.048004
835.455994,-48.799999,486.048004
841.312012,3.904000,486.048004
843.263977,64.416000,472.384003
841.312012,40.992001,470.432007
827.648010,-7.808000,464.575989
831.552002,9.760000,445.056000
853.023987,39.040001,435.295990
839.359985,52.703999,429.440002
831.552002,19.520000,417.727997
839.359985,15.616000,413.824005
837.408020,44.896000,409.920013
823.744019,54.655998,400.160004
821.791992,29.280001,400.160004
827.648010,23.424000,398.208008
823.744019,48.799999,396.256012
825.695984,42.944000,402.112000
827.648010,25.375999,394.303986
819.840027,17.568001,407.967987
833.504028,25.375999,413.824005
829.599976,27.327999,413.824005
835.455994,23.424000,407.967987
827.648010,15.616000,407.967987
841.312012,21.472000,402.112000
847.168030,19.520000,406.015991
853.023987,19.520000,400.160004
862.783997,15.616000,406.015991
862.783997,17.568001,407.967987
851.072021,25.375999,404.063995
835.455994,21.472000,409.920013
821.791992,25.375999,402.112000
817.888000,46.848000,402.112000
796.416016,58.560001,394.303986
800.320007,40.992001,396.256012
810.080017,48.799999,398.208008
806.176025,58.560001,394.303986
821.791992,42.944000,388.447998
825.695984,54.655998,380.640015
831.552002,48.799999,378.687988
841.312012,56.608002,376.735992
845.216003,56.608002,392.351990
853.023987,74.176003,378.687988
849.119995,60.512001,394.303986
849.119995,78.080002,404.063995
849.119995,83.935997,406.015991
851.072021,72.223999,409.920013
851.072021,72.223999,423.584015
858.880005,76.127998,427.488007
868.640015,74.176003,431.391998
876.447998,52.703999,429.440002
876.447998,54.655998,429.440002
880.351990,48.799999,431.391998
886.208008,42.944000,429.440002
882.304016,46.848000,431.391998
880.351990,52.703999,417.727997
880.351990,62.464001,413.824005
884.255981,56.608002,411.872009
886.208008,54.655998,411.872009
894.015991,48.799999,409.920013
892.064026,48.799999,407.967987
888.159973,50.751999,400.160004
895.968018,54.655998,396.256012
897.919983,48.799999,388.447998
895.968018,52.703999,390.399994
903.776001,58.560001,384.544006
901.823975,64.416000,378.687988
892.064026,66.367996,378.687988
888.159973,62.464001,374.783997
895.968018,54.655998,370.880005
892.064026,64.416000,368.928009
897.919983,56.608002,361.119995
903.776001,46.848000,363.071991
894.015991,56.608002,359.167999
915.487976,44.896000,359.167999
909.632019,44.896000,353.312012
917.440002,39.040001,347.455994
923.296021,37.088001,345.503998
927.200012,33.183998,347.455994
931.104004,31.232000,347.455994
929.151978,35.136002,345.503998
933.056030,33.183998,345.503998
929.151978,35.136002,335.743988
931.104004,44.896000,337.696014
936.960022,37.088001,327.936005
948.671997,40.992001,325.984009
938.911987,48.799999,331.839996
946.719971,46.848000,327.936005
946.719971,50.751999,329.888000
952.575989,50.751999,320.127991
960.383972,42.944000,324.032013
962.335999,39.040001,329.888000
958.432007,46.848000,324.032013
956.479980,60.512001,324.032013
962.335999,56.608002,327.936005
956.479980,60.512001,349.407990
958.432007,60.512001,355.264008
954.528015,56.608002,363.071991
958.432007,50.751999,363.071991
950.624023,62.464001,368.928009
948.671997,42.944000,376.735992
948.671997,52.703999,380.640015
944.768005,66.367996,386.496002
946.719971,66.367996,390.399994
958.432007,70.272003,392.351990
964.288025,66.367996,394.303986
958.432007,62.464001,406.015991
962.335999,70.272003,417.727997
956.479980,70.272003,433.343994
964.288025,66.367996,441.152008
960.383972,72.223999,458.720001
962.335999,72.223999,462.623993
974.047974,72.223999,462.623993
974.047974,72.223999,468.480011
966.239990,74.176003,474.335999
970.143982,83.935997,480.191986
979.903992,85.888000,486.048004
976.000000,93.695999,474.335999
979.903992,97.599998,472.384003
976.000000,101.503998,470.432007
977.952026,99.552002,462.623993
970.143982,122.975998,460.671997
974.047974,109.311996,462.623993
976.000000,119.071999,454.816010
983.807983,113.216003,452.864014
985.760010,122.975998,447.007996
981.856018,113.216003,445.056000
993.567993,119.071999,452.864014
981.856018,109.311996,447.007996
993.567993,115.167999,445.056000
1016.992004,101.503998,454.816010
1024.800049,80.031998,447.007996
1026.751953,70.272003,450.911987
1030.656006,66.367996,454.816010
1040.416016,56.608002,462.623993
1048.223999,50.751999,470.432007
1040.416016,52.703999,476.287994
1034.560059,44.896000,482.144012
1024.800049,40.992001,493.855988
1024.800049,29.280001,517.280029
1020.895996,13.664000,521.184021
1028.703979,-3.904000,528.992004
1032.608032,-35.136002,542.656006
1040.416016,-48.799999,552.416016
1046.271973,-27.327999,556.320007
1044.319946,3.904000,564.127991
1056.031982,9.760000,562.176025
1059.936035,-13.664000,575.840027
1075.552002,-27.327999,575.840027
1077.504028,-13.664000,566.080017
1085.312012,-21.472000,575.840027
1102.880005,-44.896000,562.176025
1112.640015,-52.703999,560.223999
1147.776001,-64.416000,562.176025
1216.095947,-83.935997,564.127991
1280.511963,-99.552002,564.127991
1284.416016,-128.832001,544.607971
1241.472046,-146.399994,550.463989
1237.567993,-122.975998,548.512024
1255.135986,-136.639999,564.127991
1241.472046,-107.360001,558.271973
1218.047974,-109.311996,568.031982
1196.576050,-156.160004,568.031982
1235.615967,-160.063995,571.935974
1167.296021,-124.928001,544.607971
1128.255981,-105.407997,515.328003
1108.735962,-140.544006,493.855988
1091.167969,-154.207993,480.191986
1061.887939,-132.735992,462.623993
1046.271973,-72.223999,443.104004
1015.039978,-74.176003,427.488007
960.383972,-115.167999,409.920013
944.768005,-109.311996,402.112000
952.575989,-78.080002,394.303986
942.815979,-74.176003,372.832001
925.247986,-93.695999,359.167999
915.487976,-111.264000,347.455994
907.679993,-115.167999,345.503998
903.776001,-80.031998,322.079987
911.583984,-58.560001,312.320007
897.919983,-68.320000,310.368011
905.728027,-85.888000,298.656006
913.536011,-62.464001,298.656006
915.487976,-48.799999,283.040009
901.823975,-40.992001,273.279999
895.968018,-42.944000,275.231995
909.632019,-64.416000,273.279999
915.487976,-74.176003,277.183990
919.392029,-37.088001,275.231995
915.487976,-39.040001,290.847992
931.104004,-81.984001,302.559998
931.104004,-91.744003,304.511993
935.007996,-70.272003,308.415985
936.960022,-62.464001,327.936005
948.671997,-97.599998,353.312012
962.335999,-117.120003,359.167999
968.192017,-97.599998,372.832001
966.239990,-81.984001,382.592010
972.096008,-101.503998,400.160004
993.567993,-128.832001,400.160004
997.471985,-126.879997,404.063995
1005.280029,-85.888000,404.063995
991.616028,-72.223999,396.256012
985.760010,-107.360001,390.399994
979.903992,-132.735992,386.496002
983.807983,-89.792000,380.640015
976.000000,-60.512001,368.928009
972.096008,-83.935997,366.976013
974.047974,-111.264000,365.023987
970.143982,-97.599998,361.119995
956.479980,-56.608002,357.216003
964.288025,-56.608002,357.216003
952.575989,-87.839996,363.071991
956.479980,-91.744003,363.071991
962.335999,-68.320000,353.312012
956.479980,-64.416000,359.167999
960.383972,-68.320000,347.455994
962.335999,-83.935997,349.407990
962.335999,-72.223999,349.407990
962.335999,-46.848000,341.600006
956.479980,-58.560001,343.552002
960.383972,-72.223999,333.791992
954.528015,-64.416000,327.936005
950.624023,-44.896000,327.936005
952.575989,-35.136002,310.368011
958.432007,-42.944000,304.511993
958.432007,-39.040001,296.704010
948.671997,-17.568001,283.040009
942.815979,-15.616000,279.135986
954.528015,-23.424000,281.088013
954.528015,-27.327999,269.376007
954.528015,-15.616000,261.567993
950.624023,-15.616000,257.664001
952.575989,-3.904000,245.951996
954.528015,-9.760000,244.000000
954.528015,-17.568001,242.048004
948.671997,-1.952000,228.384003
950.624023,3.904000,222.528000
942.815979,7.808000,220.576004
940.864014,3.904000,220.576004
931.104004,-3.904000,222.528000
935.007996,9.760000,212.768005
923.296021,11.712000,214.720001
921.343994,13.664000,204.960007
911.583984,17.568001,189.343994
911.583984,13.664000,189.343994
899.872009,19.520000,199.104004
895.968018,25.375999,183.488007
888.159973,25.375999,175.679993
878.400024,17.568001,181.535995
882.304016,17.568001,181.535995
876.447998,15.616000,165.919998
864.736023,25.375999,152.255997
851.072021,29.280001,136.639999
847.168030,27.327999,121.024002
849.119995,29.280001,105.407997
845.216003,35.136002,95.648003
854.976013,48.799999,81.984001
823.744019,39.040001,54.655998
825.695984,60.512001,50.751999
821.791992,54.655998,44.896000
812.031982,52.703999,37.088001
819.840027,56.608002,33.183998
815.935974,62.464001,29.280001
821.791992,66.367996,15.616000
812.031982,68.320000,21.472000
802.271973,78.080002,3.904000
786.656006,66.367996,-3.904000
802.271973,50.751999,-7.808000
792.512024,60.512001,-5.856000
790.559998,52.703999,-15.616000
802.271973,42.944000,-13.664000
804.223999,19.520000,-15.616000
788.607971,15.616000,-21.472000
802.271973,37.088001,-35.136002
796.416016,23.424000,-39.040001
792.512024,-9.760000,-46.848000
804.223999,1.952000,-29.280001
806.176025,11.712000,-31.232000
813.984009,13.664000,-31.232000
808.127991,-11.712000,-19.520000
813.984009,-17.568001,-19.520000
800.320007,-1.952000,-23.424000
798.367981,1.952000,-25.375999
798.367981,-3.904000,-25.375999
800.320007,0.000000,-27.327999
798.367981,11.712000,-42.944000
798.367981,7.808000,-31.232000
812.031982,15.616000,-31.232000
827.648010,15.616000,-27.327999
829.599976,13.664000,-39.040001
827.648010,44.896000,-39.040001
841.312012,44.896000,-35.136002
825.695984,9.760000,-27.327999
835.455994,-11.712000,-17.568001
847.168030,-9.760000,-21.472000
849.119995,-5.856000,-15.616000
851.072021,-5.856000,-19.520000
874.495972,-33.183998,-13.664000
872.544006,-50.751999,-13.664000
870.591980,-9.760000,-11.712000
878.400024,5.856000,7.808000
890.112000,-27.327999,11.712000
903.776001,-27.327999,31.232000
925.247986,-37.088001,44.896000
948.671997,-48.799999,56.608002
940.864014,5.856000,58.560001
946.719971,1.952000,74.176003
950.624023,-23.424000,97.599998
981.856018,-37.088001,134.688004
964.288025,-23.424000,148.352005
962.335999,7.808000,156.160004
970.143982,-3.904000,148.352005
962.335999,-1.952000,158.112000
989.664001,15.616000,177.632004
991.616028,17.568001,193.248001
997.471985,48.799999,189.343994
1001.375977,42.944000,185.440002
1007.231995,50.751999,197.151993
1022.848022,64.416000,187.391998
1016.992004,74.176003,197.151993
1028.703979,68.320000,206.912003
1011.135986,46.848000,199.104004
1089.215942,37.088001,191.296005
1180.959961,-62.464001,183.488007
962.335999,226.432007,175.679993
925.247986,148.352005,185.440002
880.351990,-171.776001,169.824005
1009.184021,-214.720001,156.160004
1085.312012,-152.255997,160.063995
1180.959961,-300.608002,175.679993
1262.943970,-419.679993,214.720001
1044.319946,66.367996,536.799988
948.671997,964.288025,1073.599976
864.736023,259.615997,950.624023
1188.767944,-1274.656006,610.976013
1407.391968,-1848.543945,509.471985
1477.663940,-1227.807983,560.223999
1280.511963,-130.783997,552.416016
1046.271973,618.783997,538.752014
1155.583984,48.799999,517.280029
1249.280029,-985.760010,464.575989
1417.151978,-726.143982,460.671997
1342.975952,21.472000,515.328003
614.880005,247.904007,566.080017
815.935974,128.832001,609.023987
1003.328003,-85.888000,540.703979
1424.959961,374.783997,454.816010
1530.368042,677.343994,527.039978
1397.631958,610.976013,618.783997
1321.504028,331.839996,630.495972
1032.608032,-989.664001,718.335999
1231.712036,-2358.016113,796.416016
1448.384033,-2717.184082,835.455994
1604.543945,-2311.167969,714.432007
1481.567993,-1665.056030,583.648010
970.143982,-251.807999,497.760010
1307.839966,747.616028,374.783997
1052.128052,944.768005,460.671997
1139.968018,944.768005,462.623993
1171.199951,566.080017,466.528015
1202.432007,87.839996,452.864014
1171.199951,-329.888000,435.295990
1204.384033,-470.432007,419.679993
1173.151978,-425.536011,376.735992
1126.303955,-370.880005,314.272003
1056.031982,-380.640015,271.328003
1046.271973,-314.272003,218.623993
1026.751953,-40.992001,181.535995
1009.184021,339.648010,138.591995
983.807983,573.888000,138.591995
974.047974,566.080017,136.639999
1016.992004,312.320007,132.735992
1059.936035,-93.695999,160.063995
1087.264038,-380.640015,189.343994
1100.927979,-452.864014,189.343994
1022.848022,-343.552002,169.824005
997.471985,-117.120003,144.447998
1081.407959,115.167999,111.264000
983.807983,175.679993,62.464001
1030.656006,-13.664000,-29.280001
946.719971,-292.799988,-83.935997
1011.135986,-271.328003,-144.447998
1003.328003,-87.839996,-193.248001
1044.319946,-101.503998,-203.007996
1067.744019,-197.151993,-160.063995
1104.832031,-316.223999,-107.360001
1108.735962,-515.328003,-64.416000
1071.647949,-665.632019,27.327999
1059.936035,-571.935974,89.792000
1020.895996,-247.904007,117.120003
995.520020,134.688004,128.832001
966.239990,421.631989,140.544006
958.432007,488.000000,111.264000
931.104004,281.088013,80.031998
936.960022,-81.984001,62.464001
974.047974,-392.351990,42.944000
987.711975,-544.607971,17.568001
1011.135986,-493.855988,1.952000
972.096008,-322.079987,-15.616000
919.392029,-115.167999,-25.375999
915.487976,37.088001,-58.560001
936.960022,78.080002,-93.695999
933.056030,33.183998,-119.071999
913.536011,-95.648003,-134.688004
919.392029,-214.720001,-173.727997
868.640015,-296.704010,-199.104004
890.112000,-308.415985,-242.048004
940.864014,-288.895996,-304.511993
888.159973,-267.424011,-331.839996
812.031982,-277.183990,-355.264008
671.487976,-179.584000,-361.119995
749.567993,39.040001,-404.063995
802.271973,179.584000,-421.631989
817.888000,214.720001,-406.015991
882.304016,189.343994,-427.488007
927.200012,162.016006,-441.152008
976.000000,195.199997,-366.976013
925.247986,251.807999,-259.615997
936.960022,378.687988,-165.919998
964.288025,400.160004,-83.935997
1001.375977,216.671997,-11.712000
1050.176025,-25.375999,44.896000
1065.791992,-185.440002,83.935997
1114.592041,-464.575989,128.832001
1040.416016,-837.408020,244.000000
1034.560059,-493.855988,296.704010
1022.848022,331.839996,300.608002
1063.839966,946.719971,283.040009
1089.215942,1032.608032,283.040009
1097.024048,499.712006,263.519989
1118.495972,-372.832001,226.432007
1161.439941,-1013.088013,183.488007
1192.671997,-1093.119995,158.112000
1149.728027,-603.168030,142.496002
1022.848022,97.599998,89.792000
931.104004,610.976013,17.568001
882.304016,825.695984,-46.848000
897.919983,687.104004,-115.167999
835.455994,318.175995,-158.112000
796.416016,-54.655998,-199.104004
938.911987,-290.847992,-284.992004
960.383972,-365.023987,-327.936005
913.536011,-251.807999,-357.216003
835.455994,95.648003,-404.063995
841.312012,745.664001,-425.536011
774.943970,1212.192017,-368.928009
780.799988,1036.511963,-337.696014
923.296021,169.824005,-312.320007
1128.255981,-1077.504028,-249.856003
1259.040039,-2149.152100,-152.255997
1264.895996,-2008.608032,-99.552002
1056.031982,-612.927979,-95.648003
903.776001,956.479980,-83.935997
864.736023,1665.056030,-87.839996
911.583984,1395.680054,-136.639999
808.127991,320.127991,-154.207993
1032.608032,-886.208008,-234.240005
1145.823975,-1713.855957,-275.231995
1042.368042,-1569.407959,-314.272003
845.216003,-724.192017,-351.359985
899.872009,214.720001,-501.664001
837.408020,1182.911987,-532.895996
913.536011,2160.864014,-423.584015
892.064026,2223.327881,-234.240005
1040.416016,917.440002,-140.544006
1274.656006,-1001.375977,-58.560001
1491.328003,-2412.672119,35.136002
1487.423950,-2709.375977,99.552002
1294.176025,-1850.495972,144.447998
1077.504028,-224.479996,142.496002
1013.088013,1192.671997,146.399994
1057.984009,1770.463989,148.352005
1044.319946,1378.112061,158.112000
1089.215942,314.272003,156.160004
1177.056030,-970.143982,136.639999
1194.624023,-1842.687988,97.599998
1243.423950,-1914.911987,27.327999
1163.391968,-1278.560059,-7.808000
1073.599976,-203.007996,-31.232000
981.856018,755.424011,-9.760000
1007.231995,1409.343994,97.599998
1085.312012,1700.192017,201.056000
1065.791992,1553.791992,267.424011
1097.024048,380.640015,265.471985
1175.104004,-1221.952026,230.335999
1260.991943,-2149.152100,167.871994
1262.943970,-2069.120117,105.407997
1052.128052,-1184.864014,54.655998
940.864014,13.664000,-19.520000
892.064026,874.495972,-91.744003
956.479980,1097.024048,-175.679993
905.728027,856.927979,-226.432007
1065.791992,160.063995,-349.407990
827.648010,-665.632019,-386.496002
771.039978,-1112.640015,-413.824005
726.143982,-1009.184021,-419.679993
864.736023,-495.808014,-511.424011
870.591980,76.127998,-562.176025
888.159973,484.096008,-585.599976
1077.504028,525.088013,-646.112000
1100.927979,743.711975,-599.263977
1081.407959,1085.312012,-484.096008
1067.744019,1499.135986,-386.496002
1032.608032,1403.488037,-234.240005
997.471985,228.384003,-37.088001
997.471985,-1044.319946,154.207993
1016.992004,-1360.543945,251.807999
1018.943970,-579.744019,284.992004
1052.128052,607.072021,283.040009
1106.784058,1442.527954,234.240005
1139.968018,1635.776001,193.248001
1106.784058,1118.495972,154.207993
1120.447998,126.879997,121.024002
1333.215942,-657.823975,52.703999
1042.368042,-813.984009,142.496002
1163.391968,-247.904007,93.695999
1085.312012,517.280029,111.264000
1157.536011,1052.128052,87.839996
1175.104004,1151.680054,56.608002
1009.184021,800.320007,72.223999
1229.760010,238.143997,-15.616000
1497.183960,-398.208008,-91.744003
1374.208008,-909.632019,-11.712000
1192.671997,-1067.744019,128.832001
1180.959961,-540.703979,240.095993
1071.647949,244.000000,421.631989
1237.567993,601.216003,577.791992
1335.167969,767.135986,839.359985
1491.328003,765.184021,1179.008057
1674.816040,677.343994,1530.368042
1862.208008,366.976013,1815.359985
1977.375977,-460.671997,1998.848022
2133.535889,-1403.488037,2028.128052
2153.055908,-1635.776001,1875.871948
2055.456055,-1206.336060,1440.576050
1793.887939,-685.151978,880.351990
1348.832031,-419.679993,341.600006
964.288025,-271.328003,-169.824005
864.736023,-224.479996,-581.695984
843.263977,76.127998,-831.552002
745.664001,163.968002,-886.208008
556.320007,148.352005,-821.791992
675.392029,329.888000,-802.271973
772.992004,493.855988,-753.471985
929.151978,462.623993,-675.392029
870.591980,283.040009,-527.039978
847.168030,58.560001,-390.399994
915.487976,-80.031998,-263.519989
1057.984009,-199.104004,-193.248001
1138.015991,-296.704010,-144.447998
1122.400024,-361.119995,-105.407997
1071.647949,-372.832001,-109.311996
977.952026,-294.752014,-140.544006
962.335999,-193.248001,-222.528000
993.567993,-191.296005,-281.088013
905.728027,-263.519989,-265.471985
894.015991,-325.984009,-273.279999
903.776001,-359.167999,-273.279999
936.960022,-327.936005,-281.088013
997.471985,-247.904007,-298.656006
1018.943970,-124.928001,-314.272003
1036.511963,-48.799999,-284.992004
1015.039978,7.808000,-251.807999
987.711975,48.799999,-206.912003
968.192017,81.984001,-185.440002
946.719971,124.928001,-183.488007
921.343994,146.399994,-197.151993
907.679993,80.031998,-222.528000
903.776001,-62.464001,-257.664001
899.872009,-300.608002,-251.807999
907.679993,-452.864014,-281.088013
925.247986,-497.760010,-325.984009
897.919983,-435.295990,-343.552002
882.304016,-341.600006,-351.359985
864.736023,-255.712006,-351.359985
870.591980,-189.343994,-347.455994
905.728027,-113.216003,-322.079987
929.151978,23.424000,-300.608002
950.624023,138.591995,-257.664001
960.383972,162.016006,-197.151993
948.671997,89.792000,-144.447998
972.096008,31.232000,-146.399994
968.192017,-91.744003,-173.727997
956.479980,-160.063995,-203.007996
946.719971,-189.343994,-261.567993
901.823975,-244.000000,-298.656006
886.208008,-228.384003,-361.119995
886.208008,-226.432007,-411.872009
880.351990,-183.488007,-441.152008
872.544006,-154.207993,-437.247986
862.783997,-210.815994,-429.440002
886.208008,-249.856003,-425.536011
919.392029,-261.567993,-415.776001
929.151978,-177.632004,-427.488007
923.296021,-72.223999,-400.160004
905.728027,13.664000,-402.112000
919.392029,95.648003,-378.687988
952.575989,142.496002,-345.503998
954.528015,76.127998,-292.799988
979.903992,-117.120003,-244.000000
997.471985,-284.992004,-193.248001
1036.511963,-417.727997,-179.584000
1065.791992,-478.239990,-201.056000
1122.400024,-466.528015,-265.471985
1145.823975,-363.071991,-304.511993
1143.871948,-210.815994,-343.552002
1163.391968,-66.367996,-372.832001
1134.112061,46.848000,-370.880005
1145.823975,146.399994,-341.600006
1179.008057,150.304001,-310.368011
1015.039978,130.783997,-210.815994
1221.952026,13.664000,-255.712006
1323.456055,-167.871994,-314.272003
1200.479980,-333.791992,-290.847992
1149.728027,-482.144012,-281.088013
1124.352051,-677.343994,-335.743988
1132.160034,-868.640015,-470.432007
940.864014,-892.064026,-501.664001
929.151978,-800.320007,-538.752014
882.304016,-499.712006,-538.752014
874.495972,-113.216003,-464.575989
884.255981,109.311996,-417.727997
1038.463989,187.391998,-419.679993
1147.776001,296.704010,-460.671997
1173.151978,575.840027,-503.615997
1100.927979,815.935974,-460.671997
1071.647949,911.583984,-351.359985
1063.839966,913.536011,-247.904007
1061.887939,849.119995,-185.440002
1112.640015,716.383972,-208.863998
1169.248047,585.599976,-327.936005
1253.183960,443.104004,-466.528015
767.135986,366.976013,-349.407990
880.351990,191.296005,-366.976013
1264.895996,-66.367996,-571.935974
208.863998,-60.512001,-306.463989
27.327999,-68.320000,-144.447998
495.808014,-193.248001,-489.951996
1120.447998,-368.928009,-987.711975
905.728027,-224.479996,-983.807983
1221.952026,-257.664001,-915.487976
1118.495972,-132.735992,-733.952026
609.023987,179.584000,-454.816010
817.888000,206.912003,-511.424011
1288.319946,-1.952000,-515.328003
1407.391968,-85.888000,-324.032013
810.080017,72.223999,0.000000
642.208008,29.280001,-107.360001
1171.199951,-95.648003,-554.367981
1098.975952,-109.311996,-687.104004
997.471985,-124.928001,-626.591980
897.919983,-105.407997,-534.848022
1011.135986,-72.223999,-552.416016
1056.031982,-37.088001,-597.312012
1126.303955,35.136002,-542.656006
1100.927979,-33.183998,-366.976013
1243.423950,-253.759995,-312.320007
1204.384033,-325.984009,-374.783997
1141.920044,-318.175995,-489.951996
1100.927979,-366.976013,-548.512024
1097.024048,-345.503998,-556.320007
1081.407959,-165.919998,-585.599976
1013.088013,83.935997,-579.744019
921.343994,396.256012,-581.695984
935.007996,612.927979,-560.223999
964.288025,376.735992,-472.384003
821.791992,-349.407990,-306.463989
609.023987,-671.487976,-407.967987
421.631989,-343.552002,-714.432007
425.536011,-148.352005,-899.872009
550.463989,-349.407990,-753.471985
751.520020,-558.271973,-489.951996
940.864014,-507.519989,-335.743988
1077.504028,-290.847992,-310.368011
1206.336060,-187.391998,-333.791992
1317.599976,-83.935997,-421.631989
1288.319946,39.040001,-523.135986
1134.112061,101.503998,-534.848022
1069.696045,138.591995,-523.135986
1042.368042,115.167999,-497.760010
983.807983,74.176003,-423.584015
991.616028,35.136002,-380.640015
1184.864014,62.464001,-355.264008
1278.560059,191.296005,-286.944000
1270.751953,566.080017,-240.095993
1372.255981,925.247986,-253.759995
1317.599976,1196.576050,-189.343994
1319.552002,1362.495972,-144.447998
1341.024048,1329.312012,-83.935997
1475.712036,1186.816040,-128.832001
1594.784058,1087.264038,-150.304001
1448.384033,878.400024,-115.167999
1417.151978,-482.144012,-105.407997
1298.079956,-1651.391968,-224.479996
1138.015991,-2334.592041,-452.864014
897.919983,-2420.479980,-732.000000
489.951996,-1081.407959,-888.159973
441.152008,197.151993,-747.616028
614.880005,407.967987,-357.216003
854.976013,119.071999,-11.712000
1048.223999,-286.944000,50.751999
1106.784058,-478.239990,-169.824005
1110.687988,-185.440002,-441.152008
1114.592041,310.368011,-560.223999
1106.784058,560.223999,-511.424011
1098.975952,609.023987,-316.223999
1089.215942,482.144012,-156.160004
1114.592041,298.656006,-95.648003
1112.640015,128.832001,-111.264000
1132.160034,-35.136002,-169.824005
1149.728027,-214.720001,-220.576004
1165.343994,-226.432007,-269.376007
1175.104004,-121.024002,-322.079987
1147.776001,-52.703999,-335.743988
1139.968018,17.568001,-294.752014
1106.784058,81.984001,-263.519989
1102.880005,121.024002,-281.088013
1093.119995,115.167999,-302.559998
1081.407959,87.839996,-320.127991
1065.791992,113.216003,-310.368011
1065.791992,109.311996,-302.559998
1063.839966,76.127998,-294.752014
1077.504028,72.223999,-302.559998
1081.407959,78.080002,-314.272003
1050.176025,117.120003,-292.799988
1042.368042,117.120003,-296.704010
1036.511963,29.280001,-318.175995
1040.416016,0.000000,-357.216003
1036.511963,23.424000,-380.640015
1030.656006,52.703999,-380.640015
1038.463989,54.655998,-351.359985
1056.031982,44.896000,-345.503998
1054.079956,37.088001,-363.071991
1052.128052,40.992001,-347.455994
1042.368042,56.608002,-308.415985
1054.079956,31.232000,-331.839996
1056.031982,33.183998,-339.648010
1054.079956,54.655998,-347.455994
1061.887939,62.464001,-347.455994
1059.936035,97.599998,-341.600006
1054.079956,87.839996,-355.264008
1050.176025,101.503998,-325.984009
1052.128052,95.648003,-359.167999
1057.984009,58.560001,-407.967987
1036.511963,91.744003,-407.967987
1036.511963,85.888000,-406.015991
1024.800049,109.311996,-355.264008
1011.135986,119.071999,-343.552002
1007.231995,52.703999,-353.312012
1022.848022,-11.712000,-365.023987
1040.416016,19.520000,-374.783997
1034.560059,23.424000,-384.544006
1018.943970,68.320000,-347.455994
1022.848022,107.360001,-372.832001
1013.088013,72.223999,-380.640015
1024.800049,87.839996,-363.071991
1013.088013,64.416000,-382.592010
1024.800049,37.088001,-415.776001
1007.231995,60.512001,-392.351990
991.616028,54.655998,-376.735992
985.760010,64.416000,-365.023987
997.471985,42.944000,-390.399994
993.567993,17.568001,-407.967987
981.856018,25.375999,-417.727997
974.047974,15.616000,-413.824005
962.335999,35.136002,-390.399994
968.192017,33.183998,-392.351990
960.383972,19.520000,-388.447998
966.239990,27.327999,-419.679993
948.671997,3.904000,-437.247986
935.007996,50.751999,-448.959991
929.151978,54.655998,-484.096008
931.104004,7.808000,-493.855988
944.768005,37.088001,-470.432007
970.143982,9.760000,-427.488007
977.952026,21.472000,-376.735992
1009.184021,-39.040001,-429.440002
993.567993,-50.751999,-489.951996
962.335999,-29.280001,-528.992004
927.200012,-33.183998,-525.088013
921.343994,-3.904000,-507.519989
952.575989,-48.799999,-497.760010
968.192017,-15.616000,-458.720001
979.903992,-23.424000,-480.191986
968.192017,-15.616000,-509.471985
936.960022,7.808000,-495.808014
935.007996,56.608002,-495.808014
931.104004,19.520000,-523.135986
929.151978,0.000000,-507.519989
931.104004,15.616000,-507.519989
938.911987,11.712000,-525.088013
925.247986,-15.616000,-521.184021
923.296021,-3.904000,-501.664001
927.200012,0.000000,-505.567993
923.296021,5.856000,-499.712006
927.200012,-31.232000,-513.375977
903.776001,-42.944000,-511.424011
895.968018,-35.136002,-505.567993
895.968018,-42.944000,-515.328003
886.208008,-33.183998,-511.424011
878.400024,-58.560001,-544.607971
868.640015,-78.080002,-566.080017
886.208008,-46.848000,-571.935974
870.591980,-15.616000,-558.271973
886.208008,17.568001,-548.512024
884.255981,-27.327999,-474.335999
917.440002,5.856000,-480.191986
929.151978,-13.664000,-486.048004
927.200012,-25.375999,-478.239990
917.440002,-23.424000,-503.615997
911.583984,-64.416000,-525.088013
913.536011,-62.464001,-566.080017
917.440002,-66.367996,-566.080017
899.872009,-19.520000,-550.463989
901.823975,0.000000,-507.519989
921.343994,-11.712000,-519.231995
903.776001,-37.088001,-507.519989
911.583984,-42.944000,-491.903992
905.728027,-54.655998,-495.808014
915.487976,-46.848000,-564.127991
897.919983,-56.608002,-566.080017
897.919983,-46.848000,-517.280029
913.536011,-33.183998,-513.375977
925.247986,-35.136002,-503.615997
921.343994,-42.944000,-511.424011
927.200012,-33.183998,-528.992004
917.440002,-27.327999,-523.135986
919.392029,-5.856000,-542.656006
907.679993,-25.375999,-536.799988
911.583984,-52.703999,-532.895996
913.536011,-68.320000,-521.184021
927.200012,-81.984001,-554.367981
915.487976,-78.080002,-513.375977
923.296021,-62.464001,-501.664001
935.007996,-64.416000,-519.231995
940.864014,-58.560001,-501.664001
958.432007,-27.327999,-499.712006
964.288025,-1.952000,-521.184021
960.383972,9.760000,-540.703979
948.671997,-19.520000,-519.231995
944.768005,-42.944000,-478.239990
954.528015,-54.655998,-513.375977
944.768005,-64.416000,-527.039978
938.911987,-52.703999,-509.471985
931.104004,-40.992001,-511.424011
931.104004,-54.655998,-540.703979
927.200012,-62.464001,-566.080017
925.247986,-68.320000,-521.184021
935.007996,-56.608002,-519.231995
936.960022,-33.183998,-505.567993
942.815979,-11.712000,-519.231995
938.911987,-37.088001,-489.951996
946.719971,-31.232000,-501.664001
933.056030,-74.176003,-530.943970
935.007996,-58.560001,-566.080017
933.056030,-56.608002,-599.263977
931.104004,-64.416000,-556.320007
921.343994,-44.896000,-534.848022
923.296021,-83.935997,-507.519989
923.296021,-130.783997,-523.135986
911.583984,-154.207993,-484.096008
901.823975,-99.552002,-519.231995
894.015991,-58.560001,-542.656006
884.255981,-76.127998,-527.039978
876.447998,-80.031998,-515.328003
882.304016,-66.367996,-515.328003
890.112000,-54.655998,-523.135986
890.112000,-39.040001,-521.184021
897.919983,-48.799999,-562.176025
895.968018,-68.320000,-573.888000
888.159973,-62.464001,-507.519989
884.255981,-54.655998,-488.000000
895.968018,-56.608002,-501.664001
874.495972,-95.648003,-489.951996
866.687988,-105.407997,-507.519989
841.312012,-126.879997,-482.144012
804.223999,-103.456001,-530.943970
782.752014,-148.352005,-544.607971
774.943970,-76.127998,-525.088013
790.559998,-113.216003,-501.664001
782.752014,-173.727997,-476.287994
771.039978,-203.007996,-445.056000
763.231995,-187.391998,-443.104004
771.039978,-212.768005,-390.399994
751.520020,-251.807999,-361.119995
765.184021,-304.511993,-400.160004
810.080017,-312.320007,-443.104004
829.599976,-273.279999,-394.303986
862.783997,-220.576004,-392.351990
888.159973,-185.440002,-406.015991
894.015991,-201.056000,-390.399994
903.776001,-201.056000,-366.976013
915.487976,-279.135986,-345.503998
917.440002,-310.368011,-353.312012
921.343994,-335.743988,-400.160004
927.200012,-279.135986,-388.447998
936.960022,-226.432007,-427.488007
946.719971,-113.216003,-486.048004
950.624023,-72.223999,-501.664001
923.296021,-35.136002,-447.007996
931.104004,-93.695999,-431.391998
974.047974,-146.399994,-472.384003
995.520020,-195.199997,-497.760010
985.760010,-167.871994,-511.424011
952.575989,-136.639999,-556.320007
923.296021,-83.935997,-585.599976
899.872009,-39.040001,-595.359985
907.679993,7.808000,-618.783997
931.104004,5.856000,-659.776001
938.911987,1.952000,-646.112000
942.815979,-40.992001,-640.255981
940.864014,-68.320000,-616.831970
944.768005,-72.223999,-614.880005
950.624023,-74.176003,-636.351990
942.815979,-46.848000,-651.968018
936.960022,5.856000,-681.247986
917.440002,29.280001,-700.768005
915.487976,56.608002,-691.007996
950.624023,60.512001,-694.911987
968.192017,29.280001,-679.296021
985.760010,9.760000,-657.823975
979.903992,-31.232000,-651.968018
956.479980,-76.127998,-644.159973
952.575989,-89.792000,-624.640015
968.192017,-56.608002,-632.447998
954.528015,-29.280001,-630.495972
946.719971,-9.760000,-663.679993
915.487976,15.616000,-616.831970
903.776001,46.848000,-558.271973
936.960022,3.904000,-583.648010
948.671997,-54.655998,-560.223999
956.479980,-154.207993,-552.416016
993.567993,-160.063995,-589.504028
966.239990,-177.632004,-571.935974
954.528015,-70.272003,-573.888000
964.288025,304.511993,-603.168030
1018.943970,35.136002,-571.935974
979.903992,-23.424000,-489.951996
942.815979,-23.424000,-511.424011
936.960022,5.856000,-536.799988
952.575989,-134.688004,-530.943970
970.143982,-179.584000,-532.895996
972.096008,-78.080002,-527.039978
960.383972,-52.703999,-513.375977
964.288025,-48.799999,-486.048004
960.383972,-23.424000,-489.951996
952.575989,-23.424000,-521.184021
950.624023,-17.568001,-546.559998
936.960022,-25.375999,-532.895996
938.911987,-19.520000,-513.375977
946.719971,-25.375999,-523.135986
964.288025,-19.520000,-540.703979
956.479980,-19.520000,-548.512024
950.624023,-15.616000,-507.519989
954.528015,-9.760000,-491.903992
956.479980,-37.088001,-525.088013
946.719971,-40.992001,-546.559998
933.056030,-25.375999,-532.895996
921.343994,3.904000,-523.135986
929.151978,-31.232000,-552.416016
925.247986,-33.183998,-556.320007
915.487976,-11.712000,-554.367981
925.247986,-7.808000,-569.984009
931.104004,-29.280001,-581.695984
925.247986,-7.808000,-548.512024
923.296021,-21.472000,-527.039978
940.864014,-62.464001,-523.135986
952.575989,-64.416000,-515.328003
938.911987,-68.320000,-505.567993
931.104004,-74.176003,-542.656006
921.343994,-64.416000,-593.408020
903.776001,9.760000,-624.640015
899.872009,31.232000,-616.831970
921.343994,27.327999,-607.072021
931.104004,15.616000,-583.648010
940.864014,-13.664000,-536.799988
958.432007,-60.512001,-523.135986
958.432007,-107.360001,-521.184021
952.575989,-105.407997,-544.607971
938.911987,-46.848000,-581.695984
917.440002,-1.952000,-628.544006
888.159973,52.703999,-620.736023
876.447998,64.416000,-622.687988
884.255981,23.424000,-616.831970
909.632019,-15.616000,-583.648010
958.432007,-42.944000,-554.367981
972.096008,-56.608002,-536.799988
979.903992,-62.464001,-552.416016
950.624023,-44.896000,-573.888000
915.487976,-29.280001,-583.648010
907.679993,-21.472000,-591.455994
921.343994,-37.088001,-577.791992
952.575989,-56.608002,-552.416016
972.096008,-52.703999,-546.559998
960.383972,-31.232000,-540.703979
960.383972,-1.952000,-577.791992
936.960022,25.375999,-601.216003
909.632019,58.560001,-605.119995
901.823975,64.416000,-614.880005
909.632019,27.327999,-593.408020
925.247986,1.952000,-560.223999
933.056030,-46.848000,-538.752014
942.815979,-76.127998,-521.184021
936.960022,-80.031998,-542.656006
940.864014,-70.272003,-552.416016
913.536011,-37.088001,-569.984009
911.583984,-9.760000,-577.791992
909.632019,3.904000,-577.791992
905.728027,17.568001,-568.031982
917.440002,-11.712000,-569.984009
923.296021,-11.712000,-564.127991
931.104004,-23.424000,-566.080017
917.440002,-23.424000,-560.223999
919.392029,-31.232000,-568.031982
913.536011,-23.424000,-560.223999
913.536011,-23.424000,-568.031982
913.536011,-29.280001,-568.031982
919.392029,-31.232000,-562.176025
923.296021,-40.992001,-556.320007
921.343994,-35.136002,-562.176025
927.200012,-46.848000,-548.512024
925.247986,-27.327999,-556.320007
915.487976,-15.616000,-558.271973
913.536011,-23.424000,-558.271973
905.728027,-21.472000,-568.031982
897.919983,-21.472000,-564.127991
894.015991,-25.375999,-560.223999
903.776001,-33.183998,-558.271973
915.487976,-39.040001,-562.176025
915.487976,-39.040001,-554.367981
905.728027,-29.280001,-554.367981
907.679993,-29.280001,-560.223999
903.776001,-33.183998,-554.367981
909.632019,-33.183998,-558.271973
913.536011,-29.280001,-544.607971
903.776001,-29.280001,-554.367981
901.823975,-31.232000,-546.559998
903.776001,-27.327999,-548.512024
892.064026,-25.375999,-552.416016
894.015991,-27.327999,-550.463989
899.872009,-27.327999,-552.416016
899.872009,-25.375999,-554.367981
901.823975,-23.424000,-556.320007
899.872009,-31.232000,-552.416016
895.968018,-31.232000,-550.463989
903.776001,-25.375999,-544.607971
899.872009,-21.472000,-536.799988
897.919983,-33.183998,-538.752014
894.015991,-23.424000,-538.752014
899.872009,-27.327999,-542.656006
892.064026,-17.568001,-538.752014
892.064026,-23.424000,-538.752014
894.015991,-23.424000,-542.656006
888.159973,-33.183998,-536.799988
890.112000,-27.327999,-538.752014
888.159973,-19.520000,-538.752014
880.351990,-35.136002,-542.656006
876.447998,-29.280001,-538.752014
882.304016,-31.232000,-538.752014
886.208008,-29.280001,-536.799988
884.255981,-37.088001,-536.799988
876.447998,-35.136002,-540.703979
874.495972,-42.944000,-546.559998
866.687988,-42.944000,-544.607971
868.640015,-31.232000,-546.559998
880.351990,-40.992001,-548.512024
874.495972,-37.088001,-540.703979
878.400024,-40.992001,-540.703979
872.544006,-40.992001,-530.943970
874.495972,-39.040001,-542.656006
876.447998,-42.944000,-544.607971
872.544006,-35.136002,-548.512024
870.591980,-29.280001,-560.223999
868.640015,-40.992001,-560.223999
870.591980,-31.232000,-546.559998
872.544006,-33.183998,-546.559998
862.783997,-31.232000,-546.559998
858.880005,-39.040001,-540.703979
854.976013,-27.327999,-548.512024
860.831970,-39.040001,-546.559998
864.736023,-33.183998,-538.752014
864.736023,-29.280001,-540.703979
778.848022,-42.944000,-521.184021
728.096008,-74.176003,-538.752014
786.656006,-101.503998,-722.239990
882.304016,33.183998,-650.015991
895.968018,11.712000,-431.391998
968.192017,93.695999,-456.768005
968.192017,-85.888000,-513.375977
890.112000,-187.391998,-509.471985
835.455994,-91.744003,-556.320007
831.552002,-169.824005,-569.984009
821.791992,-27.327999,-558.271973
837.408020,39.040001,-554.367981
874.495972,74.176003,-513.375977
880.351990,40.992001,-521.184021
870.591980,3.904000,-548.512024
862.783997,-48.799999,-523.135986
858.880005,-93.695999,-505.567993
845.216003,-42.944000,-532.895996
796.416016,-85.888000,-525.088013
786.656006,60.512001,-542.656006
769.088013,3.904000,-573.888000
796.416016,-72.223999,-609.023987
925.247986,-83.935997,-589.504028
1059.936035,-105.407997,-441.152008
1061.887939,64.416000,-343.552002
946.719971,-70.272003,-402.112000
796.416016,-35.136002,-569.984009
681.247986,-134.688004,-685.151978
677.343994,-15.616000,-702.719971
772.992004,19.520000,-630.495972
915.487976,25.375999,-478.239990
970.143982,-7.808000,-372.832001
966.239990,-76.127998,-407.967987
901.823975,-107.360001,-519.231995
812.031982,-113.216003,-581.695984
788.607971,-39.040001,-610.976013
817.888000,-27.327999,-560.223999
854.976013,17.568001,-497.760010
882.304016,-3.904000,-470.432007
888.159973,-44.896000,-486.048004
872.544006,-70.272003,-511.424011
858.880005,-66.367996,-528.992004
841.312012,-40.992001,-527.039978
831.552002,-31.232000,-519.231995
835.455994,-9.760000,-527.039978
835.455994,-39.040001,-519.231995
843.263977,-42.944000,-521.184021
862.783997,-64.416000,-515.328003
884.255981,-60.512001,-489.951996
880.351990,-58.560001,-488.000000
862.783997,-37.088001,-491.903992
849.119995,-37.088001,-503.615997
841.312012,-46.848000,-530.943970
835.455994,-48.799999,-534.848022
833.504028,-50.751999,-515.328003
831.552002,-39.040001,-505.567993
837.408020,-46.848000,-511.424011
841.312012,-44.896000,-509.471985
841.312012,-62.464001,-515.328003
831.552002,-68.320000,-517.280029
831.552002,-60.512001,-519.231995
835.455994,-48.799999,-519.231995
835.455994,-46.848000,-513.375977
825.695984,-48.799999,-515.328003
829.599976,-56.608002,-521.184021
829.599976,-58.560001,-513.375977
821.791992,-48.799999,-521.184021
812.031982,-56.608002,-527.039978
806.176025,-46.848000,-534.848022
810.080017,-54.655998,-525.088013
810.080017,-60.512001,-527.039978
808.127991,-58.560001,-534.848022
808.127991,-64.416000,-532.895996
804.223999,-66.367996,-534.848022
810.080017,-62.464001,-515.328003
812.031982,-62.464001,-527.039978
808.127991,-60.512001,-528.992004
804.223999,-58.560001,-546.559998
806.176025,-52.703999,-534.848022
808.127991,-58.560001,-530.943970
806.176025,-58.560001,-536.799988
804.223999,-60.512001,-528.992004
804.223999,-58.560001,-530.943970
792.512024,-70.272003,-530.943970
796.416016,-64.416000,-528.992004
802.271973,-68.320000,-530.943970
810.080017,-60.512001,-527.039978
806.176025,-58.560001,-525.088013
800.320007,-66.367996,-523.135986
806.176025,-64.416000,-519.231995
812.031982,-64.416000,-515.328003
821.791992,-56.608002,-525.088013
821.791992,-58.560001,-519.231995
806.176025,-66.367996,-517.280029
806.176025,-48.799999,-525.088013
808.127991,-56.608002,-530.943970
808.127991,-54.655998,-517.280029
817.888000,-60.512001,-517.280029
812.031982,-56.608002,-521.184021
808.127991,-56.608002,-515.328003
808.127991,-56.608002,-513.375977
812.031982,-56.608002,-509.471985
815.935974,-48.799999,-511.424011
821.791992,-56.608002,-505.567993
819.840027,-58.560001,-499.712006
815.935974,-56.608002,-501.664001
813.984009,-46.848000,-501.664001
808.127991,-58.560001,-503.615997
808.127991,-60.512001,-507.519989
817.888000,-48.799999,-507.519989
817.888000,-46.848000,-499.712006
815.935974,-37.088001,-503.615997
812.031982,-48.799999,-501.664001
810.080017,-50.751999,-511.424011
808.127991,-66.367996,-509.471985
810.080017,-52.703999,-505.567993
808.127991,-54.655998,-505.567993
806.176025,-46.848000,-503.615997
808.127991,-58.560001,-501.664001
810.080017,-52.703999,-503.615997
808.127991,-52.703999,-505.567993
817.888000,-54.655998,-505.567993
810.080017,-58.560001,-515.328003
804.223999,-50.751999,-513.375977
810.080017,-48.799999,-513.375977
812.031982,-54.655998,-513.375977
804.223999,-54.655998,-513.375977
808.127991,-54.655998,-505.567993
819.840027,-54.655998,-497.760010
808.127991,-66.367996,-509.471985
808.127991,-70.272003,-507.519989
806.176025,-58.560001,-503.615997
808.127991,-58.560001,-509.471985
790.559998,-52.703999,-515.328003
796.416016,-52.703999,-523.135986
792.512024,-64.416000,-517.280029
802.271973,-48.799999,-515.328003
808.127991,-56.608002,-511.424011
810.080017,-66.367996,-511.424011
810.080017,-62.464001,-515.328003
804.223999,-74.176003,-515.328003
810.080017,-56.608002,-515.328003
808.127991,-64.416000,-525.088013
806.176025,-52.703999,-530.943970
798.367981,-62.464001,-513.375977
802.271973,-56.608002,-517.280029
796.416016,-54.655998,-509.471985
804.223999,-60.512001,-509.471985
802.271973,-52.703999,-515.328003
810.080017,-70.272003,-509.471985
813.984009,-72.223999,-509.471985
817.888000,-70.272003,-523.135986
810.080017,-66.367996,-528.992004
821.791992,-50.751999,-515.328003
813.984009,-62.464001,-523.135986
812.031982,-64.416000,-517.280029
813.984009,-64.416000,-527.039978
821.791992,-70.272003,-515.328003
812.031982,-68.320000,-507.519989
810.080017,-72.223999,-509.471985
812.031982,-80.031998,-509.471985
810.080017,-74.176003,-521.184021
817.888000,-64.416000,-521.184021
817.888000,-62.464001,-509.471985
819.840027,-50.751999,-515.328003
800.320007,-58.560001,-511.424011
798.367981,-68.320000,-515.328003
784.703979,-58.560001,-528.992004
792.512024,-64.416000,-548.512024
802.271973,-44.896000,-540.703979
812.031982,-35.136002,-519.231995
831.552002,-31.232000,-501.664001
843.263977,-50.751999,-523.135986
833.504028,-68.320000,-536.799988
817.888000,-78.080002,-540.703979
808.127991,-72.223999,-536.799988
815.935974,-66.367996,-534.848022
821.791992,-64.416000,-534.848022
835.455994,-64.416000,-528.992004
829.599976,-72.223999,-517.280029
837.408020,-62.464001,-521.184021
831.552002,-56.608002,-515.328003
833.504028,-48.799999,-513.375977
829.599976,-56.608002,-530.943970
827.648010,-74.176003,-530.943970
839.359985,-78.080002,-523.135986
851.072021,-60.512001,-517.280029
860.831970,-54.655998,-507.519989
854.976013,-66.367996,-519.231995
856.927979,-72.223999,-523.135986
849.119995,-70.272003,-523.135986
843.263977,-60.512001,-523.135986
851.072021,-58.560001,-513.375977
856.927979,-42.944000,-505.567993
868.640015,-70.272003,-495.808014
858.880005,-68.320000,-503.615997
854.976013,-70.272003,-513.375977
851.072021,-78.080002,-509.471985
854.976013,-60.512001,-521.184021
849.119995,-52.703999,-517.280029
851.072021,-44.896000,-509.471985
866.687988,-52.703999,-511.424011
858.880005,-64.416000,-505.567993
854.976013,-72.223999,-501.664001
864.736023,-70.272003,-509.471985
862.783997,-62.464001,-519.231995
849.119995,-40.992001,-517.280029
847.168030,-33.183998,-511.424011
854.976013,-48.799999,-515.328003
854.976013,-62.464001,-513.375977
843.263977,-68.320000,-521.184021
841.312012,-62.464001,-515.328003
839.359985,-56.608002,-509.471985
841.312012,-62.464001,-521.184021
845.216003,-54.655998,-513.375977
835.455994,-42.944000,-523.135986
829.599976,-40.992001,-523.135986
835.455994,-64.416000,-521.184021
829.599976,-60.512001,-513.375977
829.599976,-72.223999,-521.184021
835.455994,-66.367996,-525.088013
825.695984,-58.560001,-521.184021
833.504028,-54.655998,-517.280029
833.504028,-48.799999,-509.471985
