ACC_X,ACC_Y,ACC_Z
468.480011,404.063995,759.328003
468.480011,407.967987,761.280029
466.528015,406.015991,763.231995
460.671997,400.160004,757.375977
478.239990,411.872009,757.375977
468.480011,404.063995,763.231995
466.528015,407.967987,772.992004
468.480011,404.063995,763.231995
468.480011,402.112000,759.328003
476.287994,407.967987,763.231995
478.239990,406.015991,769.088013
472.384003,406.015991,774.943970
470.432007,407.967987,778.848022
472.384003,404.063995,769.088013
480.191986,407.967987,769.088013
476.287994,409.920013,761.280029
480.191986,413.824005,771.039978
482.144012,406.015991,774.943970
489.951996,404.063995,765.184021
480.191986,406.015991,774.943970
482.144012,402.112000,769.088013
478.239990,409.920013,767.135986
484.096008,404.063995,774.943970
472.384003,402.112000,769.088013
482.144012,406.015991,774.943970
476.287994,407.967987,769.088013
480.191986,404.063995,767.135986
484.096008,402.112000,769.088013
488.000000,392.351990,772.992004
495.808014,398.208008,778.848022
491.903992,404.063995,776.895996
493.855988,402.112000,765.184021
489.951996,402.112000,774.943970
484.096008,402.112000,780.799988
484.096008,404.063995,776.895996
489.951996,407.967987,782.752014
484.096008,406.015991,786.656006
497.760010,407.967987,782.752014
491.903992,407.967987,780.799988
486.048004,413.824005,782.752014
489.951996,402.112000,774.943970
489.951996,407.967987,772.992004
484.096008,406.015991,771.039978
488.000000,409.920013,774.943970
491.903992,411.872009,767.135986
484.096008,411.872009,769.088013
489.951996,407.967987,778.848022
493.855988,406.015991,771.039978
488.000000,421.631989,774.943970
484.096008,402.112000,769.088013
488.000000,409.920013,776.895996
493.855988,415.776001,776.895996
493.855988,415.776001,774.943970
486.048004,417.727997,772.992004
488.000000,419.679993,778.848022
493.855988,423.584015,772.992004
489.951996,417.727997,769.088013
493.855988,415.776001,774.943970
491.903992,415.776001,774.943970
497.760010,419.679993,774.943970
488.000000,407.967987,765.184021
499.712006,415.776001,778.848022
488.000000,423.584015,771.039978
493.855988,427.488007,774.943970
486.048004,421.631989,778.848022
493.855988,415.776001,778.848022
488.000000,423.584015,774.943970
486.048004,417.727997,776.895996
489.951996,419.679993,769.088013
491.903992,417.727997,767.135986
488.000000,415.776001,778.848022
501.664001,409.920013,771.039978
488.000000,419.679993,778.848022
493.855988,415.776001,774.943970
497.760010,413.824005,778.848022
495.808014,409.920013,782.752014
493.855988,409.920013,774.943970
495.808014,411.872009,784.703979
495.808014,427.488007,776.895996
491.903992,425.536011,786.656006
497.760010,415.776001,782.752014
491.903992,421.631989,774.943970
493.855988,421.631989,774.943970
493.855988,421.631989,778.848022
495.808014,419.679993,782.752014
501.664001,419.679993,782.752014
493.855988,421.631989,780.799988
491.903992,421.631989,780.799988
488.000000,417.727997,769.088013
491.903992,433.343994,772.992004
491.903992,427.488007,772.992004
493.855988,421.631989,776.895996
501.664001,427.488007,772.992004
495.808014,427.488007,778.848022
499.712006,425.536011,771.039978
493.855988,419.679993,778.848022
495.808014,429.440002,776.895996
488.000000,427.488007,778.848022
488.000000,425.536011,776.895996
486.048004,441.152008,774.943970
484.096008,431.391998,780.799988
489.951996,433.343994,782.752014
488.000000,427.488007,774.943970
497.760010,429.440002,778.848022
493.855988,441.152008,778.848022
493.855988,435.295990,772.992004
482.144012,437.247986,780.799988
486.048004,441.152008,772.992004
489.951996,439.200012,782.752014
491.903992,433.343994,772.992004
484.096008,427.488007,771.039978
489.951996,431.391998,774.943970
489.951996,429.440002,771.039978
489.951996,431.391998,769.088013
476.287994,439.200012,767.135986
482.144012,437.247986,769.088013
489.951996,439.200012,772.992004
488.000000,433.343994,765.184021
484.096008,437.247986,769.088013
482.144012,443.104004,774.943970
482.144012,443.104004,767.135986
478.239990,437.247986,769.088013
478.239990,439.200012,767.135986
482.144012,447.007996,776.895996
484.096008,437.247986,774.943970
489.951996,439.200012,772.992004
484.096008,439.200012,765.184021
476.287994,439.200012,769.088013
486.048004,443.104004,771.039978
486.048004,443.104004,771.039978
480.191986,447.007996,771.039978
478.239990,437.247986,774.943970
478.239990,437.247986,767.135986
482.144012,435.295990,767.135986
482.144012,439.200012,767.135986
480.191986,437.247986,771.039978
480.191986,439.200012,763.231995
489.951996,425.536011,769.088013
488.000000,439.200012,769.088013
480.191986,439.200012,761.280029
484.096008,437.247986,774.943970
486.048004,439.200012,780.799988
489.951996,437.247986,769.088013
486.048004,433.343994,769.088013
478.239990,437.247986,767.135986
484.096008,435.295990,774.943970
486.048004,439.200012,769.088013
484.096008,433.343994,772.992004
482.144012,431.391998,774.943970
484.096008,431.391998,774.943970
488.000000,435.295990,765.184021
484.096008,429.440002,765.184021
484.096008,433.343994,771.039978
484.096008,425.536011,774.943970
491.903992,429.440002,778.848022
486.048004,435.295990,769.088013
489.951996,429.440002,772.992004
486.048004,431.391998,776.895996
484.096008,421.631989,757.375977
482.144012,431.391998,774.943970
484.096008,435.295990,778.848022
484.096008,425.536011,774.943970
488.000000,423.584015,771.039978
491.903992,431.391998,778.848022
489.951996,427.488007,776.895996
488.000000,417.727997,772.992004
493.855988,421.631989,769.088013
491.903992,427.488007,771.039978
491.903992,435.295990,772.992004
486.048004,429.440002,767.135986
495.808014,419.679993,769.088013
501.664001,427.488007,772.992004
497.760010,427.488007,774.943970
491.903992,427.488007,772.992004
495.808014,427.488007,778.848022
489.951996,421.631989,771.039978
497.760010,421.631989,774.943970
488.000000,419.679993,774.943970
493.855988,421.631989,776.895996
495.808014,415.776001,782.752014
497.760010,419.679993,774.943970
499.712006,419.679993,776.895996
497.760010,415.776001,776.895996
497.760010,415.776001,780.799988
489.951996,415.776001,782.752014
495.808014,423.584015,786.656006
495.808014,423.584015,774.943970
501.664001,417.727997,769.088013
491.903992,409.920013,778.848022
501.664001,415.776001,772.992004
491.903992,417.727997,786.656006
495.808014,415.776001,782.752014
499.712006,417.727997,778.848022
491.903992,419.679993,778.848022
489.951996,411.872009,774.943970
493.855988,419.679993,774.943970
493.855988,409.920013,776.895996
489.951996,413.824005,778.848022
493.855988,419.679993,769.088013
493.855988,421.631989,774.943970
491.903992,415.776001,772.992004
497.760010,415.776001,772.992004
497.760010,415.776001,774.943970
497.760010,409.920013,776.895996
499.712006,406.015991,784.703979
493.855988,417.727997,778.848022
493.855988,421.631989,776.895996
488.000000,409.920013,786.656006
489.951996,415.776001,772.992004
493.855988,419.679993,774.943970
482.144012,413.824005,786.656006
489.951996,411.872009,786.656006
486.048004,421.631989,778.848022
489.951996,417.727997,784.703979
489.951996,415.776001,776.895996
491.903992,419.679993,786.656006
488.000000,417.727997,774.943970
476.287994,413.824005,772.992004
482.144012,423.584015,778.848022
480.191986,419.679993,782.752014
484.096008,429.440002,772.992004
482.144012,425.536011,774.943970
480.191986,425.536011,776.895996
482.144012,431.391998,774.943970
476.287994,421.631989,782.752014
480.191986,421.631989,771.039978
478.239990,423.584015,772.992004
476.287994,425.536011,778.848022
476.287994,425.536011,765.184021
472.384003,419.679993,767.135986
470.432007,423.584015,761.280029
472.384003,425.536011,769.088013
470.432007,421.631989,765.184021
468.480011,423.584015,771.039978
472.384003,417.727997,767.135986
474.335999,419.679993,763.231995
472.384003,427.488007,765.184021
472.384003,423.584015,767.135986
464.575989,417.727997,767.135986
476.287994,417.727997,771.039978
472.384003,423.584015,767.135986
466.528015,421.631989,769.088013
472.384003,421.631989,767.135986
474.335999,423.584015,765.184021
474.335999,419.679993,765.184021
474.335999,417.727997,772.992004
470.432007,423.584015,767.135986
468.480011,415.776001,774.943970
474.335999,419.679993,774.943970
476.287994,419.679993,776.895996
482.144012,425.536011,776.895996
472.384003,425.536011,769.088013
480.191986,417.727997,767.135986
472.384003,419.679993,769.088013
476.287994,427.488007,767.135986
464.575989,421.631989,772.992004
468.480011,417.727997,776.895996
468.480011,421.631989,769.088013
466.528015,417.727997,761.280029
470.432007,425.536011,765.184021
472.384003,423.584015,757.375977
466.528015,413.824005,771.039978
468.480011,427.488007,769.088013
468.480011,425.536011,771.039978
472.384003,413.824005,767.135986
474.335999,427.488007,774.943970
468.480011,427.488007,765.184021
478.239990,427.488007,761.280029
476.287994,427.488007,769.088013
472.384003,421.631989,771.039978
464.575989,431.391998,771.039978
472.384003,419.679993,772.992004
476.287994,433.343994,769.088013
476.287994,423.584015,771.039978
474.335999,435.295990,765.184021
472.384003,431.391998,769.088013
476.287994,427.488007,767.135986
482.144012,421.631989,761.280029
476.287994,417.727997,778.848022
480.191986,419.679993,778.848022
474.335999,423.584015,772.992004
480.191986,417.727997,776.895996
484.096008,413.824005,769.088013
482.144012,419.679993,765.184021
480.191986,425.536011,772.992004
486.048004,429.440002,774.943970
482.144012,415.776001,771.039978
488.000000,427.488007,778.848022
480.191986,423.584015,772.992004
476.287994,413.824005,772.992004
482.144012,419.679993,771.039978
480.191986,425.536011,765.184021
486.048004,423.584015,769.088013
480.191986,425.536011,774.943970
482.144012,419.679993,771.039978
491.903992,423.584015,767.135986
484.096008,409.920013,771.039978
480.191986,413.824005,772.992004
480.191986,411.872009,772.992004
482.144012,413.824005,774.943970
480.191986,413.824005,776.895996
488.000000,413.824005,776.895996
488.000000,423.584015,772.992004
489.951996,409.920013,778.848022
484.096008,425.536011,778.848022
484.096008,413.824005,780.799988
489.951996,417.727997,771.039978
491.903992,413.824005,767.135986
488.000000,417.727997,772.992004
488.000000,415.776001,778.848022
489.951996,419.679993,769.088013
491.903992,411.872009,763.231995
493.855988,419.679993,769.088013
491.903992,413.824005,757.375977
488.000000,421.631989,774.943970
491.903992,413.824005,769.088013
488.000000,419.679993,776.895996
493.855988,421.631989,778.848022
489.951996,415.776001,782.752014
488.000000,419.679993,772.992004
503.615997,427.488007,772.992004
491.903992,411.872009,765.184021
493.855988,406.015991,771.039978
489.951996,413.824005,767.135986
482.144012,413.824005,771.039978
493.855988,417.727997,780.799988
488.000000,415.776001,776.895996
493.855988,407.967987,771.039978
491.903992,419.679993,765.184021
495.808014,411.872009,763.231995
488.000000,421.631989,774.943970
480.191986,413.824005,772.992004
484.096008,415.776001,778.848022
486.048004,411.872009,772.992004
493.855988,411.872009,763.231995
491.903992,407.967987,771.039978
493.855988,415.776001,769.088013
488.000000,413.824005,767.135986
488.000000,417.727997,774.943970
493.855988,415.776001,774.943970
489.951996,407.967987,772.992004
484.096008,404.063995,778.848022
489.951996,413.824005,767.135986
489.951996,411.872009,774.943970
493.855988,409.920013,774.943970
491.903992,407.967987,765.184021
484.096008,413.824005,763.231995
480.191986,413.824005,772.992004
488.000000,415.776001,774.943970
489.951996,406.015991,769.088013
484.096008,409.920013,765.184021
489.951996,406.015991,774.943970
482.144012,406.015991,774.943970
480.191986,406.015991,774.943970
489.951996,406.015991,765.184021
491.903992,419.679993,757.375977
495.808014,409.920013,763.231995
486.048004,411.872009,759.328003
488.000000,413.824005,776.895996
488.000000,409.920013,774.943970
493.855988,415.776001,774.943970
484.096008,406.015991,778.848022
488.000000,419.679993,778.848022
491.903992,413.824005,769.088013
486.048004,413.824005,771.039978
486.048004,411.872009,772.992004
488.000000,415.776001,774.943970
495.808014,411.872009,765.184021
493.855988,415.776001,774.943970
497.760010,419.679993,769.088013
493.855988,417.727997,774.943970
491.903992,411.872009,763.231995
486.048004,419.679993,772.992004
497.760010,423.584015,774.943970
493.855988,419.679993,769.088013
493.855988,415.776001,774.943970
489.951996,419.679993,769.088013
488.000000,415.776001,774.943970
491.903992,419.679993,769.088013
499.712006,423.584015,782.752014
499.712006,421.631989,774.943970
497.760010,427.488007,776.895996
501.664001,429.440002,772.992004
497.760010,417.727997,772.992004
497.760010,421.631989,769.088013
503.615997,429.440002,782.752014
501.664001,427.488007,782.752014
493.855988,419.679993,778.848022
495.808014,425.536011,769.088013
505.567993,421.631989,786.656006
499.712006,417.727997,778.848022
501.664001,429.440002,772.992004
497.760010,421.631989,780.799988
505.567993,427.488007,780.799988
493.855988,417.727997,774.943970
507.519989,423.584015,771.039978
497.760010,427.488007,782.752014
505.567993,427.488007,774.943970
497.760010,427.488007,772.992004
509.471985,425.536011,782.752014
501.664001,421.631989,782.752014
497.760010,415.776001,786.656006
503.615997,429.440002,782.752014
503.615997,429.440002,784.703979
505.567993,423.584015,776.895996
503.615997,433.343994,784.703979
509.471985,429.440002,786.656006
501.664001,425.536011,780.799988
495.808014,421.631989,780.799988
501.664001,431.391998,786.656006
505.567993,423.584015,782.752014
495.808014,437.247986,790.559998
507.519989,425.536011,778.848022
509.471985,429.440002,780.799988
499.712006,429.440002,780.799988
499.712006,417.727997,772.992004
499.712006,421.631989,780.799988
495.808014,429.440002,776.895996
499.712006,435.295990,765.184021
495.808014,423.584015,769.088013
497.760010,421.631989,774.943970
503.615997,431.391998,774.943970
501.664001,429.440002,778.848022
495.808014,435.295990,772.992004
501.664001,433.343994,772.992004
501.664001,431.391998,774.943970
499.712006,427.488007,774.943970
499.712006,427.488007,776.895996
501.664001,427.488007,778.848022
495.808014,427.488007,776.895996
499.712006,425.536011,782.752014
501.664001,427.488007,774.943970
495.808014,421.631989,778.848022
503.615997,417.727997,782.752014
491.903992,433.343994,780.799988
497.760010,433.343994,782.752014
503.615997,413.824005,780.799988
497.760010,421.631989,774.943970
505.567993,419.679993,784.703979
505.567993,423.584015,782.752014
499.712006,423.584015,774.943970
511.424011,427.488007,788.607971
507.519989,423.584015,782.752014
503.615997,431.391998,780.799988
497.760010,425.536011,792.512024
501.664001,425.536011,788.607971
503.615997,421.631989,790.559998
509.471985,423.584015,788.607971
497.760010,419.679993,780.799988
497.760010,423.584015,788.607971
495.808014,421.631989,778.848022
497.760010,409.920013,776.895996
501.664001,425.536011,786.656006
495.808014,425.536011,786.656006
491.903992,427.488007,772.992004
495.808014,425.536011,780.799988
488.000000,427.488007,778.848022
484.096008,421.631989,774.943970
489.951996,425.536011,769.088013
491.903992,427.488007,771.039978
495.808014,417.727997,769.088013
491.903992,421.631989,771.039978
491.903992,419.679993,767.135986
484.096008,431.391998,774.943970
488.000000,425.536011,759.328003
493.855988,429.440002,769.088013
489.951996,429.440002,765.184021
484.096008,431.391998,769.088013
488.000000,435.295990,763.231995
484.096008,429.440002,769.088013
486.048004,429.440002,769.088013
488.000000,427.488007,774.943970
486.048004,429.440002,761.280029
488.000000,427.488007,767.135986
486.048004,427.488007,769.088013
499.712006,421.631989,769.088013
484.096008,423.584015,774.943970
484.096008,423.584015,771.039978
484.096008,425.536011,778.848022
488.000000,421.631989,774.943970
491.903992,417.727997,788.607971
488.000000,423.584015,778.848022
488.000000,425.536011,772.992004
480.191986,423.584015,782.752014
491.903992,439.200012,771.039978
486.048004,435.295990,786.656006
484.096008,425.536011,774.943970
493.855988,427.488007,774.943970
491.903992,429.440002,772.992004
484.096008,435.295990,778.848022
495.808014,421.631989,776.895996
501.664001,421.631989,782.752014
499.712006,417.727997,778.848022
497.760010,427.488007,778.848022
495.808014,409.920013,774.943970
493.855988,415.776001,786.656006
480.191986,423.584015,776.895996
493.855988,413.824005,776.895996
488.000000,427.488007,780.799988
499.712006,425.536011,776.895996
495.808014,415.776001,774.943970
499.712006,417.727997,774.943970
497.760010,409.920013,774.943970
488.000000,419.679993,772.992004
491.903992,419.679993,772.992004
495.808014,413.824005,780.799988
491.903992,409.920013,771.039978
489.951996,411.872009,778.848022
493.855988,417.727997,780.799988
486.048004,419.679993,776.895996
495.808014,427.488007,774.943970
488.000000,421.631989,774.943970
486.048004,417.727997,784.703979
499.712006,417.727997,774.943970
493.855988,415.776001,774.943970
488.000000,417.727997,776.895996
489.951996,415.776001,776.895996
488.000000,417.727997,774.943970
484.096008,421.631989,782.752014
480.191986,413.824005,778.848022
488.000000,425.536011,771.039978
488.000000,435.295990,769.088013
489.951996,421.631989,782.752014
480.191986,417.727997,772.992004
493.855988,421.631989,774.943970
484.096008,431.391998,774.943970
484.096008,429.440002,771.039978
484.096008,425.536011,769.088013
488.000000,431.391998,763.231995
484.096008,417.727997,769.088013
482.144012,417.727997,759.328003
488.000000,431.391998,759.328003
486.048004,429.440002,761.280029
484.096008,435.295990,755.424011
488.000000,427.488007,767.135986
489.951996,423.584015,757.375977
486.048004,427.488007,763.231995
488.000000,427.488007,774.943970
491.903992,421.631989,761.280029
488.000000,431.391998,761.280029
493.855988,421.631989,774.943970
489.951996,413.824005,771.039978
488.000000,427.488007,769.088013
480.191986,423.584015,772.992004
488.000000,423.584015,772.992004
484.096008,421.631989,763.231995
486.048004,423.584015,772.992004
493.855988,421.631989,786.656006
488.000000,421.631989,776.895996
489.951996,423.584015,769.088013
491.903992,427.488007,776.895996
488.000000,421.631989,774.943970
497.760010,415.776001,774.943970
493.855988,413.824005,774.943970
488.000000,421.631989,778.848022
488.000000,417.727997,776.895996
493.855988,417.727997,780.799988
489.951996,421.631989,767.135986
488.000000,419.679993,772.992004
489.951996,411.872009,774.943970
491.903992,411.872009,771.039978
488.000000,415.776001,774.943970
488.000000,417.727997,774.943970
480.191986,413.824005,778.848022
486.048004,423.584015,772.992004
482.144012,417.727997,771.039978
486.048004,411.872009,772.992004
489.951996,409.920013,776.895996
488.000000,419.679993,780.799988
495.808014,421.631989,769.088013
491.903992,409.920013,772.992004
486.048004,419.679993,771.039978
484.096008,413.824005,767.135986
486.048004,419.679993,771.039978
493.855988,415.776001,769.088013
486.048004,425.536011,772.992004
484.096008,423.584015,761.280029
484.096008,421.631989,771.039978
484.096008,413.824005,761.280029
484.096008,417.727997,771.039978
489.951996,419.679993,763.231995
484.096008,417.727997,767.135986
480.191986,423.584015,778.848022
478.239990,423.584015,771.039978
482.144012,417.727997,765.184021
488.000000,417.727997,765.184021
484.096008,419.679993,771.039978
486.048004,417.727997,765.184021
486.048004,415.776001,774.943970
482.144012,417.727997,772.992004
486.048004,411.872009,759.328003
484.096008,421.631989,761.280029
482.144012,419.679993,763.231995
480.191986,417.727997,772.992004
478.239990,421.631989,771.039978
480.191986,417.727997,771.039978
480.191986,423.584015,772.992004
480.191986,425.536011,769.088013
472.384003,421.631989,771.039978
484.096008,421.631989,763.231995
486.048004,419.679993,772.992004
480.191986,415.776001,772.992004
480.191986,427.488007,771.039978
480.191986,423.584015,772.992004
484.096008,425.536011,774.943970
488.000000,423.584015,765.184021
486.048004,419.679993,772.992004
484.096008,429.440002,778.848022
484.096008,429.440002,772.992004
480.191986,433.343994,767.135986
482.144012,421.631989,765.184021
486.048004,421.631989,769.088013
480.191986,425.536011,769.088013
484.096008,421.631989,771.039978
493.855988,419.679993,774.943970
493.855988,417.727997,772.992004
480.191986,435.295990,767.135986
493.855988,427.488007,774.943970
486.048004,423.584015,765.184021
482.144012,429.440002,774.943970
491.903992,427.488007,776.895996
493.855988,429.440002,776.895996
486.048004,423.584015,772.992004
493.855988,429.440002,784.703979
491.903992,427.488007,778.848022
491.903992,427.488007,774.943970
493.855988,427.488007,774.943970
493.855988,439.200012,772.992004
488.000000,425.536011,771.039978
491.903992,429.440002,771.039978
489.951996,423.584015,763.231995
495.808014,425.536011,765.184021
486.048004,427.488007,776.895996
486.048004,427.488007,757.375977
480.191986,427.488007,767.135986
484.096008,433.343994,774.943970
482.144012,435.295990,774.943970
488.000000,435.295990,763.231995
478.239990,435.295990,769.088013
474.335999,433.343994,771.039978
484.096008,429.440002,771.039978
476.287994,429.440002,763.231995
466.528015,431.391998,765.184021
474.335999,431.391998,761.280029
474.335999,437.247986,765.184021
474.335999,433.343994,761.280029
474.335999,433.343994,767.135986
468.480011,429.440002,757.375977
470.432007,423.584015,759.328003
468.480011,435.295990,753.471985
474.335999,429.440002,755.424011
464.575989,431.391998,763.231995
466.528015,433.343994,751.520020
468.480011,435.295990,759.328003
472.384003,437.247986,749.567993
466.528015,431.391998,759.328003
474.335999,435.295990,757.375977
456.768005,433.343994,761.280029
466.528015,421.631989,755.424011
462.623993,431.391998,759.328003
464.575989,425.536011,753.471985
466.528015,419.679993,749.567993
468.480011,421.631989,755.424011
466.528015,421.631989,749.567993
464.575989,419.679993,757.375977
470.432007,427.488007,751.520020
466.528015,427.488007,753.471985
464.575989,431.391998,759.328003
468.480011,423.584015,753.471985
470.432007,423.584015,757.375977
468.480011,429.440002,763.231995
466.528015,421.631989,755.424011
466.528015,425.536011,763.231995
466.528015,425.536011,763.231995
478.239990,431.391998,774.943970
478.239990,421.631989,761.280029
472.384003,417.727997,763.231995
468.480011,435.295990,771.039978
472.384003,421.631989,771.039978
472.384003,425.536011,771.039978
474.335999,431.391998,769.088013
468.480011,425.536011,769.088013
472.384003,427.488007,765.184021
468.480011,427.488007,774.943970
486.048004,425.536011,763.231995
482.144012,425.536011,765.184021
482.144012,425.536011,772.992004
482.144012,417.727997,763.231995
474.335999,425.536011,782.752014
480.191986,425.536011,774.943970
476.287994,423.584015,772.992004
478.239990,421.631989,765.184021
476.287994,427.488007,767.135986
486.048004,415.776001,767.135986
482.144012,425.536011,774.943970
476.287994,423.584015,772.992004
482.144012,431.391998,776.895996
470.432007,419.679993,769.088013
480.191986,413.824005,771.039978
478.239990,417.727997,772.992004
488.000000,423.584015,778.848022
480.191986,423.584015,772.992004
488.000000,421.631989,774.943970
489.951996,425.536011,778.848022
486.048004,421.631989,774.943970
486.048004,423.584015,771.039978
484.096008,423.584015,763.231995
476.287994,423.584015,772.992004
486.048004,413.824005,774.943970
482.144012,411.872009,774.943970
488.000000,417.727997,774.943970
488.000000,421.631989,774.943970
486.048004,415.776001,774.943970
486.048004,423.584015,776.895996
488.000000,421.631989,776.895996
488.000000,409.920013,771.039978
478.239990,423.584015,774.943970
486.048004,423.584015,782.752014
488.000000,423.584015,772.992004
488.000000,419.679993,774.943970
484.096008,411.872009,778.848022
488.000000,413.824005,772.992004
486.048004,423.584015,776.895996
486.048004,417.727997,772.992004
478.239990,423.584015,784.703979
482.144012,411.872009,780.799988
484.096008,425.536011,774.943970
480.191986,411.872009,778.848022
476.287994,413.824005,772.992004
482.144012,417.727997,772.992004
488.000000,419.679993,776.895996
484.096008,415.776001,771.039978
486.048004,413.824005,771.039978
486.048004,415.776001,769.088013
476.287994,417.727997,778.848022
486.048004,423.584015,772.992004
480.191986,415.776001,771.039978
476.287994,423.584015,772.992004
486.048004,427.488007,774.943970
484.096008,417.727997,786.656006
486.048004,413.824005,774.943970
476.287994,425.536011,772.992004
486.048004,419.679993,771.039978
484.096008,429.440002,772.992004
476.287994,423.584015,782.752014
486.048004,423.584015,778.848022
484.096008,406.015991,769.088013
484.096008,419.679993,790.559998
489.951996,425.536011,774.943970
488.000000,425.536011,771.039978
486.048004,419.679993,772.992004
486.048004,425.536011,778.848022
480.191986,417.727997,772.992004
493.855988,419.679993,776.895996
491.903992,415.776001,778.848022
480.191986,423.584015,772.992004
476.287994,415.776001,771.039978
488.000000,413.824005,772.992004
489.951996,427.488007,776.895996
493.855988,413.824005,774.943970
486.048004,411.872009,776.895996
488.000000,409.920013,774.943970
491.903992,415.776001,776.895996
493.855988,419.679993,776.895996
488.000000,423.584015,776.895996
491.903992,409.920013,780.799988
484.096008,417.727997,782.752014
488.000000,417.727997,784.703979
493.855988,415.776001,774.943970
488.000000,419.679993,774.943970
486.048004,415.776001,778.848022
480.191986,425.536011,765.184021
480.191986,425.536011,771.039978
480.191986,423.584015,772.992004
472.384003,431.391998,769.088013
482.144012,417.727997,765.184021
486.048004,423.584015,771.039978
476.287994,429.440002,767.135986
480.191986,423.584015,767.135986
478.239990,417.727997,767.135986
476.287994,429.440002,763.231995
482.144012,421.631989,763.231995
470.432007,423.584015,757.375977
472.384003,415.776001,753.471985
470.432007,423.584015,757.375977
464.575989,423.584015,761.280029
476.287994,429.440002,761.280029
478.239990,427.488007,761.280029
486.048004,419.679993,769.088013
486.048004,419.679993,771.039978
476.287994,419.679993,765.184021
484.096008,417.727997,765.184021
478.239990,419.679993,765.184021
482.144012,421.631989,765.184021
486.048004,423.584015,765.184021
478.239990,417.727997,771.039978
493.855988,427.488007,780.799988
497.760010,421.631989,778.848022
484.096008,417.727997,771.039978
486.048004,413.824005,778.848022
488.000000,415.776001,782.752014
486.048004,421.631989,772.992004
488.000000,417.727997,776.895996
497.760010,427.488007,780.799988
491.903992,429.440002,784.703979
491.903992,423.584015,786.656006
486.048004,419.679993,772.992004
491.903992,423.584015,788.607971
497.760010,421.631989,780.799988
493.855988,421.631989,778.848022
497.760010,409.920013,778.848022
491.903992,423.584015,788.607971
495.808014,425.536011,786.656006
499.712006,417.727997,780.799988
493.855988,415.776001,786.656006
497.760010,419.679993,780.799988
501.664001,419.679993,784.703979
493.855988,411.872009,784.703979
495.808014,419.679993,784.703979
499.712006,419.679993,786.656006
501.664001,406.015991,782.752014
503.615997,419.679993,784.703979
493.855988,421.631989,769.088013
501.664001,406.015991,780.799988
497.760010,423.584015,786.656006
493.855988,421.631989,786.656006
493.855988,419.679993,776.895996
497.760010,413.824005,776.895996
497.760010,417.727997,774.943970
497.760010,415.776001,774.943970
495.808014,409.920013,774.943970
493.855988,411.872009,772.992004
499.712006,419.679993,776.895996
499.712006,431.391998,788.607971
493.855988,419.679993,778.848022
491.903992,423.584015,782.752014
488.000000,415.776001,774.943970
491.903992,421.631989,772.992004
491.903992,413.824005,767.135986
486.048004,421.631989,772.992004
491.903992,417.727997,767.135986
491.903992,425.536011,767.135986
489.951996,427.488007,765.184021
493.855988,415.776001,774.943970
489.951996,435.295990,772.992004
497.760010,425.536011,771.039978
495.808014,409.920013,767.135986
493.855988,421.631989,774.943970
493.855988,421.631989,774.943970
497.760010,415.776001,774.943970
497.760010,413.824005,769.088013
489.951996,402.112000,780.799988
491.903992,415.776001,782.752014
493.855988,421.631989,780.799988
499.712006,421.631989,774.943970
507.519989,423.584015,784.703979
499.712006,419.679993,780.799988
499.712006,409.920013,780.799988
505.567993,425.536011,784.703979
511.424011,427.488007,780.799988
507.519989,409.920013,794.463989
495.808014,419.679993,788.607971
501.664001,413.824005,786.656006
505.567993,413.824005,784.703979
505.567993,421.631989,786.656006
501.664001,417.727997,788.607971
505.567993,423.584015,772.992004
501.664001,415.776001,780.799988
495.808014,419.679993,778.848022
503.615997,423.584015,780.799988
497.760010,409.920013,780.799988
493.855988,425.536011,784.703979
493.855988,415.776001,786.656006
505.567993,411.872009,776.895996
499.712006,415.776001,778.848022
491.903992,413.824005,778.848022
495.808014,421.631989,786.656006
499.712006,419.679993,778.848022
509.471985,425.536011,786.656006
505.567993,425.536011,772.992004
505.567993,417.727997,782.752014
491.903992,419.679993,780.799988
489.951996,417.727997,776.895996
495.808014,435.295990,782.752014
497.760010,419.679993,774.943970
497.760010,421.631989,769.088013
497.760010,421.631989,771.039978
491.903992,423.584015,769.088013
493.855988,421.631989,774.943970
491.903992,421.631989,769.088013
484.096008,427.488007,765.184021
493.855988,427.488007,774.943970
493.855988,415.776001,774.943970
491.903992,423.584015,761.280029
491.903992,431.391998,772.992004
486.048004,419.679993,769.088013
488.000000,427.488007,774.943970
491.903992,423.584015,769.088013
488.000000,425.536011,761.280029
493.855988,425.536011,763.231995
488.000000,421.631989,769.088013
484.096008,419.679993,771.039978
489.951996,429.440002,771.039978
476.287994,427.488007,769.088013
488.000000,425.536011,765.184021
488.000000,433.343994,769.088013
491.903992,429.440002,765.184021
493.855988,427.488007,769.088013
484.096008,425.536011,778.848022
486.048004,425.536011,772.992004
489.951996,423.584015,769.088013
484.096008,421.631989,763.231995
478.239990,425.536011,774.943970
484.096008,429.440002,774.943970
489.951996,421.631989,772.992004
488.000000,421.631989,776.895996
491.903992,427.488007,772.992004
488.000000,425.536011,765.184021
489.951996,421.631989,765.184021
489.951996,425.536011,769.088013
486.048004,427.488007,769.088013
497.760010,427.488007,772.992004
486.048004,423.584015,772.992004
489.951996,425.536011,774.943970
488.000000,423.584015,778.848022
489.951996,427.488007,772.992004
491.903992,427.488007,776.895996
491.903992,427.488007,772.992004
491.903992,417.727997,767.135986
493.855988,427.488007,774.943970
489.951996,429.440002,771.039978
484.096008,421.631989,765.184021
488.000000,427.488007,774.943970
484.096008,421.631989,771.039978
484.096008,417.727997,765.184021
486.048004,425.536011,772.992004
480.191986,431.391998,771.039978
486.048004,421.631989,767.135986
486.048004,421.631989,761.280029
489.951996,421.631989,771.039978
480.191986,419.679993,771.039978
486.048004,423.584015,771.039978
486.048004,425.536011,765.184021
488.000000,429.440002,765.184021
489.951996,423.584015,767.135986
489.951996,421.631989,771.039978
484.096008,425.536011,761.280029
486.048004,417.727997,771.039978
486.048004,423.584015,771.039978
486.048004,431.391998,767.135986
486.048004,427.488007,769.088013
480.191986,423.584015,772.992004
491.903992,419.679993,761.280029
489.951996,431.391998,769.088013
482.144012,431.391998,774.943970
486.048004,425.536011,772.992004
484.096008,431.391998,769.088013
491.903992,429.440002,778.848022
491.903992,427.488007,776.895996
493.855988,421.631989,778.848022
495.808014,421.631989,774.943970
486.048004,415.776001,778.848022
482.144012,413.824005,776.895996
491.903992,421.631989,765.184021
486.048004,417.727997,772.992004
491.903992,417.727997,769.088013
484.096008,421.631989,761.280029
484.096008,425.536011,767.135986
491.903992,417.727997,769.088013
493.855988,415.776001,769.088013
493.855988,415.776001,769.088013
488.000000,409.920013,774.943970
491.903992,411.872009,763.231995
493.855988,409.920013,774.943970
486.048004,413.824005,772.992004
488.000000,415.776001,774.943970
488.000000,415.776001,774.943970
493.855988,421.631989,778.848022
499.712006,421.631989,778.848022
501.664001,417.727997,769.088013
493.855988,419.679993,774.943970
495.808014,419.679993,769.088013
489.951996,407.967987,776.895996
486.048004,413.824005,776.895996
497.760010,415.776001,778.848022
491.903992,409.920013,776.895996
489.951996,406.015991,780.799988
497.760010,417.727997,774.943970
501.664001,407.967987,772.992004
488.000000,406.015991,772.992004
505.567993,413.824005,772.992004
501.664001,404.063995,771.039978
509.471985,402.112000,786.656006
501.664001,407.967987,776.895996
499.712006,409.920013,780.799988
497.760010,402.112000,784.703979
505.567993,407.967987,786.656006
503.615997,406.015991,786.656006
501.664001,411.872009,786.656006
503.615997,406.015991,780.799988
501.664001,404.063995,786.656006
507.519989,402.112000,788.607971
503.615997,396.256012,784.703979
509.471985,404.063995,786.656006
495.808014,394.303986,784.703979
501.664001,396.256012,782.752014
495.808014,406.015991,782.752014
495.808014,406.015991,782.752014
495.808014,411.872009,780.799988
495.808014,404.063995,790.559998
501.664001,404.063995,769.088013
493.855988,390.399994,780.799988
497.760010,409.920013,780.799988
501.664001,409.920013,784.703979
505.567993,402.112000,790.559998
497.760010,407.967987,778.848022
499.712006,406.015991,784.703979
495.808014,409.920013,786.656006
497.760010,407.967987,782.752014
509.471985,406.015991,776.895996
511.424011,402.112000,778.848022
501.664001,409.920013,772.992004
497.760010,407.967987,780.799988
495.808014,407.967987,782.752014
493.855988,406.015991,790.559998
497.760010,409.920013,778.848022
495.808014,407.967987,784.703979
491.903992,409.920013,784.703979
493.855988,411.872009,790.559998
495.808014,409.920013,778.848022
491.903992,415.776001,772.992004
493.855988,415.776001,776.895996
489.951996,404.063995,784.703979
486.048004,398.208008,786.656006
489.951996,404.063995,784.703979
484.096008,404.063995,776.895996
489.951996,407.967987,776.895996
484.096008,394.303986,774.943970
489.951996,407.967987,784.703979
491.903992,398.208008,772.992004
489.951996,404.063995,772.992004
489.951996,409.920013,772.992004
488.000000,411.872009,771.039978
489.951996,402.112000,780.799988
491.903992,402.112000,772.992004
491.903992,407.967987,776.895996
491.903992,404.063995,772.992004
489.951996,409.920013,772.992004
491.903992,398.208008,772.992004
489.951996,398.208008,780.799988
480.191986,400.160004,769.088013
493.855988,398.208008,776.895996
484.096008,402.112000,774.943970
489.951996,394.303986,774.943970
491.903992,404.063995,772.992004
495.808014,404.063995,772.992004
491.903992,398.208008,772.992004
491.903992,409.920013,772.992004
491.903992,407.967987,776.895996
491.903992,407.967987,772.992004
493.855988,396.256012,774.943970
491.903992,400.160004,776.895996
484.096008,402.112000,776.895996
491.903992,407.967987,772.992004
489.951996,400.160004,780.799988
489.951996,398.208008,776.895996
489.951996,400.160004,772.992004
478.239990,402.112000,774.943970
491.903992,407.967987,772.992004
486.048004,400.160004,782.752014
489.951996,398.208008,776.895996
484.096008,402.112000,772.992004
484.096008,404.063995,778.848022
480.191986,400.160004,774.943970
489.951996,396.256012,771.039978
484.096008,404.063995,778.848022
478.239990,407.967987,774.943970
489.951996,402.112000,774.943970
488.000000,407.967987,774.943970
482.144012,396.256012,771.039978
480.191986,394.303986,772.992004
480.191986,406.015991,774.943970
497.760010,402.112000,771.039978
491.903992,394.303986,769.088013
480.191986,407.967987,757.375977
480.191986,404.063995,769.088013
480.191986,411.872009,772.992004
482.144012,400.160004,767.135986
488.000000,400.160004,761.280029
493.855988,400.160004,759.328003
480.191986,402.112000,763.231995
484.096008,413.824005,769.088013
484.096008,402.112000,765.184021
491.903992,398.208008,774.943970
489.951996,404.063995,776.895996
489.951996,394.303986,774.943970
484.096008,402.112000,769.088013
493.855988,406.015991,765.184021
493.855988,406.015991,765.184021
480.191986,409.920013,769.088013
488.000000,404.063995,761.280029
484.096008,406.015991,776.895996
489.951996,400.160004,772.992004
489.951996,402.112000,772.992004
486.048004,411.872009,772.992004
489.951996,404.063995,780.799988
491.903992,404.063995,772.992004
493.855988,407.967987,772.992004
489.951996,402.112000,769.088013
497.760010,398.208008,776.895996
484.096008,406.015991,774.943970
489.951996,404.063995,774.943970
489.951996,407.967987,772.992004
491.903992,400.160004,774.943970
484.096008,406.015991,769.088013
497.760010,407.967987,771.039978
489.951996,402.112000,776.895996
484.096008,404.063995,780.799988
484.096008,402.112000,778.848022
488.000000,394.303986,776.895996
493.855988,390.399994,774.943970
491.903992,407.967987,771.039978
489.951996,404.063995,772.992004
482.144012,400.160004,778.848022
484.096008,411.872009,774.943970
486.048004,394.303986,772.992004
484.096008,404.063995,774.943970
488.000000,396.256012,763.231995
484.096008,406.015991,776.895996
484.096008,394.303986,778.848022
484.096008,406.015991,767.135986
491.903992,404.063995,778.848022
489.951996,411.872009,774.943970
484.096008,406.015991,782.752014
486.048004,409.920013,774.943970
491.903992,411.872009,761.280029
493.855988,411.872009,767.135986
486.048004,419.679993,771.039978
491.903992,409.920013,772.992004
488.000000,411.872009,771.039978
491.903992,407.967987,778.848022
480.191986,411.872009,772.992004
489.951996,407.967987,776.895996
489.951996,413.824005,769.088013
484.096008,413.824005,774.943970
484.096008,406.015991,774.943970
482.144012,415.776001,771.039978
476.287994,417.727997,772.992004
476.287994,413.824005,771.039978
482.144012,423.584015,780.799988
486.048004,423.584015,774.943970
486.048004,411.872009,772.992004
476.287994,419.679993,772.992004
478.239990,415.776001,757.375977
484.096008,419.679993,771.039978
482.144012,421.631989,767.135986
486.048004,421.631989,772.992004
480.191986,419.679993,772.992004
480.191986,421.631989,769.088013
476.287994,419.679993,774.943970
476.287994,411.872009,767.135986
482.144012,413.824005,771.039978
478.239990,415.776001,765.184021
480.191986,415.776001,769.088013
480.191986,413.824005,771.039978
480.191986,415.776001,772.992004
480.191986,411.872009,765.184021
482.144012,417.727997,765.184021
478.239990,417.727997,778.848022
478.239990,411.872009,765.184021
476.287994,421.631989,767.135986
476.287994,413.824005,772.992004
480.191986,423.584015,765.184021
472.384003,421.631989,759.328003
474.335999,419.679993,771.039978
480.191986,423.584015,776.895996
474.335999,419.679993,771.039978
476.287994,423.584015,765.184021
470.432007,425.536011,767.135986
472.384003,427.488007,765.184021
476.287994,425.536011,765.184021
474.335999,419.679993,778.848022
480.191986,423.584015,772.992004
486.048004,417.727997,769.088013
484.096008,423.584015,769.088013
476.287994,423.584015,772.992004
480.191986,423.584015,776.895996
484.096008,431.391998,774.943970
489.951996,429.440002,772.992004
484.096008,425.536011,774.943970
478.239990,423.584015,776.895996
493.855988,419.679993,780.799988
486.048004,415.776001,782.752014
491.903992,425.536011,786.656006
489.951996,429.440002,782.752014
482.144012,425.536011,780.799988
480.191986,433.343994,767.135986
488.000000,423.584015,778.848022
491.903992,433.343994,782.752014
486.048004,435.295990,784.703979
489.951996,435.295990,782.752014
484.096008,435.295990,774.943970
493.855988,421.631989,778.848022
480.191986,433.343994,774.943970
489.951996,435.295990,778.848022
480.191986,421.631989,782.752014
486.048004,423.584015,776.895996
497.760010,427.488007,774.943970
488.000000,427.488007,774.943970
497.760010,421.631989,769.088013
493.855988,431.391998,763.231995
497.760010,425.536011,759.328003
493.855988,419.679993,769.088013
484.096008,425.536011,774.943970
488.000000,435.295990,774.943970
489.951996,423.584015,778.848022
489.951996,427.488007,776.895996
489.951996,435.295990,778.848022
489.951996,433.343994,772.992004
493.855988,431.391998,778.848022
493.855988,427.488007,780.799988
495.808014,429.440002,772.992004
491.903992,433.343994,771.039978
489.951996,437.247986,776.895996
491.903992,433.343994,776.895996
488.000000,423.584015,782.752014
489.951996,435.295990,786.656006
489.951996,425.536011,767.135986
491.903992,429.440002,776.895996
484.096008,437.247986,778.848022
497.760010,425.536011,771.039978
484.096008,429.440002,776.895996
489.951996,439.200012,776.895996
489.951996,441.152008,772.992004
491.903992,439.200012,772.992004
491.903992,433.343994,776.895996
489.951996,437.247986,774.943970
491.903992,435.295990,772.992004
484.096008,433.343994,778.848022
491.903992,427.488007,776.895996
484.096008,431.391998,769.088013
484.096008,435.295990,778.848022
484.096008,439.200012,774.943970
484.096008,435.295990,776.895996
491.903992,439.200012,772.992004
489.951996,435.295990,778.848022
489.951996,439.200012,771.039978
489.951996,431.391998,782.752014
484.096008,439.200012,778.848022
495.808014,435.295990,772.992004
488.000000,431.391998,776.895996
480.191986,435.295990,774.943970
484.096008,435.295990,774.943970
484.096008,433.343994,774.943970
484.096008,433.343994,772.992004
491.903992,443.104004,780.799988
495.808014,439.200012,784.703979
491.903992,433.343994,774.943970
493.855988,421.631989,776.895996
501.664001,429.440002,778.848022
497.760010,427.488007,774.943970
491.903992,431.391998,780.799988
489.951996,431.391998,774.943970
484.096008,429.440002,772.992004
491.903992,429.440002,774.943970
491.903992,433.343994,772.992004
491.903992,429.440002,772.992004
491.903992,447.007996,772.992004
488.000000,447.007996,774.943970
489.951996,441.152008,772.992004
484.096008,435.295990,774.943970
489.951996,441.152008,772.992004
489.951996,435.295990,774.943970
484.096008,431.391998,776.895996
486.048004,433.343994,767.135986
491.903992,431.391998,771.039978
484.096008,433.343994,776.895996
482.144012,427.488007,765.184021
491.903992,429.440002,772.992004
486.048004,443.104004,776.895996
493.855988,427.488007,774.943970
488.000000,427.488007,769.088013
484.096008,433.343994,778.848022
486.048004,433.343994,769.088013
482.144012,431.391998,778.848022
486.048004,423.584015,772.992004
488.000000,433.343994,771.039978
486.048004,435.295990,769.088013
489.951996,425.536011,769.088013
489.951996,439.200012,772.992004
489.951996,431.391998,778.848022
493.855988,425.536011,765.184021
486.048004,425.536011,771.039978
484.096008,433.343994,776.895996
484.096008,431.391998,769.088013
484.096008,435.295990,778.848022
488.000000,419.679993,780.799988
480.191986,431.391998,772.992004
478.239990,427.488007,771.039978
486.048004,425.536011,782.752014
488.000000,423.584015,772.992004
482.144012,423.584015,771.039978
486.048004,429.440002,767.135986
482.144012,423.584015,771.039978
476.287994,421.631989,772.992004
474.335999,423.584015,771.039978
482.144012,425.536011,774.943970
478.239990,431.391998,778.848022
468.480011,421.631989,767.135986
472.384003,421.631989,765.184021
476.287994,439.200012,767.135986
480.191986,427.488007,765.184021
474.335999,423.584015,771.039978
480.191986,425.536011,774.943970
476.287994,429.440002,769.088013
476.287994,427.488007,767.135986
480.191986,423.584015,765.184021
484.096008,421.631989,763.231995
476.287994,427.488007,767.135986
476.287994,415.776001,759.328003
474.335999,429.440002,763.231995
476.287994,441.152008,765.184021
478.239990,425.536011,769.088013
478.239990,425.536011,772.992004
480.191986,427.488007,767.135986
476.287994,423.584015,765.184021
478.239990,417.727997,759.328003
478.239990,421.631989,765.184021
478.239990,421.631989,771.039978
482.144012,421.631989,761.280029
472.384003,421.631989,771.039978
478.239990,431.391998,769.088013
488.000000,423.584015,772.992004
482.144012,421.631989,759.328003
480.191986,439.200012,757.375977
482.144012,429.440002,769.088013
486.048004,425.536011,761.280029
486.048004,431.391998,761.280029
488.000000,421.631989,769.088013
482.144012,423.584015,771.039978
478.239990,425.536011,767.135986
488.000000,425.536011,771.039978
484.096008,415.776001,771.039978
488.000000,431.391998,767.135986
489.951996,433.343994,771.039978
484.096008,435.295990,774.943970
480.191986,435.295990,774.943970
486.048004,431.391998,759.328003
486.048004,429.440002,761.280029
480.191986,435.295990,761.280029
489.951996,431.391998,769.088013
491.903992,431.391998,765.184021
493.855988,437.247986,765.184021
488.000000,427.488007,767.135986
488.000000,423.584015,771.039978
482.144012,427.488007,765.184021
482.144012,421.631989,771.039978
486.048004,439.200012,761.280029
478.239990,439.200012,769.088013
493.855988,425.536011,769.088013
489.951996,433.343994,771.039978
488.000000,437.247986,771.039978
484.096008,435.295990,774.943970
489.951996,429.440002,776.895996
480.191986,441.152008,769.088013
486.048004,437.247986,769.088013
488.000000,443.104004,771.039978
489.951996,439.200012,772.992004
486.048004,443.104004,771.039978
480.191986,439.200012,765.184021
484.096008,437.247986,774.943970
478.239990,427.488007,769.088013
480.191986,443.104004,772.992004
482.144012,439.200012,771.039978
486.048004,445.056000,772.992004
486.048004,447.007996,765.184021
480.191986,439.200012,761.280029
482.144012,439.200012,761.280029
482.144012,447.007996,761.280029
476.287994,441.152008,765.184021
482.144012,447.007996,763.231995
472.384003,450.911987,761.280029
478.239990,448.959991,763.231995
478.239990,441.152008,761.280029
476.287994,447.007996,767.135986
480.191986,452.864014,765.184021
478.239990,452.864014,765.184021
480.191986,450.911987,765.184021
484.096008,448.959991,765.184021
480.191986,450.911987,759.328003
480.191986,454.816010,765.184021
482.144012,450.911987,771.039978
478.239990,450.911987,765.184021
476.287994,447.007996,761.280029
480.191986,450.911987,771.039978
476.287994,454.816010,771.039978
478.239990,450.911987,759.328003
476.287994,452.864014,772.992004
476.287994,450.911987,771.039978
474.335999,450.911987,759.328003
464.575989,445.056000,757.375977
470.432007,443.104004,761.280029
472.384003,441.152008,761.280029
476.287994,448.959991,761.280029
476.287994,450.911987,772.992004
476.287994,458.720001,761.280029
476.287994,454.816010,771.039978
468.480011,456.768005,763.231995
474.335999,445.056000,765.184021
470.432007,445.056000,767.135986
470.432007,439.200012,771.039978
466.528015,437.247986,761.280029
470.432007,454.816010,767.135986
462.623993,445.056000,765.184021
464.575989,452.864014,765.184021
468.480011,447.007996,774.943970
466.528015,448.959991,769.088013
464.575989,445.056000,759.328003
470.432007,445.056000,763.231995
470.432007,437.247986,761.280029
470.432007,445.056000,763.231995
470.432007,447.007996,763.231995
462.623993,443.104004,765.184021
466.528015,443.104004,763.231995
474.335999,447.007996,761.280029
468.480011,447.007996,761.280029
474.335999,450.911987,753.471985
474.335999,443.104004,763.231995
472.384003,439.200012,755.424011
468.480011,441.152008,755.424011
468.480011,441.152008,767.135986
468.480011,437.247986,763.231995
464.575989,439.200012,771.039978
468.480011,437.247986,765.184021
470.432007,452.864014,763.231995
464.575989,448.959991,761.280029
470.432007,447.007996,771.039978
472.384003,447.007996,771.039978
462.623993,448.959991,767.135986
470.432007,435.295990,765.184021
472.384003,439.200012,771.039978
476.287994,441.152008,757.375977
470.432007,441.152008,774.943970
474.335999,443.104004,771.039978
468.480011,439.200012,769.088013
468.480011,441.152008,761.280029
474.335999,437.247986,759.328003
482.144012,441.152008,753.471985
474.335999,447.007996,769.088013
480.191986,435.295990,757.375977
468.480011,433.343994,753.471985
476.287994,439.200012,763.231995
478.239990,447.007996,761.280029
474.335999,435.295990,763.231995
472.384003,433.343994,771.039978
478.239990,431.391998,769.088013
486.048004,433.343994,769.088013
472.384003,435.295990,767.135986
472.384003,433.343994,767.135986
480.191986,443.104004,774.943970
480.191986,445.056000,772.992004
484.096008,435.295990,774.943970
476.287994,429.440002,774.943970
482.144012,425.536011,778.848022
480.191986,425.536011,772.992004
476.287994,431.391998,772.992004
484.096008,425.536011,769.088013
484.096008,431.391998,774.943970
482.144012,429.440002,769.088013
482.144012,425.536011,780.799988
480.191986,423.584015,772.992004
489.951996,429.440002,776.895996
480.191986,421.631989,772.992004
480.191986,425.536011,772.992004
478.239990,425.536011,774.943970
484.096008,425.536011,774.943970
478.239990,429.440002,765.184021
486.048004,431.391998,771.039978
480.191986,425.536011,771.039978
478.239990,425.536011,774.943970
489.951996,423.584015,778.848022
476.287994,419.679993,772.992004
486.048004,423.584015,778.848022
482.144012,431.391998,774.943970
480.191986,425.536011,771.039978
482.144012,427.488007,763.231995
484.096008,421.631989,771.039978
482.144012,415.776001,771.039978
486.048004,431.391998,776.895996
482.144012,425.536011,776.895996
480.191986,435.295990,774.943970
489.951996,427.488007,772.992004
489.951996,431.391998,774.943970
480.191986,423.584015,772.992004
493.855988,415.776001,776.895996
488.000000,427.488007,776.895996
484.096008,425.536011,769.088013
493.855988,421.631989,774.943970
486.048004,413.824005,778.848022
495.808014,419.679993,774.943970
495.808014,423.584015,786.656006
486.048004,415.776001,780.799988
493.855988,413.824005,772.992004
493.855988,417.727997,769.088013
489.951996,409.920013,782.752014
493.855988,417.727997,780.799988
493.855988,419.679993,780.799988
484.096008,415.776001,784.703979
491.903992,421.631989,784.703979
491.903992,419.679993,786.656006
497.760010,423.584015,788.607971
503.615997,419.679993,784.703979
495.808014,417.727997,786.656006
497.760010,409.920013,780.799988
489.951996,406.015991,790.559998
493.855988,415.776001,786.656006
499.712006,402.112000,790.559998
493.855988,402.112000,782.752014
491.903992,409.920013,776.895996
493.855988,409.920013,780.799988
493.855988,417.727997,774.943970
495.808014,409.920013,778.848022
491.903992,415.776001,774.943970
484.096008,406.015991,774.943970
486.048004,413.824005,778.848022
491.903992,409.920013,776.895996
489.951996,407.967987,778.848022
484.096008,415.776001,784.703979
486.048004,417.727997,771.039978
486.048004,417.727997,772.992004
489.951996,413.824005,780.799988
491.903992,415.776001,769.088013
486.048004,413.824005,778.848022
493.855988,415.776001,778.848022
486.048004,409.920013,772.992004
489.951996,407.967987,772.992004
493.855988,409.920013,774.943970
488.000000,409.920013,774.943970
493.855988,409.920013,778.848022
491.903992,409.920013,774.943970
484.096008,404.063995,774.943970
489.951996,407.967987,772.992004
484.096008,411.872009,778.848022
486.048004,413.824005,772.992004
486.048004,415.776001,772.992004
489.951996,407.967987,772.992004
482.144012,406.015991,774.943970
482.144012,406.015991,778.848022
482.144012,402.112000,774.943970
486.048004,413.824005,772.992004
489.951996,409.920013,772.992004
489.951996,406.015991,782.752014
484.096008,406.015991,776.895996
488.000000,406.015991,776.895996
489.951996,404.063995,778.848022
482.144012,407.967987,780.799988
486.048004,411.872009,776.895996
486.048004,415.776001,776.895996
482.144012,406.015991,774.943970
484.096008,411.872009,778.848022
480.191986,407.967987,769.088013
486.048004,411.872009,776.895996
484.096008,404.063995,778.848022
476.287994,404.063995,767.135986
478.239990,400.160004,769.088013
486.048004,407.967987,769.088013
489.951996,407.967987,772.992004
476.287994,406.015991,772.992004
486.048004,407.967987,767.135986
488.000000,402.112000,771.039978
478.239990,404.063995,774.943970
476.287994,402.112000,774.943970
486.048004,411.872009,765.184021
476.287994,407.967987,769.088013
478.239990,407.967987,769.088013
488.000000,402.112000,763.231995
480.191986,402.112000,774.943970
478.239990,409.920013,767.135986
486.048004,402.112000,767.135986
482.144012,404.063995,774.943970
482.144012,407.967987,769.088013
478.239990,400.160004,767.135986
482.144012,396.256012,759.328003
480.191986,404.063995,757.375977
478.239990,409.920013,774.943970
482.144012,404.063995,769.088013
489.951996,398.208008,767.135986
493.855988,400.160004,759.328003
493.855988,406.015991,761.280029
478.239990,402.112000,767.135986
476.287994,402.112000,763.231995
480.191986,406.015991,774.943970
486.048004,392.351990,771.039978
488.000000,400.160004,765.184021
488.000000,398.208008,769.088013
486.048004,400.160004,780.799988
480.191986,392.351990,772.992004
489.951996,396.256012,765.184021
488.000000,398.208008,772.992004
480.191986,386.496002,772.992004
486.048004,392.351990,778.848022
493.855988,390.399994,782.752014
493.855988,384.544006,778.848022
497.760010,382.592010,776.895996
495.808014,404.063995,778.848022
489.951996,396.256012,776.895996
491.903992,392.351990,786.656006
493.855988,388.447998,774.943970
495.808014,386.496002,776.895996
501.664001,390.399994,776.895996
501.664001,380.640015,778.848022
491.903992,380.640015,786.656006
497.760010,390.399994,776.895996
493.855988,386.496002,778.848022
491.903992,388.447998,784.703979
493.855988,384.544006,778.848022
491.903992,378.687988,780.799988
497.760010,388.447998,778.848022
491.903992,376.735992,772.992004
486.048004,388.447998,782.752014
495.808014,390.399994,774.943970
495.808014,378.687988,772.992004
495.808014,382.592010,786.656006
495.808014,386.496002,776.895996
497.760010,388.447998,780.799988
493.855988,386.496002,774.943970
505.567993,390.399994,774.943970
497.760010,390.399994,778.848022
493.855988,390.399994,780.799988
493.855988,384.544006,780.799988
501.664001,386.496002,776.895996
507.519989,386.496002,776.895996
505.567993,380.640015,772.992004
491.903992,390.399994,776.895996
499.712006,390.399994,776.895996
505.567993,388.447998,784.703979
497.760010,386.496002,786.656006
501.664001,392.351990,780.799988
491.903992,378.687988,782.752014
497.760010,380.640015,788.607971
501.664001,398.208008,782.752014
505.567993,392.351990,774.943970
499.712006,394.303986,776.895996
497.760010,384.544006,772.992004
501.664001,394.303986,776.895996
499.712006,392.351990,776.895996
503.615997,400.160004,786.656006
497.760010,386.496002,780.799988
505.567993,390.399994,788.607971
501.664001,384.544006,780.799988
505.567993,388.447998,772.992004
499.712006,394.303986,776.895996
499.712006,390.399994,786.656006
499.712006,386.496002,786.656006
491.903992,382.592010,792.512024
501.664001,392.351990,788.607971
491.903992,388.447998,780.799988
497.760010,396.256012,782.752014
497.760010,390.399994,778.848022
497.760010,390.399994,778.848022
497.760010,390.399994,780.799988
499.712006,396.256012,786.656006
501.664001,392.351990,786.656006
495.808014,394.303986,780.799988
497.760010,404.063995,771.039978
501.664001,396.256012,778.848022
493.855988,390.399994,780.799988
497.760010,404.063995,776.895996
499.712006,394.303986,784.703979
493.855988,390.399994,769.088013
499.712006,390.399994,774.943970
495.808014,396.256012,776.895996
495.808014,404.063995,780.799988
495.808014,404.063995,772.992004
484.096008,406.015991,780.799988
495.808014,398.208008,772.992004
499.712006,388.447998,776.895996
497.760010,398.208008,776.895996
491.903992,396.256012,782.752014
493.855988,402.112000,790.559998
499.712006,390.399994,774.943970
509.471985,402.112000,778.848022
495.808014,404.063995,784.703979
497.760010,400.160004,784.703979
505.567993,404.063995,788.607971
495.808014,402.112000,778.848022
501.664001,404.063995,772.992004
495.808014,404.063995,776.895996
491.903992,407.967987,776.895996
495.808014,404.063995,782.752014
503.615997,404.063995,786.656006
501.664001,411.872009,786.656006
488.000000,404.063995,790.559998
497.760010,406.015991,784.703979
491.903992,407.967987,784.703979
505.567993,411.872009,772.992004
491.903992,409.920013,780.799988
501.664001,417.727997,765.184021
491.903992,402.112000,772.992004
501.664001,402.112000,778.848022
491.903992,415.776001,776.895996
484.096008,404.063995,776.895996
486.048004,413.824005,771.039978
486.048004,415.776001,771.039978
501.664001,398.208008,772.992004
488.000000,417.727997,778.848022
491.903992,409.920013,771.039978
484.096008,406.015991,769.088013
488.000000,409.920013,769.088013
486.048004,413.824005,771.039978
491.903992,415.776001,767.135986
488.000000,419.679993,772.992004
488.000000,413.824005,772.992004
491.903992,419.679993,774.943970
491.903992,406.015991,774.943970
495.808014,407.967987,776.895996
491.903992,404.063995,782.752014
497.760010,421.631989,776.895996
505.567993,413.824005,778.848022
497.760010,415.776001,769.088013
489.951996,407.967987,782.752014
493.855988,415.776001,776.895996
493.855988,417.727997,778.848022
495.808014,421.631989,774.943970
491.903992,419.679993,782.752014
488.000000,411.872009,771.039978
493.855988,415.776001,780.799988
493.855988,417.727997,782.752014
491.903992,409.920013,782.752014
488.000000,419.679993,776.895996
491.903992,413.824005,788.607971
493.855988,427.488007,776.895996
493.855988,419.679993,778.848022
493.855988,419.679993,774.943970
493.855988,417.727997,778.848022
488.000000,415.776001,778.848022
488.000000,423.584015,776.895996
491.903992,411.872009,774.943970
493.855988,417.727997,778.848022
488.000000,417.727997,769.088013
484.096008,417.727997,767.135986
491.903992,427.488007,765.184021
480.191986,423.584015,772.992004
491.903992,429.440002,769.088013
484.096008,421.631989,774.943970
488.000000,421.631989,778.848022
486.048004,421.631989,774.943970
488.000000,427.488007,774.943970
480.191986,423.584015,776.895996
480.191986,423.584015,776.895996
480.191986,423.584015,771.039978
484.096008,427.488007,765.184021
486.048004,417.727997,769.088013
476.287994,421.631989,774.943970
482.144012,431.391998,769.088013
480.191986,425.536011,778.848022
476.287994,417.727997,772.992004
476.287994,423.584015,771.039978
482.144012,431.391998,769.088013
484.096008,431.391998,769.088013
476.287994,423.584015,772.992004
482.144012,431.391998,774.943970
478.239990,421.631989,771.039978
476.287994,429.440002,761.280029
476.287994,429.440002,769.088013
470.432007,439.200012,771.039978
472.384003,433.343994,774.943970
474.335999,429.440002,774.943970
474.335999,421.631989,769.088013
478.239990,429.440002,769.088013
472.384003,437.247986,786.656006
472.384003,431.391998,774.943970
464.575989,433.343994,776.895996
468.480011,439.200012,778.848022
476.287994,439.200012,780.799988
468.480011,439.200012,776.895996
470.432007,435.295990,772.992004
466.528015,431.391998,782.752014
474.335999,437.247986,772.992004
472.384003,437.247986,780.799988
464.575989,433.343994,792.512024
464.575989,439.200012,776.895996
466.528015,448.959991,778.848022
472.384003,450.911987,784.703979
476.287994,445.056000,780.799988
468.480011,454.816010,776.895996
468.480011,441.152008,786.656006
462.623993,450.911987,778.848022
466.528015,448.959991,772.992004
456.768005,448.959991,774.943970
460.671997,448.959991,769.088013
466.528015,447.007996,778.848022
466.528015,448.959991,776.895996
460.671997,454.816010,780.799988
462.623993,458.720001,786.656006
462.623993,450.911987,786.656006
464.575989,452.864014,780.799988
456.768005,456.768005,790.559998
456.768005,462.623993,792.512024
462.623993,462.623993,790.559998
464.575989,468.480011,802.271973
466.528015,462.623993,798.367981
452.864014,466.528015,798.367981
452.864014,462.623993,806.176025
456.768005,474.335999,804.223999
466.528015,480.191986,808.127991
462.623993,472.384003,806.176025
458.720001,478.239990,813.984009
456.768005,482.144012,810.080017
448.959991,482.144012,813.984009
464.575989,484.096008,812.031982
462.623993,484.096008,808.127991
454.816010,484.096008,813.984009
448.959991,489.951996,825.695984
448.959991,491.903992,829.599976
445.056000,491.903992,817.888000
445.056000,497.760010,829.599976
443.104004,497.760010,831.552002
439.200012,491.903992,825.695984
437.247986,495.808014,833.504028
439.200012,501.664001,833.504028
439.200012,497.760010,835.455994
433.343994,515.328003,837.408020
435.295990,515.328003,829.599976
435.295990,525.088013,825.695984
433.343994,519.231995,819.840027
431.391998,519.231995,827.648010
429.440002,525.088013,825.695984
413.824005,521.184021,821.791992
409.920013,517.280029,821.791992
413.824005,528.992004,821.791992
407.967987,521.184021,808.127991
411.872009,521.184021,812.031982
398.208008,515.328003,810.080017
398.208008,523.135986,813.984009
398.208008,528.992004,804.223999
400.160004,515.328003,808.127991
396.256012,519.231995,806.176025
392.351990,532.895996,806.176025
386.496002,527.039978,804.223999
384.544006,525.088013,806.176025
394.303986,509.471985,800.320007
382.592010,511.424011,813.984009
372.832001,521.184021,806.176025
376.735992,525.088013,792.512024
388.447998,515.328003,794.463989
374.783997,525.088013,802.271973
366.976013,519.231995,796.416016
368.928009,532.895996,790.559998
355.264008,513.375977,790.559998
357.216003,499.712006,776.895996
361.119995,503.615997,780.799988
363.071991,497.760010,782.752014
361.119995,505.567993,790.559998
361.119995,501.664001,780.799988
357.216003,501.664001,788.607971
353.312012,499.712006,786.656006
357.216003,499.712006,778.848022
361.119995,499.712006,794.463989
368.928009,497.760010,790.559998
363.071991,499.712006,790.559998
361.119995,503.615997,786.656006
365.023987,501.664001,782.752014
363.071991,501.664001,786.656006
363.071991,495.808014,794.463989
363.071991,493.855988,790.559998
361.119995,491.903992,790.559998
363.071991,489.951996,788.607971
363.071991,488.000000,784.703979
361.119995,480.191986,802.271973
365.023987,478.239990,800.320007
370.880005,474.335999,792.512024
363.071991,468.480011,796.416016
372.832001,468.480011,794.463989
365.023987,474.335999,800.320007
361.119995,466.528015,794.463989
372.832001,464.575989,794.463989
365.023987,474.335999,790.559998
359.167999,458.720001,796.416016
361.119995,458.720001,796.416016
365.023987,456.768005,792.512024
361.119995,462.623993,794.463989
361.119995,460.671997,786.656006
359.167999,466.528015,782.752014
351.359985,458.720001,794.463989
359.167999,452.864014,790.559998
357.216003,448.959991,784.703979
361.119995,445.056000,778.848022
351.359985,443.104004,772.992004
351.359985,448.959991,776.895996
357.216003,448.959991,782.752014
347.455994,437.247986,774.943970
345.503998,433.343994,782.752014
343.552002,429.440002,771.039978
347.455994,425.536011,774.943970
351.359985,431.391998,769.088013
343.552002,425.536011,765.184021
347.455994,409.920013,771.039978
349.407990,409.920013,761.280029
353.312012,406.015991,767.135986
349.407990,398.208008,765.184021
349.407990,398.208008,761.280029
341.600006,384.544006,769.088013
335.743988,396.256012,771.039978
339.648010,386.496002,765.184021
345.503998,382.592010,767.135986
335.743988,392.351990,757.375977
337.696014,388.447998,774.943970
343.552002,388.447998,774.943970
343.552002,386.496002,771.039978
349.407990,390.399994,774.943970
349.407990,392.351990,784.703979
349.407990,382.592010,778.848022
351.359985,392.351990,778.848022
343.552002,386.496002,780.799988
339.648010,384.544006,778.848022
347.455994,386.496002,784.703979
349.407990,384.544006,772.992004
353.312012,380.640015,778.848022
351.359985,378.687988,782.752014
349.407990,384.544006,774.943970
351.359985,374.783997,772.992004
349.407990,368.928009,761.280029
355.264008,366.976013,761.280029
351.359985,365.023987,761.280029
353.312012,357.216003,753.471985
353.312012,347.455994,769.088013
351.359985,339.648010,761.280029
349.407990,343.552002,759.328003
353.312012,347.455994,765.184021
353.312012,345.503998,769.088013
353.312012,339.648010,772.992004
353.312012,349.407990,782.752014
357.216003,339.648010,788.607971
353.312012,343.552002,798.367981
351.359985,343.552002,796.416016
351.359985,353.312012,806.176025
365.023987,353.312012,798.367981
365.023987,355.264008,794.463989
361.119995,349.407990,794.463989
366.976013,357.216003,798.367981
359.167999,355.264008,794.463989
368.928009,359.167999,786.656006
359.167999,353.312012,790.559998
359.167999,343.552002,782.752014
355.264008,341.600006,774.943970
359.167999,347.455994,772.992004
365.023987,322.079987,759.328003
355.264008,325.984009,771.039978
380.640015,318.175995,765.184021
398.208008,302.559998,761.280029
398.208008,292.799988,763.231995
413.824005,316.223999,769.088013
419.679993,284.992004,774.943970
374.783997,286.944000,774.943970
359.167999,376.735992,784.703979
351.359985,366.976013,796.416016
359.167999,300.608002,796.416016
368.928009,359.167999,790.559998
370.880005,398.208008,778.848022
372.832001,359.167999,784.703979
376.735992,349.407990,774.943970
372.832001,378.687988,765.184021
359.167999,421.631989,763.231995
355.264008,396.256012,763.231995
353.312012,343.552002,769.088013
345.503998,398.208008,759.328003
347.455994,419.679993,759.328003
345.503998,353.312012,771.039978
353.312012,312.320007,767.135986
355.264008,368.928009,767.135986
368.928009,363.071991,757.375977
368.928009,327.936005,755.424011
363.071991,320.127991,763.231995
363.071991,365.023987,751.520020
353.312012,378.687988,741.760010
359.167999,335.743988,743.711975
351.359985,365.023987,747.616028
353.312012,421.631989,741.760010
349.407990,402.112000,741.760010
357.216003,376.735992,737.856018
359.167999,413.824005,743.711975
365.023987,441.152008,741.760010
363.071991,415.776001,741.760010
365.023987,406.015991,743.711975
368.928009,417.727997,743.711975
370.880005,415.776001,737.856018
376.735992,400.160004,741.760010
386.496002,388.447998,759.328003
390.399994,394.303986,753.471985
390.399994,402.112000,757.375977
392.351990,384.544006,759.328003
390.399994,361.119995,761.280029
386.496002,388.447998,761.280029
392.351990,398.208008,757.375977
378.687988,382.592010,755.424011
386.496002,390.399994,739.807983
390.399994,423.584015,728.096008
390.399994,413.824005,728.096008
386.496002,402.112000,714.432007
398.208008,425.536011,706.624023
398.208008,433.343994,710.528015
388.447998,421.631989,704.671997
398.208008,423.584015,694.911987
390.399994,425.536011,706.624023
400.160004,409.920013,704.671997
398.208008,382.592010,700.768005
406.015991,382.592010,694.911987
413.824005,374.783997,704.671997
423.584015,365.023987,704.671997
435.295990,357.216003,706.624023
433.343994,361.119995,706.624023
437.247986,351.359985,724.192017
441.152008,351.359985,739.807983
445.056000,351.359985,741.760010
452.864014,357.216003,751.520020
458.720001,366.976013,757.375977
452.864014,349.407990,769.088013
464.575989,355.264008,780.799988
458.720001,365.023987,771.039978
464.575989,366.976013,776.895996
462.623993,357.216003,780.799988
468.480011,365.023987,776.895996
472.384003,355.264008,784.703979
480.191986,353.312012,772.992004
476.287994,339.648010,782.752014
460.671997,324.032013,769.088013
468.480011,325.984009,778.848022
468.480011,306.463989,765.184021
468.480011,300.608002,763.231995
470.432007,294.752014,769.088013
464.575989,277.183990,772.992004
470.432007,265.471985,772.992004
478.239990,249.856003,767.135986
480.191986,257.664001,772.992004
484.096008,251.807999,776.895996
480.191986,255.712006,784.703979
493.855988,247.904007,790.559998
484.096008,251.807999,798.367981
493.855988,255.712006,802.271973
493.855988,251.807999,806.176025
491.903992,242.048004,804.223999
491.903992,242.048004,804.223999
505.567993,259.615997,812.031982
505.567993,247.904007,812.031982
499.712006,234.240005,810.080017
509.471985,245.951996,810.080017
509.471985,251.807999,802.271973
497.760010,230.335999,798.367981
505.567993,216.671997,792.512024
505.567993,222.528000,798.367981
507.519989,216.671997,792.512024
511.424011,203.007996,782.752014
507.519989,201.056000,774.943970
511.424011,195.199997,784.703979
519.231995,197.151993,782.752014
517.280029,195.199997,780.799988
525.088013,191.296005,776.895996
517.280029,191.296005,788.607971
523.135986,191.296005,776.895996
523.135986,185.440002,776.895996
528.992004,191.296005,776.895996
527.039978,195.199997,788.607971
530.943970,199.104004,798.367981
538.752014,183.488007,788.607971
532.895996,193.248001,796.416016
552.416016,191.296005,796.416016
550.463989,177.632004,806.176025
542.656006,185.440002,806.176025
540.703979,185.440002,808.127991
546.559998,179.584000,804.223999
538.752014,183.488007,812.031982
552.416016,179.584000,813.984009
560.223999,165.919998,817.888000
560.223999,167.871994,817.888000
573.888000,163.968002,813.984009
579.744019,158.112000,819.840027
573.888000,160.063995,825.695984
569.984009,158.112000,825.695984
569.984009,156.160004,827.648010
573.888000,165.919998,831.552002
569.984009,152.255997,831.552002
571.935974,152.255997,841.312012
575.840027,156.160004,837.408020
579.744019,158.112000,829.599976
573.888000,165.919998,815.935974
587.552002,156.160004,825.695984
599.263977,150.304001,827.648010
597.312012,138.591995,821.791992
597.312012,160.063995,827.648010
599.263977,144.447998,823.744019
605.119995,156.160004,829.599976
607.072021,160.063995,833.504028
599.263977,156.160004,835.455994
597.312012,160.063995,839.359985
587.552002,165.919998,845.216003
587.552002,148.352005,853.023987
589.504028,152.255997,847.168030
589.504028,154.207993,835.455994
597.312012,148.352005,845.216003
593.408020,148.352005,856.927979
599.263977,154.207993,849.119995
599.263977,160.063995,854.976013
597.312012,160.063995,858.880005
591.455994,158.112000,854.976013
593.408020,156.160004,853.023987
591.455994,156.160004,854.976013
591.455994,162.016006,849.119995
607.072021,158.112000,853.023987
603.168030,154.207993,843.263977
607.072021,156.160004,841.312012
610.976013,156.160004,831.552002
599.263977,169.824005,835.455994
601.216003,163.968002,833.504028
601.216003,177.632004,825.695984
614.880005,175.679993,823.744019
612.927979,171.776001,819.840027
616.831970,169.824005,829.599976
620.736023,163.968002,827.648010
622.687988,165.919998,837.408020
622.687988,167.871994,825.695984
620.736023,181.535995,823.744019
624.640015,169.824005,833.504028
624.640015,169.824005,831.552002
622.687988,171.776001,839.359985
632.447998,165.919998,845.216003
630.495972,171.776001,837.408020
642.208008,179.584000,833.504028
624.640015,173.727997,833.504028
630.495972,167.871994,831.552002
624.640015,169.824005,831.552002
632.447998,167.871994,833.504028
628.544006,171.776001,825.695984
626.591980,171.776001,833.504028
616.831970,173.727997,819.840027
622.687988,175.679993,817.888000
614.880005,175.679993,812.031982
614.880005,177.632004,808.127991
612.927979,171.776001,802.271973
605.119995,169.824005,784.703979
597.312012,167.871994,788.607971
599.263977,173.727997,776.895996
601.216003,173.727997,772.992004
591.455994,167.871994,767.135986
591.455994,179.584000,757.375977
587.552002,175.679993,759.328003
587.552002,165.919998,747.616028
573.888000,173.727997,751.520020
579.744019,175.679993,751.520020
573.888000,171.776001,745.664001
581.695984,163.968002,722.239990
585.599976,169.824005,728.096008
579.744019,181.535995,720.288025
583.648010,167.871994,714.432007
573.888000,169.824005,722.239990
577.791992,163.968002,712.479980
587.552002,171.776001,706.624023
587.552002,167.871994,710.528015
569.984009,160.063995,706.624023
575.840027,156.160004,712.479980
577.791992,163.968002,722.239990
571.935974,163.968002,708.575989
569.984009,142.496002,710.528015
566.080017,152.255997,720.288025
569.984009,162.016006,702.719971
571.935974,154.207993,712.479980
579.744019,150.304001,712.479980
573.888000,148.352005,708.575989
573.888000,150.304001,710.528015
566.080017,154.207993,706.624023
579.744019,162.016006,714.432007
558.271973,158.112000,702.719971
571.935974,156.160004,700.768005
554.367981,179.584000,702.719971
546.559998,201.056000,698.815979
530.943970,185.440002,702.719971
527.039978,204.960007,694.911987
540.703979,199.104004,687.104004
548.512024,181.535995,681.247986
546.559998,162.016006,681.247986
564.127991,181.535995,675.392029
566.080017,175.679993,681.247986
550.463989,163.968002,675.392029
548.512024,163.968002,669.536011
538.752014,187.391998,673.440002
532.895996,173.727997,679.296021
548.512024,148.352005,667.583984
556.320007,163.968002,669.536011
556.320007,187.391998,667.583984
554.367981,179.584000,665.632019
560.223999,156.160004,673.440002
542.656006,175.679993,659.776001
552.416016,216.671997,657.823975
550.463989,218.623993,657.823975
546.559998,185.440002,650.015991
556.320007,183.488007,648.064026
560.223999,214.720001,648.064026
550.463989,212.768005,638.304016
556.320007,175.679993,640.255981
550.463989,195.199997,634.400024
546.559998,226.432007,636.351990
538.752014,208.863998,630.495972
542.656006,191.296005,624.640015
530.943970,210.815994,628.544006
538.752014,226.432007,628.544006
527.039978,220.576004,616.831970
540.703979,224.479996,620.736023
540.703979,218.623993,618.783997
532.895996,234.240005,605.119995
544.607971,228.384003,597.312012
538.752014,212.768005,597.312012
536.799988,232.287994,589.504028
536.799988,245.951996,593.408020
532.895996,244.000000,595.359985
542.656006,224.479996,593.408020
550.463989,244.000000,585.599976
558.271973,244.000000,581.695984
564.127991,232.287994,575.840027
552.416016,226.432007,579.744019
564.127991,247.904007,583.648010
554.367981,244.000000,571.935974
569.984009,224.479996,579.744019
564.127991,232.287994,587.552002
562.176025,234.240005,589.504028
568.031982,232.287994,589.504028
560.223999,230.335999,591.455994
583.648010,226.432007,603.168030
573.888000,218.623993,589.504028
589.504028,232.287994,603.168030
579.744019,244.000000,593.408020
579.744019,240.095993,599.263977
575.840027,240.095993,603.168030
575.840027,238.143997,597.312012
573.888000,251.807999,610.976013
607.072021,247.904007,603.168030
593.408020,222.528000,605.119995
603.168030,232.287994,614.880005
581.695984,247.904007,610.976013
605.119995,230.335999,601.216003
601.216003,220.576004,626.591980
610.976013,230.335999,616.831970
610.976013,236.192001,624.640015
610.976013,232.287994,628.544006
620.736023,228.384003,630.495972
636.351990,222.528000,634.400024
634.400024,234.240005,640.255981
622.687988,222.528000,638.304016
630.495972,214.720001,644.159973
626.591980,212.768005,640.255981
622.687988,224.479996,646.112000
628.544006,216.671997,638.304016
626.591980,204.960007,638.304016
642.208008,214.720001,638.304016
651.968018,208.863998,626.591980
651.968018,204.960007,624.640015
653.919983,204.960007,630.495972
640.255981,201.056000,632.447998
648.064026,199.104004,630.495972
659.776001,206.912003,630.495972
659.776001,197.151993,628.544006
663.679993,185.440002,636.351990
667.583984,189.343994,642.208008
669.536011,171.776001,646.112000
663.679993,185.440002,650.015991
667.583984,189.343994,636.351990
689.056030,179.584000,640.255981
659.776001,193.248001,632.447998
669.536011,193.248001,638.304016
677.343994,189.343994,638.304016
683.200012,201.056000,630.495972
667.583984,203.007996,636.351990
675.392029,193.248001,632.447998
675.392029,187.391998,638.304016
681.247986,206.912003,640.255981
677.343994,201.056000,640.255981
677.343994,195.199997,630.495972
689.056030,199.104004,626.591980
685.151978,201.056000,630.495972
696.864014,189.343994,632.447998
685.151978,185.440002,648.064026
691.007996,185.440002,648.064026
694.911987,187.391998,655.872009
692.960022,193.248001,648.064026
700.768005,187.391998,650.015991
696.864014,181.535995,648.064026
694.911987,193.248001,650.015991
689.056030,201.056000,661.728027
702.719971,177.632004,646.112000
696.864014,185.440002,642.208008
698.815979,199.104004,632.447998
700.768005,191.296005,640.255981
716.383972,195.199997,638.304016
710.528015,199.104004,632.447998
698.815979,203.007996,626.591980
696.864014,203.007996,634.400024
702.719971,201.056000,628.544006
702.719971,195.199997,624.640015
704.671997,199.104004,626.591980
700.768005,203.007996,634.400024
720.288025,197.151993,616.831970
704.671997,204.960007,616.831970
708.575989,208.863998,616.831970
706.624023,201.056000,612.927979
710.528015,189.343994,614.880005
726.143982,193.248001,620.736023
720.288025,206.912003,622.687988
712.479980,199.104004,622.687988
714.432007,204.960007,610.976013
710.528015,208.863998,616.831970
714.432007,210.815994,616.831970
720.288025,212.768005,614.880005
728.096008,216.671997,612.927979
710.528015,220.576004,614.880005
724.192017,220.576004,607.072021
714.432007,224.479996,610.976013
716.383972,226.432007,605.119995
708.575989,228.384003,610.976013
708.575989,226.432007,601.216003
708.575989,226.432007,605.119995
694.911987,228.384003,603.168030
704.671997,222.528000,599.263977
696.864014,226.432007,591.455994
694.911987,226.432007,583.648010
700.768005,226.432007,583.648010
700.768005,230.335999,571.935974
700.768005,220.576004,571.935974
700.768005,218.623993,562.176025
696.864014,226.432007,568.031982
692.960022,232.287994,554.367981
694.911987,214.720001,548.512024
696.864014,218.623993,556.320007
692.960022,216.671997,548.512024
698.815979,210.815994,542.656006
691.007996,204.960007,538.752014
698.815979,206.912003,530.943970
694.911987,212.768005,536.799988
694.911987,210.815994,525.088013
691.007996,210.815994,515.328003
691.007996,212.768005,519.231995
681.247986,212.768005,517.280029
675.392029,218.623993,513.375977
663.679993,214.720001,507.519989
661.728027,212.768005,509.471985
669.536011,208.863998,509.471985
683.200012,201.056000,499.712006
679.296021,181.535995,489.951996
687.104004,177.632004,493.855988
687.104004,189.343994,495.808014
689.056030,187.391998,488.000000
671.487976,183.488007,486.048004
669.536011,177.632004,484.096008
677.343994,175.679993,488.000000
681.247986,187.391998,489.951996
683.200012,179.584000,470.432007
687.104004,181.535995,474.335999
679.296021,185.440002,478.239990
667.583984,191.296005,464.575989
671.487976,185.440002,470.432007
677.343994,197.151993,458.720001
669.536011,206.912003,460.671997
673.440002,210.815994,454.816010
663.679993,195.199997,452.864014
671.487976,193.248001,462.623993
673.440002,199.104004,466.528015
675.392029,191.296005,466.528015
683.200012,177.632004,460.671997
683.200012,181.535995,458.720001
683.200012,177.632004,452.864014
687.104004,171.776001,454.816010
691.007996,163.968002,447.007996
692.960022,171.776001,443.104004
683.200012,173.727997,448.959991
691.007996,175.679993,439.200012
687.104004,163.968002,435.295990
704.671997,162.016006,433.343994
716.383972,146.399994,433.343994
704.671997,156.160004,417.727997
720.288025,156.160004,421.631989
710.528015,162.016006,415.776001
708.575989,165.919998,415.776001
706.624023,165.919998,406.015991
704.671997,165.919998,398.208008
728.096008,152.255997,404.063995
759.328003,144.447998,400.160004
774.943970,117.120003,396.256012
788.607971,115.167999,400.160004
813.984009,113.216003,400.160004
808.127991,107.360001,392.351990
825.695984,105.407997,406.015991
825.695984,111.264000,409.920013
829.599976,117.120003,413.824005
831.552002,121.024002,415.776001
843.263977,132.735992,421.631989
837.408020,128.832001,425.536011
837.408020,142.496002,443.104004
841.312012,163.968002,450.911987
845.216003,150.304001,470.432007
851.072021,152.255997,486.048004
847.168030,146.399994,489.951996
851.072021,128.832001,507.519989
847.168030,128.832001,534.848022
853.023987,119.071999,564.127991
849.119995,91.744003,593.408020
874.495972,46.848000,624.640015
884.255981,37.088001,659.776001
890.112000,40.992001,692.960022
888.159973,39.040001,716.383972
888.159973,9.760000,737.856018
894.015991,-15.616000,757.375977
905.728027,-25.375999,761.280029
911.583984,-15.616000,780.799988
907.679993,-1.952000,782.752014
903.776001,-9.760000,774.943970
901.823975,3.904000,771.039978
905.728027,29.280001,757.375977
897.919983,35.136002,751.520020
888.159973,58.560001,735.903992
899.872009,58.560001,732.000000
899.872009,62.464001,728.096008
901.823975,64.416000,720.288025
897.919983,66.367996,708.575989
895.968018,76.127998,698.815979
911.583984,85.888000,696.864014
897.919983,74.176003,696.864014
899.872009,72.223999,681.247986
895.968018,87.839996,667.583984
894.015991,93.695999,675.392029
895.968018,109.311996,669.536011
895.968018,93.695999,667.583984
888.159973,76.127998,665.632019
888.159973,66.367996,665.632019
886.208008,85.888000,661.728027
878.400024,87.839996,650.015991
880.351990,74.176003,646.112000
876.447998,68.320000,636.351990
872.544006,62.464001,634.400024
870.591980,76.127998,630.495972
868.640015,58.560001,628.544006
860.831970,54.655998,620.736023
864.736023,52.703999,618.783997
870.591980,54.655998,620.736023
860.831970,52.703999,599.263977
868.640015,50.751999,597.312012
854.976013,48.799999,583.648010
847.168030,46.848000,577.791992
856.927979,60.512001,568.031982
854.976013,64.416000,568.031982
862.783997,46.848000,569.984009
858.880005,46.848000,566.080017
854.976013,48.799999,554.367981
845.216003,52.703999,554.367981
851.072021,56.608002,552.416016
847.168030,42.944000,546.559998
860.831970,50.751999,546.559998
849.119995,52.703999,542.656006
853.023987,60.512001,542.656006
835.455994,80.031998,536.799988
837.408020,78.080002,519.231995
831.552002,72.223999,513.375977
835.455994,80.031998,507.519989
841.312012,80.031998,503.615997
835.455994,76.127998,507.519989
839.359985,64.416000,497.760010
841.312012,66.367996,499.712006
839.359985,81.984001,499.712006
843.263977,72.223999,493.855988
835.455994,64.416000,489.951996
837.408020,68.320000,482.144012
833.504028,76.127998,486.048004
839.359985,74.176003,486.048004
835.455994,85.888000,484.096008
835.455994,76.127998,480.191986
839.359985,80.031998,480.191986
841.312012,81.984001,476.287994
845.216003,87.839996,482.144012
851.072021,76.127998,478.239990
839.359985,72.223999,464.575989
856.927979,81.984001,466.528015
847.168030,72.223999,454.816010
851.072021,76.127998,456.768005
858.880005,70.272003,456.768005
854.976013,66.367996,464.575989
843.263977,80.031998,454.816010
837.408020,99.552002,454.816010
827.648010,95.648003,441.152008
835.455994,85.888000,439.200012
835.455994,70.272003,437.247986
849.119995,62.464001,423.584015
853.023987,83.935997,419.679993
829.599976,93.695999,406.015991
854.976013,99.552002,404.063995
856.927979,87.839996,394.303986
849.119995,78.080002,394.303986
851.072021,91.744003,386.496002
851.072021,89.792000,382.592010
841.312012,99.552002,380.640015
837.408020,99.552002,384.544006
831.552002,103.456001,374.783997
827.648010,103.456001,363.071991
856.927979,103.456001,359.167999
890.112000,91.744003,347.455994
845.216003,134.688004,335.743988
792.512024,236.192001,325.984009
778.848022,284.992004,308.415985
817.888000,259.615997,308.415985
843.263977,177.632004,298.656006
864.736023,142.496002,292.799988
845.216003,193.248001,283.040009
841.312012,242.048004,286.944000
858.880005,216.671997,296.704010
876.447998,162.016006,300.608002
892.064026,150.304001,296.704010
868.640015,177.632004,302.559998
860.831970,212.768005,304.511993
866.687988,214.720001,314.272003
860.831970,195.199997,304.511993
872.544006,185.440002,302.559998
884.255981,201.056000,314.272003
870.591980,216.671997,304.511993
880.351990,230.335999,310.368011
882.304016,214.720001,318.175995
890.112000,201.056000,324.032013
895.968018,208.863998,325.984009
897.919983,206.912003,327.936005
895.968018,203.007996,335.743988
911.583984,199.104004,345.503998
899.872009,212.768005,357.216003
919.392029,195.199997,372.832001
933.056030,204.960007,374.783997
948.671997,183.488007,366.976013
964.288025,171.776001,380.640015
958.432007,185.440002,406.015991
944.768005,185.440002,411.872009
948.671997,195.199997,417.727997
946.719971,201.056000,427.488007
962.335999,203.007996,433.343994
942.815979,195.199997,435.295990
942.815979,195.199997,439.200012
950.624023,208.863998,447.007996
956.479980,224.479996,450.911987
944.768005,224.479996,460.671997
962.335999,203.007996,466.528015
944.768005,195.199997,466.528015
976.000000,201.056000,470.432007
974.047974,201.056000,470.432007
976.000000,212.768005,478.239990
985.760010,206.912003,468.480011
989.664001,199.104004,476.287994
976.000000,195.199997,484.096008
979.903992,197.151993,489.951996
989.664001,189.343994,491.903992
979.903992,191.296005,480.191986
991.616028,201.056000,476.287994
979.903992,203.007996,464.575989
981.856018,206.912003,466.528015
979.903992,189.343994,456.768005
981.856018,189.343994,448.959991
995.520020,197.151993,456.768005
995.520020,185.440002,447.007996
1007.231995,183.488007,445.056000
1011.135986,189.343994,445.056000
1018.943970,204.960007,439.200012
1054.079956,210.815994,448.959991
1081.407959,193.248001,448.959991
1046.271973,156.160004,445.056000
1044.319946,154.207993,443.104004
1046.271973,181.535995,433.343994
1028.703979,187.391998,429.440002
1005.280029,156.160004,429.440002
1020.895996,113.216003,431.391998
1009.184021,122.975998,413.824005
991.616028,150.304001,388.447998
954.528015,160.063995,372.832001
935.007996,146.399994,365.023987
915.487976,132.735992,335.743988
897.919983,134.688004,329.888000
876.447998,142.496002,320.127991
880.351990,124.928001,306.463989
878.400024,95.648003,284.992004
899.872009,105.407997,269.376007
894.015991,126.879997,265.471985
886.208008,132.735992,251.807999
878.400024,140.544006,247.904007
878.400024,126.879997,240.095993
876.447998,119.071999,232.287994
884.255981,121.024002,204.960007
876.447998,132.735992,185.440002
876.447998,175.679993,167.871994
878.400024,185.440002,154.207993
878.400024,156.160004,142.496002
907.679993,113.216003,126.879997
923.296021,150.304001,109.311996
952.575989,228.384003,99.552002
917.440002,247.904007,105.407997
897.919983,185.440002,111.264000
911.583984,117.120003,115.167999
917.440002,132.735992,119.071999
915.487976,183.488007,113.216003
952.575989,236.192001,119.071999
1013.088013,269.376007,113.216003
981.856018,253.759995,115.167999
1022.848022,177.632004,126.879997
1026.751953,150.304001,128.832001
979.903992,203.007996,126.879997
1087.264038,255.712006,130.783997
1052.128052,306.463989,142.496002
960.383972,238.143997,175.679993
1013.088013,144.447998,222.528000
970.143982,68.320000,253.759995
913.536011,101.503998,333.791992
812.031982,281.088013,439.200012
1015.039978,255.712006,513.375977
1245.375977,-195.199997,554.367981
1288.319946,-78.080002,538.752014
1321.504028,29.280001,525.088013
15.616000,121.024002,439.200012
195.199997,325.984009,435.295990
1116.543945,-7.808000,329.888000
888.159973,-117.120003,284.992004
1586.975952,462.623993,230.335999
1024.800049,406.015991,208.863998
796.416016,81.984001,167.871994
1042.368042,-80.031998,152.255997
956.479980,165.919998,111.264000
1264.895996,366.976013,83.935997
1188.767944,208.863998,56.608002
1407.391968,-177.632004,44.896000
1319.552002,-193.248001,17.568001
1180.959961,216.671997,15.616000
1102.880005,372.832001,21.472000
1210.239990,279.135986,44.896000
1102.880005,175.679993,42.944000
1333.215942,181.535995,58.560001
1423.008057,269.376007,81.984001
1179.008057,425.536011,109.311996
1114.592041,327.936005,124.928001
1104.832031,109.311996,165.919998
1233.663940,-128.832001,203.007996
1276.608032,19.520000,238.143997
1212.192017,318.175995,273.279999
1169.248047,349.407990,298.656006
1091.167969,140.544006,316.223999
1093.119995,21.472000,341.600006
1097.024048,91.744003,345.503998
1151.680054,265.471985,347.455994
1159.488037,236.192001,363.071991
1227.807983,-193.248001,400.160004
1259.040039,-525.088013,417.727997
1286.368042,-329.888000,437.247986
1303.936035,91.744003,443.104004
1247.328003,179.584000,439.200012
1182.911987,19.520000,450.911987
1220.000000,56.608002,460.671997
1249.280029,31.232000,482.144012
1038.463989,144.447998,505.567993
1446.432007,-109.311996,552.416016
1391.776001,-413.824005,583.648010
1391.776001,-314.272003,634.400024
1337.119995,-277.183990,661.728027
1282.463989,-304.511993,679.296021
1257.088013,-101.503998,712.479980
277.183990,665.632019,1272.703979
558.271973,1471.807983,1735.328003
1032.608032,843.263977,1577.215942
1159.488037,-774.943970,1145.823975
1432.767944,-1627.968018,944.768005
1407.391968,-1573.312012,1032.608032
1356.640015,-1034.560059,1015.039978
1350.784058,-85.888000,915.487976
1341.024048,433.343994,911.583984
1333.215942,-261.567993,970.143982
1329.312012,-644.159973,940.864014
1309.791992,-447.007996,911.583984
1395.680054,-103.456001,899.872009
1475.712036,-284.992004,796.416016
1399.583984,-409.920013,708.575989
1130.208008,-167.871994,739.807983
987.711975,-158.112000,708.575989
1081.407959,-203.007996,554.367981
1097.024048,136.639999,458.720001
1132.160034,214.720001,419.679993
1038.463989,-222.528000,366.976013
1046.271973,-31.232000,327.936005
1153.631958,124.928001,318.175995
1102.880005,-107.360001,288.895996
1052.128052,1.952000,316.223999
1018.943970,212.768005,351.359985
997.471985,31.232000,322.079987
950.624023,-97.599998,310.368011
905.728027,-101.503998,306.463989
968.192017,-122.975998,271.328003
1044.319946,-109.311996,230.335999
856.927979,-39.040001,247.904007
819.840027,81.984001,218.623993
872.544006,99.552002,175.679993
862.783997,7.808000,152.255997
880.351990,-7.808000,142.496002
907.679993,-5.856000,132.735992
948.671997,-68.320000,140.544006
944.768005,-89.792000,146.399994
929.151978,-66.367996,169.824005
929.151978,-56.608002,175.679993
909.632019,-76.127998,191.296005
860.831970,-31.232000,212.768005
845.216003,3.904000,220.576004
849.119995,58.560001,240.095993
833.504028,93.695999,259.615997
835.455994,117.120003,279.135986
841.312012,117.120003,306.463989
847.168030,95.648003,314.272003
856.927979,19.520000,325.984009
880.351990,-175.679993,343.552002
880.351990,-380.640015,370.880005
856.927979,-380.640015,419.679993
839.359985,-154.207993,450.911987
845.216003,195.199997,484.096008
851.072021,431.391998,509.471985
845.216003,398.208008,527.039978
837.408020,171.776001,540.703979
825.695984,-103.456001,542.656006
804.223999,-269.376007,528.992004
800.320007,-251.807999,486.048004
778.848022,-103.456001,458.720001
784.703979,56.608002,421.631989
769.088013,165.919998,388.447998
735.903992,152.255997,353.312012
683.200012,72.223999,302.559998
632.447998,11.712000,251.807999
636.351990,7.808000,208.863998
767.135986,37.088001,175.679993
786.656006,60.512001,154.207993
751.520020,-37.088001,121.024002
603.168030,-206.912003,97.599998
601.216003,-101.503998,70.272003
724.192017,154.207993,29.280001
718.335999,203.007996,33.183998
708.575989,66.367996,46.848000
708.575989,-85.888000,50.751999
669.536011,-286.944000,54.655998
689.056030,-359.167999,58.560001
730.047974,-253.759995,64.416000
700.768005,-105.407997,83.935997
673.440002,-70.272003,93.695999
692.960022,-95.648003,109.311996
692.960022,-152.255997,121.024002
687.104004,-273.279999,136.639999
704.671997,-374.783997,130.783997
710.528015,-402.112000,115.167999
683.200012,-329.888000,97.599998
665.632019,-234.240005,80.031998
677.343994,-142.496002,39.040001
665.632019,-44.896000,31.232000
661.728027,-76.127998,13.664000
663.679993,-130.783997,-11.712000
655.872009,-154.207993,-19.520000
638.304016,-128.832001,-42.944000
651.968018,-109.311996,-56.608002
632.447998,-68.320000,-80.031998
636.351990,-50.751999,-97.599998
618.783997,-56.608002,-119.071999
616.831970,-103.456001,-152.255997
603.168030,-130.783997,-177.632004
609.023987,-156.160004,-197.151993
607.072021,-146.399994,-234.240005
599.263977,-150.304001,-249.856003
585.599976,-148.352005,-251.807999
585.599976,-5.856000,-263.519989
593.408020,240.095993,-226.432007
612.927979,263.519989,-175.679993
636.351990,50.751999,-138.591995
671.487976,-320.127991,-121.024002
683.200012,-661.728027,-117.120003
698.815979,-751.520020,-132.735992
700.768005,-527.039978,-162.016006
679.296021,-201.056000,-195.199997
655.872009,17.568001,-222.528000
663.679993,54.655998,-253.759995
708.575989,-48.799999,-281.088013
767.135986,-165.919998,-306.463989
538.752014,-468.480011,-284.992004
620.736023,-571.935974,-292.799988
628.544006,-298.656006,-271.328003
716.383972,72.223999,-257.664001
712.479980,269.376007,-218.623993
845.216003,281.088013,-203.007996
864.736023,-44.896000,-183.488007
827.648010,-577.791992,-181.535995
868.640015,-841.312012,-203.007996
872.544006,-609.023987,-238.143997
858.880005,-105.407997,-277.183990
870.591980,374.783997,-306.463989
874.495972,579.744019,-310.368011
823.744019,366.976013,-345.503998
821.791992,-50.751999,-359.167999
817.888000,-374.783997,-372.832001
837.408020,-448.959991,-384.544006
849.119995,-249.856003,-388.447998
851.072021,42.944000,-390.399994
862.783997,257.664001,-400.160004
833.504028,292.799988,-415.776001
858.880005,203.007996,-441.152008
882.304016,44.896000,-460.671997
903.776001,-119.071999,-454.816010
907.679993,-167.871994,-464.575989
907.679993,-27.327999,-484.096008
938.911987,318.175995,-458.720001
950.624023,757.375977,-374.783997
933.056030,874.495972,-288.895996
958.432007,550.463989,-277.183990
1032.608032,-31.232000,-324.032013
1056.031982,-691.007996,-366.976013
1022.848022,-1382.015991,-368.928009
884.255981,-1397.631958,-351.359985
921.343994,-337.696014,-382.592010
854.976013,1003.328003,-437.247986
730.047974,1698.239990,-482.144012
829.599976,1545.984009,-546.559998
835.455994,636.351990,-581.695984
938.911987,-610.976013,-644.159973
1003.328003,-1389.823975,-704.671997
1104.832031,-1280.511963,-802.271973
1091.167969,-421.631989,-866.687988
1052.128052,513.375977,-913.536011
1046.271973,958.432007,-977.952026
1108.735962,1044.319946,-1044.319946
1194.624023,1173.151978,-1083.359985
958.432007,1280.511963,-972.096008
991.616028,1001.375977,-886.208008
938.911987,304.511993,-872.544006
1005.280029,-505.567993,-849.119995
913.536011,-849.119995,-769.088013
1128.255981,-626.591980,-718.335999
1165.343994,-134.688004,-622.687988
1141.920044,277.183990,-532.895996
1087.264038,495.808014,-468.480011
1167.296021,552.416016,-452.864014
1225.855957,464.575989,-480.191986
1370.303955,302.559998,-556.320007
1428.864014,-33.183998,-591.455994
1356.640015,-458.720001,-476.287994
1280.511963,-281.088013,-218.623993
1212.192017,152.255997,15.616000
1251.232056,491.903992,117.120003
1300.031982,632.447998,150.304001
1266.848022,575.840027,216.671997
1262.943970,359.167999,218.623993
1276.608032,81.984001,165.919998
1374.208008,-91.744003,54.655998
1383.968018,-130.783997,-40.992001
1504.991943,224.479996,-140.544006
1471.807983,903.776001,-117.120003
1610.400024,1596.735962,-74.176003
1510.848022,1909.056030,25.375999
1081.407959,1686.527954,191.296005
1276.608032,1192.671997,187.391998
1290.271973,470.432007,150.304001
1393.728027,-15.616000,42.944000
1352.735962,58.560001,-39.040001
1272.703979,513.375977,-91.744003
1325.407959,956.479980,-156.160004
1366.400024,1108.735962,-234.240005
1385.920044,931.104004,-320.127991
1364.447998,505.567993,-355.264008
1329.312012,154.207993,-378.687988
1303.936035,-70.272003,-427.488007
1253.183960,-68.320000,-448.959991
1335.167969,103.456001,-488.000000
1440.576050,294.752014,-484.096008
1477.663940,203.007996,-400.160004
1395.680054,17.568001,-234.240005
1323.456055,138.591995,-64.416000
1210.239990,542.656006,48.799999
1243.423950,970.143982,78.080002
1227.807983,1307.839966,83.935997
1210.239990,1231.712036,48.799999
1190.719971,505.567993,-19.520000
1307.839966,-388.447998,-136.639999
1397.631958,-976.000000,-259.615997
1218.047974,-812.031982,-308.415985
1257.088013,-72.223999,-365.023987
1237.567993,689.056030,-409.920013
1220.000000,1044.319946,-472.384003
1177.056030,921.343994,-511.424011
1301.984009,462.623993,-583.648010
1136.063965,-126.879997,-571.935974
1245.375977,-556.320007,-622.687988
1220.000000,-548.512024,-610.976013
1180.959961,-158.112000,-624.640015
1126.303955,251.807999,-614.880005
1134.112061,460.671997,-612.927979
1175.104004,435.295990,-616.831970
1159.488037,247.904007,-603.168030
1112.640015,-160.063995,-577.791992
1149.728027,-308.415985,-534.848022
1221.952026,113.216003,-407.967987
1139.968018,571.935974,-238.143997
1134.112061,632.447998,-136.639999
1114.592041,384.544006,-7.808000
1319.552002,-121.024002,226.432007
1655.296021,-714.432007,769.088013
2139.392090,-1075.552002,1624.063965
2699.615967,-954.528015,2617.632080
3296.927979,-622.687988,3429.664062
3921.568115,-431.391998,3816.159912
4319.775879,-333.791992,3734.176025
4056.256104,-130.783997,3283.263916
3638.528076,183.488007,2342.399902
3162.239990,571.935974,1421.056030
2672.288086,724.192017,831.552002
2348.256104,687.104004,486.048004
1953.952026,624.640015,271.328003
1551.839966,462.623993,23.424000
1182.911987,-665.632019,-304.511993
1016.992004,-1462.047974,-755.424011
696.864014,-1171.199951,-1237.567993
404.063995,-349.407990,-1600.640015
277.183990,429.440002,-1754.848022
308.415985,769.088013,-1647.488037
474.335999,480.191986,-1329.312012
700.768005,66.367996,-927.200012
892.064026,-95.648003,-648.064026
1054.079956,173.727997,-464.575989
1208.287964,382.592010,-259.615997
1413.248047,357.216003,-13.664000
1604.543945,281.088013,191.296005
1711.904053,271.328003,322.079987
1762.656006,314.272003,308.415985
1756.800049,335.743988,245.951996
1708.000000,372.832001,187.391998
1668.959961,396.256012,89.792000
1614.303955,476.287994,9.760000
1659.199951,540.703979,-72.223999
1606.495972,599.263977,-56.608002
1575.264038,644.159973,-101.503998
1528.416016,696.864014,-97.599998
1508.895996,849.119995,-93.695999
1493.280029,888.159973,-50.751999
1405.439941,823.744019,11.712000
1065.791992,275.231995,27.327999
1046.271973,-1122.400024,-390.399994
765.184021,-1893.439941,-966.239990
515.328003,-1909.056030,-1438.624023
259.615997,-1684.576050,-1585.024048
259.615997,-1626.015991,-1370.303955
357.216003,-1339.072021,-977.952026
488.000000,-384.544006,-694.911987
620.736023,562.176025,-577.791992
794.463989,860.831970,-499.712006
1026.751953,886.208008,-394.303986
1149.728027,942.815979,-257.664001
1255.135986,936.960022,-189.343994
1327.359985,860.831970,-132.735992
1397.631958,718.335999,-109.311996
1270.751953,646.112000,-58.560001
1407.391968,523.135986,-156.160004
1153.631958,212.768005,-220.576004
1327.359985,-181.535995,-482.144012
1124.352051,-650.015991,-609.023987
1026.751953,-874.495972,-745.664001
808.127991,-923.296021,-849.119995
726.143982,-710.528015,-948.671997
708.575989,-376.735992,-890.112000
780.799988,5.856000,-755.424011
856.927979,361.119995,-646.112000
931.104004,624.640015,-546.559998
1026.751953,603.168030,-447.007996
1409.343994,694.911987,-509.471985
1608.447998,618.783997,-419.679993
1575.264038,294.752014,-191.296005
1536.223999,101.503998,-97.599998
1348.832031,3.904000,-214.720001
1307.839966,-183.488007,-322.079987
1231.712036,-439.200012,-409.920013
1079.456055,-562.176025,-431.391998
899.872009,-581.695984,-556.320007
927.200012,-251.807999,-675.392029
954.528015,-158.112000,-640.255981
1020.895996,-54.655998,-595.359985
1097.024048,68.320000,-528.992004
997.471985,46.848000,-370.880005
1028.703979,-5.856000,-368.928009
1179.008057,-80.031998,-519.231995
1208.287964,56.608002,-624.640015
1186.816040,78.080002,-583.648010
1270.751953,11.712000,-556.320007
1268.800049,80.031998,-591.455994
1190.719971,156.160004,-568.031982
1138.015991,140.544006,-499.712006
1112.640015,54.655998,-439.200012
1085.312012,60.512001,-437.247986
1159.488037,105.407997,-499.712006
1139.968018,134.688004,-513.375977
1134.112061,212.768005,-515.328003
1173.151978,335.743988,-505.567993
1167.296021,439.200012,-482.144012
1151.680054,509.471985,-456.768005
1204.384033,548.512024,-501.664001
1167.296021,532.895996,-552.416016
1147.776001,456.768005,-528.992004
1147.776001,357.216003,-536.799988
1134.112061,267.424011,-527.039978
1155.583984,171.776001,-554.367981
1138.015991,101.503998,-585.599976
1141.920044,50.751999,-581.695984
1143.871948,-21.472000,-534.848022
1153.631958,-35.136002,-536.799988
1159.488037,3.904000,-589.504028
1179.008057,-35.136002,-493.855988
1198.527954,-48.799999,-439.200012
1225.855957,-15.616000,-417.727997
1251.232056,15.616000,-486.048004
1251.232056,60.512001,-515.328003
1268.800049,142.496002,-550.463989
1327.359985,216.671997,-696.864014
1342.975952,162.016006,-728.096008
1360.543945,189.343994,-808.127991
870.591980,528.992004,-714.432007
-136.639999,308.415985,-374.783997
97.599998,158.112000,-359.167999
607.072021,-265.471985,-568.031982
821.791992,-704.671997,-839.359985
1173.151978,-993.567993,-1100.927979
933.056030,-380.640015,-1089.215942
804.223999,361.119995,-921.343994
1048.223999,-68.320000,-534.848022
1253.183960,-519.231995,-193.248001
1264.895996,-673.440002,-56.608002
1270.751953,-780.799988,-144.447998
1128.255981,-730.047974,-242.048004
1132.160034,-577.791992,-464.575989
1116.543945,-503.615997,-628.544006
1116.543945,-425.536011,-747.616028
1036.511963,-286.944000,-724.192017
837.408020,-122.975998,-587.552002
1134.112061,48.799999,-599.263977
1112.640015,191.296005,-462.623993
1196.576050,300.608002,-398.208008
1260.991943,519.231995,-388.447998
1241.472046,704.671997,-378.687988
1278.560059,706.624023,-402.112000
1180.959961,718.335999,-386.496002
1165.343994,815.935974,-341.600006
1186.816040,946.719971,-333.791992
1212.192017,1126.303955,-324.032013
1167.296021,1179.008057,-290.847992
1151.680054,1001.375977,-359.167999
1077.504028,675.392029,-386.496002
1016.992004,491.903992,-564.127991
964.288025,310.368011,-751.520020
897.919983,224.479996,-882.304016
862.783997,167.871994,-923.296021
870.591980,122.975998,-856.927979
864.736023,35.136002,-772.992004
854.976013,21.472000,-733.952026
929.151978,-193.248001,-716.383972
870.591980,-687.104004,-581.695984
870.591980,-1015.039978,-538.752014
819.840027,-1282.463989,-585.599976
829.599976,-1475.712036,-620.736023
806.176025,-1467.904053,-587.552002
864.736023,-1401.536011,-548.512024
895.968018,-1177.056030,-470.432007
954.528015,-751.520020,-415.776001
977.952026,-220.576004,-421.631989
970.143982,199.104004,-404.063995
974.047974,513.375977,-228.384003
1030.656006,874.495972,-146.399994
1089.215942,1530.368042,-105.407997
1214.144043,1991.040039,-50.751999
1286.368042,2053.503906,33.183998
1317.599976,1830.975952,-70.272003
1233.663940,1378.112061,-286.944000
1091.167969,831.552002,-550.463989
913.536011,228.384003,-696.864014
772.992004,-224.479996,-780.799988
644.159973,-571.935974,-751.520020
573.888000,-1663.104004,-657.823975
694.911987,-2139.392090,-710.528015
706.624023,-1649.439941,-702.719971
726.143982,-800.320007,-532.895996
813.984009,-15.616000,-208.863998
933.056030,224.479996,-7.808000
991.616028,273.279999,109.311996
1015.039978,394.303986,11.712000
966.239990,538.752014,-187.391998
911.583984,610.976013,-370.880005
888.159973,646.112000,-513.375977
839.359985,478.239990,-454.816010
819.840027,39.040001,-277.183990
882.304016,-505.567993,-214.720001
862.783997,-821.791992,-216.671997
878.400024,-790.559998,-263.519989
905.728027,-691.007996,-273.279999
907.679993,-468.480011,-265.471985
897.919983,-257.664001,-300.608002
892.064026,-242.048004,-275.231995
854.976013,-167.871994,-154.207993
845.216003,85.888000,-107.360001
864.736023,308.415985,-109.311996
839.359985,476.287994,-72.223999
890.112000,511.424011,-31.232000
942.815979,437.247986,-31.232000
991.616028,279.135986,1.952000
1024.800049,40.992001,-25.375999
1079.456055,-216.671997,-134.688004
1091.167969,-247.904007,-173.727997
1089.215942,-206.912003,-160.063995
1106.784058,-203.007996,-119.071999
1110.687988,-228.384003,-54.655998
1106.784058,-224.479996,-58.560001
1114.592041,-181.535995,-78.080002
1112.640015,-162.016006,-97.599998
1116.543945,-80.031998,-177.632004
1110.687988,-46.848000,-208.863998
1122.400024,35.136002,-242.048004
1196.576050,58.560001,-261.567993
1208.287964,72.223999,-197.151993
1159.488037,27.327999,-128.832001
1110.687988,81.984001,-85.888000
1128.255981,40.992001,-158.112000
1108.735962,-162.016006,-251.807999
1106.784058,-27.327999,-327.936005
1151.680054,62.464001,-366.976013
1192.671997,93.695999,-382.592010
1212.192017,128.832001,-419.679993
1169.248047,210.815994,-435.295990
1165.343994,162.016006,-527.039978
1120.447998,197.151993,-568.031982
1057.984009,244.000000,-583.648010
991.616028,216.671997,-536.799988
977.952026,228.384003,-528.992004
991.616028,214.720001,-575.840027
995.520020,201.056000,-610.976013
981.856018,163.968002,-665.632019
952.575989,179.584000,-708.575989
913.536011,173.727997,-675.392029
921.343994,162.016006,-636.351990
938.911987,171.776001,-646.112000
938.911987,142.496002,-665.632019
929.151978,93.695999,-683.200012
933.056030,103.456001,-689.056030
948.671997,117.120003,-675.392029
940.864014,124.928001,-650.015991
938.911987,138.591995,-679.296021
913.536011,162.016006,-735.903992
894.015991,152.255997,-767.135986
888.159973,144.447998,-780.799988
907.679993,140.544006,-743.711975
944.768005,126.879997,-710.528015
981.856018,103.456001,-685.151978
987.711975,62.464001,-706.624023
952.575989,72.223999,-716.383972
919.392029,101.503998,-722.239990
911.583984,115.167999,-720.288025
938.911987,109.311996,-737.856018
960.383972,115.167999,-745.664001
968.192017,109.311996,-720.288025
960.383972,117.120003,-681.247986
976.000000,128.832001,-659.776001
968.192017,109.311996,-624.640015
983.807983,103.456001,-622.687988
985.760010,78.080002,-640.255981
983.807983,66.367996,-626.591980
981.856018,107.360001,-624.640015
985.760010,128.832001,-644.159973
964.288025,138.591995,-628.544006
956.479980,150.304001,-573.888000
974.047974,150.304001,-538.752014
991.616028,101.503998,-560.223999
991.616028,85.888000,-566.080017
993.567993,56.608002,-562.176025
1020.895996,70.272003,-536.799988
1040.416016,80.031998,-507.519989
1034.560059,97.599998,-484.096008
1030.656006,89.792000,-491.903992
1028.703979,119.071999,-505.567993
995.520020,150.304001,-484.096008
979.903992,136.639999,-445.056000
1015.039978,138.591995,-472.384003
1028.703979,107.360001,-503.615997
1030.656006,83.935997,-491.903992
1048.223999,74.176003,-476.287994
1056.031982,87.839996,-484.096008
1059.936035,66.367996,-464.575989
1038.463989,78.080002,-466.528015
1042.368042,83.935997,-488.000000
1048.223999,62.464001,-501.664001
1050.176025,33.183998,-505.567993
1044.319946,-29.280001,-509.471985
1032.608032,-58.560001,-527.039978
1013.088013,-31.232000,-540.703979
1003.328003,25.375999,-519.231995
1022.848022,111.264000,-489.951996
1040.416016,175.679993,-488.000000
1024.800049,208.863998,-499.712006
1020.895996,183.488007,-513.375977
1013.088013,148.352005,-532.895996
1001.375977,76.127998,-536.799988
983.807983,27.327999,-534.848022
981.856018,15.616000,-552.416016
964.288025,13.664000,-562.176025
964.288025,19.520000,-564.127991
964.288025,40.992001,-575.840027
950.624023,42.944000,-577.791992
946.719971,35.136002,-581.695984
935.007996,23.424000,-579.744019
938.911987,21.472000,-583.648010
927.200012,11.712000,-585.599976
919.392029,13.664000,-591.455994
915.487976,25.375999,-599.263977
901.823975,25.375999,-610.976013
899.872009,27.327999,-614.880005
899.872009,35.136002,-605.119995
899.872009,29.280001,-609.023987
888.159973,29.280001,-599.263977
890.112000,21.472000,-614.880005
882.304016,27.327999,-612.927979
876.447998,39.040001,-605.119995
880.351990,46.848000,-599.263977
878.400024,52.703999,-603.168030
862.783997,56.608002,-618.783997
870.591980,42.944000,-618.783997
874.495972,56.608002,-595.359985
868.640015,52.703999,-597.312012
872.544006,44.896000,-599.263977
870.591980,56.608002,-589.504028
856.927979,58.560001,-595.359985
856.927979,56.608002,-597.312012
858.880005,60.512001,-583.648010
866.687988,64.416000,-591.455994
864.736023,68.320000,-585.599976
872.544006,50.751999,-581.695984
870.591980,42.944000,-587.552002
866.687988,50.751999,-579.744019
854.976013,60.512001,-585.599976
845.216003,50.751999,-605.119995
853.023987,68.320000,-601.216003
856.927979,48.799999,-603.168030
860.831970,52.703999,-605.119995
860.831970,46.848000,-599.263977
866.687988,37.088001,-603.168030
864.736023,33.183998,-597.312012
872.544006,35.136002,-603.168030
874.495972,44.896000,-607.072021
876.447998,50.751999,-591.455994
872.544006,58.560001,-595.359985
870.591980,37.088001,-607.072021
868.640015,25.375999,-607.072021
884.255981,42.944000,-614.880005
882.304016,52.703999,-605.119995
882.304016,39.040001,-591.455994
878.400024,70.272003,-607.072021
878.400024,46.848000,-601.216003
870.591980,48.799999,-616.831970
884.255981,42.944000,-612.927979
888.159973,60.512001,-601.216003
903.776001,56.608002,-593.408020
911.583984,66.367996,-587.552002
911.583984,48.799999,-585.599976
901.823975,62.464001,-597.312012
913.536011,76.127998,-595.359985
905.728027,83.935997,-575.840027
913.536011,78.080002,-571.935974
915.487976,76.127998,-575.840027
905.728027,58.560001,-571.935974
927.200012,78.080002,-577.791992
917.440002,72.223999,-556.320007
925.247986,56.608002,-558.271973
923.296021,74.176003,-568.031982
921.343994,66.367996,-556.320007
921.343994,78.080002,-546.559998
921.343994,80.031998,-562.176025
921.343994,54.655998,-558.271973
927.200012,60.512001,-558.271973
942.815979,76.127998,-552.416016
936.960022,70.272003,-528.992004
927.200012,74.176003,-550.463989
919.392029,72.223999,-558.271973
917.440002,62.464001,-562.176025
913.536011,46.848000,-560.223999
925.247986,78.080002,-550.463989
936.960022,76.127998,-532.895996
927.200012,83.935997,-536.799988
905.728027,83.935997,-548.512024
894.015991,68.320000,-571.935974
886.208008,54.655998,-571.935974
903.776001,68.320000,-554.367981
919.392029,83.935997,-542.656006
913.536011,74.176003,-538.752014
903.776001,74.176003,-538.752014
888.159973,64.416000,-560.223999
882.304016,60.512001,-575.840027
872.544006,70.272003,-573.888000
880.351990,80.031998,-560.223999
882.304016,83.935997,-550.463989
886.208008,52.703999,-550.463989
884.255981,56.608002,-569.984009
884.255981,60.512001,-556.320007
884.255981,58.560001,-562.176025
872.544006,70.272003,-556.320007
872.544006,76.127998,-556.320007
876.447998,58.560001,-560.223999
858.880005,62.464001,-556.320007
874.495972,56.608002,-550.463989
876.447998,60.512001,-560.223999
870.591980,58.560001,-558.271973
866.687988,56.608002,-548.512024
876.447998,66.367996,-560.223999
882.304016,58.560001,-546.559998
874.495972,56.608002,-538.752014
862.783997,70.272003,-538.752014
862.783997,60.512001,-544.607971
862.783997,56.608002,-546.559998
868.640015,58.560001,-542.656006
870.591980,58.560001,-528.992004
870.591980,60.512001,-532.895996
872.544006,54.655998,-521.184021
866.687988,42.944000,-530.943970
854.976013,54.655998,-542.656006
858.880005,58.560001,-525.088013
868.640015,60.512001,-515.328003
872.544006,56.608002,-521.184021
866.687988,50.751999,-519.231995
868.640015,52.703999,-532.895996
866.687988,56.608002,-528.992004
862.783997,56.608002,-519.231995
864.736023,54.655998,-528.992004
853.023987,56.608002,-517.280029
856.927979,46.848000,-517.280029
851.072021,42.944000,-532.895996
847.168030,37.088001,-525.088013
856.927979,54.655998,-519.231995
854.976013,44.896000,-519.231995
853.023987,39.040001,-527.039978
847.168030,40.992001,-523.135986
839.359985,33.183998,-528.992004
845.216003,33.183998,-521.184021
841.312012,44.896000,-525.088013
839.359985,37.088001,-521.184021
837.408020,25.375999,-527.039978
835.455994,40.992001,-527.039978
835.455994,40.992001,-523.135986
835.455994,39.040001,-523.135986
831.552002,25.375999,-519.231995
835.455994,37.088001,-515.328003
837.408020,29.280001,-519.231995
835.455994,37.088001,-523.135986
841.312012,31.232000,-521.184021
837.408020,29.280001,-515.328003
845.216003,19.520000,-513.375977
841.312012,29.280001,-513.375977
839.359985,33.183998,-507.519989
831.552002,29.280001,-515.328003
825.695984,21.472000,-515.328003
829.599976,33.183998,-511.424011
833.504028,33.183998,-507.519989
835.455994,33.183998,-497.760010
839.359985,33.183998,-497.760010
841.312012,40.992001,-503.615997
833.504028,31.232000,-505.567993
837.408020,35.136002,-499.712006
835.455994,39.040001,-493.855988
829.599976,31.232000,-491.903992
835.455994,35.136002,-489.951996
827.648010,37.088001,-493.855988
827.648010,37.088001,-499.712006
827.648010,29.280001,-499.712006
829.599976,40.992001,-493.855988
819.840027,33.183998,-493.855988
823.744019,39.040001,-503.615997
819.840027,37.088001,-503.615997
821.791992,31.232000,-505.567993
810.080017,19.520000,-507.519989
804.223999,33.183998,-499.712006
802.271973,23.424000,-497.760010
808.127991,27.327999,-503.615997
806.176025,27.327999,-495.808014
808.127991,21.472000,-497.760010
806.176025,11.712000,-499.712006
812.031982,19.520000,-501.664001
804.223999,21.472000,-497.760010
806.176025,11.712000,-503.615997
810.080017,17.568001,-493.855988
808.127991,11.712000,-513.375977
794.463989,9.760000,-515.328003
790.559998,15.616000,-515.328003
788.607971,17.568001,-507.519989
774.943970,15.616000,-503.615997
786.656006,19.520000,-501.664001
786.656006,17.568001,-501.664001
780.799988,3.904000,-497.760010
778.848022,9.760000,-511.424011
784.703979,13.664000,-507.519989
786.656006,11.712000,-503.615997
786.656006,9.760000,-497.760010
780.799988,3.904000,-493.855988
788.607971,9.760000,-488.000000
788.607971,-1.952000,-491.903992
780.799988,-3.904000,-491.903992
778.848022,-5.856000,-484.096008
784.703979,-7.808000,-489.951996
778.848022,0.000000,-489.951996
778.848022,3.904000,-495.808014
772.992004,-3.904000,-495.808014
778.848022,5.856000,-486.048004
778.848022,5.856000,-491.903992
774.943970,0.000000,-495.808014
774.943970,13.664000,-493.855988
765.184021,9.760000,-484.096008
765.184021,9.760000,-489.951996
761.280029,5.856000,-501.664001
767.135986,-7.808000,-507.519989
771.039978,-3.904000,-493.855988
772.992004,3.904000,-501.664001
771.039978,-5.856000,-501.664001
771.039978,-1.952000,-509.471985
774.943970,0.000000,-517.280029
763.231995,3.904000,-515.328003
767.135986,-1.952000,-513.375977
767.135986,1.952000,-519.231995
763.231995,21.472000,-527.039978
747.616028,21.472000,-532.895996
739.807983,17.568001,-554.367981
735.903992,13.664000,-564.127991
735.903992,11.712000,-569.984009
739.807983,1.952000,-560.223999
749.567993,7.808000,-560.223999
757.375977,3.904000,-573.888000
761.280029,-3.904000,-581.695984
753.471985,-3.904000,-587.552002
761.280029,-5.856000,-599.263977
757.375977,-7.808000,-605.119995
772.992004,-9.760000,-597.312012
782.752014,-9.760000,-603.168030
788.607971,-11.712000,-605.119995
792.512024,-1.952000,-605.119995
800.320007,-7.808000,-607.072021
794.463989,11.712000,-620.736023
790.559998,11.712000,-620.736023
776.895996,17.568001,-618.783997
774.943970,25.375999,-640.255981
776.895996,19.520000,-630.495972
794.463989,19.520000,-622.687988
800.320007,33.183998,-612.927979
812.031982,31.232000,-609.023987
815.935974,29.280001,-618.783997
819.840027,29.280001,-616.831970
825.695984,40.992001,-609.023987
833.504028,37.088001,-618.783997
831.552002,33.183998,-612.927979
835.455994,40.992001,-603.168030
845.216003,39.040001,-610.976013
847.168030,42.944000,-609.023987
851.072021,39.040001,-603.168030
868.640015,52.703999,-597.312012
872.544006,52.703999,-593.408020
884.255981,64.416000,-577.791992
874.495972,60.512001,-579.744019
880.351990,58.560001,-575.840027
880.351990,68.320000,-575.840027
888.159973,72.223999,-577.791992
892.064026,80.031998,-560.223999
886.208008,74.176003,-564.127991
884.255981,68.320000,-560.223999
894.015991,66.367996,-562.176025
897.919983,64.416000,-552.416016
913.536011,60.512001,-544.607971
919.392029,70.272003,-534.848022
919.392029,68.320000,-542.656006
909.632019,64.416000,-534.848022
911.583984,56.608002,-542.656006
907.679993,54.655998,-532.895996
923.296021,46.848000,-530.943970
913.536011,56.608002,-525.088013
925.247986,56.608002,-515.328003
923.296021,56.608002,-515.328003
919.392029,56.608002,-511.424011
911.583984,54.655998,-523.135986
897.919983,48.799999,-525.088013
899.872009,52.703999,-525.088013
899.872009,50.751999,-515.328003
903.776001,44.896000,-513.375977
895.968018,50.751999,-503.615997
899.872009,44.896000,-511.424011
895.968018,37.088001,-513.375977
897.919983,48.799999,-513.375977
888.159973,40.992001,-515.328003
878.400024,46.848000,-507.519989
878.400024,37.088001,-513.375977
866.687988,33.183998,-509.471985
862.783997,37.088001,-501.664001
864.736023,23.424000,-501.664001
866.687988,33.183998,-503.615997
862.783997,40.992001,-505.567993
868.640015,40.992001,-501.664001
866.687988,40.992001,-501.664001
856.927979,42.944000,-513.375977
843.263977,39.040001,-503.615997
841.312012,42.944000,-503.615997
841.312012,35.136002,-501.664001
837.408020,29.280001,-503.615997
833.504028,31.232000,-501.664001
823.744019,25.375999,-499.712006
819.840027,35.136002,-511.424011
813.984009,37.088001,-503.615997
813.984009,35.136002,-497.760010
810.080017,31.232000,-489.951996
804.223999,21.472000,-499.712006
794.463989,15.616000,-493.855988
794.463989,19.520000,-499.712006
788.607971,17.568001,-501.664001
792.512024,25.375999,-491.903992
794.463989,31.232000,-499.712006
794.463989,19.520000,-493.855988
790.559998,15.616000,-486.048004
782.752014,17.568001,-486.048004
774.943970,15.616000,-499.712006
761.280029,17.568001,-497.760010
774.943970,3.904000,-493.855988
767.135986,15.616000,-499.712006
763.231995,11.712000,-491.903992
761.280029,13.664000,-478.239990
757.375977,7.808000,-478.239990
753.471985,3.904000,-488.000000
757.375977,3.904000,-484.096008
749.567993,3.904000,-482.144012
753.471985,7.808000,-486.048004
747.616028,5.856000,-484.096008
745.664001,0.000000,-486.048004
751.520020,1.952000,-466.528015
749.567993,-3.904000,-486.048004
743.711975,-11.712000,-482.144012
743.711975,-5.856000,-476.287994
733.952026,-3.904000,-472.384003
737.856018,-9.760000,-470.432007
733.952026,-5.856000,-472.384003
726.143982,-7.808000,-482.144012
726.143982,-1.952000,-480.191986
718.335999,-1.952000,-482.144012
724.192017,-13.664000,-478.239990
726.143982,-13.664000,-470.432007
730.047974,-11.712000,-466.528015
726.143982,-13.664000,-462.623993
728.096008,-19.520000,-466.528015
720.288025,-25.375999,-474.335999
722.239990,-29.280001,-478.239990
726.143982,-29.280001,-474.335999
724.192017,-23.424000,-470.432007
720.288025,-27.327999,-468.480011
724.192017,-25.375999,-466.528015
732.000000,-27.327999,-462.623993
735.903992,-23.424000,-468.480011
732.000000,-23.424000,-472.384003
722.239990,-25.375999,-474.335999
720.288025,-27.327999,-466.528015
735.903992,-21.472000,-468.480011
730.047974,-27.327999,-472.384003
732.000000,-40.992001,-484.096008
739.807983,-15.616000,-470.432007
741.760010,-21.472000,-454.816010
745.664001,-23.424000,-460.671997
735.903992,-35.136002,-458.720001
714.432007,-23.424000,-480.191986
724.192017,-23.424000,-488.000000
720.288025,-9.760000,-478.239990
712.479980,-13.664000,-480.191986
708.575989,-23.424000,-486.048004
724.192017,-37.088001,-478.239990
747.616028,-35.136002,-466.528015
753.471985,-35.136002,-462.623993
759.328003,-21.472000,-464.575989
747.616028,-21.472000,-468.480011
739.807983,-35.136002,-478.239990
743.711975,-31.232000,-478.239990
743.711975,-37.088001,-484.096008
747.616028,-35.136002,-478.239990
757.375977,-39.040001,-476.287994
753.471985,-50.751999,-486.048004
761.280029,-39.040001,-474.335999
767.135986,-33.183998,-474.335999
763.231995,-37.088001,-474.335999
761.280029,-39.040001,-482.144012
757.375977,-31.232000,-486.048004
767.135986,-39.040001,-482.144012
778.848022,-25.375999,-478.239990
782.752014,-33.183998,-486.048004
776.895996,-44.896000,-486.048004
786.656006,-46.848000,-476.287994
784.703979,-48.799999,-480.191986
782.752014,-40.992001,-484.096008
786.656006,-29.280001,-484.096008
794.463989,-33.183998,-493.855988
794.463989,-50.751999,-491.903992
794.463989,-46.848000,-488.000000
794.463989,-56.608002,-480.191986
790.559998,-52.703999,-484.096008
798.367981,-64.416000,-495.808014
802.271973,-70.272003,-489.951996
794.463989,-58.560001,-484.096008
798.367981,-52.703999,-468.480011
796.416016,-62.464001,-474.335999
792.512024,-56.608002,-468.480011
798.367981,-62.464001,-478.239990
788.607971,-48.799999,-472.384003
788.607971,-42.944000,-478.239990
788.607971,-46.848000,-470.432007
792.512024,-39.040001,-480.191986
796.416016,-50.751999,-468.480011
798.367981,-48.799999,-470.432007
792.512024,-56.608002,-472.384003
792.512024,-56.608002,-478.239990
788.607971,-66.367996,-480.191986
