ACC_X,ACC_Y,ACC_Z
575.840027,407.967987,708.575989
579.744019,406.015991,708.575989
571.935974,402.112000,712.479980
569.984009,411.872009,710.528015
571.935974,402.112000,712.479980
568.031982,411.872009,702.719971
566.080017,411.872009,702.719971
575.840027,409.920013,708.575989
573.888000,402.112000,706.624023
575.840027,406.015991,712.479980
573.888000,404.063995,708.575989
577.791992,404.063995,712.479980
579.744019,398.208008,706.624023
573.888000,413.824005,710.528015
577.791992,402.112000,706.624023
566.080017,406.015991,706.624023
573.888000,400.160004,706.624023
575.840027,402.112000,700.768005
579.744019,402.112000,706.624023
577.791992,400.160004,712.479980
577.791992,407.967987,706.624023
583.648010,404.063995,708.575989
577.791992,402.112000,714.432007
573.888000,398.208008,706.624023
573.888000,394.303986,710.528015
573.888000,398.208008,712.479980
579.744019,400.160004,706.624023
583.648010,396.256012,710.528015
583.648010,394.303986,712.479980
575.840027,402.112000,712.479980
579.744019,398.208008,706.624023
583.648010,407.967987,708.575989
575.840027,404.063995,712.479980
577.791992,404.063995,712.479980
577.791992,398.208008,708.575989
571.935974,402.112000,714.432007
577.791992,400.160004,710.528015
577.791992,390.399994,702.719971
583.648010,402.112000,716.383972
583.648010,404.063995,712.479980
585.599976,404.063995,714.432007
571.935974,406.015991,710.528015
579.744019,409.920013,712.479980
583.648010,406.015991,716.383972
579.744019,409.920013,706.624023
571.935974,400.160004,712.479980
571.935974,402.112000,712.479980
569.984009,394.303986,710.528015
575.840027,404.063995,712.479980
571.935974,407.967987,698.815979
577.791992,407.967987,708.575989
571.935974,394.303986,704.671997
573.888000,398.208008,698.815979
579.744019,404.063995,712.479980
577.791992,400.160004,704.671997
573.888000,404.063995,706.624023
573.888000,404.063995,716.383972
566.080017,402.112000,710.528015
577.791992,404.063995,704.671997
568.031982,407.967987,698.815979
566.080017,406.015991,712.479980
571.935974,398.208008,706.624023
566.080017,398.208008,708.575989
566.080017,404.063995,712.479980
571.935974,396.256012,708.575989
569.984009,402.112000,698.815979
571.935974,407.967987,704.671997
569.984009,406.015991,714.432007
575.840027,406.015991,712.479980
573.888000,409.920013,712.479980
568.031982,400.160004,708.575989
577.791992,402.112000,718.335999
568.031982,406.015991,702.719971
566.080017,394.303986,714.432007
566.080017,394.303986,712.479980
569.984009,415.776001,710.528015
566.080017,404.063995,712.479980
566.080017,398.208008,710.528015
569.984009,407.967987,704.671997
571.935974,406.015991,712.479980
569.984009,398.208008,704.671997
571.935974,409.920013,702.719971
560.223999,409.920013,712.479980
568.031982,413.824005,710.528015
564.127991,417.727997,708.575989
562.176025,413.824005,712.479980
573.888000,413.824005,708.575989
562.176025,406.015991,700.768005
569.984009,407.967987,704.671997
566.080017,402.112000,710.528015
566.080017,407.967987,710.528015
566.080017,417.727997,710.528015
571.935974,419.679993,714.432007
569.984009,419.679993,710.528015
579.744019,409.920013,706.624023
569.984009,407.967987,702.719971
571.935974,415.776001,710.528015
573.888000,413.824005,708.575989
568.031982,421.631989,706.624023
569.984009,417.727997,708.575989
562.176025,415.776001,706.624023
569.984009,413.824005,710.528015
571.935974,413.824005,716.383972
575.840027,413.824005,714.432007
573.888000,415.776001,702.719971
571.935974,415.776001,708.575989
569.984009,409.920013,704.671997
562.176025,415.776001,712.479980
566.080017,413.824005,712.479980
573.888000,406.015991,712.479980
569.984009,413.824005,714.432007
573.888000,413.824005,710.528015
575.840027,413.824005,704.671997
566.080017,419.679993,708.575989
568.031982,417.727997,712.479980
568.031982,419.679993,710.528015
571.935974,411.872009,706.624023
569.984009,423.584015,716.383972
569.984009,419.679993,708.575989
573.888000,417.727997,706.624023
569.984009,413.824005,710.528015
568.031982,417.727997,712.479980
571.935974,411.872009,704.671997
568.031982,413.824005,710.528015
569.984009,417.727997,710.528015
573.888000,423.584015,710.528015
571.935974,411.872009,710.528015
569.984009,417.727997,710.528015
569.984009,417.727997,708.575989
569.984009,419.679993,710.528015
569.984009,413.824005,708.575989
575.840027,421.631989,708.575989
568.031982,415.776001,712.479980
568.031982,419.679993,708.575989
569.984009,409.920013,706.624023
564.127991,423.584015,706.624023
571.935974,421.631989,708.575989
579.744019,413.824005,708.575989
575.840027,417.727997,702.719971
571.935974,419.679993,708.575989
566.080017,411.872009,712.479980
573.888000,413.824005,714.432007
571.935974,425.536011,706.624023
577.791992,423.584015,710.528015
573.888000,411.872009,714.432007
571.935974,423.584015,708.575989
569.984009,411.872009,714.432007
579.744019,413.824005,710.528015
575.840027,425.536011,710.528015
566.080017,415.776001,708.575989
569.984009,425.536011,710.528015
566.080017,429.440002,706.624023
562.176025,425.536011,702.719971
571.935974,417.727997,708.575989
573.888000,413.824005,708.575989
569.984009,419.679993,710.528015
575.840027,421.631989,708.575989
571.935974,421.631989,708.575989
569.984009,419.679993,712.479980
571.935974,413.824005,708.575989
569.984009,419.679993,714.432007
569.984009,415.776001,708.575989
571.935974,417.727997,702.719971
571.935974,425.536011,710.528015
573.888000,415.776001,708.575989
568.031982,415.776001,706.624023
573.888000,425.536011,710.528015
579.744019,419.679993,712.479980
571.935974,427.488007,702.719971
569.984009,423.584015,710.528015
579.744019,423.584015,710.528015
569.984009,419.679993,708.575989
573.888000,425.536011,710.528015
568.031982,423.584015,710.528015
571.935974,431.391998,716.383972
571.935974,425.536011,712.479980
573.888000,423.584015,710.528015
571.935974,425.536011,712.479980
575.840027,433.343994,704.671997
571.935974,425.536011,706.624023
569.984009,433.343994,710.528015
575.840027,429.440002,712.479980
571.935974,421.631989,702.719971
569.984009,417.727997,722.239990
562.176025,417.727997,714.432007
566.080017,417.727997,710.528015
566.080017,431.391998,712.479980
575.840027,425.536011,710.528015
573.888000,431.391998,714.432007
569.984009,425.536011,708.575989
569.984009,431.391998,714.432007
575.840027,425.536011,720.288025
573.888000,419.679993,710.528015
569.984009,423.584015,712.479980
575.840027,429.440002,708.575989
573.888000,421.631989,714.432007
579.744019,431.391998,710.528015
571.935974,433.343994,706.624023
573.888000,431.391998,708.575989
575.840027,425.536011,706.624023
566.080017,425.536011,704.671997
569.984009,431.391998,716.383972
568.031982,427.488007,706.624023
569.984009,423.584015,710.528015
569.984009,425.536011,714.432007
579.744019,423.584015,710.528015
560.223999,425.536011,702.719971
569.984009,425.536011,708.575989
569.984009,429.440002,706.624023
569.984009,417.727997,710.528015
575.840027,431.391998,718.335999
568.031982,431.391998,720.288025
564.127991,427.488007,714.432007
569.984009,425.536011,708.575989
577.791992,421.631989,698.815979
566.080017,427.488007,708.575989
566.080017,429.440002,710.528015
571.935974,431.391998,704.671997
571.935974,423.584015,716.383972
568.031982,421.631989,706.624023
569.984009,431.391998,706.624023
564.127991,433.343994,702.719971
566.080017,441.152008,702.719971
564.127991,435.295990,706.624023
566.080017,431.391998,706.624023
569.984009,433.343994,698.815979
569.984009,433.343994,706.624023
569.984009,433.343994,706.624023
564.127991,419.679993,700.768005
566.080017,423.584015,700.768005
569.984009,427.488007,704.671997
562.176025,439.200012,708.575989
573.888000,429.440002,696.864014
573.888000,427.488007,700.768005
568.031982,437.247986,700.768005
566.080017,435.295990,710.528015
568.031982,437.247986,708.575989
575.840027,429.440002,704.671997
579.744019,431.391998,698.815979
575.840027,427.488007,704.671997
585.599976,429.440002,708.575989
581.695984,433.343994,706.624023
583.648010,427.488007,712.479980
581.695984,437.247986,708.575989
575.840027,435.295990,706.624023
573.888000,427.488007,694.911987
581.695984,433.343994,708.575989
577.791992,435.295990,706.624023
579.744019,435.295990,694.911987
581.695984,433.343994,702.719971
575.840027,427.488007,696.864014
581.695984,437.247986,710.528015
585.599976,439.200012,710.528015
585.599976,439.200012,708.575989
575.840027,435.295990,698.815979
573.888000,439.200012,698.815979
583.648010,435.295990,710.528015
581.695984,437.247986,710.528015
589.504028,443.104004,704.671997
587.552002,427.488007,712.479980
593.408020,435.295990,698.815979
593.408020,439.200012,700.768005
579.744019,425.536011,706.624023
589.504028,427.488007,710.528015
593.408020,435.295990,702.719971
589.504028,433.343994,708.575989
597.312012,437.247986,712.479980
587.552002,437.247986,702.719971
597.312012,437.247986,712.479980
597.312012,435.295990,710.528015
597.312012,437.247986,712.479980
593.408020,435.295990,708.575989
593.408020,433.343994,708.575989
593.408020,429.440002,714.432007
589.504028,417.727997,700.768005
595.359985,431.391998,720.288025
603.168030,425.536011,712.479980
599.263977,427.488007,712.479980
597.312012,433.343994,702.719971
601.216003,425.536011,710.528015
597.312012,435.295990,710.528015
603.168030,437.247986,716.383972
599.263977,441.152008,712.479980
597.312012,437.247986,712.479980
593.408020,421.631989,718.335999
595.359985,429.440002,710.528015
593.408020,433.343994,708.575989
593.408020,427.488007,706.624023
597.312012,427.488007,710.528015
593.408020,431.391998,704.671997
593.408020,435.295990,708.575989
585.599976,435.295990,710.528015
589.504028,435.295990,710.528015
591.455994,427.488007,712.479980
595.359985,431.391998,710.528015
591.455994,431.391998,720.288025
589.504028,435.295990,708.575989
593.408020,417.727997,712.479980
587.552002,427.488007,716.383972
589.504028,429.440002,710.528015
589.504028,433.343994,708.575989
589.504028,425.536011,706.624023
583.648010,425.536011,698.815979
583.648010,433.343994,710.528015
581.695984,421.631989,716.383972
577.791992,425.536011,714.432007
587.552002,419.679993,706.624023
587.552002,421.631989,714.432007
587.552002,417.727997,712.479980
579.744019,425.536011,708.575989
577.791992,419.679993,706.624023
581.695984,425.536011,702.719971
583.648010,427.488007,710.528015
579.744019,417.727997,712.479980
579.744019,421.631989,712.479980
573.888000,419.679993,714.432007
579.744019,423.584015,710.528015
569.984009,419.679993,716.383972
569.984009,423.584015,710.528015
579.744019,417.727997,710.528015
566.080017,427.488007,714.432007
568.031982,419.679993,710.528015
581.695984,415.776001,706.624023
569.984009,423.584015,710.528015
573.888000,423.584015,710.528015
569.984009,411.872009,710.528015
569.984009,413.824005,710.528015
562.176025,415.776001,706.624023
568.031982,423.584015,710.528015
558.271973,415.776001,702.719971
568.031982,423.584015,708.575989
568.031982,421.631989,706.624023
571.935974,409.920013,700.768005
568.031982,413.824005,708.575989
562.176025,421.631989,712.479980
569.984009,417.727997,710.528015
558.271973,404.063995,714.432007
562.176025,404.063995,708.575989
571.935974,415.776001,708.575989
571.935974,415.776001,708.575989
560.223999,415.776001,714.432007
566.080017,423.584015,704.671997
556.320007,411.872009,706.624023
562.176025,409.920013,712.479980
558.271973,411.872009,706.624023
554.367981,411.872009,706.624023
568.031982,409.920013,704.671997
564.127991,411.872009,694.911987
562.176025,409.920013,712.479980
556.320007,415.776001,706.624023
560.223999,406.015991,702.719971
550.463989,402.112000,704.671997
560.223999,400.160004,702.719971
566.080017,411.872009,700.768005
562.176025,407.967987,706.624023
562.176025,402.112000,708.575989
554.367981,398.208008,702.719971
560.223999,406.015991,702.719971
554.367981,404.063995,702.719971
560.223999,402.112000,710.528015
554.367981,402.112000,716.383972
560.223999,404.063995,708.575989
558.271973,400.160004,710.528015
564.127991,407.967987,710.528015
558.271973,400.160004,708.575989
562.176025,398.208008,706.624023
562.176025,394.303986,708.575989
558.271973,402.112000,698.815979
571.935974,411.872009,704.671997
566.080017,396.256012,708.575989
569.984009,398.208008,706.624023
564.127991,392.351990,704.671997
558.271973,392.351990,700.768005
562.176025,396.256012,706.624023
571.935974,394.303986,712.479980
564.127991,398.208008,710.528015
564.127991,398.208008,708.575989
571.935974,394.303986,706.624023
558.271973,402.112000,708.575989
564.127991,398.208008,710.528015
566.080017,404.063995,708.575989
571.935974,392.351990,714.432007
571.935974,394.303986,712.479980
568.031982,392.351990,708.575989
554.367981,394.303986,704.671997
568.031982,396.256012,706.624023
568.031982,392.351990,710.528015
562.176025,392.351990,716.383972
568.031982,394.303986,714.432007
566.080017,400.160004,714.432007
568.031982,392.351990,710.528015
571.935974,390.399994,702.719971
571.935974,394.303986,706.624023
573.888000,388.447998,708.575989
569.984009,388.447998,702.719971
573.888000,386.496002,710.528015
569.984009,392.351990,710.528015
577.791992,388.447998,706.624023
573.888000,382.592010,710.528015
587.552002,390.399994,712.479980
571.935974,392.351990,710.528015
579.744019,390.399994,710.528015
575.840027,390.399994,708.575989
569.984009,396.256012,706.624023
575.840027,394.303986,712.479980
568.031982,392.351990,714.432007
579.744019,392.351990,710.528015
583.648010,382.592010,706.624023
575.840027,380.640015,724.192017
573.888000,386.496002,710.528015
573.888000,382.592010,716.383972
573.888000,382.592010,716.383972
579.744019,394.303986,702.719971
573.888000,396.256012,702.719971
573.888000,390.399994,702.719971
581.695984,390.399994,706.624023
587.552002,388.447998,710.528015
577.791992,394.303986,706.624023
581.695984,392.351990,710.528015
579.744019,392.351990,716.383972
577.791992,380.640015,718.335999
581.695984,388.447998,712.479980
573.888000,392.351990,710.528015
581.695984,390.399994,706.624023
577.791992,386.496002,698.815979
573.888000,386.496002,714.432007
579.744019,392.351990,716.383972
577.791992,392.351990,710.528015
579.744019,392.351990,710.528015
587.552002,390.399994,712.479980
581.695984,390.399994,712.479980
587.552002,390.399994,712.479980
581.695984,390.399994,716.383972
581.695984,388.447998,714.432007
583.648010,386.496002,706.624023
583.648010,396.256012,702.719971
585.599976,396.256012,710.528015
581.695984,392.351990,702.719971
585.599976,390.399994,724.192017
573.888000,388.447998,720.288025
587.552002,392.351990,712.479980
577.791992,386.496002,710.528015
581.695984,390.399994,712.479980
589.504028,396.256012,714.432007
593.408020,396.256012,724.192017
587.552002,396.256012,716.383972
589.504028,388.447998,706.624023
589.504028,390.399994,718.335999
589.504028,392.351990,706.624023
583.648010,388.447998,712.479980
591.455994,388.447998,718.335999
589.504028,392.351990,704.671997
587.552002,384.544006,712.479980
587.552002,386.496002,720.288025
587.552002,398.208008,720.288025
589.504028,392.351990,724.192017
591.455994,402.112000,714.432007
593.408020,390.399994,712.479980
591.455994,398.208008,712.479980
587.552002,390.399994,718.335999
587.552002,386.496002,718.335999
599.263977,392.351990,714.432007
595.359985,396.256012,710.528015
587.552002,388.447998,714.432007
587.552002,390.399994,714.432007
591.455994,388.447998,718.335999
589.504028,396.256012,710.528015
587.552002,398.208008,718.335999
589.504028,390.399994,712.479980
591.455994,392.351990,720.288025
583.648010,394.303986,710.528015
585.599976,396.256012,722.239990
589.504028,396.256012,714.432007
585.599976,390.399994,716.383972
587.552002,386.496002,716.383972
587.552002,396.256012,712.479980
585.599976,394.303986,712.479980
581.695984,388.447998,706.624023
585.599976,396.256012,710.528015
583.648010,396.256012,710.528015
581.695984,386.496002,710.528015
581.695984,386.496002,712.479980
581.695984,386.496002,714.432007
587.552002,396.256012,712.479980
583.648010,404.063995,714.432007
585.599976,398.208008,716.383972
579.744019,396.256012,714.432007
583.648010,400.160004,714.432007
581.695984,402.112000,708.575989
579.744019,400.160004,710.528015
575.840027,400.160004,712.479980
575.840027,396.256012,710.528015
573.888000,404.063995,712.479980
581.695984,400.160004,710.528015
581.695984,404.063995,708.575989
577.791992,400.160004,712.479980
573.888000,404.063995,706.624023
581.695984,398.208008,704.671997
577.791992,394.303986,700.768005
579.744019,396.256012,704.671997
583.648010,404.063995,712.479980
579.744019,396.256012,706.624023
579.744019,396.256012,698.815979
573.888000,402.112000,698.815979
579.744019,398.208008,698.815979
577.791992,407.967987,702.719971
583.648010,406.015991,698.815979
566.080017,404.063995,706.624023
573.888000,407.967987,702.719971
577.791992,398.208008,698.815979
569.984009,407.967987,706.624023
577.791992,406.015991,694.911987
575.840027,404.063995,702.719971
577.791992,402.112000,706.624023
573.888000,407.967987,706.624023
573.888000,396.256012,704.671997
579.744019,404.063995,704.671997
573.888000,402.112000,694.911987
581.695984,406.015991,704.671997
573.888000,407.967987,700.768005
587.552002,400.160004,700.768005
573.888000,406.015991,712.479980
573.888000,398.208008,704.671997
583.648010,404.063995,704.671997
569.984009,400.160004,692.960022
581.695984,404.063995,702.719971
579.744019,404.063995,694.911987
573.888000,404.063995,694.911987
581.695984,406.015991,691.007996
581.695984,394.303986,696.864014
577.791992,398.208008,702.719971
579.744019,402.112000,696.864014
587.552002,406.015991,694.911987
579.744019,404.063995,702.719971
583.648010,409.920013,702.719971
581.695984,402.112000,698.815979
591.455994,404.063995,700.768005
587.552002,406.015991,698.815979
591.455994,406.015991,702.719971
579.744019,407.967987,706.624023
585.599976,409.920013,712.479980
587.552002,406.015991,704.671997
585.599976,402.112000,708.575989
587.552002,406.015991,698.815979
585.599976,398.208008,710.528015
583.648010,411.872009,698.815979
583.648010,413.824005,691.007996
587.552002,406.015991,696.864014
583.648010,413.824005,702.719971
591.455994,406.015991,704.671997
587.552002,400.160004,698.815979
587.552002,409.920013,706.624023
577.791992,413.824005,704.671997
587.552002,409.920013,706.624023
593.408020,409.920013,706.624023
595.359985,411.872009,694.911987
587.552002,404.063995,696.864014
585.599976,411.872009,706.624023
587.552002,404.063995,698.815979
587.552002,406.015991,696.864014
587.552002,404.063995,691.007996
581.695984,402.112000,698.815979
587.552002,406.015991,696.864014
587.552002,406.015991,700.768005
587.552002,404.063995,708.575989
587.552002,400.160004,700.768005
581.695984,394.303986,700.768005
591.455994,404.063995,691.007996
591.455994,406.015991,696.864014
587.552002,400.160004,696.864014
589.504028,398.208008,708.575989
591.455994,402.112000,700.768005
581.695984,406.015991,700.768005
593.408020,400.160004,696.864014
599.263977,404.063995,696.864014
601.216003,404.063995,694.911987
595.359985,398.208008,698.815979
585.599976,411.872009,706.624023
589.504028,407.967987,708.575989
589.504028,398.208008,708.575989
599.263977,396.256012,712.479980
597.312012,406.015991,710.528015
603.168030,404.063995,706.624023
603.168030,404.063995,712.479980
603.168030,402.112000,706.624023
597.312012,404.063995,712.479980
607.072021,402.112000,710.528015
601.216003,406.015991,712.479980
599.263977,398.208008,708.575989
605.119995,396.256012,702.719971
605.119995,398.208008,706.624023
605.119995,402.112000,712.479980
607.072021,415.776001,702.719971
603.168030,413.824005,698.815979
599.263977,409.920013,704.671997
609.023987,407.967987,708.575989
599.263977,407.967987,704.671997
589.504028,411.872009,700.768005
597.312012,411.872009,712.479980
603.168030,411.872009,714.432007
591.455994,415.776001,710.528015
593.408020,415.776001,712.479980
599.263977,406.015991,708.575989
595.359985,404.063995,710.528015
609.023987,407.967987,710.528015
603.168030,409.920013,704.671997
603.168030,409.920013,708.575989
603.168030,404.063995,712.479980
597.312012,409.920013,702.719971
595.359985,413.824005,706.624023
603.168030,406.015991,706.624023
597.312012,406.015991,710.528015
597.312012,415.776001,708.575989
599.263977,406.015991,706.624023
597.312012,411.872009,706.624023
591.455994,415.776001,712.479980
593.408020,409.920013,704.671997
595.359985,411.872009,700.768005
597.312012,409.920013,696.864014
591.455994,415.776001,716.383972
597.312012,421.631989,708.575989
599.263977,415.776001,706.624023
595.359985,413.824005,698.815979
593.408020,409.920013,706.624023
589.504028,415.776001,706.624023
591.455994,406.015991,700.768005
587.552002,415.776001,704.671997
589.504028,413.824005,698.815979
591.455994,413.824005,704.671997
587.552002,406.015991,702.719971
591.455994,409.920013,706.624023
591.455994,421.631989,712.479980
589.504028,419.679993,704.671997
577.791992,411.872009,706.624023
591.455994,423.584015,706.624023
589.504028,419.679993,706.624023
583.648010,411.872009,706.624023
595.359985,423.584015,698.815979
595.359985,431.391998,702.719971
589.504028,419.679993,700.768005
587.552002,423.584015,700.768005
587.552002,419.679993,706.624023
581.695984,419.679993,706.624023
583.648010,419.679993,702.719971
583.648010,417.727997,704.671997
583.648010,423.584015,704.671997
573.888000,413.824005,702.719971
583.648010,421.631989,702.719971
585.599976,417.727997,704.671997
585.599976,419.679993,704.671997
585.599976,415.776001,698.815979
577.791992,415.776001,704.671997
583.648010,413.824005,698.815979
583.648010,419.679993,702.719971
573.888000,415.776001,694.911987
585.599976,421.631989,696.864014
583.648010,419.679993,704.671997
587.552002,425.536011,691.007996
583.648010,421.631989,691.007996
585.599976,419.679993,694.911987
581.695984,413.824005,691.007996
571.935974,417.727997,698.815979
577.791992,417.727997,700.768005
577.791992,421.631989,700.768005
571.935974,419.679993,696.864014
583.648010,421.631989,702.719971
579.744019,409.920013,694.911987
583.648010,417.727997,692.960022
577.791992,415.776001,700.768005
573.888000,421.631989,691.007996
577.791992,417.727997,696.864014
581.695984,425.536011,708.575989
577.791992,419.679993,696.864014
577.791992,415.776001,696.864014
585.599976,419.679993,698.815979
583.648010,421.631989,696.864014
577.791992,421.631989,696.864014
579.744019,425.536011,698.815979
585.599976,413.824005,698.815979
581.695984,417.727997,692.960022
583.648010,421.631989,696.864014
583.648010,421.631989,691.007996
589.504028,419.679993,694.911987
585.599976,423.584015,694.911987
581.695984,421.631989,692.960022
585.599976,419.679993,704.671997
585.599976,423.584015,694.911987
589.504028,423.584015,704.671997
587.552002,415.776001,698.815979
587.552002,413.824005,698.815979
591.455994,419.679993,704.671997
589.504028,411.872009,694.911987
583.648010,411.872009,698.815979
587.552002,415.776001,691.007996
577.791992,409.920013,702.719971
593.408020,415.776001,706.624023
589.504028,415.776001,698.815979
589.504028,413.824005,704.671997
595.359985,411.872009,694.911987
585.599976,411.872009,692.960022
591.455994,417.727997,689.056030
593.408020,427.488007,696.864014
597.312012,417.727997,694.911987
589.504028,419.679993,700.768005
595.359985,423.584015,698.815979
597.312012,415.776001,696.864014
591.455994,411.872009,696.864014
587.552002,413.824005,694.911987
591.455994,411.872009,696.864014
591.455994,423.584015,700.768005
589.504028,417.727997,698.815979
595.359985,411.872009,700.768005
589.504028,415.776001,694.911987
599.263977,413.824005,704.671997
595.359985,411.872009,696.864014
597.312012,427.488007,698.815979
599.263977,407.967987,694.911987
589.504028,423.584015,694.911987
589.504028,413.824005,704.671997
581.695984,406.015991,702.719971
591.455994,409.920013,702.719971
593.408020,417.727997,704.671997
593.408020,413.824005,696.864014
589.504028,417.727997,698.815979
589.504028,411.872009,694.911987
585.599976,411.872009,692.960022
589.504028,419.679993,694.911987
595.359985,407.967987,691.007996
593.408020,413.824005,704.671997
589.504028,411.872009,698.815979
587.552002,415.776001,687.104004
595.359985,411.872009,694.911987
597.312012,419.679993,694.911987
585.599976,409.920013,691.007996
585.599976,411.872009,694.911987
591.455994,411.872009,698.815979
585.599976,411.872009,694.911987
587.552002,406.015991,698.815979
587.552002,411.872009,696.864014
587.552002,406.015991,696.864014
587.552002,413.824005,696.864014
585.599976,419.679993,704.671997
581.695984,415.776001,687.104004
583.648010,415.776001,694.911987
583.648010,413.824005,694.911987
585.599976,413.824005,694.911987
579.744019,409.920013,694.911987
577.791992,419.679993,698.815979
573.888000,415.776001,700.768005
577.791992,417.727997,694.911987
577.791992,419.679993,700.768005
583.648010,419.679993,708.575989
575.840027,421.631989,702.719971
573.888000,421.631989,696.864014
577.791992,409.920013,696.864014
573.888000,423.584015,702.719971
581.695984,417.727997,696.864014
575.840027,409.920013,700.768005
577.791992,421.631989,702.719971
583.648010,415.776001,696.864014
591.455994,406.015991,702.719971
581.695984,415.776001,706.624023
581.695984,415.776001,692.960022
577.791992,417.727997,696.864014
571.935974,421.631989,706.624023
583.648010,411.872009,698.815979
583.648010,413.824005,698.815979
583.648010,423.584015,694.911987
589.504028,417.727997,694.911987
585.599976,411.872009,694.911987
583.648010,421.631989,698.815979
577.791992,419.679993,694.911987
571.935974,415.776001,698.815979
579.744019,409.920013,694.911987
585.599976,415.776001,700.768005
581.695984,411.872009,691.007996
583.648010,415.776001,691.007996
577.791992,419.679993,700.768005
571.935974,409.920013,700.768005
573.888000,417.727997,694.911987
583.648010,419.679993,704.671997
573.888000,421.631989,694.911987
577.791992,419.679993,696.864014
577.791992,409.920013,696.864014
585.599976,415.776001,694.911987
587.552002,411.872009,700.768005
585.599976,415.776001,706.624023
585.599976,413.824005,700.768005
583.648010,413.824005,706.624023
585.599976,413.824005,694.911987
583.648010,417.727997,700.768005
583.648010,417.727997,704.671997
585.599976,413.824005,694.911987
585.599976,413.824005,700.768005
581.695984,413.824005,696.864014
587.552002,411.872009,696.864014
585.599976,411.872009,704.671997
587.552002,411.872009,696.864014
591.455994,411.872009,692.960022
587.552002,413.824005,696.864014
591.455994,406.015991,700.768005
593.408020,413.824005,708.575989
585.599976,419.679993,700.768005
593.408020,407.967987,698.815979
593.408020,411.872009,708.575989
601.216003,409.920013,700.768005
595.359985,411.872009,696.864014
599.263977,411.872009,700.768005
595.359985,409.920013,702.719971
597.312012,411.872009,694.911987
599.263977,406.015991,710.528015
585.599976,411.872009,694.911987
599.263977,407.967987,698.815979
599.263977,407.967987,694.911987
593.408020,406.015991,708.575989
591.455994,415.776001,704.671997
599.263977,404.063995,702.719971
601.216003,406.015991,704.671997
603.168030,411.872009,702.719971
601.216003,400.160004,704.671997
603.168030,406.015991,712.479980
603.168030,402.112000,700.768005
591.455994,402.112000,700.768005
591.455994,411.872009,704.671997
601.216003,404.063995,704.671997
601.216003,409.920013,702.719971
595.359985,406.015991,694.911987
589.504028,398.208008,702.719971
601.216003,407.967987,698.815979
603.168030,409.920013,696.864014
599.263977,407.967987,698.815979
599.263977,398.208008,694.911987
601.216003,407.967987,694.911987
601.216003,402.112000,698.815979
595.359985,400.160004,704.671997
589.504028,394.303986,700.768005
597.312012,406.015991,698.815979
605.119995,407.967987,694.911987
607.072021,402.112000,692.960022
601.216003,407.967987,704.671997
601.216003,407.967987,698.815979
597.312012,394.303986,694.911987
603.168030,407.967987,698.815979
593.408020,402.112000,694.911987
599.263977,402.112000,700.768005
605.119995,398.208008,692.960022
609.023987,400.160004,694.911987
601.216003,398.208008,698.815979
605.119995,407.967987,692.960022
601.216003,398.208008,694.911987
605.119995,400.160004,694.911987
605.119995,407.967987,704.671997
605.119995,407.967987,694.911987
601.216003,407.967987,700.768005
607.072021,411.872009,689.056030
605.119995,407.967987,694.911987
605.119995,402.112000,692.960022
601.216003,398.208008,700.768005
607.072021,406.015991,692.960022
601.216003,407.967987,698.815979
601.216003,404.063995,694.911987
601.216003,402.112000,694.911987
601.216003,402.112000,692.960022
601.216003,404.063995,694.911987
599.263977,407.967987,692.960022
601.216003,411.872009,691.007996
601.216003,398.208008,700.768005
603.168030,406.015991,704.671997
599.263977,407.967987,692.960022
601.216003,406.015991,692.960022
603.168030,411.872009,689.056030
601.216003,398.208008,694.911987
597.312012,402.112000,692.960022
599.263977,404.063995,696.864014
595.359985,411.872009,687.104004
601.216003,407.967987,694.911987
595.359985,413.824005,694.911987
601.216003,409.920013,694.911987
599.263977,406.015991,696.864014
605.119995,404.063995,687.104004
595.359985,400.160004,683.200012
603.168030,406.015991,687.104004
595.359985,402.112000,683.200012
605.119995,404.063995,687.104004
601.216003,407.967987,694.911987
601.216003,402.112000,687.104004
597.312012,406.015991,691.007996
601.216003,394.303986,687.104004
595.359985,402.112000,683.200012
597.312012,407.967987,689.056030
599.263977,406.015991,691.007996
595.359985,409.920013,683.200012
593.408020,415.776001,683.200012
603.168030,404.063995,679.296021
603.168030,404.063995,681.247986
593.408020,415.776001,685.151978
595.359985,407.967987,691.007996
597.312012,404.063995,681.247986
591.455994,406.015991,691.007996
595.359985,406.015991,689.056030
589.504028,407.967987,689.056030
597.312012,411.872009,696.864014
603.168030,406.015991,683.200012
597.312012,411.872009,685.151978
595.359985,409.920013,683.200012
593.408020,409.920013,687.104004
599.263977,411.872009,689.056030
601.216003,411.872009,691.007996
603.168030,406.015991,692.960022
607.072021,421.631989,696.864014
605.119995,407.967987,687.104004
609.023987,406.015991,687.104004
609.023987,406.015991,687.104004
610.976013,406.015991,694.911987
605.119995,402.112000,698.815979
609.023987,407.967987,683.200012
605.119995,411.872009,689.056030
610.976013,398.208008,692.960022
612.927979,413.824005,691.007996
609.023987,404.063995,694.911987
614.880005,406.015991,692.960022
616.831970,407.967987,689.056030
614.880005,407.967987,689.056030
609.023987,402.112000,687.104004
610.976013,411.872009,691.007996
618.783997,407.967987,689.056030
616.831970,411.872009,687.104004
609.023987,415.776001,696.864014
618.783997,406.015991,696.864014
618.783997,406.015991,691.007996
616.831970,411.872009,694.911987
624.640015,406.015991,691.007996
622.687988,394.303986,691.007996
622.687988,406.015991,691.007996
626.591980,404.063995,692.960022
620.736023,400.160004,698.815979
616.831970,404.063995,698.815979
618.783997,406.015991,700.768005
628.544006,400.160004,692.960022
622.687988,404.063995,698.815979
622.687988,404.063995,700.768005
618.783997,400.160004,696.864014
616.831970,396.256012,710.528015
620.736023,402.112000,700.768005
626.591980,394.303986,704.671997
632.447998,400.160004,712.479980
628.544006,409.920013,700.768005
634.400024,400.160004,694.911987
626.591980,400.160004,704.671997
620.736023,406.015991,704.671997
626.591980,406.015991,698.815979
624.640015,402.112000,706.624023
624.640015,402.112000,706.624023
628.544006,398.208008,708.575989
634.400024,394.303986,704.671997
630.495972,402.112000,700.768005
624.640015,402.112000,702.719971
622.687988,396.256012,706.624023
624.640015,400.160004,700.768005
630.495972,392.351990,708.575989
630.495972,392.351990,702.719971
622.687988,390.399994,706.624023
622.687988,394.303986,694.911987
626.591980,398.208008,710.528015
630.495972,406.015991,700.768005
622.687988,402.112000,708.575989
622.687988,409.920013,710.528015
622.687988,402.112000,710.528015
618.783997,406.015991,702.719971
624.640015,400.160004,708.575989
622.687988,394.303986,696.864014
626.591980,402.112000,702.719971
622.687988,390.399994,706.624023
618.783997,390.399994,704.671997
622.687988,396.256012,704.671997
616.831970,398.208008,708.575989
622.687988,396.256012,704.671997
620.736023,402.112000,702.719971
620.736023,394.303986,704.671997
626.591980,386.496002,704.671997
622.687988,394.303986,708.575989
618.783997,394.303986,708.575989
618.783997,390.399994,712.479980
612.927979,400.160004,702.719971
614.880005,392.351990,704.671997
614.880005,406.015991,712.479980
618.783997,396.256012,710.528015
618.783997,396.256012,706.624023
607.072021,396.256012,702.719971
612.927979,396.256012,712.479980
610.976013,394.303986,708.575989
610.976013,386.496002,714.432007
610.976013,407.967987,698.815979
607.072021,390.399994,702.719971
601.216003,392.351990,708.575989
605.119995,394.303986,710.528015
597.312012,396.256012,710.528015
597.312012,400.160004,706.624023
605.119995,398.208008,706.624023
607.072021,394.303986,716.383972
607.072021,400.160004,704.671997
605.119995,398.208008,700.768005
597.312012,396.256012,702.719971
601.216003,398.208008,700.768005
605.119995,402.112000,698.815979
599.263977,398.208008,698.815979
601.216003,402.112000,706.624023
601.216003,402.112000,704.671997
599.263977,398.208008,698.815979
597.312012,398.208008,708.575989
599.263977,394.303986,696.864014
595.359985,392.351990,698.815979
591.455994,394.303986,696.864014
593.408020,404.063995,696.864014
597.312012,390.399994,702.719971
595.359985,392.351990,694.911987
591.455994,392.351990,694.911987
589.504028,394.303986,700.768005
603.168030,396.256012,700.768005
589.504028,404.063995,702.719971
583.648010,394.303986,694.911987
587.552002,394.303986,700.768005
587.552002,404.063995,694.911987
587.552002,394.303986,700.768005
589.504028,392.351990,698.815979
585.599976,392.351990,694.911987
585.599976,390.399994,696.864014
585.599976,394.303986,706.624023
583.648010,394.303986,712.479980
593.408020,392.351990,702.719971
587.552002,394.303986,700.768005
587.552002,392.351990,696.864014
585.599976,386.496002,694.911987
587.552002,400.160004,702.719971
589.504028,394.303986,694.911987
593.408020,394.303986,700.768005
591.455994,388.447998,692.960022
595.359985,392.351990,694.911987
587.552002,394.303986,696.864014
589.504028,386.496002,687.104004
589.504028,386.496002,696.864014
585.599976,386.496002,694.911987
591.455994,388.447998,694.911987
585.599976,392.351990,691.007996
577.791992,384.544006,694.911987
585.599976,390.399994,694.911987
591.455994,398.208008,691.007996
587.552002,394.303986,696.864014
585.599976,392.351990,692.960022
583.648010,392.351990,692.960022
577.791992,390.399994,692.960022
581.695984,388.447998,692.960022
587.552002,388.447998,687.104004
587.552002,394.303986,700.768005
595.359985,398.208008,696.864014
587.552002,396.256012,696.864014
587.552002,398.208008,691.007996
585.599976,402.112000,685.151978
585.599976,392.351990,692.960022
589.504028,398.208008,691.007996
581.695984,400.160004,696.864014
583.648010,392.351990,694.911987
583.648010,394.303986,692.960022
583.648010,394.303986,692.960022
589.504028,398.208008,685.151978
585.599976,394.303986,694.911987
591.455994,396.256012,683.200012
587.552002,390.399994,681.247986
583.648010,407.967987,689.056030
585.599976,392.351990,692.960022
589.504028,392.351990,694.911987
583.648010,390.399994,696.864014
591.455994,392.351990,694.911987
589.504028,398.208008,691.007996
589.504028,400.160004,691.007996
589.504028,398.208008,687.104004
591.455994,404.063995,696.864014
593.408020,396.256012,692.960022
577.791992,390.399994,700.768005
583.648010,390.399994,696.864014
587.552002,388.447998,687.104004
599.263977,386.496002,691.007996
585.599976,396.256012,691.007996
589.504028,404.063995,685.151978
597.312012,400.160004,683.200012
585.599976,402.112000,689.056030
589.504028,402.112000,691.007996
591.455994,407.967987,691.007996
585.599976,404.063995,679.296021
593.408020,390.399994,683.200012
589.504028,402.112000,685.151978
595.359985,400.160004,679.296021
591.455994,404.063995,685.151978
589.504028,402.112000,689.056030
591.455994,404.063995,691.007996
587.552002,400.160004,694.911987
593.408020,400.160004,700.768005
597.312012,394.303986,685.151978
595.359985,407.967987,683.200012
595.359985,400.160004,691.007996
599.263977,402.112000,692.960022
597.312012,386.496002,689.056030
591.455994,394.303986,696.864014
593.408020,398.208008,689.056030
591.455994,402.112000,683.200012
599.263977,396.256012,687.104004
593.408020,394.303986,696.864014
597.312012,400.160004,687.104004
593.408020,390.399994,683.200012
597.312012,404.063995,691.007996
597.312012,400.160004,692.960022
595.359985,404.063995,691.007996
599.263977,400.160004,689.056030
589.504028,396.256012,689.056030
595.359985,398.208008,683.200012
593.408020,400.160004,691.007996
593.408020,394.303986,691.007996
593.408020,404.063995,694.911987
599.263977,400.160004,696.864014
599.263977,407.967987,694.911987
593.408020,402.112000,691.007996
593.408020,402.112000,694.911987
593.408020,404.063995,687.104004
599.263977,402.112000,706.624023
593.408020,404.063995,691.007996
597.312012,394.303986,704.671997
599.263977,404.063995,692.960022
593.408020,411.872009,700.768005
599.263977,402.112000,700.768005
597.312012,411.872009,694.911987
597.312012,406.015991,687.104004
591.455994,406.015991,696.864014
599.263977,402.112000,698.815979
603.168030,404.063995,692.960022
599.263977,407.967987,687.104004
591.455994,409.920013,692.960022
587.552002,413.824005,694.911987
591.455994,402.112000,691.007996
593.408020,404.063995,696.864014
593.408020,406.015991,696.864014
595.359985,404.063995,704.671997
595.359985,415.776001,694.911987
597.312012,407.967987,689.056030
593.408020,409.920013,692.960022
595.359985,411.872009,687.104004
599.263977,396.256012,698.815979
593.408020,402.112000,696.864014
599.263977,407.967987,704.671997
597.312012,409.920013,700.768005
595.359985,413.824005,704.671997
597.312012,411.872009,694.911987
589.504028,411.872009,694.911987
595.359985,419.679993,698.815979
591.455994,421.631989,692.960022
593.408020,415.776001,689.056030
593.408020,415.776001,692.960022
589.504028,407.967987,689.056030
585.599976,417.727997,692.960022
595.359985,417.727997,694.911987
599.263977,409.920013,694.911987
603.168030,415.776001,700.768005
589.504028,415.776001,698.815979
589.504028,409.920013,689.056030
587.552002,406.015991,696.864014
589.504028,415.776001,692.960022
585.599976,417.727997,694.911987
587.552002,425.536011,691.007996
583.648010,417.727997,692.960022
589.504028,423.584015,694.911987
587.552002,411.872009,694.911987
585.599976,417.727997,694.911987
591.455994,417.727997,692.960022
581.695984,411.872009,696.864014
583.648010,413.824005,694.911987
583.648010,415.776001,694.911987
585.599976,411.872009,687.104004
589.504028,409.920013,689.056030
591.455994,415.776001,692.960022
585.599976,409.920013,683.200012
583.648010,413.824005,694.911987
581.695984,417.727997,689.056030
587.552002,409.920013,689.056030
587.552002,419.679993,692.960022
585.599976,421.631989,691.007996
595.359985,413.824005,692.960022
591.455994,423.584015,694.911987
585.599976,419.679993,698.815979
587.552002,413.824005,696.864014
585.599976,419.679993,698.815979
585.599976,415.776001,687.104004
583.648010,415.776001,696.864014
583.648010,421.631989,696.864014
585.599976,423.584015,687.104004
583.648010,419.679993,689.056030
581.695984,425.536011,691.007996
575.840027,427.488007,696.864014
577.791992,423.584015,696.864014
587.552002,431.391998,698.815979
589.504028,419.679993,694.911987
577.791992,425.536011,687.104004
581.695984,421.631989,687.104004
587.552002,421.631989,683.200012
577.791992,421.631989,696.864014
583.648010,415.776001,691.007996
577.791992,413.824005,687.104004
573.888000,429.440002,694.911987
577.791992,423.584015,696.864014
579.744019,417.727997,689.056030
573.888000,421.631989,691.007996
577.791992,423.584015,691.007996
585.599976,427.488007,687.104004
573.888000,425.536011,691.007996
577.791992,413.824005,696.864014
571.935974,423.584015,689.056030
581.695984,421.631989,683.200012
571.935974,425.536011,681.247986
575.840027,431.391998,675.392029
573.888000,423.584015,691.007996
566.080017,421.631989,691.007996
577.791992,423.584015,685.151978
569.984009,425.536011,685.151978
579.744019,425.536011,689.056030
568.031982,417.727997,689.056030
575.840027,427.488007,692.960022
575.840027,437.247986,685.151978
571.935974,431.391998,685.151978
575.840027,437.247986,691.007996
575.840027,433.343994,683.200012
568.031982,439.200012,692.960022
566.080017,427.488007,689.056030
571.935974,433.343994,687.104004
569.984009,431.391998,683.200012
573.888000,439.200012,692.960022
573.888000,435.295990,698.815979
571.935974,439.200012,692.960022
575.840027,431.391998,687.104004
568.031982,421.631989,692.960022
571.935974,429.440002,692.960022
575.840027,441.152008,696.864014
564.127991,429.440002,702.719971
566.080017,433.343994,692.960022
569.984009,427.488007,694.911987
560.223999,433.343994,704.671997
571.935974,435.295990,698.815979
566.080017,425.536011,694.911987
568.031982,437.247986,696.864014
569.984009,427.488007,696.864014
569.984009,429.440002,694.911987
566.080017,441.152008,696.864014
566.080017,433.343994,691.007996
568.031982,439.200012,694.911987
568.031982,439.200012,698.815979
568.031982,433.343994,694.911987
568.031982,431.391998,691.007996
566.080017,439.200012,691.007996
568.031982,429.440002,696.864014
568.031982,429.440002,698.815979
571.935974,421.631989,700.768005
566.080017,433.343994,689.056030
569.984009,429.440002,694.911987
569.984009,439.200012,696.864014
566.080017,423.584015,700.768005
560.223999,427.488007,692.960022
566.080017,417.727997,694.911987
568.031982,419.679993,692.960022
573.888000,427.488007,694.911987
569.984009,417.727997,689.056030
571.935974,421.631989,700.768005
569.984009,423.584015,691.007996
575.840027,427.488007,698.815979
583.648010,417.727997,698.815979
579.744019,417.727997,691.007996
583.648010,419.679993,696.864014
585.599976,411.872009,692.960022
585.599976,423.584015,700.768005
583.648010,417.727997,694.911987
589.504028,417.727997,700.768005
577.791992,421.631989,696.864014
591.455994,425.536011,706.624023
597.312012,419.679993,700.768005
589.504028,411.872009,704.671997
597.312012,423.584015,706.624023
597.312012,411.872009,700.768005
605.119995,409.920013,702.719971
603.168030,411.872009,710.528015
609.023987,417.727997,716.383972
605.119995,423.584015,714.432007
603.168030,409.920013,716.383972
601.216003,413.824005,710.528015
601.216003,411.872009,710.528015
597.312012,411.872009,714.432007
610.976013,415.776001,704.671997
607.072021,409.920013,700.768005
603.168030,404.063995,712.479980
607.072021,406.015991,712.479980
607.072021,406.015991,712.479980
610.976013,404.063995,702.719971
605.119995,404.063995,694.911987
607.072021,390.399994,702.719971
607.072021,390.399994,708.575989
601.216003,396.256012,700.768005
605.119995,394.303986,706.624023
609.023987,386.496002,700.768005
609.023987,384.544006,698.815979
610.976013,378.687988,694.911987
605.119995,376.735992,698.815979
607.072021,384.544006,708.575989
607.072021,378.687988,702.719971
597.312012,378.687988,700.768005
609.023987,380.640015,710.528015
599.263977,372.832001,708.575989
603.168030,365.023987,708.575989
599.263977,372.832001,704.671997
603.168030,368.928009,712.479980
601.216003,366.976013,706.624023
607.072021,372.832001,704.671997
605.119995,361.119995,702.719971
605.119995,357.216003,702.719971
605.119995,366.976013,706.624023
603.168030,357.216003,704.671997
599.263977,366.976013,702.719971
603.168030,359.167999,704.671997
595.359985,357.216003,706.624023
605.119995,349.407990,710.528015
603.168030,351.359985,712.479980
595.359985,351.359985,704.671997
599.263977,357.216003,708.575989
599.263977,355.264008,704.671997
601.216003,341.600006,702.719971
593.408020,343.552002,702.719971
603.168030,339.648010,706.624023
603.168030,343.552002,712.479980
599.263977,333.791992,704.671997
595.359985,339.648010,706.624023
599.263977,339.648010,700.768005
595.359985,335.743988,710.528015
599.263977,325.984009,702.719971
581.695984,337.696014,698.815979
581.695984,320.127991,702.719971
579.744019,322.079987,698.815979
585.599976,322.079987,700.768005
579.744019,314.272003,704.671997
566.080017,325.984009,694.911987
568.031982,314.272003,698.815979
568.031982,310.368011,700.768005
560.223999,312.320007,704.671997
568.031982,312.320007,698.815979
566.080017,316.223999,700.768005
562.176025,306.463989,696.864014
554.367981,300.608002,698.815979
544.607971,302.559998,696.864014
546.559998,296.704010,700.768005
552.416016,298.656006,694.911987
544.607971,290.847992,691.007996
534.848022,294.752014,691.007996
540.703979,286.944000,692.960022
544.607971,284.992004,696.864014
532.895996,283.040009,700.768005
538.752014,277.183990,694.911987
546.559998,275.231995,698.815979
546.559998,283.040009,691.007996
546.559998,273.279999,698.815979
542.656006,281.088013,704.671997
552.416016,273.279999,716.383972
550.463989,281.088013,702.719971
548.512024,267.424011,708.575989
552.416016,269.376007,714.432007
546.559998,277.183990,720.288025
550.463989,269.376007,710.528015
546.559998,277.183990,726.143982
556.320007,267.424011,722.239990
546.559998,263.519989,722.239990
550.463989,263.519989,718.335999
548.512024,247.904007,724.192017
552.416016,247.904007,720.288025
564.127991,240.095993,720.288025
554.367981,236.192001,724.192017
550.463989,222.528000,714.432007
556.320007,216.671997,720.288025
556.320007,208.863998,710.528015
556.320007,203.007996,712.479980
554.367981,208.863998,712.479980
552.416016,203.007996,704.671997
550.463989,216.671997,698.815979
552.416016,203.007996,700.768005
546.559998,195.199997,692.960022
548.512024,204.960007,691.007996
552.416016,212.768005,689.056030
546.559998,206.912003,687.104004
552.416016,199.104004,692.960022
548.512024,206.912003,687.104004
546.559998,214.720001,692.960022
556.320007,214.720001,700.768005
544.607971,216.671997,694.911987
546.559998,218.623993,687.104004
544.607971,222.528000,689.056030
546.559998,214.720001,691.007996
552.416016,222.528000,696.864014
552.416016,216.671997,691.007996
554.367981,218.623993,692.960022
554.367981,224.479996,694.911987
562.176025,218.623993,698.815979
558.271973,216.671997,696.864014
568.031982,214.720001,691.007996
564.127991,204.960007,694.911987
554.367981,206.912003,694.911987
548.512024,216.671997,696.864014
558.271973,218.623993,700.768005
558.271973,224.479996,700.768005
560.223999,206.912003,698.815979
550.463989,206.912003,696.864014
560.223999,214.720001,696.864014
556.320007,218.623993,696.864014
552.416016,212.768005,700.768005
556.320007,214.720001,698.815979
566.080017,222.528000,696.864014
560.223999,220.576004,696.864014
569.984009,228.384003,710.528015
564.127991,218.623993,694.911987
569.984009,220.576004,694.911987
560.223999,224.479996,702.719971
552.416016,234.240005,706.624023
554.367981,238.143997,704.671997
558.271973,236.192001,704.671997
562.176025,245.951996,700.768005
560.223999,251.807999,710.528015
568.031982,245.951996,694.911987
560.223999,249.856003,702.719971
560.223999,249.856003,700.768005
552.416016,251.807999,708.575989
558.271973,255.712006,706.624023
566.080017,253.759995,696.864014
558.271973,257.664001,700.768005
564.127991,261.567993,696.864014
560.223999,269.376007,700.768005
556.320007,269.376007,702.719971
554.367981,269.376007,694.911987
564.127991,273.279999,683.200012
554.367981,265.471985,694.911987
550.463989,279.135986,704.671997
538.752014,275.231995,698.815979
538.752014,279.135986,698.815979
538.752014,277.183990,704.671997
536.799988,279.135986,706.624023
540.703979,283.040009,700.768005
542.656006,273.279999,696.864014
540.703979,281.088013,685.151978
540.703979,292.799988,696.864014
532.895996,288.895996,702.719971
542.656006,286.944000,720.288025
558.271973,279.135986,749.567993
554.367981,284.992004,772.992004
599.263977,294.752014,796.416016
819.840027,284.992004,767.135986
462.623993,404.063995,851.072021
751.520020,435.295990,964.288025
540.703979,302.559998,968.192017
691.007996,361.119995,854.976013
634.400024,162.016006,856.927979
614.880005,308.415985,958.432007
673.440002,380.640015,946.719971
605.119995,468.480011,952.575989
599.263977,255.712006,950.624023
712.479980,-183.488007,958.432007
568.031982,517.280029,993.567993
624.640015,728.096008,938.911987
620.736023,368.928009,905.728027
677.343994,296.704010,853.023987
673.440002,253.759995,825.695984
651.968018,365.023987,813.984009
632.447998,593.408020,821.791992
597.312012,394.303986,835.455994
620.736023,203.007996,841.312012
628.544006,372.832001,851.072021
626.591980,491.903992,880.351990
626.591980,376.735992,905.728027
603.168030,310.368011,917.440002
589.504028,392.351990,940.864014
583.648010,413.824005,956.479980
597.312012,396.256012,960.383972
630.495972,396.256012,974.047974
644.159973,407.967987,968.192017
650.015991,413.824005,968.192017
626.591980,394.303986,977.952026
636.351990,429.440002,989.664001
677.343994,452.864014,997.471985
716.383972,447.007996,1015.039978
718.335999,413.824005,1024.800049
710.528015,435.295990,1028.703979
706.624023,448.959991,1030.656006
724.192017,400.160004,1028.703979
732.000000,388.447998,1016.992004
732.000000,406.015991,1001.375977
761.280029,394.303986,987.711975
767.135986,384.544006,985.760010
722.239990,425.536011,976.000000
741.760010,499.712006,972.096008
732.000000,505.567993,960.383972
739.807983,415.776001,962.335999
702.719971,304.511993,946.719971
737.856018,269.376007,933.056030
691.007996,425.536011,923.296021
583.648010,566.080017,901.823975
437.247986,363.071991,899.872009
265.471985,322.079987,884.255981
585.599976,626.591980,817.888000
691.007996,224.479996,806.176025
812.031982,-163.968002,815.935974
458.720001,76.127998,858.880005
612.927979,316.223999,872.544006
815.935974,42.944000,884.255981
753.471985,-81.984001,919.392029
669.536011,156.160004,952.575989
771.039978,390.399994,983.807983
880.351990,355.264008,1001.375977
903.776001,193.248001,1048.223999
847.168030,162.016006,1100.927979
894.015991,245.951996,1141.920044
1001.375977,333.791992,1163.391968
1134.112061,267.424011,1188.767944
1305.887939,-103.456001,1204.384033
-671.487976,-33.183998,1391.776001
-931.104004,1491.328003,1214.144043
2076.927979,2186.239990,843.263977
427.488007,950.624023,999.424011
827.648010,-1015.039978,921.343994
659.776001,-138.591995,917.440002
577.791992,999.424011,911.583984
1028.703979,616.831970,798.367981
819.840027,407.967987,845.216003
486.048004,359.167999,858.880005
800.320007,238.143997,823.744019
745.664001,366.976013,813.984009
542.656006,271.328003,825.695984
300.608002,-329.888000,825.695984
337.696014,-312.320007,800.320007
800.320007,52.703999,739.807983
1130.208008,85.888000,710.528015
423.584015,-733.952026,778.848022
-505.567993,-1485.472046,798.367981
1030.656006,-745.664001,603.168030
640.255981,-335.743988,691.007996
101.503998,152.255997,687.104004
704.671997,179.584000,577.791992
419.679993,81.984001,599.263977
382.592010,443.104004,622.687988
679.296021,767.135986,597.312012
755.424011,626.591980,603.168030
509.471985,499.712006,634.400024
267.424011,448.959991,642.208008
466.528015,433.343994,640.255981
648.064026,482.144012,597.312012
575.840027,538.752014,601.216003
257.664001,560.223999,663.679993
284.992004,530.943970,646.112000
370.880005,528.992004,614.880005
37.088001,556.320007,624.640015
199.104004,763.231995,612.927979
743.711975,1015.039978,569.984009
737.856018,1102.880005,591.455994
610.976013,1104.832031,646.112000
589.504028,394.303986,659.776001
993.567993,-507.519989,648.064026
915.487976,-437.247986,685.151978
948.671997,62.464001,741.760010
302.559998,-25.375999,730.047974
-353.312012,-269.376007,786.656006
-409.920013,201.056000,827.648010
-119.071999,724.192017,755.424011
1497.183960,903.776001,542.656006
374.783997,-29.280001,655.872009
-511.424011,286.944000,669.536011
761.280029,552.416016,540.703979
378.687988,411.872009,612.927979
363.071991,322.079987,599.263977
538.752014,253.759995,569.984009
365.023987,281.088013,587.552002
495.808014,324.032013,546.559998
337.696014,310.368011,550.463989
214.720001,263.519989,571.935974
-242.048004,-361.119995,521.184021
425.536011,-335.743988,324.032013
361.119995,-179.584000,251.807999
419.679993,-44.896000,251.807999
505.567993,101.503998,284.992004
445.056000,91.744003,312.320007
429.440002,70.272003,345.503998
333.791992,119.071999,366.976013
267.424011,191.296005,425.536011
236.192001,292.799988,466.528015
214.720001,353.312012,509.471985
210.815994,365.023987,534.848022
228.384003,333.791992,550.463989
230.335999,275.231995,560.223999
230.335999,203.007996,560.223999
245.951996,87.839996,550.463989
320.127991,-17.568001,552.416016
368.928009,-122.975998,564.127991
382.592010,-290.847992,585.599976
372.832001,-376.735992,571.935974
398.208008,-423.584015,564.127991
511.424011,-419.679993,548.512024
-1.952000,-97.599998,564.127991
189.343994,507.519989,630.495972
185.440002,513.375977,628.544006
152.255997,193.248001,593.408020
222.528000,181.535995,577.791992
259.615997,365.023987,618.783997
255.712006,372.832001,624.640015
318.175995,238.143997,577.791992
199.104004,466.528015,583.648010
-771.039978,3544.832031,536.799988
1009.184021,3583.872070,632.447998
-11.712000,1464.000000,657.823975
257.664001,-1317.599976,601.216003
427.488007,-1709.952026,525.088013
452.864014,-681.247986,480.191986
251.807999,642.208008,501.664001
210.815994,1782.176025,536.799988
396.256012,911.583984,568.031982
269.376007,-292.799988,544.607971
236.192001,-460.671997,499.712006
374.783997,443.104004,513.375977
376.735992,917.440002,536.799988
232.287994,550.463989,564.127991
294.752014,111.264000,573.888000
320.127991,54.655998,571.935974
259.615997,409.920013,550.463989
349.407990,636.351990,554.367981
511.424011,532.895996,583.648010
339.648010,204.960007,589.504028
298.656006,138.591995,569.984009
445.056000,431.391998,591.455994
374.783997,554.367981,587.552002
462.623993,423.584015,597.312012
380.640015,253.759995,591.455994
304.511993,312.320007,583.648010
343.552002,452.864014,562.176025
357.216003,439.200012,546.559998
337.696014,288.895996,517.280029
304.511993,201.056000,507.519989
275.231995,204.960007,495.808014
269.376007,253.759995,484.096008
527.039978,290.847992,497.760010
400.160004,115.167999,476.287994
76.127998,91.744003,470.432007
445.056000,177.632004,505.567993
431.391998,152.255997,511.424011
392.351990,17.568001,497.760010
259.615997,-17.568001,488.000000
259.615997,134.688004,497.760010
308.415985,220.576004,530.943970
460.671997,81.984001,562.176025
884.255981,11.712000,573.888000
103.456001,-271.328003,538.752014
-74.176003,259.615997,548.512024
343.552002,488.000000,626.591980
318.175995,39.040001,624.640015
300.608002,-257.664001,595.359985
406.015991,-140.544006,595.359985
763.231995,187.391998,609.023987
394.303986,228.384003,587.552002
339.648010,242.048004,612.927979
745.664001,136.639999,640.255981
507.519989,-107.360001,638.304016
495.808014,-19.520000,624.640015
609.023987,376.735992,632.447998
312.320007,337.696014,622.687988
42.944000,203.007996,653.919983
521.184021,236.192001,718.335999
577.791992,148.352005,698.815979
581.695984,253.759995,673.440002
450.911987,314.272003,681.247986
415.776001,105.407997,667.583984
423.584015,130.783997,638.304016
536.799988,392.351990,620.736023
550.463989,351.359985,616.831970
527.039978,113.216003,618.783997
396.256012,162.016006,605.119995
437.247986,294.752014,612.927979
439.200012,273.279999,593.408020
427.488007,165.919998,612.927979
454.816010,85.888000,614.880005
503.615997,68.320000,607.072021
525.088013,99.552002,607.072021
493.855988,93.695999,601.216003
458.720001,64.416000,599.263977
452.864014,74.176003,607.072021
456.768005,113.216003,612.927979
497.760010,128.832001,605.119995
499.712006,93.695999,614.880005
470.432007,111.264000,616.831970
478.239990,148.352005,642.208008
484.096008,167.871994,655.872009
499.712006,150.304001,663.679993
519.231995,136.639999,681.247986
527.039978,156.160004,685.151978
532.895996,216.671997,698.815979
519.231995,232.287994,714.432007
528.992004,212.768005,728.096008
521.184021,218.623993,749.567993
536.799988,283.040009,753.471985
534.848022,296.704010,751.520020
540.703979,249.856003,759.328003
540.703979,240.095993,753.471985
534.848022,275.231995,769.088013
562.176025,269.376007,772.992004
569.984009,222.528000,772.992004
587.552002,228.384003,774.943970
585.599976,210.815994,772.992004
579.744019,201.056000,772.992004
573.888000,214.720001,778.848022
587.552002,195.199997,780.799988
589.504028,165.919998,784.703979
589.504028,173.727997,774.943970
599.263977,193.248001,776.895996
607.072021,156.160004,776.895996
603.168030,154.207993,788.607971
610.976013,187.391998,790.559998
607.072021,208.863998,794.463989
618.783997,187.391998,792.512024
618.783997,212.768005,788.607971
610.976013,247.904007,786.656006
607.072021,259.615997,794.463989
599.263977,255.712006,796.416016
601.216003,261.567993,794.463989
614.880005,283.040009,788.607971
618.783997,273.279999,784.703979
612.927979,265.471985,780.799988
616.831970,271.328003,776.895996
612.927979,265.471985,776.895996
616.831970,247.904007,780.799988
626.591980,247.904007,778.848022
626.591980,232.287994,788.607971
620.736023,214.720001,772.992004
618.783997,210.815994,778.848022
624.640015,214.720001,784.703979
626.591980,203.007996,784.703979
622.687988,203.007996,771.039978
612.927979,203.007996,774.943970
622.687988,206.912003,771.039978
612.927979,216.671997,761.280029
612.927979,216.671997,757.375977
609.023987,232.287994,763.231995
614.880005,236.192001,761.280029
612.927979,234.240005,747.616028
616.831970,245.951996,753.471985
612.927979,249.856003,759.328003
601.216003,253.759995,755.424011
618.783997,263.519989,749.567993
614.880005,249.856003,747.616028
609.023987,255.712006,755.424011
601.216003,255.712006,745.664001
605.119995,259.615997,745.664001
618.783997,255.712006,737.856018
609.023987,236.192001,726.143982
612.927979,238.143997,722.239990
616.831970,238.143997,728.096008
603.168030,232.287994,735.903992
609.023987,224.479996,737.856018
609.023987,230.335999,732.000000
626.591980,220.576004,741.760010
612.927979,224.479996,741.760010
612.927979,218.623993,739.807983
607.072021,236.192001,722.239990
599.263977,244.000000,724.192017
593.408020,238.143997,728.096008
593.408020,232.287994,718.335999
603.168030,238.143997,716.383972
599.263977,247.904007,724.192017
607.072021,238.143997,706.624023
601.216003,247.904007,700.768005
603.168030,234.240005,691.007996
595.359985,244.000000,685.151978
595.359985,242.048004,679.296021
597.312012,240.095993,677.343994
579.744019,238.143997,669.536011
562.176025,249.856003,667.583984
560.223999,247.904007,659.776001
558.271973,251.807999,653.919983
564.127991,247.904007,648.064026
579.744019,244.000000,642.208008
575.840027,234.240005,634.400024
569.984009,240.095993,630.495972
575.840027,242.048004,632.447998
581.695984,242.048004,624.640015
583.648010,242.048004,626.591980
581.695984,240.095993,622.687988
585.599976,253.759995,620.736023
583.648010,255.712006,618.783997
583.648010,257.664001,610.976013
581.695984,269.376007,609.023987
595.359985,267.424011,603.168030
593.408020,255.712006,605.119995
607.072021,251.807999,601.216003
607.072021,257.664001,591.455994
603.168030,257.664001,581.695984
605.119995,259.615997,575.840027
605.119995,271.328003,568.031982
601.216003,253.759995,564.127991
616.831970,247.904007,552.416016
612.927979,245.951996,538.752014
614.880005,249.856003,538.752014
609.023987,251.807999,534.848022
618.783997,255.712006,534.848022
622.687988,251.807999,534.848022
620.736023,257.664001,542.656006
620.736023,261.567993,550.463989
626.591980,257.664001,546.559998
618.783997,261.567993,556.320007
620.736023,271.328003,562.176025
626.591980,284.992004,564.127991
634.400024,284.992004,571.935974
640.255981,279.135986,566.080017
640.255981,277.183990,573.888000
648.064026,288.895996,573.888000
653.919983,292.799988,581.695984
651.968018,286.944000,601.216003
667.583984,288.895996,597.312012
665.632019,281.088013,599.263977
663.679993,283.040009,607.072021
665.632019,302.559998,610.976013
667.583984,298.656006,614.880005
677.343994,279.135986,612.927979
681.247986,288.895996,614.880005
683.200012,284.992004,616.831970
685.151978,296.704010,616.831970
671.487976,308.415985,622.687988
679.296021,302.559998,612.927979
679.296021,306.463989,610.976013
679.296021,310.368011,614.880005
689.056030,316.223999,616.831970
685.151978,308.415985,609.023987
689.056030,310.368011,614.880005
683.200012,308.415985,624.640015
691.007996,304.511993,614.880005
689.056030,312.320007,618.783997
696.864014,312.320007,618.783997
708.575989,316.223999,622.687988
704.671997,320.127991,614.880005
708.575989,314.272003,616.831970
710.528015,318.175995,624.640015
720.288025,318.175995,636.351990
716.383972,318.175995,634.400024
718.335999,318.175995,636.351990
720.288025,320.127991,644.159973
726.143982,331.839996,640.255981
730.047974,329.888000,640.255981
741.760010,339.648010,653.919983
733.952026,337.696014,644.159973
728.096008,339.648010,650.015991
730.047974,355.264008,634.400024
732.000000,349.407990,650.015991
733.952026,355.264008,640.255981
737.856018,355.264008,650.015991
743.711975,359.167999,653.919983
739.807983,372.832001,650.015991
733.952026,370.880005,650.015991
733.952026,368.928009,653.919983
735.903992,368.928009,651.968018
735.903992,374.783997,648.064026
739.807983,368.928009,642.208008
743.711975,384.544006,644.159973
741.760010,378.687988,653.919983
737.856018,388.447998,642.208008
732.000000,384.544006,646.112000
739.807983,392.351990,642.208008
741.760010,394.303986,632.447998
743.711975,392.351990,642.208008
739.807983,392.351990,636.351990
745.664001,392.351990,638.304016
733.952026,398.208008,630.495972
741.760010,390.399994,628.544006
739.807983,394.303986,624.640015
743.711975,396.256012,624.640015
749.567993,404.063995,634.400024
751.520020,407.967987,626.591980
751.520020,411.872009,630.495972
753.471985,394.303986,618.783997
759.328003,400.160004,612.927979
765.184021,398.208008,616.831970
767.135986,388.447998,620.736023
763.231995,392.351990,622.687988
767.135986,392.351990,618.783997
774.943970,382.592010,618.783997
782.752014,376.735992,626.591980
782.752014,380.640015,612.927979
784.703979,384.544006,610.976013
792.512024,372.832001,618.783997
796.416016,368.928009,618.783997
792.512024,380.640015,618.783997
794.463989,382.592010,634.400024
800.320007,370.880005,624.640015
802.271973,376.735992,624.640015
808.127991,365.023987,620.736023
812.031982,376.735992,632.447998
808.127991,370.880005,620.736023
813.984009,372.832001,620.736023
835.455994,370.880005,628.544006
827.648010,363.071991,628.544006
839.359985,357.216003,630.495972
845.216003,361.119995,632.447998
845.216003,353.312012,634.400024
843.263977,363.071991,632.447998
856.927979,363.071991,624.640015
856.927979,365.023987,636.351990
851.072021,357.216003,628.544006
851.072021,365.023987,632.447998
858.880005,357.216003,628.544006
854.976013,357.216003,640.255981
870.591980,357.216003,636.351990
872.544006,357.216003,630.495972
870.591980,361.119995,630.495972
868.640015,355.264008,618.783997
872.544006,357.216003,624.640015
870.591980,345.503998,618.783997
886.208008,351.359985,622.687988
888.159973,345.503998,618.783997
880.351990,347.455994,618.783997
884.255981,341.600006,618.783997
884.255981,341.600006,622.687988
888.159973,343.552002,618.783997
888.159973,349.407990,618.783997
899.872009,343.552002,614.880005
888.159973,345.503998,612.927979
897.919983,343.552002,610.976013
899.872009,343.552002,609.023987
899.872009,337.696014,609.023987
895.968018,345.503998,609.023987
899.872009,341.600006,603.168030
897.919983,337.696014,601.216003
897.919983,335.743988,603.168030
903.776001,339.648010,603.168030
901.823975,349.407990,601.216003
907.679993,339.648010,603.168030
911.583984,341.600006,603.168030
913.536011,343.552002,597.312012
899.872009,343.552002,601.216003
907.679993,333.791992,597.312012
915.487976,335.743988,585.599976
913.536011,343.552002,595.359985
905.728027,329.888000,593.408020
913.536011,325.984009,589.504028
911.583984,331.839996,599.263977
911.583984,333.791992,589.504028
913.536011,325.984009,591.455994
911.583984,320.127991,589.504028
911.583984,324.032013,591.455994
911.583984,316.223999,591.455994
901.823975,314.272003,583.648010
901.823975,329.888000,581.695984
899.872009,325.984009,587.552002
903.776001,314.272003,585.599976
899.872009,320.127991,587.552002
901.823975,314.272003,585.599976
897.919983,304.511993,585.599976
894.015991,298.656006,595.359985
894.015991,304.511993,573.888000
899.872009,300.608002,583.648010
895.968018,304.511993,585.599976
888.159973,310.368011,579.744019
878.400024,296.704010,577.791992
876.447998,296.704010,571.935974
878.400024,306.463989,562.176025
876.447998,296.704010,566.080017
876.447998,306.463989,568.031982
872.544006,284.992004,562.176025
868.640015,296.704010,560.223999
872.544006,292.799988,564.127991
872.544006,296.704010,560.223999
862.783997,292.799988,556.320007
856.927979,294.752014,552.416016
849.119995,288.895996,544.607971
849.119995,284.992004,548.512024
853.023987,284.992004,540.703979
845.216003,284.992004,540.703979
839.359985,275.231995,532.895996
835.455994,267.424011,538.752014
835.455994,273.279999,532.895996
841.312012,271.328003,532.895996
835.455994,253.759995,528.992004
829.599976,257.664001,530.943970
839.359985,259.615997,528.992004
825.695984,251.807999,519.231995
833.504028,251.807999,532.895996
819.840027,251.807999,517.280029
829.599976,244.000000,521.184021
819.840027,240.095993,511.424011
815.935974,228.384003,511.424011
819.840027,230.335999,515.328003
812.031982,245.951996,513.375977
810.080017,249.856003,511.424011
808.127991,236.192001,519.231995
802.271973,222.528000,513.375977
806.176025,228.384003,505.567993
800.320007,226.432007,497.760010
802.271973,224.479996,486.048004
806.176025,222.528000,489.951996
796.416016,218.623993,486.048004
798.367981,220.576004,480.191986
784.703979,222.528000,478.239990
782.752014,222.528000,472.384003
771.039978,230.335999,476.287994
776.895996,228.384003,462.623993
769.088013,222.528000,462.623993
774.943970,203.007996,456.768005
771.039978,201.056000,452.864014
776.895996,193.248001,454.816010
772.992004,201.056000,445.056000
772.992004,187.391998,448.959991
772.992004,195.199997,448.959991
765.184021,189.343994,445.056000
767.135986,185.440002,437.247986
755.424011,193.248001,427.488007
753.471985,179.584000,433.343994
741.760010,189.343994,429.440002
751.520020,179.584000,423.584015
743.711975,175.679993,415.776001
737.856018,179.584000,415.776001
739.807983,171.776001,407.967987
737.856018,173.727997,398.208008
730.047974,167.871994,407.967987
733.952026,160.063995,384.544006
726.143982,158.112000,384.544006
730.047974,150.304001,382.592010
733.952026,148.352005,372.832001
730.047974,146.399994,386.496002
718.335999,144.447998,384.544006
724.192017,146.399994,388.447998
724.192017,150.304001,372.832001
720.288025,136.639999,374.783997
722.239990,142.496002,380.640015
718.335999,146.399994,370.880005
732.000000,140.544006,357.216003
730.047974,136.639999,353.312012
732.000000,140.544006,353.312012
733.952026,144.447998,349.407990
728.096008,144.447998,341.600006
739.807983,142.496002,324.032013
726.143982,150.304001,310.368011
728.096008,160.063995,296.704010
739.807983,156.160004,300.608002
741.760010,148.352005,304.511993
757.375977,150.304001,304.511993
767.135986,162.016006,310.368011
769.088013,165.919998,312.320007
776.895996,165.919998,308.415985
769.088013,152.255997,310.368011
784.703979,158.112000,312.320007
788.607971,144.447998,314.272003
794.463989,142.496002,312.320007
806.176025,140.544006,308.415985
800.320007,136.639999,310.368011
817.888000,136.639999,312.320007
841.312012,140.544006,312.320007
813.984009,109.311996,318.175995
757.375977,146.399994,294.752014
767.135986,150.304001,290.847992
757.375977,132.735992,279.135986
794.463989,109.311996,267.424011
849.119995,107.360001,267.424011
853.023987,111.264000,265.471985
872.544006,124.928001,277.183990
862.783997,144.447998,269.376007
853.023987,132.735992,277.183990
829.599976,144.447998,273.279999
833.504028,185.440002,273.279999
817.888000,208.863998,265.471985
825.695984,210.815994,269.376007
823.744019,210.815994,283.040009
827.648010,214.720001,275.231995
827.648010,212.768005,275.231995
860.831970,199.104004,277.183990
858.880005,187.391998,275.231995
870.591980,179.584000,271.328003
876.447998,171.776001,277.183990
884.255981,165.919998,277.183990
878.400024,132.735992,290.847992
983.807983,124.928001,283.040009
933.056030,52.703999,265.471985
823.744019,21.472000,245.951996
708.575989,154.207993,230.335999
673.440002,296.704010,218.623993
786.656006,203.007996,224.479996
909.632019,60.512001,222.528000
985.760010,-83.935997,214.720001
977.952026,-109.311996,238.143997
968.192017,-126.879997,261.567993
964.288025,-138.591995,284.992004
1018.943970,-142.496002,329.888000
1034.560059,-165.919998,365.023987
993.567993,-130.783997,388.447998
849.119995,331.839996,415.776001
923.296021,687.104004,439.200012
915.487976,167.871994,466.528015
929.151978,-333.791992,482.144012
964.288025,9.760000,513.375977
993.567993,263.519989,528.992004
935.007996,224.479996,558.271973
987.711975,113.216003,575.840027
1013.088013,89.792000,575.840027
1044.319946,95.648003,595.359985
1011.135986,126.879997,597.312012
1009.184021,189.343994,609.023987
1001.375977,212.768005,612.927979
1009.184021,140.544006,628.544006
1065.791992,50.751999,620.736023
1087.264038,50.751999,626.591980
1028.703979,115.167999,622.687988
1030.656006,158.112000,626.591980
993.567993,103.456001,640.255981
1013.088013,52.703999,632.447998
1020.895996,44.896000,638.304016
1013.088013,85.888000,646.112000
995.520020,109.311996,626.591980
1007.231995,58.560001,620.736023
1024.800049,5.856000,610.976013
1034.560059,-21.472000,593.408020
1054.079956,-11.712000,599.263977
1048.223999,15.616000,593.408020
1054.079956,-15.616000,595.359985
1075.552002,-39.040001,593.408020
1085.312012,-60.512001,597.312012
1083.359985,-35.136002,609.023987
1073.599976,-13.664000,616.831970
1079.456055,-11.712000,624.640015
1091.167969,-17.568001,628.544006
1098.975952,-35.136002,642.208008
1098.975952,-17.568001,640.255981
1067.744019,1.952000,636.351990
1046.271973,7.808000,628.544006
993.567993,21.472000,616.831970
977.952026,35.136002,603.168030
960.383972,60.512001,599.263977
972.096008,64.416000,577.791992
987.711975,33.183998,562.176025
1015.039978,-7.808000,552.416016
1067.744019,-44.896000,540.703979
1083.359985,-40.992001,548.512024
1057.984009,-27.327999,560.223999
1048.223999,-5.856000,573.888000
1026.751953,-15.616000,591.455994
1020.895996,-27.327999,603.168030
1018.943970,-17.568001,603.168030
1044.319946,-1.952000,610.976013
1034.560059,-17.568001,607.072021
1061.887939,-33.183998,603.168030
1073.599976,-33.183998,610.976013
1071.647949,-37.088001,591.455994
1083.359985,-31.232000,587.552002
1083.359985,-23.424000,579.744019
1087.264038,-11.712000,571.935974
1071.647949,-13.664000,558.271973
1065.791992,-5.856000,546.559998
1048.223999,9.760000,523.135986
1028.703979,21.472000,519.231995
1011.135986,39.040001,501.664001
1028.703979,33.183998,497.760010
1007.231995,35.136002,480.191986
1022.848022,37.088001,478.239990
1018.943970,39.040001,460.671997
1022.848022,37.088001,456.768005
1018.943970,37.088001,448.959991
1013.088013,44.896000,447.007996
1016.992004,42.944000,439.200012
1013.088013,27.327999,433.343994
997.471985,29.280001,419.679993
1005.280029,33.183998,411.872009
993.567993,33.183998,402.112000
1097.024048,5.856000,407.967987
1122.400024,7.808000,396.256012
972.096008,15.616000,365.023987
825.695984,117.120003,355.264008
1015.039978,232.287994,343.552002
995.520020,48.799999,325.984009
956.479980,95.648003,281.088013
927.200012,187.391998,269.376007
925.247986,185.440002,267.424011
913.536011,81.984001,255.712006
1059.936035,54.655998,230.335999
960.383972,210.815994,226.432007
950.624023,312.320007,212.768005
968.192017,165.919998,212.768005
938.911987,119.071999,206.912003
1011.135986,269.376007,203.007996
993.567993,249.856003,212.768005
999.424011,140.544006,199.104004
1009.184021,187.391998,222.528000
1003.328003,244.000000,238.143997
1013.088013,177.632004,238.143997
1040.416016,136.639999,245.951996
1003.328003,208.863998,253.759995
960.383972,228.384003,253.759995
931.104004,210.815994,259.615997
952.575989,218.623993,261.567993
970.143982,230.335999,263.519989
936.960022,216.671997,257.664001
936.960022,247.904007,251.807999
938.911987,245.951996,249.856003
940.864014,240.095993,245.951996
952.575989,236.192001,249.856003
981.856018,206.912003,249.856003
993.567993,203.007996,249.856003
983.807983,210.815994,245.951996
997.471985,224.479996,238.143997
995.520020,212.768005,240.095993
993.567993,199.104004,232.287994
995.520020,199.104004,244.000000
1018.943970,222.528000,238.143997
987.711975,236.192001,244.000000
995.520020,242.048004,253.759995
983.807983,224.479996,249.856003
979.903992,232.287994,251.807999
977.952026,257.664001,238.143997
985.760010,267.424011,228.384003
987.711975,271.328003,210.815994
987.711975,292.799988,193.248001
997.471985,294.752014,181.535995
1003.328003,273.279999,175.679993
1016.992004,286.944000,163.968002
843.263977,302.559998,173.727997
1138.015991,253.759995,199.104004
970.143982,93.695999,206.912003
1132.160034,265.471985,216.671997
1042.368042,361.119995,208.863998
1042.368042,249.856003,204.960007
1015.039978,208.863998,193.248001
987.711975,411.872009,179.584000
952.575989,437.247986,171.776001
958.432007,234.240005,179.584000
923.296021,169.824005,156.160004
936.960022,327.936005,154.207993
915.487976,368.928009,134.688004
970.143982,238.143997,128.832001
1003.328003,199.104004,113.216003
1003.328003,249.856003,109.311996
1022.848022,234.240005,117.120003
1057.984009,124.928001,115.167999
1028.703979,117.120003,109.311996
987.711975,220.576004,99.552002
974.047974,197.151993,87.839996
983.807983,175.679993,62.464001
1003.328003,206.912003,62.464001
979.903992,177.632004,54.655998
977.952026,97.599998,50.751999
1063.839966,68.320000,15.616000
1075.552002,-7.808000,1.952000
1020.895996,13.664000,-11.712000
1030.656006,68.320000,-13.664000
806.176025,74.176003,-40.992001
655.872009,154.207993,-72.223999
745.664001,355.264008,-105.407997
927.200012,327.936005,-144.447998
1050.176025,95.648003,-154.207993
1044.319946,-95.648003,-179.584000
1005.280029,-76.127998,-197.151993
897.919983,390.399994,-197.151993
847.168030,281.088013,-220.576004
878.400024,-99.552002,-236.192001
987.711975,232.287994,-228.384003
903.776001,374.783997,-242.048004
849.119995,177.632004,-265.471985
913.536011,236.192001,-281.088013
895.968018,310.368011,-271.328003
954.528015,23.424000,-279.135986
1030.656006,-52.703999,-314.272003
1013.088013,218.623993,-288.895996
970.143982,150.304001,-275.231995
968.192017,-146.399994,-261.567993
989.664001,-13.664000,-238.143997
954.528015,236.192001,-230.335999
661.728027,191.296005,-111.264000
767.135986,607.072021,491.903992
650.015991,97.599998,544.607971
1116.543945,-1272.703979,169.824005
1239.520020,-1220.000000,-101.503998
1024.800049,40.992001,-138.591995
841.312012,540.703979,-17.568001
849.119995,-171.776001,109.311996
894.015991,-577.791992,128.832001
1003.328003,-599.263977,56.608002
1097.024048,-341.600006,-23.424000
878.400024,13.664000,64.416000
911.583984,603.168030,306.463989
1346.880005,778.848022,427.488007
1296.128052,813.984009,460.671997
1307.839966,720.288025,429.440002
1009.184021,58.560001,482.144012
1077.504028,-1323.456055,497.760010
1208.287964,-2453.664062,507.519989
1323.456055,-2730.847900,462.623993
1212.192017,-2197.951904,407.967987
1229.760010,-728.096008,288.895996
1079.456055,895.968018,175.679993
1097.024048,1766.560059,117.120003
1054.079956,2098.399902,76.127998
1057.984009,1741.183960,44.896000
1044.319946,511.424011,44.896000
1227.807983,-751.520020,29.280001
1321.504028,-1809.504028,113.216003
1325.407959,-2381.439941,181.535995
1173.151978,-1823.167969,201.056000
1056.031982,-109.311996,152.255997
864.736023,1483.520020,128.832001
1190.719971,1883.680054,97.599998
1100.927979,1827.072021,128.832001
1141.920044,1711.904053,85.888000
829.599976,1003.328003,87.839996
923.296021,-411.872009,40.992001
1098.975952,-1424.959961,54.655998
1210.239990,-1370.303955,121.024002
1305.887939,-614.880005,183.488007
1307.839966,244.000000,222.528000
1296.128052,614.880005,222.528000
1241.472046,415.776001,224.479996
1198.527954,83.935997,199.104004
1165.343994,-13.664000,183.488007
1136.063965,109.311996,165.919998
1106.784058,286.944000,165.919998
1110.687988,429.440002,165.919998
1095.072021,421.631989,142.496002
1081.407959,245.951996,130.783997
1081.407959,-7.808000,117.120003
1083.359985,-119.071999,97.599998
1100.927979,-81.984001,46.848000
1126.303955,31.232000,1.952000
1108.735962,189.343994,-23.424000
1095.072021,325.984009,-58.560001
1155.583984,427.488007,-97.599998
1071.647949,421.631989,-87.839996
1044.319946,433.343994,-87.839996
1028.703979,802.271973,-105.407997
1057.984009,1198.527954,-52.703999
1073.599976,1241.472046,50.751999
1134.112061,936.960022,113.216003
1179.008057,203.007996,140.544006
1298.079956,-708.575989,173.727997
1374.208008,-1194.624023,228.384003
1389.823975,-970.143982,228.384003
1323.456055,-511.424011,257.664001
1235.615967,-122.975998,320.127991
1171.199951,310.368011,351.359985
1180.959961,677.343994,357.216003
1208.287964,858.880005,335.743988
1221.952026,769.088013,318.175995
1221.952026,298.656006,300.608002
1239.520020,-411.872009,288.895996
1266.848022,-860.831970,273.279999
1276.608032,-815.935974,255.712006
1249.280029,-324.032013,226.432007
1196.576050,261.567993,167.871994
1167.296021,585.599976,89.792000
1098.975952,573.888000,13.664000
1073.599976,296.704010,-37.088001
1069.696045,-13.664000,-76.127998
1102.880005,-191.296005,-99.552002
1102.880005,-189.343994,-121.024002
1104.832031,-68.320000,-130.783997
1093.119995,68.320000,-142.496002
1048.223999,107.360001,-175.679993
1036.511963,87.839996,-218.623993
1003.328003,1.952000,-238.143997
1001.375977,-23.424000,-259.615997
964.288025,93.695999,-286.944000
976.000000,283.040009,-308.415985
983.807983,439.200012,-335.743988
1007.231995,566.080017,-302.559998
1046.271973,626.591980,-230.335999
1034.560059,476.287994,-150.304001
1104.832031,50.751999,-124.928001
1134.112061,-437.247986,-117.120003
1202.432007,-853.023987,-87.839996
1180.959961,-1046.271973,-37.088001
1136.063965,-780.799988,0.000000
1052.128052,-185.440002,9.760000
954.528015,427.488007,-48.799999
884.255981,745.664001,-91.744003
956.479980,648.064026,-158.112000
1028.703979,195.199997,-234.240005
1024.800049,-386.496002,-316.223999
1005.280029,-712.479980,-380.640015
944.768005,-571.935974,-423.584015
1005.280029,-107.360001,-499.712006
964.288025,263.519989,-556.320007
966.239990,394.303986,-609.023987
1054.079956,273.279999,-653.919983
1011.135986,-80.031998,-667.583984
1020.895996,-398.208008,-638.304016
1089.215942,-478.239990,-659.776001
1079.456055,-409.920013,-669.536011
1057.984009,-11.712000,-650.015991
972.096008,936.960022,-509.471985
894.015991,1702.144043,-329.888000
909.632019,1409.343994,-238.143997
1016.992004,232.287994,-206.912003
1233.663940,-940.864014,-222.528000
1305.887939,-1928.576050,-156.160004
1194.624023,-1998.848022,-107.360001
886.208008,-981.856018,-46.848000
940.864014,493.855988,-23.424000
1151.680054,1356.640015,58.560001
1329.312012,1319.552002,267.424011
1565.504028,534.848022,540.703979
1735.328003,-624.640015,907.679993
1991.040039,-1577.215942,1303.936035
2174.528076,-1866.112061,1684.576050
2242.847900,-1360.543945,1940.287964
2166.719971,-651.968018,2053.503906
2418.528076,-466.528015,1953.952026
2473.184082,-335.743988,1797.791992
2475.135986,-189.343994,1563.552002
2342.399902,-31.232000,1366.400024
2174.528076,169.824005,1184.864014
2073.023926,458.720001,977.952026
1848.543945,757.375977,735.903992
1612.352051,892.064026,439.200012
1296.128052,895.968018,146.399994
1044.319946,704.671997,-152.255997
876.447998,544.607971,-486.048004
640.255981,376.735992,-778.848022
628.544006,-755.424011,-1056.031982
603.168030,-1907.104004,-1253.183960
409.920013,-1717.760010,-1313.696045
378.687988,-550.463989,-1395.680054
402.112000,447.007996,-1385.920044
497.760010,794.463989,-1266.848022
612.927979,562.176025,-1032.608032
804.223999,121.024002,-823.744019
985.760010,-177.632004,-581.695984
1009.184021,-325.984009,-331.839996
1124.352051,-400.160004,-126.879997
1284.416016,-458.720001,44.896000
1428.864014,-503.615997,189.343994
1559.647949,-484.096008,325.984009
1723.615967,-232.287994,411.872009
1801.696045,571.935974,569.984009
1895.391968,1270.751953,784.703979
1893.439941,1653.343994,915.487976
1774.368042,1754.848022,884.255981
1600.640015,1532.319946,651.968018
1378.112061,1095.072021,284.992004
1169.248047,692.960022,-132.735992
1013.088013,429.440002,-484.096008
876.447998,310.368011,-685.151978
771.039978,357.216003,-817.888000
708.575989,460.671997,-860.831970
700.768005,445.056000,-841.312012
755.424011,316.223999,-776.895996
851.072021,-35.136002,-626.591980
944.768005,-917.440002,-398.208008
1108.735962,-1407.391968,-253.759995
1063.839966,-1005.280029,-134.688004
1253.183960,-193.248001,-58.560001
1323.456055,312.320007,93.695999
1370.303955,365.023987,236.192001
1348.832031,130.783997,300.608002
1272.703979,-134.688004,240.095993
1231.712036,-273.279999,83.935997
1270.751953,-197.151993,-105.407997
1194.624023,13.664000,-244.000000
1184.864014,181.535995,-329.888000
1116.543945,234.240005,-345.503998
1063.839966,261.567993,-302.559998
1138.015991,265.471985,-257.664001
1179.008057,253.759995,-204.960007
1198.527954,242.048004,-160.063995
1216.095947,226.432007,-113.216003
1227.807983,199.104004,-52.703999
1229.760010,183.488007,-13.664000
1264.895996,173.727997,-27.327999
1305.887939,189.343994,-68.320000
1315.647949,206.912003,-89.792000
1249.280029,195.199997,-46.848000
1225.855957,62.464001,-5.856000
1292.223999,-191.296005,-13.664000
1298.079956,-286.944000,-25.375999
1354.687988,-302.559998,-103.456001
1286.368042,-283.040009,-185.440002
1163.391968,-238.143997,-222.528000
1147.776001,-265.471985,-257.664001
1095.072021,-341.600006,-298.656006
1032.608032,-464.575989,-345.503998
913.536011,-530.943970,-415.776001
911.583984,-554.367981,-489.951996
895.968018,-486.048004,-534.848022
950.624023,-314.272003,-509.471985
1015.039978,-95.648003,-409.920013
1056.031982,281.088013,-259.615997
1157.536011,679.296021,-144.447998
1194.624023,968.192017,-56.608002
1212.192017,1042.368042,-11.712000
1200.479980,979.903992,-25.375999
1169.248047,854.976013,-103.456001
1157.536011,659.776001,-169.824005
1171.199951,484.096008,-210.815994
1155.583984,370.880005,-224.479996
1143.871948,265.471985,-222.528000
1145.823975,185.440002,-203.007996
1171.199951,109.311996,-220.576004
1149.728027,42.944000,-238.143997
1077.504028,-3.904000,-284.992004
999.424011,-37.088001,-347.455994
999.424011,-50.751999,-398.208008
1034.560059,-109.311996,-380.640015
1042.368042,-148.352005,-349.407990
1009.184021,-179.584000,-325.984009
997.471985,-177.632004,-298.656006
1007.231995,-160.063995,-310.368011
1024.800049,-113.216003,-351.359985
1036.511963,-83.935997,-382.592010
1059.936035,-107.360001,-417.727997
1052.128052,-167.871994,-443.104004
991.616028,-169.824005,-484.096008
886.208008,-179.584000,-488.000000
894.015991,-189.343994,-493.855988
909.632019,-171.776001,-491.903992
911.583984,-171.776001,-501.664001
917.440002,-132.735992,-468.480011
913.536011,-109.311996,-425.536011
929.151978,-72.223999,-404.063995
944.768005,-31.232000,-388.447998
956.479980,15.616000,-394.303986
966.239990,130.783997,-392.351990
974.047974,281.088013,-372.832001
968.192017,450.911987,-355.264008
972.096008,517.280029,-365.023987
968.192017,460.671997,-388.447998
970.143982,361.119995,-415.776001
968.192017,265.471985,-411.872009
968.192017,150.304001,-407.967987
960.383972,60.512001,-409.920013
929.151978,-15.616000,-425.536011
913.536011,-78.080002,-427.488007
909.632019,-204.960007,-441.152008
895.968018,-288.895996,-472.384003
862.783997,-329.888000,-511.424011
839.359985,-359.167999,-546.559998
839.359985,-380.640015,-554.367981
872.544006,-361.119995,-562.176025
901.823975,-296.704010,-532.895996
927.200012,-187.391998,-486.048004
892.064026,-99.552002,-466.528015
847.168030,-27.327999,-452.864014
751.520020,40.992001,-437.247986
753.471985,83.935997,-368.928009
845.216003,29.280001,-240.095993
925.247986,-113.216003,-111.264000
989.664001,-255.712006,-1.952000
1026.751953,-308.415985,0.000000
1030.656006,-322.079987,-122.975998
985.760010,-222.528000,-271.328003
933.056030,-113.216003,-437.247986
1044.319946,40.992001,-632.447998
1083.359985,271.328003,-778.848022
1044.319946,583.648010,-798.367981
913.536011,1048.223999,-614.880005
974.047974,1387.871948,-347.455994
1204.384033,1501.088013,-107.360001
1350.784058,1331.264038,76.127998
1309.791992,1024.800049,165.919998
1321.504028,718.335999,107.360001
1325.407959,355.264008,-13.664000
1264.895996,-5.856000,-121.024002
1223.904053,-380.640015,-232.287994
1102.880005,-696.864014,-339.648010
919.392029,-815.935974,-443.104004
833.504028,-761.280029,-556.320007
808.127991,-569.984009,-638.304016
786.656006,-372.832001,-648.064026
790.559998,-158.112000,-534.848022
823.744019,-60.512001,-351.359985
888.159973,-35.136002,-158.112000
936.960022,-3.904000,-46.848000
925.247986,46.848000,25.375999
977.952026,93.695999,19.520000
962.335999,148.352005,-19.520000
1028.703979,142.496002,-103.456001
1087.264038,148.352005,-195.199997
1116.543945,128.832001,-261.567993
1141.920044,171.776001,-347.455994
1079.456055,304.511993,-406.015991
1106.784058,404.063995,-499.712006
940.864014,464.575989,-488.000000
1085.312012,447.007996,-478.239990
1038.463989,413.824005,-392.351990
1059.936035,269.376007,-337.696014
1009.184021,181.535995,-199.104004
1048.223999,154.207993,-85.888000
1108.735962,134.688004,-85.888000
1081.407959,152.255997,-113.216003
1106.784058,183.488007,-130.783997
1151.680054,169.824005,-162.016006
1057.984009,148.352005,-177.632004
1081.407959,107.360001,-277.183990
1114.592041,64.416000,-363.071991
1270.751953,33.183998,-454.816010
1216.095947,91.744003,-470.432007
1192.671997,167.871994,-425.536011
1173.151978,187.391998,-365.023987
1059.936035,245.951996,-283.040009
1009.184021,269.376007,-195.199997
1048.223999,201.056000,-171.776001
960.383972,107.360001,-134.688004
997.471985,19.520000,-150.304001
1036.511963,-17.568001,-222.528000
1028.703979,-21.472000,-283.040009
1050.176025,39.040001,-359.167999
1065.791992,87.839996,-417.727997
1100.927979,101.503998,-394.303986
1116.543945,146.399994,-341.600006
1151.680054,204.960007,-304.511993
1184.864014,199.104004,-218.623993
1200.479980,179.584000,-175.679993
1227.807983,169.824005,-165.919998
1259.040039,169.824005,-195.199997
1311.744019,206.912003,-322.079987
1030.656006,312.320007,-431.391998
1028.703979,599.263977,-407.967987
201.056000,388.447998,-107.360001
601.216003,-263.519989,-163.968002
749.567993,-593.408020,-286.944000
825.695984,-234.240005,-511.424011
1210.239990,-134.688004,-825.695984
683.200012,263.519989,-704.671997
626.591980,197.151993,-626.591980
1005.280029,-417.727997,-450.911987
1192.671997,-546.559998,-294.752014
1093.119995,-294.752014,-70.272003
1026.751953,-355.264008,103.456001
1026.751953,-435.295990,204.960007
1087.264038,-283.040009,249.856003
1163.391968,-128.832001,126.879997
1132.160034,58.560001,-142.496002
979.903992,349.407990,-404.063995
886.208008,667.583984,-558.271973
845.216003,884.255981,-640.255981
901.823975,968.192017,-599.263977
991.616028,931.104004,-448.959991
1253.183960,683.200012,-292.799988
1292.223999,298.656006,-80.031998
1155.583984,140.544006,27.327999
1089.215942,99.552002,17.568001
1315.647949,-138.591995,-140.544006
1333.215942,-251.807999,-255.712006
1335.167969,-119.071999,-349.407990
1237.567993,29.280001,-404.063995
1151.680054,183.488007,-443.104004
976.000000,452.864014,-447.007996
878.400024,591.455994,-431.391998
872.544006,558.271973,-378.687988
923.296021,495.808014,-310.368011
991.616028,361.119995,-244.000000
1036.511963,158.112000,-197.151993
1057.984009,37.088001,-185.440002
1018.943970,7.808000,-265.471985
1013.088013,-13.664000,-366.976013
1024.800049,-48.799999,-425.536011
1024.800049,-7.808000,-429.440002
1015.039978,60.512001,-433.343994
997.471985,46.848000,-425.536011
977.952026,31.232000,-433.343994
966.239990,1.952000,-400.160004
977.952026,-95.648003,-316.223999
974.047974,-121.024002,-267.424011
964.288025,-95.648003,-288.895996
964.288025,-99.552002,-281.088013
954.528015,-95.648003,-288.895996
944.768005,-80.031998,-316.223999
933.056030,-29.280001,-363.071991
931.104004,46.848000,-402.112000
925.247986,111.264000,-406.015991
954.528015,130.783997,-388.447998
976.000000,152.255997,-347.455994
1018.943970,193.248001,-335.743988
1024.800049,212.768005,-331.839996
1036.511963,203.007996,-308.415985
1030.656006,201.056000,-306.463989
1030.656006,173.727997,-302.559998
1032.608032,191.296005,-324.032013
1034.560059,185.440002,-347.455994
1026.751953,173.727997,-357.216003
1022.848022,165.919998,-386.496002
997.471985,150.304001,-382.592010
995.520020,146.399994,-378.687988
993.567993,132.735992,-353.312012
999.424011,158.112000,-353.312012
1007.231995,144.447998,-341.600006
1003.328003,146.399994,-359.167999
1009.184021,144.447998,-368.928009
1001.375977,146.399994,-366.976013
991.616028,158.112000,-372.832001
995.520020,173.727997,-388.447998
993.567993,154.207993,-390.399994
981.856018,142.496002,-372.832001
979.903992,138.591995,-339.648010
976.000000,152.255997,-355.264008
981.856018,154.207993,-394.303986
960.383972,132.735992,-419.679993
964.288025,142.496002,-431.391998
964.288025,179.584000,-450.911987
970.143982,181.535995,-445.056000
989.664001,173.727997,-374.783997
991.616028,195.199997,-363.071991
1001.375977,169.824005,-357.216003
1001.375977,140.544006,-370.880005
989.664001,122.975998,-382.592010
974.047974,109.311996,-429.440002
950.624023,99.552002,-445.056000
936.960022,105.407997,-466.528015
933.056030,111.264000,-480.191986
938.911987,103.456001,-443.104004
948.671997,101.503998,-433.343994
956.479980,115.167999,-448.959991
956.479980,97.599998,-431.391998
962.335999,126.879997,-441.152008
962.335999,124.928001,-460.671997
958.432007,136.639999,-495.808014
946.719971,126.879997,-501.664001
935.007996,124.928001,-499.712006
936.960022,99.552002,-445.056000
950.624023,130.783997,-464.575989
940.864014,89.792000,-456.768005
950.624023,83.935997,-443.104004
950.624023,97.599998,-486.048004
927.200012,74.176003,-474.335999
923.296021,105.407997,-491.903992
927.200012,113.216003,-507.519989
921.343994,119.071999,-491.903992
917.440002,103.456001,-482.144012
936.960022,93.695999,-484.096008
933.056030,99.552002,-491.903992
923.296021,89.792000,-507.519989
915.487976,87.839996,-511.424011
905.728027,68.320000,-497.760010
915.487976,66.367996,-474.335999
931.104004,81.984001,-491.903992
913.536011,72.223999,-495.808014
907.679993,85.888000,-509.471985
897.919983,74.176003,-517.280029
897.919983,72.223999,-509.471985
890.112000,68.320000,-517.280029
897.919983,72.223999,-505.567993
899.872009,62.464001,-538.752014
878.400024,23.424000,-507.519989
882.304016,62.464001,-521.184021
892.064026,42.944000,-540.703979
894.015991,25.375999,-497.760010
909.632019,72.223999,-513.375977
913.536011,76.127998,-536.799988
897.919983,89.792000,-548.512024
890.112000,101.503998,-550.463989
919.392029,60.512001,-517.280029
954.528015,52.703999,-425.536011
1007.231995,91.744003,-376.735992
1011.135986,44.896000,-351.359985
976.000000,-7.808000,-374.783997
952.575989,-7.808000,-437.247986
960.383972,7.808000,-468.480011
925.247986,40.992001,-484.096008
897.919983,40.992001,-519.231995
909.632019,39.040001,-534.848022
946.719971,72.223999,-538.752014
933.056030,72.223999,-491.903992
927.200012,23.424000,-476.287994
909.632019,27.327999,-433.343994
929.151978,9.760000,-427.488007
946.719971,-35.136002,-445.056000
936.960022,-70.272003,-419.679993
946.719971,-68.320000,-400.160004
972.096008,-66.367996,-415.776001
993.567993,-91.744003,-456.768005
987.711975,-52.703999,-441.152008
991.616028,-40.992001,-415.776001
997.471985,-50.751999,-390.399994
1015.039978,-101.503998,-409.920013
1013.088013,-83.935997,-394.303986
1024.800049,-80.031998,-411.872009
1022.848022,-60.512001,-406.015991
1028.703979,-46.848000,-458.720001
1007.231995,-21.472000,-468.480011
999.424011,0.000000,-478.239990
1013.088013,13.664000,-503.615997
1011.135986,-5.856000,-491.903992
1015.039978,-15.616000,-488.000000
1016.992004,-29.280001,-472.384003
1028.703979,-56.608002,-443.104004
1024.800049,-60.512001,-464.575989
1024.800049,-72.223999,-458.720001
1020.895996,-27.327999,-458.720001
1020.895996,-15.616000,-497.760010
1009.184021,11.712000,-511.424011
999.424011,40.992001,-525.088013
997.471985,42.944000,-550.463989
981.856018,21.472000,-515.328003
991.616028,37.088001,-519.231995
991.616028,13.664000,-525.088013
987.711975,0.000000,-550.463989
981.856018,23.424000,-554.367981
974.047974,15.616000,-560.223999
977.952026,56.608002,-540.703979
993.567993,48.799999,-538.752014
995.520020,42.944000,-517.280029
1009.184021,15.616000,-523.135986
1011.135986,19.520000,-540.703979
1005.280029,29.280001,-530.943970
1007.231995,56.608002,-540.703979
1011.135986,50.751999,-568.031982
1009.184021,78.080002,-562.176025
1016.992004,95.648003,-562.176025
1020.895996,74.176003,-554.367981
1015.039978,39.040001,-505.567993
1042.368042,60.512001,-511.424011
1036.511963,17.568001,-507.519989
1030.656006,15.616000,-519.231995
1015.039978,7.808000,-538.752014
1015.039978,-19.520000,-548.512024
1003.328003,23.424000,-556.320007
1003.328003,70.272003,-554.367981
997.471985,83.935997,-517.280029
1018.943970,76.127998,-503.615997
1042.368042,91.744003,-493.855988
1034.560059,60.512001,-519.231995
1007.231995,99.552002,-513.375977
1022.848022,80.031998,-560.223999
1009.184021,23.424000,-523.135986
1001.375977,17.568001,-538.752014
985.760010,9.760000,-536.799988
997.471985,23.424000,-501.664001
1011.135986,27.327999,-513.375977
1009.184021,29.280001,-488.000000
1007.231995,19.520000,-476.287994
1020.895996,21.472000,-468.480011
1011.135986,9.760000,-507.519989
993.567993,9.760000,-527.039978
983.807983,17.568001,-575.840027
972.096008,29.280001,-542.656006
989.664001,48.799999,-544.607971
1003.328003,17.568001,-499.712006
1013.088013,13.664000,-488.000000
1013.088013,-7.808000,-488.000000
1013.088013,0.000000,-497.760010
1024.800049,-19.520000,-503.615997
1007.231995,17.568001,-517.280029
997.471985,9.760000,-542.656006
1001.375977,21.472000,-534.848022
1009.184021,29.280001,-532.895996
1001.375977,13.664000,-505.567993
1009.184021,23.424000,-511.424011
1009.184021,9.760000,-527.039978
995.520020,3.904000,-534.848022
991.616028,5.856000,-525.088013
995.520020,35.136002,-513.375977
1001.375977,-3.904000,-503.615997
1003.328003,-17.568001,-515.328003
1005.280029,-7.808000,-525.088013
1001.375977,-23.424000,-538.752014
1001.375977,-17.568001,-488.000000
1024.800049,21.472000,-499.712006
1007.231995,1.952000,-499.712006
1011.135986,9.760000,-505.567993
1003.328003,11.712000,-527.039978
991.616028,0.000000,-523.135986
999.424011,-1.952000,-540.703979
997.471985,17.568001,-503.615997
1009.184021,19.520000,-495.808014
1005.280029,3.904000,-503.615997
993.567993,-23.424000,-499.712006
985.760010,-9.760000,-505.567993
977.952026,-56.608002,-532.895996
970.143982,-19.520000,-507.519989
974.047974,1.952000,-511.424011
954.528015,19.520000,-476.287994
977.952026,-5.856000,-507.519989
954.528015,3.904000,-515.328003
936.960022,-9.760000,-517.280029
935.007996,5.856000,-527.039978
925.247986,-7.808000,-525.088013
931.104004,-9.760000,-534.848022
936.960022,-1.952000,-528.992004
933.056030,-7.808000,-523.135986
944.768005,3.904000,-554.367981
938.911987,-21.472000,-581.695984
919.392029,3.904000,-560.223999
936.960022,25.375999,-558.271973
960.383972,11.712000,-548.512024
956.479980,23.424000,-548.512024
950.624023,-3.904000,-560.223999
952.575989,19.520000,-530.943970
962.335999,1.952000,-554.367981
964.288025,11.712000,-569.984009
970.143982,11.712000,-583.648010
956.479980,31.232000,-573.888000
956.479980,23.424000,-528.992004
993.567993,56.608002,-530.943970
983.807983,11.712000,-542.656006
972.096008,15.616000,-552.416016
966.239990,40.992001,-585.599976
952.575989,29.280001,-603.168030
948.671997,37.088001,-569.984009
968.192017,42.944000,-552.416016
987.711975,54.655998,-532.895996
981.856018,17.568001,-519.231995
997.471985,39.040001,-538.752014
976.000000,23.424000,-556.320007
981.856018,37.088001,-581.695984
985.760010,39.040001,-579.744019
985.760010,76.127998,-581.695984
985.760010,76.127998,-536.799988
1011.135986,89.792000,-519.231995
1015.039978,70.272003,-517.280029
1011.135986,64.416000,-501.664001
1024.800049,50.751999,-503.615997
1018.943970,60.512001,-513.375977
1009.184021,27.327999,-544.607971
991.616028,42.944000,-569.984009
979.903992,107.360001,-521.184021
1007.231995,91.744003,-513.375977
1028.703979,78.080002,-540.703979
1009.184021,54.655998,-544.607971
993.567993,95.648003,-507.519989
1020.895996,64.416000,-511.424011
1018.943970,29.280001,-486.048004
1024.800049,58.560001,-515.328003
1016.992004,52.703999,-505.567993
1001.375977,56.608002,-507.519989
1003.328003,64.416000,-530.943970
987.711975,39.040001,-552.416016
972.096008,76.127998,-528.992004
985.760010,103.456001,-521.184021
991.616028,87.839996,-503.615997
991.616028,83.935997,-505.567993
1009.184021,62.464001,-542.656006
974.047974,27.327999,-534.848022
979.903992,74.176003,-527.039978
1003.328003,83.935997,-505.567993
1005.280029,83.935997,-505.567993
1009.184021,58.560001,-507.519989
1009.184021,91.744003,-532.895996
985.760010,54.655998,-564.127991
974.047974,50.751999,-579.744019
987.711975,95.648003,-554.367981
995.520020,85.888000,-540.703979
1003.328003,99.552002,-538.752014
1005.280029,91.744003,-542.656006
1003.328003,113.216003,-548.512024
987.711975,66.367996,-474.335999
1020.895996,93.695999,-478.239990
1016.992004,15.616000,-486.048004
1005.280029,19.520000,-505.567993
993.567993,44.896000,-566.080017
970.143982,70.272003,-552.416016
970.143982,91.744003,-542.656006
991.616028,140.544006,-527.039978
987.711975,103.456001,-534.848022
981.856018,85.888000,-528.992004
985.760010,68.320000,-550.463989
970.143982,52.703999,-546.559998
970.143982,95.648003,-497.760010
989.664001,99.552002,-523.135986
983.807983,74.176003,-525.088013
979.903992,64.416000,-513.375977
985.760010,126.879997,-527.039978
972.096008,52.703999,-530.943970
966.239990,66.367996,-493.855988
977.952026,87.839996,-511.424011
977.952026,85.888000,-511.424011
962.335999,42.944000,-486.048004
979.903992,111.264000,-486.048004
987.711975,89.792000,-482.144012
979.903992,105.407997,-536.799988
962.335999,103.456001,-538.752014
942.815979,126.879997,-532.895996
950.624023,91.744003,-515.328003
962.335999,62.464001,-488.000000
948.671997,54.655998,-443.104004
964.288025,42.944000,-441.152008
948.671997,1.952000,-448.959991
938.911987,31.232000,-476.287994
935.007996,21.472000,-511.424011
927.200012,64.416000,-474.335999
933.056030,111.264000,-458.720001
927.200012,111.264000,-464.575989
913.536011,68.320000,-478.239990
909.632019,70.272003,-476.287994
911.583984,66.367996,-476.287994
907.679993,27.327999,-472.384003
901.823975,15.616000,-507.519989
890.112000,33.183998,-534.848022
872.544006,25.375999,-525.088013
878.400024,62.464001,-482.144012
903.776001,93.695999,-474.335999
911.583984,72.223999,-513.375977
870.591980,44.896000,-448.959991
892.064026,91.744003,-472.384003
886.208008,33.183998,-491.903992
858.880005,-19.520000,-523.135986
854.976013,17.568001,-538.752014
847.168030,31.232000,-497.760010
864.736023,60.512001,-476.287994
886.208008,81.984001,-478.239990
880.351990,33.183998,-480.191986
878.400024,37.088001,-450.911987
890.112000,44.896000,-462.623993
862.783997,-3.904000,-458.720001
854.976013,3.904000,-464.575989
870.591980,15.616000,-495.808014
847.168030,3.904000,-488.000000
849.119995,31.232000,-486.048004
847.168030,83.935997,-448.959991
866.687988,48.799999,-447.007996
853.023987,40.992001,-472.384003
829.599976,21.472000,-470.432007
829.599976,37.088001,-468.480011
831.552002,-7.808000,-456.768005
827.648010,-11.712000,-470.432007
817.888000,0.000000,-480.191986
815.935974,-5.856000,-462.623993
821.791992,17.568001,-460.671997
823.744019,7.808000,-478.239990
827.648010,-1.952000,-450.911987
829.599976,44.896000,-427.488007
843.263977,-7.808000,-456.768005
817.888000,-3.904000,-409.920013
829.599976,-1.952000,-454.816010
815.935974,-1.952000,-460.671997
804.223999,-27.327999,-419.679993
827.648010,25.375999,-421.631989
819.840027,5.856000,-411.872009
813.984009,-50.751999,-439.200012
800.320007,3.904000,-468.480011
786.656006,-11.712000,-491.903992
776.895996,17.568001,-460.671997
788.607971,7.808000,-450.911987
800.320007,13.664000,-443.104004
800.320007,-29.280001,-413.824005
804.223999,-15.616000,-433.343994
788.607971,-44.896000,-421.631989
786.656006,-62.464001,-447.007996
794.463989,-40.992001,-480.191986
778.848022,-42.944000,-460.671997
780.799988,9.760000,-439.200012
800.320007,15.616000,-437.247986
796.416016,-5.856000,-435.295990
776.895996,-39.040001,-435.295990
776.895996,-39.040001,-441.152008
778.848022,-74.176003,-456.768005
772.992004,-46.848000,-450.911987
769.088013,-37.088001,-466.528015
765.184021,-27.327999,-456.768005
771.039978,-35.136002,-462.623993
769.088013,-25.375999,-468.480011
772.992004,-35.136002,-448.959991
786.656006,-31.232000,-454.816010
792.512024,-46.848000,-464.575989
788.607971,-50.751999,-478.239990
780.799988,-39.040001,-470.432007
788.607971,-11.712000,-478.239990
786.656006,-27.327999,-478.239990
782.752014,-23.424000,-460.671997
786.656006,-1.952000,-464.575989
780.799988,-31.232000,-466.528015
765.184021,-39.040001,-470.432007
769.088013,-27.327999,-501.664001
771.039978,-21.472000,-507.519989
772.992004,-15.616000,-493.855988
772.992004,15.616000,-517.280029
778.848022,-5.856000,-525.088013
800.320007,-17.568001,-528.992004
815.935974,-3.904000,-530.943970
812.031982,-5.856000,-525.088013
817.888000,-11.712000,-542.656006
825.695984,9.760000,-544.607971
831.552002,7.808000,-528.992004
825.695984,0.000000,-538.752014
829.599976,-11.712000,-538.752014
839.359985,-5.856000,-528.992004
847.168030,-1.952000,-528.992004
853.023987,19.520000,-528.992004
858.880005,27.327999,-536.799988
870.591980,23.424000,-527.039978
866.687988,42.944000,-530.943970
872.544006,35.136002,-542.656006
868.640015,19.520000,-550.463989
880.351990,33.183998,-538.752014
886.208008,35.136002,-511.424011
901.823975,27.327999,-488.000000
907.679993,19.520000,-480.191986
913.536011,17.568001,-495.808014
909.632019,23.424000,-497.760010
901.823975,42.944000,-507.519989
905.728027,62.464001,-507.519989
909.632019,56.608002,-505.567993
921.343994,72.223999,-488.000000
935.007996,70.272003,-474.335999
942.815979,48.799999,-478.239990
938.911987,42.944000,-456.768005
944.768005,37.088001,-439.200012
956.479980,27.327999,-423.584015
962.335999,15.616000,-411.872009
962.335999,25.375999,-419.679993
962.335999,31.232000,-423.584015
964.288025,39.040001,-448.959991
952.575989,68.320000,-460.671997
938.911987,66.367996,-447.007996
958.432007,52.703999,-413.824005
970.143982,56.608002,-382.592010
966.239990,33.183998,-376.735992
960.383972,17.568001,-406.015991
948.671997,5.856000,-429.440002
936.960022,23.424000,-437.247986
929.151978,35.136002,-435.295990
944.768005,39.040001,-425.536011
936.960022,39.040001,-407.967987
952.575989,21.472000,-398.208008
948.671997,-9.760000,-400.160004
938.911987,-7.808000,-404.063995
929.151978,-13.664000,-413.824005
921.343994,3.904000,-423.584015
913.536011,21.472000,-421.631989
909.632019,29.280001,-409.920013
913.536011,25.375999,-419.679993
907.679993,-9.760000,-437.247986
894.015991,-5.856000,-425.536011
897.919983,-11.712000,-423.584015
895.968018,-7.808000,-413.824005
895.968018,-15.616000,-409.920013
886.208008,0.000000,-431.391998
874.495972,0.000000,-433.343994
866.687988,-1.952000,-435.295990
866.687988,-15.616000,-437.247986
868.640015,-5.856000,-431.391998
870.591980,-23.424000,-421.631989
870.591980,-7.808000,-411.872009
851.072021,-27.327999,-411.872009
854.976013,-31.232000,-417.727997
843.263977,-39.040001,-431.391998
843.263977,-23.424000,-435.295990
833.504028,-29.280001,-443.104004
831.552002,-21.472000,-431.391998
827.648010,-15.616000,-423.584015
839.359985,-19.520000,-423.584015
831.552002,-39.040001,-433.343994
823.744019,-35.136002,-425.536011
825.695984,-48.799999,-425.536011
821.791992,-48.799999,-407.967987
819.840027,-31.232000,-396.256012
821.791992,-17.568001,-402.112000
813.984009,-37.088001,-417.727997
810.080017,-35.136002,-433.343994
804.223999,-35.136002,-435.295990
804.223999,-27.327999,-425.536011
800.320007,-19.520000,-407.967987
813.984009,-17.568001,-421.631989
806.176025,-27.327999,-409.920013
806.176025,-27.327999,-411.872009
806.176025,-31.232000,-425.536011
792.512024,-29.280001,-404.063995
804.223999,-21.472000,-398.208008
800.320007,-27.327999,-417.727997
794.463989,-29.280001,-409.920013
792.512024,-15.616000,-421.631989
796.416016,-17.568001,-425.536011
788.607971,-17.568001,-402.112000
802.271973,-7.808000,-384.544006
800.320007,-11.712000,-390.399994
800.320007,-33.183998,-402.112000
786.656006,-35.136002,-427.488007
772.992004,-33.183998,-437.247986
772.992004,-17.568001,-423.584015
790.559998,-1.952000,-415.776001
794.463989,-3.904000,-409.920013
796.416016,-15.616000,-394.303986
792.512024,-17.568001,-406.015991
782.752014,-31.232000,-407.967987
790.559998,-37.088001,-409.920013
788.607971,-23.424000,-404.063995
788.607971,-23.424000,-413.824005
790.559998,-31.232000,-406.015991
782.752014,-27.327999,-396.256012
790.559998,-17.568001,-421.631989
786.656006,-25.375999,-421.631989
788.607971,-27.327999,-417.727997
790.559998,-23.424000,-409.920013
786.656006,-21.472000,-406.015991
798.367981,-27.327999,-396.256012
788.607971,-29.280001,-396.256012
796.416016,-29.280001,-415.776001
788.607971,-40.992001,-417.727997
790.559998,-40.992001,-402.112000
800.320007,-17.568001,-409.920013
800.320007,-27.327999,-419.679993
780.799988,-39.040001,-411.872009
790.559998,-29.280001,-409.920013
784.703979,-33.183998,-406.015991
784.703979,-37.088001,-406.015991
788.607971,-54.655998,-404.063995
778.848022,-40.992001,-406.015991
784.703979,-33.183998,-411.872009
780.799988,-37.088001,-415.776001
790.559998,-35.136002,-400.160004
786.656006,-21.472000,-421.631989
792.512024,-21.472000,-415.776001
802.271973,-33.183998,-407.967987
788.607971,-29.280001,-409.920013
804.223999,-37.088001,-400.160004
802.271973,-37.088001,-394.303986
798.367981,-39.040001,-392.351990
786.656006,-56.608002,-407.967987
782.752014,-58.560001,-396.256012
780.799988,-37.088001,-390.399994
788.607971,-25.375999,-392.351990
774.943970,-31.232000,-421.631989
757.375977,-21.472000,-429.440002
761.280029,-15.616000,-437.247986
755.424011,-19.520000,-431.391998
761.280029,-17.568001,-435.295990
778.848022,-17.568001,-437.247986
771.039978,-29.280001,-407.967987
788.607971,-31.232000,-406.015991
802.271973,-39.040001,-417.727997
780.799988,-40.992001,-437.247986
763.231995,-35.136002,-476.287994
757.375977,-21.472000,-476.287994
753.471985,1.952000,-458.720001
774.943970,15.616000,-450.911987
786.656006,3.904000,-464.575989
761.280029,-9.760000,-460.671997
763.231995,-9.760000,-464.575989
769.088013,-3.904000,-450.911987
767.135986,1.952000,-454.816010
771.039978,-9.760000,-470.432007
771.039978,-27.327999,-470.432007
759.328003,-9.760000,-472.384003
771.039978,-9.760000,-486.048004
765.184021,-7.808000,-495.808014
767.135986,7.808000,-497.760010
774.943970,-9.760000,-503.615997
772.992004,1.952000,-488.000000
782.752014,-7.808000,-464.575989
790.559998,3.904000,-452.864014
788.607971,-11.712000,-447.007996
794.463989,-11.712000,-478.239990
786.656006,-40.992001,-493.855988
774.943970,-27.327999,-480.191986
776.895996,7.808000,-456.768005
798.367981,3.904000,-466.528015
790.559998,-42.944000,-439.200012
794.463989,-23.424000,-437.247986
806.176025,-19.520000,-445.056000
806.176025,-39.040001,-452.864014
800.320007,-35.136002,-452.864014
802.271973,13.664000,-448.959991
806.176025,0.000000,-472.384003
806.176025,-27.327999,-445.056000
813.984009,17.568001,-409.920013
835.455994,23.424000,-417.727997
835.455994,-42.944000,-437.247986
813.984009,-52.703999,-441.152008
817.888000,-11.712000,-445.056000
812.031982,-27.327999,-429.440002
825.695984,-11.712000,-448.959991
823.744019,-5.856000,-435.295990
817.888000,7.808000,-396.256012
841.312012,-15.616000,-400.160004
845.216003,-25.375999,-429.440002
819.840027,-58.560001,-419.679993
819.840027,-33.183998,-411.872009
833.504028,-13.664000,-419.679993
837.408020,-31.232000,-425.536011
837.408020,-27.327999,-448.959991
833.504028,-35.136002,-423.584015
833.504028,0.000000,-400.160004
847.168030,-25.375999,-427.488007
843.263977,-31.232000,-407.967987
864.736023,-33.183998,-437.247986
858.880005,3.904000,-452.864014
851.072021,13.664000,-443.104004
843.263977,29.280001,-431.391998
843.263977,-23.424000,-386.496002
866.687988,-58.560001,-411.872009
851.072021,-66.367996,-398.208008
856.927979,-95.648003,-419.679993
845.216003,-76.127998,-392.351990
862.783997,-50.751999,-419.679993
866.687988,-60.512001,-417.727997
849.119995,-23.424000,-365.023987
876.447998,11.712000,-382.592010
878.400024,0.000000,-394.303986
866.687988,-40.992001,-417.727997
854.976013,-7.808000,-445.056000
847.168030,-29.280001,-464.575989
847.168030,-25.375999,-462.623993
858.880005,3.904000,-431.391998
872.544006,7.808000,-425.536011
880.351990,1.952000,-361.119995
897.919983,0.000000,-376.735992
886.208008,-13.664000,-388.447998
862.783997,-46.848000,-382.592010
874.495972,-27.327999,-429.440002
847.168030,-15.616000,-433.343994
837.408020,-37.088001,-425.536011
843.263977,23.424000,-431.391998
858.880005,29.280001,-443.104004
835.455994,7.808000,-409.920013
858.880005,3.904000,-415.776001
858.880005,-46.848000,-384.544006
864.736023,-27.327999,-380.640015
880.351990,-19.520000,-470.432007
825.695984,-39.040001,-421.631989
821.791992,7.808000,-398.208008
880.351990,7.808000,-402.112000
864.736023,0.000000,-366.976013
862.783997,-27.327999,-386.496002
864.736023,3.904000,-425.536011
845.216003,-58.560001,-499.712006
823.744019,-23.424000,-468.480011
827.648010,54.655998,-435.295990
849.119995,39.040001,-374.783997
882.304016,33.183998,-359.167999
894.015991,19.520000,-409.920013
843.263977,64.416000,-464.575989
815.935974,-15.616000,-519.231995
800.320007,-91.744003,-441.152008
806.176025,-44.896000,-417.727997
829.599976,-48.799999,-347.455994
872.544006,0.000000,-355.264008
868.640015,-3.904000,-411.872009
821.791992,-15.616000,-417.727997
796.416016,-27.327999,-345.503998
845.216003,-35.136002,-392.351990
837.408020,-46.848000,-341.600006
862.783997,-33.183998,-388.447998
837.408020,-5.856000,-431.391998
794.463989,-21.472000,-394.303986
813.984009,-15.616000,-435.295990
823.744019,-35.136002,-443.104004
813.984009,-11.712000,-413.824005
835.455994,-1.952000,-339.648010
860.831970,68.320000,-351.359985
839.359985,-5.856000,-400.160004
798.367981,-15.616000,-382.592010
802.271973,-93.695999,-452.864014
798.367981,-52.703999,-429.440002
790.559998,-17.568001,-374.783997
802.271973,7.808000,-324.032013
812.031982,-66.367996,-421.631989
788.607971,-121.024002,-439.200012
782.752014,-35.136002,-359.167999
821.791992,-21.472000,-357.216003
841.312012,-68.320000,-357.216003
847.168030,-60.512001,-341.600006
837.408020,33.183998,-325.984009
833.504028,25.375999,-325.984009
853.023987,-35.136002,-423.584015
800.320007,-23.424000,-406.015991
782.752014,15.616000,-359.167999
829.599976,-56.608002,-427.488007
825.695984,-72.223999,-421.631989
806.176025,-50.751999,-347.455994
819.840027,11.712000,-327.936005
835.455994,-64.416000,-343.552002
829.599976,-76.127998,-357.216003
819.840027,-58.560001,-365.023987
813.984009,-64.416000,-290.847992
843.263977,-27.327999,-349.407990
841.312012,-33.183998,-421.631989
780.799988,-15.616000,-382.592010
784.703979,3.904000,-415.776001
790.559998,-1.952000,-450.911987
784.703979,-42.944000,-415.776001
798.367981,11.712000,-390.399994
808.127991,-7.808000,-388.447998
802.271973,-74.176003,-394.303986
812.031982,-56.608002,-370.880005
812.031982,-25.375999,-370.880005
806.176025,-23.424000,-396.256012
798.367981,-44.896000,-456.768005
763.231995,0.000000,-447.007996
751.520020,21.472000,-402.112000
778.848022,39.040001,-454.816010
780.799988,-72.223999,-482.144012
759.328003,-54.655998,-447.007996
774.943970,5.856000,-445.056000
774.943970,-11.712000,-415.776001
788.607971,-95.648003,-450.911987
790.559998,-68.320000,-458.720001
778.848022,-33.183998,-472.384003
772.992004,-27.327999,-474.335999
771.039978,23.424000,-493.855988
751.520020,-5.856000,-509.471985
730.047974,-42.944000,-435.295990
790.559998,9.760000,-407.967987
831.552002,9.760000,-478.239990
788.607971,-115.167999,-472.384003
790.559998,-31.232000,-435.295990
810.080017,40.992001,-433.343994
813.984009,11.712000,-456.768005
806.176025,1.952000,-450.911987
812.031982,83.935997,-474.335999
794.463989,52.703999,-474.335999
786.656006,60.512001,-443.104004
804.223999,66.367996,-497.760010
788.607971,-27.327999,-583.648010
755.424011,-39.040001,-515.328003
769.088013,25.375999,-470.432007
808.127991,23.424000,-421.631989
858.880005,-31.232000,-431.391998
868.640015,44.896000,-406.015991
870.591980,87.839996,-407.967987
872.544006,29.280001,-409.920013
862.783997,58.560001,-448.959991
841.312012,74.176003,-536.799988
808.127991,48.799999,-488.000000
806.176025,83.935997,-415.776001
858.880005,105.407997,-419.679993
882.304016,9.760000,-439.200012
849.119995,-9.760000,-386.496002
854.976013,48.799999,-407.967987
856.927979,27.327999,-489.951996
808.127991,-121.024002,-474.335999
782.752014,-11.712000,-347.455994
860.831970,-17.568001,-470.432007
849.119995,-163.968002,-540.703979
780.799988,-216.671997,-460.671997
808.127991,-58.560001,-355.264008
872.544006,-9.760000,-447.007996
849.119995,-122.975998,-530.943970
796.416016,-58.560001,-489.951996
774.943970,52.703999,-378.687988
843.263977,119.071999,-357.216003
892.064026,-3.904000,-392.351990
888.159973,23.424000,-388.447998
845.216003,29.280001,-460.671997
813.984009,-105.407997,-489.951996
774.943970,-87.839996,-409.920013
806.176025,-54.655998,-423.584015
841.312012,-146.399994,-480.191986
825.695984,-279.135986,-515.328003
790.559998,-189.343994,-542.656006
751.520020,-206.912003,-480.191986
759.328003,-105.407997,-456.768005
821.791992,-115.167999,-575.840027
798.367981,-148.352005,-577.791992
765.184021,-78.080002,-493.855988
827.648010,27.327999,-439.200012
851.072021,70.272003,-327.936005
897.919983,52.703999,-366.976013
903.776001,39.040001,-435.295990
864.736023,-60.512001,-419.679993
868.640015,31.232000,-407.967987
854.976013,27.327999,-435.295990
845.216003,-9.760000,-480.191986
831.552002,-111.264000,-587.552002
778.848022,-27.327999,-612.927979
747.616028,-156.160004,-622.687988
735.903992,-101.503998,-589.504028
767.135986,-208.863998,-632.447998
782.752014,-117.120003,-536.799988
831.552002,-74.176003,-400.160004
927.200012,70.272003,-339.648010
952.575989,-50.751999,-269.376007
964.288025,42.944000,-142.496002
1009.184021,111.264000,-171.776001
1007.231995,80.031998,-431.391998
868.640015,-257.664001,-577.791992
772.992004,-1.952000,-450.911987
868.640015,154.207993,-515.328003
864.736023,-33.183998,-464.575989
825.695984,-210.815994,-298.656006
913.536011,64.416000,-302.559998
940.864014,-66.367996,-322.079987
897.919983,-253.759995,-337.696014
890.112000,-99.552002,-400.160004
876.447998,31.232000,-386.496002
890.112000,-78.080002,-462.623993
854.976013,-165.919998,-527.039978
780.799988,-80.031998,-497.760010
796.416016,39.040001,-419.679993
858.880005,62.464001,-482.144012
841.312012,-66.367996,-614.880005
743.711975,-31.232000,-671.487976
722.239990,54.655998,-735.903992
751.520020,21.472000,-544.607971
853.023987,-42.944000,-413.824005
964.288025,206.912003,-376.735992
979.903992,162.016006,-499.712006
886.208008,27.327999,-505.567993
851.072021,95.648003,-579.744019
854.976013,160.063995,-743.711975
784.703979,-68.320000,-860.831970
747.616028,-62.464001,-831.552002
790.559998,247.904007,-614.880005
884.255981,938.911987,-472.384003
1069.696045,271.328003,-353.312012
1091.167969,-396.256012,-44.896000
1116.543945,-827.648010,121.024002
1190.719971,-433.343994,107.360001
1208.287964,-316.223999,1.952000
1128.255981,-310.368011,-240.095993
983.807983,-56.608002,-441.152008
888.159973,247.904007,-685.151978
784.703979,579.744019,-1016.992004
663.679993,970.143982,-1220.000000
644.159973,780.799988,-1138.015991
696.864014,495.808014,-1001.375977
771.039978,117.120003,-800.320007
825.695984,-15.616000,-566.080017
856.927979,-78.080002,-349.407990
954.528015,-109.311996,-204.960007
1065.791992,62.464001,-191.296005
1130.208008,56.608002,-72.223999
1163.391968,56.608002,0.000000
1229.760010,-17.568001,-48.799999
1233.663940,-134.688004,-210.815994
1149.728027,-333.791992,-146.399994
1153.631958,-489.951996,-44.896000
1231.712036,-710.528015,-64.416000
1262.943970,-804.223999,-81.984001
1169.248047,-661.728027,-37.088001
1065.791992,-448.959991,-195.199997
964.288025,-327.936005,-417.727997
845.216003,-95.648003,-564.127991
772.992004,216.671997,-593.408020
790.559998,327.936005,-689.056030
800.320007,228.384003,-753.471985
788.607971,335.743988,-685.151978
804.223999,218.623993,-521.184021
868.640015,66.367996,-458.720001
907.679993,-130.783997,-488.000000
868.640015,-44.896000,-409.920013
829.599976,-87.839996,-376.735992
833.504028,-1.952000,-253.759995
913.536011,52.703999,-390.399994
862.783997,-50.751999,-525.088013
755.424011,-50.751999,-597.312012
751.520020,52.703999,-782.752014
732.000000,105.407997,-790.559998
716.383972,48.799999,-741.760010
776.895996,130.783997,-605.119995
897.919983,179.584000,-482.144012
997.471985,83.935997,-454.816010
995.520020,29.280001,-331.839996
977.952026,163.968002,-347.455994
964.288025,97.599998,-484.096008
892.064026,52.703999,-612.927979
812.031982,150.304001,-702.719971
780.799988,265.471985,-650.015991
782.752014,273.279999,-718.335999
798.367981,255.712006,-741.760010
827.648010,345.503998,-784.703979
815.935974,610.976013,-812.031982
856.927979,765.184021,-890.112000
819.840027,509.471985,-872.544006
765.184021,304.511993,-806.176025
782.752014,144.447998,-708.575989
819.840027,203.007996,-640.255981
829.599976,146.399994,-554.367981
894.015991,134.688004,-575.840027
923.296021,140.544006,-515.328003
933.056030,162.016006,-534.848022
940.864014,162.016006,-527.039978
942.815979,97.599998,-525.088013
956.479980,-13.664000,-509.471985
972.096008,-167.871994,-480.191986
985.760010,-269.376007,-437.247986
991.616028,-267.424011,-404.063995
1009.184021,-267.424011,-341.600006
1040.416016,-290.847992,-279.135986
1071.647949,-281.088013,-286.944000
1089.215942,-259.615997,-263.519989
1098.975952,-242.048004,-206.912003
1132.160034,-288.895996,-173.727997
1124.352051,-322.079987,-163.968002
1122.400024,-275.231995,-154.207993
1122.400024,-489.951996,-74.176003
1145.823975,-257.664001,-113.216003
1192.671997,-482.144012,-214.720001
1202.432007,-599.263977,-255.712006
1022.848022,-648.064026,-203.007996
964.288025,-394.303986,-177.632004
1145.823975,-325.984009,-249.856003
1233.663940,208.863998,-298.656006
1153.631958,488.000000,-337.696014
1048.223999,429.440002,-386.496002
1005.280029,308.415985,-382.592010
1057.984009,421.631989,-341.600006
1286.368042,482.144012,-189.343994
1483.520020,558.271973,42.944000
1577.215942,726.143982,251.807999
1618.208008,569.984009,462.623993
1733.375977,622.687988,591.455994
1830.975952,812.031982,626.591980
1914.911987,821.791992,538.752014
1983.232056,390.399994,415.776001
2037.887939,72.223999,341.600006
