ACC_X,ACC_Y,ACC_Z
329.888000,417.727997,845.216003
337.696014,419.679993,849.119995
329.888000,421.631989,849.119995
337.696014,425.536011,847.168030
333.791992,419.679993,851.072021
333.791992,423.584015,851.072021
335.743988,425.536011,854.976013
335.743988,423.584015,851.072021
343.552002,421.631989,853.023987
333.791992,419.679993,849.119995
337.696014,413.824005,845.216003
335.743988,413.824005,851.072021
339.648010,423.584015,851.072021
333.791992,423.584015,843.263977
339.648010,425.536011,853.023987
337.696014,425.536011,854.976013
337.696014,421.631989,854.976013
333.791992,415.776001,851.072021
335.743988,419.679993,856.927979
339.648010,423.584015,851.072021
333.791992,423.584015,854.976013
341.600006,421.631989,843.263977
343.552002,411.872009,854.976013
341.600006,413.824005,853.023987
335.743988,423.584015,851.072021
335.743988,423.584015,860.831970
339.648010,417.727997,851.072021
339.648010,417.727997,849.119995
349.407990,427.488007,856.927979
335.743988,423.584015,862.783997
337.696014,423.584015,853.023987
341.600006,417.727997,856.927979
341.600006,423.584015,854.976013
343.552002,413.824005,849.119995
343.552002,417.727997,843.263977
335.743988,427.488007,847.168030
335.743988,423.584015,860.831970
333.791992,413.824005,851.072021
333.791992,411.872009,854.976013
337.696014,419.679993,851.072021
335.743988,419.679993,849.119995
331.839996,431.391998,853.023987
337.696014,415.776001,851.072021
333.791992,413.824005,851.072021
333.791992,413.824005,856.927979
335.743988,417.727997,851.072021
333.791992,421.631989,853.023987
333.791992,423.584015,856.927979
335.743988,413.824005,860.831970
329.888000,413.824005,847.168030
327.936005,419.679993,858.880005
335.743988,409.920013,851.072021
335.743988,407.967987,845.216003
331.839996,415.776001,854.976013
331.839996,423.584015,845.216003
327.936005,419.679993,856.927979
325.984009,417.727997,853.023987
324.032013,417.727997,856.927979
327.936005,421.631989,853.023987
320.127991,413.824005,845.216003
322.079987,409.920013,847.168030
322.079987,417.727997,847.168030
320.127991,423.584015,845.216003
318.175995,411.872009,841.312012
320.127991,419.679993,847.168030
322.079987,415.776001,847.168030
314.272003,411.872009,849.119995
320.127991,423.584015,839.359985
322.079987,423.584015,847.168030
322.079987,409.920013,853.023987
320.127991,431.391998,843.263977
329.888000,419.679993,847.168030
325.984009,417.727997,853.023987
320.127991,423.584015,839.359985
318.175995,411.872009,839.359985
320.127991,421.631989,847.168030
320.127991,413.824005,845.216003
322.079987,413.824005,843.263977
325.984009,421.631989,853.023987
318.175995,415.776001,843.263977
314.272003,423.584015,854.976013
320.127991,413.824005,847.168030
322.079987,421.631989,853.023987
322.079987,413.824005,843.263977
320.127991,423.584015,845.216003
320.127991,423.584015,847.168030
314.272003,421.631989,847.168030
318.175995,417.727997,845.216003
312.320007,417.727997,845.216003
310.368011,425.536011,847.168030
318.175995,427.488007,849.119995
312.320007,413.824005,837.408020
320.127991,423.584015,845.216003
320.127991,427.488007,843.263977
318.175995,413.824005,839.359985
322.079987,411.872009,837.408020
312.320007,417.727997,843.263977
318.175995,421.631989,839.359985
312.320007,417.727997,843.263977
308.415985,407.967987,841.312012
304.511993,429.440002,847.168030
312.320007,427.488007,849.119995
312.320007,417.727997,839.359985
312.320007,421.631989,849.119995
318.175995,427.488007,839.359985
310.368011,415.776001,843.263977
316.223999,421.631989,853.023987
312.320007,421.631989,843.263977
314.272003,419.679993,843.263977
318.175995,423.584015,841.312012
318.175995,421.631989,839.359985
312.320007,423.584015,847.168030
312.320007,419.679993,849.119995
316.223999,417.727997,858.880005
322.079987,421.631989,853.023987
325.984009,419.679993,853.023987
314.272003,413.824005,851.072021
322.079987,409.920013,856.927979
333.791992,419.679993,854.976013
325.984009,425.536011,843.263977
320.127991,413.824005,847.168030
316.223999,421.631989,856.927979
318.175995,421.631989,854.976013
316.223999,427.488007,853.023987
318.175995,417.727997,862.783997
324.032013,427.488007,851.072021
322.079987,421.631989,853.023987
325.984009,421.631989,853.023987
316.223999,409.920013,847.168030
325.984009,417.727997,853.023987
314.272003,419.679993,851.072021
325.984009,421.631989,854.976013
327.936005,417.727997,856.927979
322.079987,421.631989,856.927979
325.984009,421.631989,854.976013
324.032013,421.631989,853.023987
325.984009,421.631989,853.023987
322.079987,417.727997,853.023987
320.127991,423.584015,839.359985
322.079987,413.824005,853.023987
316.223999,413.824005,849.119995
320.127991,423.584015,845.216003
322.079987,435.295990,849.119995
316.223999,415.776001,854.976013
316.223999,417.727997,849.119995
318.175995,417.727997,839.359985
318.175995,413.824005,853.023987
318.175995,423.584015,847.168030
322.079987,415.776001,853.023987
320.127991,407.967987,854.976013
318.175995,423.584015,847.168030
324.032013,413.824005,839.359985
324.032013,427.488007,849.119995
324.032013,423.584015,845.216003
322.079987,421.631989,845.216003
324.032013,423.584015,835.455994
318.175995,417.727997,843.263977
320.127991,417.727997,847.168030
324.032013,431.391998,845.216003
316.223999,427.488007,849.119995
325.984009,431.391998,843.263977
314.272003,433.343994,835.455994
322.079987,433.343994,849.119995
320.127991,431.391998,841.312012
322.079987,433.343994,847.168030
314.272003,433.343994,847.168030
325.984009,417.727997,835.455994
325.984009,431.391998,843.263977
329.888000,429.440002,851.072021
320.127991,433.343994,843.263977
316.223999,429.440002,849.119995
320.127991,425.536011,847.168030
316.223999,429.440002,853.023987
318.175995,427.488007,843.263977
316.223999,431.391998,845.216003
314.272003,427.488007,847.168030
324.032013,431.391998,851.072021
324.032013,425.536011,847.168030
322.079987,437.247986,843.263977
316.223999,441.152008,853.023987
318.175995,437.247986,847.168030
322.079987,435.295990,849.119995
316.223999,435.295990,841.312012
320.127991,435.295990,851.072021
318.175995,431.391998,851.072021
318.175995,431.391998,853.023987
316.223999,427.488007,845.216003
312.320007,429.440002,851.072021
322.079987,439.200012,851.072021
312.320007,437.247986,853.023987
316.223999,443.104004,854.976013
318.175995,437.247986,856.927979
318.175995,437.247986,853.023987
325.984009,433.343994,854.976013
320.127991,431.391998,851.072021
316.223999,433.343994,845.216003
329.888000,439.200012,849.119995
318.175995,443.104004,839.359985
316.223999,433.343994,845.216003
318.175995,443.104004,847.168030
314.272003,433.343994,845.216003
324.032013,435.295990,849.119995
312.320007,433.343994,851.072021
310.368011,437.247986,856.927979
310.368011,433.343994,847.168030
308.415985,439.200012,847.168030
314.272003,443.104004,849.119995
320.127991,439.200012,849.119995
314.272003,435.295990,847.168030
308.415985,439.200012,845.216003
308.415985,439.200012,837.408020
314.272003,437.247986,843.263977
314.272003,433.343994,841.312012
310.368011,448.959991,841.312012
312.320007,433.343994,849.119995
308.415985,441.152008,847.168030
310.368011,437.247986,847.168030
316.223999,439.200012,841.312012
310.368011,447.007996,841.312012
310.368011,441.152008,841.312012
318.175995,441.152008,837.408020
318.175995,447.007996,845.216003
320.127991,448.959991,841.312012
318.175995,445.056000,841.312012
312.320007,441.152008,853.023987
318.175995,443.104004,839.359985
322.079987,439.200012,839.359985
318.175995,441.152008,841.312012
322.079987,431.391998,843.263977
322.079987,437.247986,845.216003
316.223999,443.104004,843.263977
322.079987,435.295990,851.072021
312.320007,437.247986,856.927979
324.032013,441.152008,853.023987
322.079987,441.152008,849.119995
325.984009,433.343994,851.072021
325.984009,437.247986,849.119995
324.032013,447.007996,853.023987
324.032013,441.152008,843.263977
325.984009,433.343994,849.119995
325.984009,433.343994,849.119995
325.984009,435.295990,849.119995
322.079987,437.247986,841.312012
316.223999,437.247986,837.408020
322.079987,448.959991,847.168030
316.223999,447.007996,856.927979
316.223999,454.816010,851.072021
312.320007,437.247986,845.216003
322.079987,443.104004,851.072021
320.127991,450.911987,845.216003
318.175995,452.864014,841.312012
318.175995,445.056000,843.263977
316.223999,445.056000,843.263977
320.127991,439.200012,851.072021
316.223999,452.864014,853.023987
318.175995,445.056000,843.263977
316.223999,435.295990,841.312012
314.272003,433.343994,847.168030
314.272003,445.056000,853.023987
322.079987,445.056000,853.023987
312.320007,447.007996,843.263977
314.272003,443.104004,843.263977
314.272003,441.152008,845.216003
318.175995,456.768005,843.263977
310.368011,450.911987,831.552002
314.272003,452.864014,841.312012
308.415985,456.768005,833.504028
312.320007,452.864014,837.408020
312.320007,452.864014,841.312012
314.272003,458.720001,841.312012
318.175995,454.816010,845.216003
312.320007,450.911987,841.312012
310.368011,448.959991,837.408020
302.559998,458.720001,847.168030
310.368011,452.864014,841.312012
306.463989,450.911987,843.263977
304.511993,460.671997,835.455994
306.463989,452.864014,837.408020
310.368011,454.816010,847.168030
312.320007,452.864014,837.408020
310.368011,458.720001,841.312012
310.368011,460.671997,843.263977
308.415985,445.056000,849.119995
306.463989,450.911987,841.312012
314.272003,454.816010,849.119995
316.223999,460.671997,837.408020
314.272003,462.623993,845.216003
308.415985,452.864014,841.312012
316.223999,448.959991,843.263977
318.175995,452.864014,845.216003
310.368011,456.768005,843.263977
310.368011,452.864014,845.216003
310.368011,447.007996,841.312012
318.175995,448.959991,835.455994
308.415985,452.864014,845.216003
318.175995,456.768005,853.023987
318.175995,445.056000,839.359985
312.320007,450.911987,841.312012
310.368011,452.864014,849.119995
308.415985,450.911987,845.216003
320.127991,445.056000,835.455994
324.032013,445.056000,835.455994
318.175995,448.959991,849.119995
318.175995,454.816010,847.168030
316.223999,445.056000,851.072021
318.175995,447.007996,849.119995
318.175995,452.864014,849.119995
322.079987,443.104004,843.263977
325.984009,458.720001,849.119995
318.175995,454.816010,845.216003
322.079987,445.056000,845.216003
318.175995,450.911987,841.312012
312.320007,450.911987,843.263977
316.223999,454.816010,851.072021
318.175995,454.816010,847.168030
320.127991,454.816010,845.216003
316.223999,454.816010,841.312012
324.032013,450.911987,839.359985
320.127991,450.911987,839.359985
322.079987,437.247986,849.119995
325.984009,448.959991,847.168030
324.032013,443.104004,835.455994
320.127991,448.959991,845.216003
320.127991,450.911987,847.168030
322.079987,452.864014,847.168030
327.936005,454.816010,847.168030
327.936005,443.104004,849.119995
327.936005,448.959991,853.023987
329.888000,452.864014,841.312012
327.936005,448.959991,853.023987
327.936005,445.056000,847.168030
329.888000,450.911987,847.168030
324.032013,454.816010,847.168030
331.839996,450.911987,843.263977
322.079987,450.911987,853.023987
329.888000,450.911987,847.168030
329.888000,447.007996,839.359985
324.032013,454.816010,847.168030
324.032013,443.104004,847.168030
333.791992,441.152008,839.359985
329.888000,441.152008,841.312012
327.936005,450.911987,847.168030
331.839996,447.007996,849.119995
331.839996,445.056000,839.359985
327.936005,439.200012,851.072021
324.032013,443.104004,835.455994
327.936005,445.056000,841.312012
325.984009,437.247986,837.408020
324.032013,443.104004,845.216003
327.936005,439.200012,835.455994
325.984009,443.104004,843.263977
324.032013,445.056000,847.168030
325.984009,443.104004,849.119995
324.032013,441.152008,853.023987
329.888000,450.911987,835.455994
322.079987,437.247986,839.359985
322.079987,437.247986,843.263977
325.984009,439.200012,843.263977
325.984009,439.200012,849.119995
320.127991,437.247986,845.216003
324.032013,447.007996,845.216003
327.936005,437.247986,839.359985
329.888000,443.104004,843.263977
327.936005,429.440002,843.263977
329.888000,429.440002,851.072021
324.032013,433.343994,841.312012
325.984009,437.247986,841.312012
324.032013,437.247986,845.216003
329.888000,441.152008,843.263977
325.984009,437.247986,843.263977
329.888000,443.104004,845.216003
331.839996,433.343994,843.263977
333.791992,437.247986,851.072021
331.839996,435.295990,853.023987
329.888000,425.536011,858.880005
329.888000,431.391998,853.023987
329.888000,435.295990,851.072021
333.791992,435.295990,858.880005
333.791992,423.584015,851.072021
331.839996,435.295990,854.976013
327.936005,433.343994,845.216003
333.791992,435.295990,845.216003
327.936005,431.391998,847.168030
337.696014,429.440002,845.216003
324.032013,435.295990,851.072021
333.791992,439.200012,845.216003
337.696014,441.152008,843.263977
331.839996,439.200012,849.119995
335.743988,427.488007,847.168030
331.839996,431.391998,856.927979
327.936005,437.247986,841.312012
333.791992,443.104004,851.072021
329.888000,439.200012,851.072021
329.888000,439.200012,849.119995
324.032013,433.343994,845.216003
327.936005,433.343994,849.119995
337.696014,439.200012,849.119995
337.696014,437.247986,853.023987
329.888000,431.391998,853.023987
327.936005,437.247986,849.119995
331.839996,441.152008,851.072021
329.888000,441.152008,849.119995
331.839996,439.200012,851.072021
333.791992,443.104004,843.263977
329.888000,445.056000,853.023987
329.888000,437.247986,845.216003
322.079987,441.152008,847.168030
337.696014,437.247986,845.216003
327.936005,450.911987,851.072021
329.888000,429.440002,849.119995
329.888000,447.007996,849.119995
324.032013,445.056000,847.168030
331.839996,445.056000,845.216003
331.839996,439.200012,849.119995
325.984009,439.200012,849.119995
337.696014,437.247986,853.023987
331.839996,445.056000,853.023987
333.791992,443.104004,851.072021
322.079987,441.152008,854.976013
324.032013,443.104004,845.216003
327.936005,443.104004,853.023987
324.032013,447.007996,853.023987
325.984009,441.152008,853.023987
327.936005,443.104004,849.119995
327.936005,443.104004,849.119995
329.888000,441.152008,843.263977
333.791992,454.816010,851.072021
329.888000,445.056000,847.168030
325.984009,454.816010,843.263977
329.888000,447.007996,854.976013
329.888000,447.007996,845.216003
327.936005,441.152008,847.168030
327.936005,437.247986,843.263977
333.791992,439.200012,847.168030
327.936005,447.007996,847.168030
333.791992,447.007996,847.168030
327.936005,448.959991,853.023987
335.743988,450.911987,843.263977
337.696014,443.104004,853.023987
327.936005,447.007996,847.168030
331.839996,450.911987,849.119995
331.839996,445.056000,847.168030
335.743988,448.959991,851.072021
335.743988,450.911987,854.976013
335.743988,439.200012,845.216003
341.600006,450.911987,854.976013
333.791992,445.056000,851.072021
327.936005,427.488007,847.168030
324.032013,433.343994,839.359985
331.839996,439.200012,851.072021
329.888000,443.104004,839.359985
331.839996,437.247986,847.168030
327.936005,441.152008,856.927979
333.791992,441.152008,854.976013
339.648010,437.247986,851.072021
333.791992,443.104004,854.976013
324.032013,439.200012,856.927979
329.888000,448.959991,860.831970
329.888000,433.343994,854.976013
333.791992,443.104004,851.072021
329.888000,431.391998,845.216003
335.743988,443.104004,853.023987
331.839996,443.104004,847.168030
333.791992,441.152008,854.976013
331.839996,437.247986,854.976013
327.936005,445.056000,851.072021
322.079987,447.007996,860.831970
337.696014,443.104004,847.168030
320.127991,439.200012,851.072021
324.032013,429.440002,854.976013
320.127991,439.200012,851.072021
320.127991,443.104004,845.216003
324.032013,425.536011,845.216003
324.032013,435.295990,851.072021
322.079987,441.152008,856.927979
318.175995,439.200012,851.072021
318.175995,421.631989,851.072021
322.079987,427.488007,853.023987
324.032013,429.440002,851.072021
324.032013,439.200012,843.263977
327.936005,431.391998,843.263977
320.127991,431.391998,849.119995
325.984009,433.343994,851.072021
325.984009,439.200012,851.072021
325.984009,431.391998,849.119995
322.079987,433.343994,849.119995
322.079987,435.295990,849.119995
320.127991,433.343994,851.072021
322.079987,431.391998,851.072021
322.079987,427.488007,853.023987
320.127991,427.488007,851.072021
325.984009,431.391998,843.263977
320.127991,421.631989,849.119995
325.984009,421.631989,853.023987
322.079987,437.247986,849.119995
316.223999,429.440002,839.359985
322.079987,433.343994,849.119995
318.175995,427.488007,851.072021
324.032013,415.776001,849.119995
322.079987,429.440002,849.119995
320.127991,425.536011,845.216003
318.175995,435.295990,845.216003
325.984009,433.343994,843.263977
324.032013,429.440002,851.072021
325.984009,417.727997,854.976013
322.079987,421.631989,853.023987
320.127991,425.536011,839.359985
320.127991,413.824005,841.312012
318.175995,417.727997,845.216003
314.272003,423.584015,854.976013
320.127991,421.631989,847.168030
318.175995,425.536011,847.168030
322.079987,417.727997,841.312012
312.320007,425.536011,837.408020
325.984009,425.536011,837.408020
322.079987,409.920013,853.023987
316.223999,419.679993,845.216003
312.320007,421.631989,843.263977
318.175995,417.727997,845.216003
329.888000,425.536011,845.216003
316.223999,425.536011,841.312012
325.984009,413.824005,843.263977
320.127991,417.727997,847.168030
320.127991,423.584015,847.168030
318.175995,409.920013,851.072021
322.079987,413.824005,851.072021
316.223999,409.920013,858.880005
316.223999,421.631989,847.168030
316.223999,421.631989,853.023987
322.079987,423.584015,860.831970
316.223999,413.824005,845.216003
320.127991,419.679993,847.168030
316.223999,419.679993,853.023987
314.272003,411.872009,853.023987
322.079987,419.679993,845.216003
322.079987,415.776001,853.023987
312.320007,419.679993,843.263977
320.127991,413.824005,847.168030
320.127991,429.440002,851.072021
322.079987,413.824005,847.168030
322.079987,415.776001,847.168030
314.272003,409.920013,845.216003
325.984009,421.631989,853.023987
316.223999,411.872009,849.119995
316.223999,406.015991,843.263977
312.320007,411.872009,845.216003
316.223999,413.824005,849.119995
312.320007,423.584015,845.216003
304.511993,423.584015,860.831970
316.223999,421.631989,853.023987
316.223999,411.872009,851.072021
318.175995,411.872009,839.359985
312.320007,413.824005,839.359985
304.511993,421.631989,841.312012
318.175995,411.872009,845.216003
306.463989,419.679993,843.263977
310.368011,415.776001,841.312012
318.175995,413.824005,841.312012
306.463989,415.776001,837.408020
306.463989,419.679993,837.408020
308.415985,421.631989,837.408020
308.415985,417.727997,843.263977
308.415985,417.727997,845.216003
310.368011,427.488007,849.119995
314.272003,413.824005,843.263977
308.415985,423.584015,851.072021
316.223999,425.536011,843.263977
308.415985,421.631989,843.263977
314.272003,419.679993,847.168030
312.320007,421.631989,849.119995
312.320007,421.631989,843.263977
314.272003,421.631989,833.504028
312.320007,417.727997,841.312012
320.127991,427.488007,849.119995
312.320007,425.536011,853.023987
318.175995,421.631989,849.119995
320.127991,423.584015,839.359985
324.032013,423.584015,847.168030
320.127991,423.584015,845.216003
322.079987,433.343994,849.119995
312.320007,425.536011,853.023987
316.223999,425.536011,849.119995
320.127991,427.488007,849.119995
320.127991,423.584015,845.216003
329.888000,417.727997,845.216003
325.984009,425.536011,849.119995
316.223999,423.584015,851.072021
322.079987,425.536011,849.119995
320.127991,421.631989,851.072021
320.127991,423.584015,845.216003
324.032013,425.536011,837.408020
320.127991,427.488007,851.072021
320.127991,439.200012,849.119995
324.032013,431.391998,854.976013
322.079987,427.488007,856.927979
318.175995,425.536011,853.023987
320.127991,423.584015,845.216003
324.032013,421.631989,853.023987
324.032013,427.488007,851.072021
327.936005,421.631989,853.023987
316.223999,421.631989,853.023987
322.079987,425.536011,843.263977
324.032013,427.488007,849.119995
327.936005,425.536011,843.263977
320.127991,425.536011,845.216003
324.032013,423.584015,841.312012
325.984009,429.440002,843.263977
322.079987,421.631989,835.455994
320.127991,425.536011,845.216003
322.079987,425.536011,843.263977
316.223999,429.440002,851.072021
320.127991,427.488007,854.976013
318.175995,427.488007,845.216003
316.223999,427.488007,853.023987
324.032013,429.440002,849.119995
329.888000,427.488007,853.023987
320.127991,437.247986,845.216003
324.032013,425.536011,839.359985
322.079987,425.536011,841.312012
318.175995,431.391998,841.312012
329.888000,429.440002,851.072021
320.127991,429.440002,853.023987
320.127991,427.488007,843.263977
320.127991,435.295990,851.072021
320.127991,431.391998,851.072021
314.272003,429.440002,847.168030
320.127991,431.391998,849.119995
314.272003,427.488007,845.216003
322.079987,433.343994,849.119995
324.032013,425.536011,837.408020
327.936005,431.391998,839.359985
322.079987,427.488007,845.216003
322.079987,429.440002,841.312012
322.079987,431.391998,841.312012
325.984009,433.343994,839.359985
329.888000,439.200012,851.072021
312.320007,429.440002,841.312012
318.175995,437.247986,845.216003
322.079987,435.295990,843.263977
322.079987,435.295990,831.552002
322.079987,431.391998,839.359985
314.272003,439.200012,841.312012
322.079987,431.391998,849.119995
316.223999,439.200012,845.216003
322.079987,429.440002,841.312012
316.223999,435.295990,849.119995
316.223999,437.247986,841.312012
322.079987,443.104004,839.359985
322.079987,437.247986,849.119995
312.320007,425.536011,853.023987
324.032013,437.247986,851.072021
322.079987,437.247986,839.359985
320.127991,448.959991,843.263977
324.032013,437.247986,849.119995
324.032013,441.152008,849.119995
324.032013,435.295990,843.263977
325.984009,441.152008,841.312012
322.079987,439.200012,837.408020
331.839996,435.295990,847.168030
320.127991,433.343994,843.263977
322.079987,450.911987,845.216003
335.743988,441.152008,847.168030
320.127991,439.200012,856.927979
325.984009,437.247986,849.119995
331.839996,437.247986,853.023987
331.839996,435.295990,851.072021
325.984009,441.152008,851.072021
325.984009,441.152008,854.976013
337.696014,439.200012,853.023987
329.888000,433.343994,851.072021
333.791992,439.200012,853.023987
337.696014,433.343994,853.023987
331.839996,439.200012,849.119995
327.936005,441.152008,853.023987
333.791992,439.200012,845.216003
331.839996,429.440002,854.976013
335.743988,447.007996,851.072021
335.743988,431.391998,849.119995
335.743988,443.104004,847.168030
331.839996,433.343994,856.927979
333.791992,429.440002,853.023987
333.791992,433.343994,845.216003
337.696014,429.440002,849.119995
331.839996,435.295990,853.023987
337.696014,437.247986,853.023987
331.839996,443.104004,847.168030
333.791992,443.104004,849.119995
333.791992,439.200012,853.023987
337.696014,435.295990,853.023987
337.696014,439.200012,853.023987
339.648010,439.200012,858.880005
337.696014,439.200012,849.119995
341.600006,433.343994,847.168030
337.696014,439.200012,853.023987
331.839996,441.152008,853.023987
329.888000,433.343994,856.927979
329.888000,441.152008,843.263977
341.600006,447.007996,831.552002
329.888000,447.007996,835.455994
327.936005,437.247986,841.312012
337.696014,433.343994,853.023987
335.743988,443.104004,853.023987
324.032013,447.007996,851.072021
327.936005,441.152008,853.023987
327.936005,443.104004,843.263977
331.839996,437.247986,847.168030
324.032013,441.152008,845.216003
329.888000,439.200012,843.263977
331.839996,437.247986,853.023987
331.839996,443.104004,845.216003
333.791992,447.007996,849.119995
329.888000,439.200012,849.119995
327.936005,441.152008,851.072021
327.936005,441.152008,847.168030
325.984009,435.295990,843.263977
335.743988,433.343994,845.216003
325.984009,437.247986,843.263977
331.839996,439.200012,853.023987
343.552002,431.391998,847.168030
333.791992,437.247986,853.023987
337.696014,437.247986,853.023987
335.743988,445.056000,854.976013
337.696014,427.488007,854.976013
335.743988,433.343994,853.023987
325.984009,425.536011,839.359985
331.839996,431.391998,853.023987
335.743988,435.295990,845.216003
329.888000,439.200012,854.976013
329.888000,433.343994,849.119995
325.984009,435.295990,841.312012
333.791992,433.343994,847.168030
333.791992,429.440002,845.216003
324.032013,435.295990,860.831970
327.936005,427.488007,853.023987
324.032013,431.391998,851.072021
337.696014,427.488007,849.119995
324.032013,437.247986,849.119995
331.839996,431.391998,847.168030
325.984009,429.440002,853.023987
329.888000,441.152008,851.072021
324.032013,427.488007,849.119995
329.888000,433.343994,851.072021
337.696014,425.536011,853.023987
329.888000,439.200012,854.976013
329.888000,439.200012,849.119995
320.127991,435.295990,856.927979
333.791992,427.488007,853.023987
329.888000,427.488007,849.119995
320.127991,429.440002,854.976013
329.888000,427.488007,854.976013
329.888000,429.440002,851.072021
325.984009,421.631989,847.168030
333.791992,427.488007,847.168030
324.032013,429.440002,849.119995
327.936005,429.440002,841.312012
324.032013,425.536011,849.119995
337.696014,431.391998,853.023987
325.984009,429.440002,853.023987
329.888000,429.440002,851.072021
333.791992,431.391998,849.119995
325.984009,421.631989,856.927979
320.127991,435.295990,851.072021
333.791992,433.343994,849.119995
337.696014,437.247986,854.976013
327.936005,435.295990,849.119995
333.791992,429.440002,849.119995
325.984009,427.488007,851.072021
325.984009,423.584015,847.168030
333.791992,429.440002,853.023987
335.743988,425.536011,853.023987
337.696014,425.536011,853.023987
327.936005,429.440002,853.023987
327.936005,421.631989,845.216003
337.696014,425.536011,856.927979
331.839996,427.488007,854.976013
335.743988,425.536011,851.072021
333.791992,423.584015,849.119995
335.743988,435.295990,847.168030
333.791992,429.440002,847.168030
333.791992,419.679993,860.831970
333.791992,423.584015,851.072021
329.888000,435.295990,856.927979
333.791992,423.584015,851.072021
335.743988,423.584015,858.880005
333.791992,423.584015,860.831970
335.743988,413.824005,854.976013
335.743988,431.391998,849.119995
335.743988,413.824005,849.119995
331.839996,427.488007,851.072021
335.743988,425.536011,851.072021
329.888000,433.343994,849.119995
333.791992,421.631989,853.023987
337.696014,425.536011,854.976013
333.791992,421.631989,847.168030
339.648010,423.584015,851.072021
337.696014,425.536011,847.168030
331.839996,421.631989,849.119995
331.839996,415.776001,849.119995
333.791992,419.679993,849.119995
329.888000,429.440002,841.312012
327.936005,429.440002,847.168030
327.936005,431.391998,845.216003
329.888000,439.200012,849.119995
329.888000,425.536011,847.168030
325.984009,429.440002,853.023987
331.839996,433.343994,853.023987
337.696014,433.343994,853.023987
329.888000,431.391998,851.072021
333.791992,429.440002,847.168030
333.791992,431.391998,843.263977
337.696014,433.343994,860.831970
335.743988,443.104004,851.072021
337.696014,435.295990,853.023987
331.839996,435.295990,856.927979
333.791992,425.536011,851.072021
333.791992,431.391998,845.216003
325.984009,433.343994,849.119995
331.839996,433.343994,853.023987
324.032013,433.343994,851.072021
335.743988,429.440002,847.168030
333.791992,427.488007,845.216003
327.936005,423.584015,853.023987
333.791992,433.343994,843.263977
322.079987,433.343994,849.119995
325.984009,433.343994,843.263977
331.839996,429.440002,851.072021
327.936005,433.343994,843.263977
331.839996,433.343994,853.023987
335.743988,431.391998,854.976013
331.839996,433.343994,853.023987
324.032013,435.295990,851.072021
324.032013,435.295990,849.119995
333.791992,427.488007,847.168030
333.791992,431.391998,849.119995
327.936005,437.247986,845.216003
331.839996,435.295990,853.023987
329.888000,435.295990,847.168030
329.888000,425.536011,853.023987
329.888000,437.247986,853.023987
324.032013,429.440002,860.831970
327.936005,429.440002,856.927979
329.888000,435.295990,851.072021
320.127991,431.391998,849.119995
327.936005,437.247986,849.119995
324.032013,443.104004,847.168030
324.032013,427.488007,851.072021
327.936005,425.536011,837.408020
327.936005,431.391998,843.263977
329.888000,433.343994,853.023987
327.936005,427.488007,839.359985
325.984009,425.536011,839.359985
324.032013,431.391998,843.263977
329.888000,431.391998,849.119995
325.984009,433.343994,841.312012
327.936005,427.488007,847.168030
325.984009,425.536011,839.359985
324.032013,431.391998,843.263977
325.984009,435.295990,843.263977
318.175995,433.343994,849.119995
320.127991,425.536011,845.216003
327.936005,421.631989,847.168030
327.936005,425.536011,839.359985
325.984009,433.343994,841.312012
329.888000,427.488007,849.119995
322.079987,421.631989,853.023987
318.175995,425.536011,851.072021
320.127991,425.536011,851.072021
322.079987,421.631989,853.023987
333.791992,429.440002,839.359985
322.079987,435.295990,849.119995
327.936005,425.536011,849.119995
333.791992,435.295990,847.168030
324.032013,429.440002,851.072021
322.079987,427.488007,853.023987
329.888000,427.488007,849.119995
320.127991,429.440002,849.119995
324.032013,431.391998,843.263977
331.839996,431.391998,853.023987
320.127991,439.200012,851.072021
320.127991,439.200012,854.976013
322.079987,431.391998,843.263977
325.984009,435.295990,843.263977
327.936005,437.247986,849.119995
325.984009,425.536011,853.023987
325.984009,421.631989,853.023987
331.839996,437.247986,851.072021
329.888000,429.440002,851.072021
320.127991,437.247986,849.119995
322.079987,429.440002,853.023987
327.936005,437.247986,849.119995
329.888000,439.200012,843.263977
327.936005,443.104004,847.168030
331.839996,433.343994,849.119995
325.984009,437.247986,847.168030
324.032013,439.200012,849.119995
324.032013,435.295990,854.976013
322.079987,437.247986,841.312012
318.175995,433.343994,851.072021
322.079987,435.295990,843.263977
327.936005,433.343994,841.312012
327.936005,439.200012,845.216003
325.984009,431.391998,843.263977
327.936005,433.343994,839.359985
324.032013,435.295990,843.263977
325.984009,441.152008,853.023987
329.888000,437.247986,853.023987
327.936005,429.440002,849.119995
331.839996,431.391998,845.216003
327.936005,443.104004,849.119995
327.936005,435.295990,843.263977
324.032013,429.440002,847.168030
327.936005,435.295990,837.408020
333.791992,425.536011,839.359985
327.936005,435.295990,845.216003
320.127991,425.536011,845.216003
327.936005,437.247986,841.312012
327.936005,435.295990,843.263977
333.791992,439.200012,847.168030
327.936005,437.247986,843.263977
325.984009,427.488007,845.216003
325.984009,433.343994,845.216003
324.032013,439.200012,851.072021
325.984009,429.440002,853.023987
324.032013,445.056000,839.359985
327.936005,450.911987,847.168030
325.984009,447.007996,853.023987
322.079987,437.247986,841.312012
325.984009,433.343994,851.072021
320.127991,433.343994,853.023987
325.984009,437.247986,851.072021
324.032013,443.104004,845.216003
322.079987,433.343994,843.263977
320.127991,443.104004,835.455994
322.079987,439.200012,835.455994
322.079987,443.104004,837.408020
329.888000,435.295990,839.359985
327.936005,441.152008,853.023987
324.032013,443.104004,847.168030
325.984009,443.104004,843.263977
325.984009,445.056000,845.216003
324.032013,443.104004,839.359985
320.127991,435.295990,849.119995
327.936005,435.295990,849.119995
333.791992,441.152008,847.168030
322.079987,450.911987,847.168030
335.743988,441.152008,847.168030
329.888000,445.056000,847.168030
329.888000,445.056000,841.312012
324.032013,441.152008,853.023987
331.839996,445.056000,845.216003
327.936005,439.200012,845.216003
331.839996,429.440002,843.263977
324.032013,437.247986,841.312012
324.032013,439.200012,849.119995
324.032013,441.152008,853.023987
322.079987,441.152008,860.831970
325.984009,439.200012,849.119995
329.888000,443.104004,845.216003
327.936005,445.056000,841.312012
325.984009,447.007996,853.023987
324.032013,443.104004,847.168030
320.127991,439.200012,851.072021
320.127991,447.007996,847.168030
329.888000,439.200012,841.312012
324.032013,445.056000,833.504028
327.936005,435.295990,843.263977
325.984009,433.343994,837.408020
325.984009,448.959991,835.455994
322.079987,447.007996,847.168030
331.839996,445.056000,847.168030
333.791992,439.200012,835.455994
333.791992,435.295990,847.168030
329.888000,443.104004,835.455994
333.791992,441.152008,839.359985
333.791992,448.959991,845.216003
320.127991,447.007996,841.312012
324.032013,443.104004,841.312012
325.984009,437.247986,843.263977
324.032013,443.104004,845.216003
324.032013,443.104004,841.312012
325.984009,437.247986,839.359985
327.936005,435.295990,837.408020
327.936005,433.343994,841.312012
333.791992,441.152008,839.359985
325.984009,435.295990,839.359985
325.984009,435.295990,841.312012
325.984009,435.295990,843.263977
327.936005,439.200012,845.216003
324.032013,439.200012,849.119995
327.936005,437.247986,841.312012
320.127991,437.247986,845.216003
320.127991,435.295990,853.023987
320.127991,439.200012,851.072021
337.696014,433.343994,853.023987
335.743988,437.247986,854.976013
337.696014,437.247986,853.023987
329.888000,439.200012,854.976013
333.791992,443.104004,851.072021
331.839996,435.295990,853.023987
339.648010,433.343994,853.023987
337.696014,441.152008,849.119995
337.696014,445.056000,847.168030
335.743988,439.200012,847.168030
341.600006,450.911987,843.263977
341.600006,429.440002,847.168030
341.600006,433.343994,845.216003
335.743988,429.440002,849.119995
339.648010,439.200012,845.216003
331.839996,431.391998,847.168030
329.888000,429.440002,849.119995
327.936005,433.343994,835.455994
322.079987,435.295990,843.263977
337.696014,437.247986,853.023987
341.600006,435.295990,847.168030
335.743988,433.343994,847.168030
337.696014,421.631989,841.312012
331.839996,427.488007,847.168030
337.696014,437.247986,847.168030
331.839996,431.391998,853.023987
337.696014,443.104004,847.168030
335.743988,443.104004,849.119995
341.600006,437.247986,856.927979
339.648010,437.247986,847.168030
337.696014,435.295990,847.168030
341.600006,437.247986,853.023987
335.743988,439.200012,847.168030
331.839996,435.295990,847.168030
341.600006,435.295990,847.168030
335.743988,431.391998,853.023987
337.696014,437.247986,845.216003
345.503998,439.200012,845.216003
337.696014,431.391998,853.023987
339.648010,429.440002,845.216003
339.648010,423.584015,856.927979
343.552002,437.247986,847.168030
343.552002,429.440002,856.927979
343.552002,429.440002,853.023987
331.839996,433.343994,851.072021
339.648010,437.247986,860.831970
335.743988,439.200012,858.880005
331.839996,435.295990,853.023987
331.839996,439.200012,843.263977
331.839996,437.247986,858.880005
331.839996,431.391998,853.023987
341.600006,433.343994,845.216003
331.839996,429.440002,853.023987
337.696014,431.391998,847.168030
333.791992,439.200012,847.168030
335.743988,423.584015,856.927979
339.648010,423.584015,856.927979
333.791992,431.391998,851.072021
337.696014,435.295990,853.023987
337.696014,425.536011,851.072021
331.839996,431.391998,847.168030
333.791992,423.584015,851.072021
337.696014,433.343994,856.927979
327.936005,425.536011,851.072021
333.791992,427.488007,856.927979
333.791992,435.295990,847.168030
329.888000,437.247986,860.831970
324.032013,427.488007,849.119995
331.839996,433.343994,853.023987
337.696014,425.536011,847.168030
333.791992,421.631989,853.023987
324.032013,423.584015,853.023987
333.791992,433.343994,847.168030
327.936005,431.391998,851.072021
327.936005,433.343994,851.072021
337.696014,431.391998,853.023987
325.984009,433.343994,849.119995
325.984009,439.200012,843.263977
331.839996,433.343994,843.263977
320.127991,439.200012,851.072021
327.936005,439.200012,843.263977
325.984009,435.295990,843.263977
325.984009,437.247986,849.119995
312.320007,431.391998,847.168030
324.032013,431.391998,837.408020
329.888000,429.440002,847.168030
325.984009,431.391998,843.263977
327.936005,437.247986,849.119995
325.984009,433.343994,854.976013
320.127991,429.440002,851.072021
324.032013,435.295990,851.072021
325.984009,431.391998,837.408020
325.984009,433.343994,841.312012
316.223999,437.247986,849.119995
324.032013,433.343994,851.072021
322.079987,435.295990,860.831970
327.936005,425.536011,843.263977
327.936005,435.295990,845.216003
333.791992,433.343994,845.216003
322.079987,433.343994,845.216003
320.127991,439.200012,851.072021
322.079987,433.343994,837.408020
324.032013,437.247986,843.263977
324.032013,429.440002,853.023987
325.984009,431.391998,845.216003
327.936005,433.343994,841.312012
318.175995,425.536011,841.312012
318.175995,429.440002,849.119995
316.223999,431.391998,843.263977
325.984009,427.488007,851.072021
325.984009,413.824005,847.168030
329.888000,427.488007,851.072021
331.839996,431.391998,849.119995
320.127991,419.679993,835.455994
324.032013,425.536011,835.455994
329.888000,425.536011,843.263977
329.888000,423.584015,847.168030
320.127991,417.727997,845.216003
329.888000,425.536011,845.216003
325.984009,431.391998,849.119995
327.936005,421.631989,847.168030
327.936005,425.536011,845.216003
322.079987,431.391998,843.263977
324.032013,423.584015,839.359985
329.888000,427.488007,849.119995
325.984009,423.584015,845.216003
322.079987,421.631989,853.023987
329.888000,413.824005,843.263977
325.984009,425.536011,849.119995
325.984009,421.631989,853.023987
333.791992,423.584015,849.119995
335.743988,421.631989,845.216003
337.696014,431.391998,853.023987
331.839996,425.536011,853.023987
327.936005,419.679993,847.168030
324.032013,417.727997,839.359985
325.984009,419.679993,853.023987
333.791992,421.631989,853.023987
331.839996,421.631989,849.119995
333.791992,421.631989,845.216003
320.127991,427.488007,849.119995
324.032013,429.440002,854.976013
325.984009,429.440002,860.831970
325.984009,425.536011,845.216003
329.888000,423.584015,845.216003
333.791992,427.488007,860.831970
337.696014,425.536011,845.216003
333.791992,437.247986,856.927979
331.839996,427.488007,851.072021
327.936005,425.536011,849.119995
337.696014,421.631989,843.263977
331.839996,433.343994,849.119995
327.936005,427.488007,853.023987
333.791992,437.247986,854.976013
331.839996,433.343994,847.168030
337.696014,435.295990,853.023987
337.696014,435.295990,853.023987
333.791992,437.247986,843.263977
337.696014,439.200012,851.072021
335.743988,425.536011,849.119995
335.743988,435.295990,841.312012
335.743988,437.247986,847.168030
333.791992,439.200012,839.359985
337.696014,421.631989,845.216003
335.743988,435.295990,847.168030
337.696014,435.295990,853.023987
331.839996,435.295990,851.072021
335.743988,439.200012,839.359985
341.600006,433.343994,845.216003
325.984009,443.104004,845.216003
341.600006,439.200012,843.263977
331.839996,433.343994,851.072021
331.839996,443.104004,847.168030
331.839996,431.391998,851.072021
331.839996,433.343994,853.023987
327.936005,431.391998,849.119995
333.791992,429.440002,847.168030
331.839996,431.391998,853.023987
329.888000,435.295990,854.976013
335.743988,423.584015,853.023987
337.696014,425.536011,853.023987
337.696014,429.440002,853.023987
329.888000,437.247986,853.023987
333.791992,427.488007,841.312012
324.032013,433.343994,851.072021
329.888000,433.343994,851.072021
324.032013,437.247986,849.119995
325.984009,433.343994,839.359985
327.936005,433.343994,845.216003
325.984009,435.295990,843.263977
327.936005,433.343994,839.359985
320.127991,441.152008,843.263977
325.984009,437.247986,841.312012
322.079987,437.247986,849.119995
324.032013,445.056000,835.455994
324.032013,429.440002,849.119995
324.032013,437.247986,849.119995
327.936005,441.152008,839.359985
325.984009,450.911987,856.927979
322.079987,441.152008,845.216003
325.984009,433.343994,843.263977
324.032013,437.247986,843.263977
324.032013,433.343994,831.552002
324.032013,425.536011,839.359985
322.079987,441.152008,847.168030
329.888000,447.007996,839.359985
329.888000,443.104004,835.455994
316.223999,441.152008,841.312012
320.127991,433.343994,839.359985
325.984009,437.247986,841.312012
320.127991,437.247986,843.263977
318.175995,445.056000,847.168030
322.079987,441.152008,853.023987
325.984009,448.959991,845.216003
316.223999,450.911987,849.119995
325.984009,458.720001,854.976013
322.079987,443.104004,853.023987
329.888000,441.152008,851.072021
325.984009,437.247986,849.119995
325.984009,445.056000,847.168030
325.984009,437.247986,845.216003
324.032013,435.295990,851.072021
327.936005,437.247986,837.408020
325.984009,439.200012,851.072021
322.079987,435.295990,849.119995
325.984009,435.295990,843.263977
329.888000,439.200012,851.072021
324.032013,429.440002,849.119995
325.984009,437.247986,843.263977
322.079987,443.104004,849.119995
329.888000,433.343994,853.023987
329.888000,431.391998,854.976013
327.936005,427.488007,853.023987
324.032013,443.104004,853.023987
324.032013,431.391998,849.119995
329.888000,437.247986,851.072021
329.888000,439.200012,851.072021
327.936005,437.247986,843.263977
329.888000,435.295990,849.119995
329.888000,443.104004,847.168030
333.791992,443.104004,849.119995
337.696014,433.343994,856.927979
324.032013,443.104004,845.216003
327.936005,437.247986,845.216003
325.984009,435.295990,849.119995
325.984009,441.152008,853.023987
331.839996,441.152008,843.263977
337.696014,435.295990,847.168030
327.936005,433.343994,839.359985
331.839996,435.295990,851.072021
337.696014,437.247986,853.023987
339.648010,439.200012,847.168030
337.696014,435.295990,847.168030
333.791992,433.343994,845.216003
331.839996,435.295990,851.072021
335.743988,433.343994,839.359985
329.888000,443.104004,847.168030
331.839996,437.247986,849.119995
339.648010,433.343994,847.168030
331.839996,435.295990,847.168030
329.888000,433.343994,853.023987
327.936005,445.056000,847.168030
324.032013,437.247986,843.263977
327.936005,439.200012,847.168030
329.888000,445.056000,837.408020
333.791992,433.343994,843.263977
333.791992,433.343994,843.263977
325.984009,439.200012,849.119995
337.696014,437.247986,847.168030
327.936005,431.391998,839.359985
331.839996,427.488007,849.119995
335.743988,431.391998,847.168030
333.791992,439.200012,847.168030
337.696014,429.440002,853.023987
333.791992,433.343994,835.455994
327.936005,439.200012,835.455994
333.791992,433.343994,845.216003
331.839996,421.631989,841.312012
335.743988,435.295990,845.216003
331.839996,437.247986,845.216003
337.696014,441.152008,849.119995
335.743988,437.247986,849.119995
341.600006,431.391998,856.927979
337.696014,437.247986,851.072021
337.696014,437.247986,853.023987
337.696014,437.247986,854.976013
331.839996,433.343994,851.072021
335.743988,437.247986,858.880005
333.791992,447.007996,851.072021
331.839996,445.056000,847.168030
331.839996,441.152008,847.168030
329.888000,435.295990,851.072021
327.936005,441.152008,847.168030
331.839996,437.247986,853.023987
331.839996,437.247986,856.927979
329.888000,433.343994,854.976013
331.839996,435.295990,849.119995
327.936005,437.247986,843.263977
320.127991,429.440002,853.023987
331.839996,437.247986,853.023987
329.888000,431.391998,847.168030
327.936005,437.247986,851.072021
325.984009,447.007996,864.736023
324.032013,435.295990,851.072021
325.984009,431.391998,849.119995
337.696014,433.343994,853.023987
329.888000,437.247986,851.072021
324.032013,435.295990,860.831970
329.888000,429.440002,851.072021
333.791992,448.959991,854.976013
327.936005,441.152008,856.927979
324.032013,448.959991,843.263977
327.936005,439.200012,847.168030
327.936005,443.104004,851.072021
316.223999,439.200012,847.168030
324.032013,433.343994,851.072021
320.127991,431.391998,849.119995
316.223999,437.247986,839.359985
316.223999,441.152008,845.216003
320.127991,439.200012,851.072021
316.223999,431.391998,849.119995
316.223999,435.295990,839.359985
325.984009,443.104004,837.408020
325.984009,437.247986,837.408020
316.223999,437.247986,837.408020
316.223999,437.247986,839.359985
316.223999,439.200012,845.216003
314.272003,429.440002,839.359985
322.079987,437.247986,841.312012
314.272003,439.200012,845.216003
318.175995,441.152008,839.359985
318.175995,445.056000,841.312012
314.272003,433.343994,841.312012
312.320007,433.343994,843.263977
314.272003,435.295990,847.168030
318.175995,443.104004,841.312012
316.223999,433.343994,841.312012
322.079987,437.247986,837.408020
320.127991,439.200012,837.408020
322.079987,437.247986,843.263977
314.272003,439.200012,845.216003
316.223999,437.247986,837.408020
320.127991,448.959991,853.023987
318.175995,433.343994,841.312012
310.368011,427.488007,845.216003
318.175995,437.247986,845.216003
314.272003,433.343994,845.216003
322.079987,439.200012,841.312012
322.079987,425.536011,843.263977
318.175995,425.536011,847.168030
322.079987,433.343994,854.976013
325.984009,433.343994,841.312012
316.223999,435.295990,845.216003
320.127991,433.343994,853.023987
322.079987,425.536011,843.263977
327.936005,433.343994,851.072021
327.936005,431.391998,849.119995
325.984009,433.343994,839.359985
325.984009,433.343994,849.119995
320.127991,429.440002,843.263977
316.223999,427.488007,847.168030
322.079987,431.391998,837.408020
322.079987,425.536011,841.312012
322.079987,425.536011,843.263977
325.984009,425.536011,839.359985
329.888000,427.488007,849.119995
325.984009,423.584015,847.168030
327.936005,421.631989,853.023987
327.936005,435.295990,841.312012
327.936005,421.631989,853.023987
331.839996,423.584015,843.263977
324.032013,433.343994,854.976013
325.984009,421.631989,853.023987
329.888000,423.584015,847.168030
329.888000,435.295990,853.023987
329.888000,427.488007,856.927979
322.079987,427.488007,847.168030
325.984009,421.631989,853.023987
329.888000,427.488007,849.119995
320.127991,427.488007,851.072021
325.984009,433.343994,849.119995
324.032013,431.391998,843.263977
322.079987,425.536011,849.119995
320.127991,425.536011,847.168030
314.272003,425.536011,839.359985
325.984009,423.584015,835.455994
324.032013,429.440002,854.976013
324.032013,431.391998,843.263977
327.936005,431.391998,849.119995
324.032013,439.200012,851.072021
329.888000,429.440002,849.119995
329.888000,427.488007,854.976013
333.791992,429.440002,847.168030
329.888000,431.391998,853.023987
337.696014,427.488007,851.072021
341.600006,437.247986,851.072021
331.839996,429.440002,851.072021
324.032013,433.343994,849.119995
341.600006,429.440002,853.023987
335.743988,427.488007,847.168030
331.839996,437.247986,847.168030
341.600006,429.440002,854.976013
333.791992,425.536011,858.880005
335.743988,417.727997,849.119995
337.696014,433.343994,847.168030
337.696014,425.536011,856.927979
337.696014,425.536011,854.976013
335.743988,423.584015,851.072021
337.696014,421.631989,851.072021
335.743988,425.536011,849.119995
325.984009,427.488007,851.072021
331.839996,431.391998,847.168030
327.936005,433.343994,849.119995
339.648010,425.536011,853.023987
333.791992,431.391998,851.072021
337.696014,433.343994,853.023987
331.839996,425.536011,853.023987
337.696014,433.343994,853.023987
331.839996,427.488007,845.216003
327.936005,423.584015,843.263977
331.839996,435.295990,847.168030
329.888000,435.295990,853.023987
333.791992,423.584015,854.976013
327.936005,429.440002,853.023987
324.032013,439.200012,849.119995
325.984009,435.295990,843.263977
324.032013,427.488007,843.263977
327.936005,421.631989,847.168030
327.936005,421.631989,853.023987
324.032013,433.343994,851.072021
329.888000,431.391998,853.023987
320.127991,433.343994,851.072021
331.839996,425.536011,847.168030
320.127991,439.200012,853.023987
320.127991,429.440002,843.263977
322.079987,437.247986,841.312012
333.791992,435.295990,845.216003
322.079987,443.104004,837.408020
322.079987,441.152008,833.504028
324.032013,433.343994,841.312012
324.032013,433.343994,839.359985
316.223999,431.391998,843.263977
324.032013,425.536011,843.263977
322.079987,429.440002,837.408020
316.223999,429.440002,835.455994
316.223999,421.631989,845.216003
322.079987,431.391998,843.263977
316.223999,437.247986,841.312012
316.223999,437.247986,841.312012
320.127991,429.440002,851.072021
329.888000,435.295990,851.072021
333.791992,433.343994,839.359985
316.223999,435.295990,837.408020
329.888000,427.488007,839.359985
320.127991,425.536011,839.359985
318.175995,435.295990,845.216003
324.032013,427.488007,843.263977
316.223999,433.343994,837.408020
316.223999,431.391998,837.408020
316.223999,433.343994,841.312012
318.175995,429.440002,847.168030
324.032013,429.440002,843.263977
329.888000,433.343994,851.072021
316.223999,433.343994,847.168030
314.272003,427.488007,845.216003
318.175995,429.440002,849.119995
329.888000,425.536011,853.023987
325.984009,429.440002,849.119995
318.175995,427.488007,843.263977
329.888000,433.343994,843.263977
322.079987,427.488007,847.168030
322.079987,431.391998,849.119995
312.320007,431.391998,856.927979
324.032013,431.391998,839.359985
325.984009,425.536011,843.263977
322.079987,421.631989,853.023987
325.984009,425.536011,837.408020
310.368011,431.391998,845.216003
320.127991,433.343994,837.408020
316.223999,431.391998,849.119995
325.984009,429.440002,843.263977
320.127991,425.536011,847.168030
322.079987,435.295990,839.359985
324.032013,429.440002,843.263977
322.079987,433.343994,843.263977
318.175995,435.295990,849.119995
316.223999,429.440002,835.455994
324.032013,439.200012,849.119995
316.223999,433.343994,849.119995
314.272003,435.295990,856.927979
322.079987,433.343994,841.312012
322.079987,435.295990,843.263977
320.127991,429.440002,851.072021
318.175995,427.488007,851.072021
322.079987,421.631989,845.216003
324.032013,431.391998,843.263977
320.127991,429.440002,849.119995
318.175995,443.104004,847.168030
325.984009,435.295990,849.119995
322.079987,433.343994,841.312012
322.079987,433.343994,837.408020
320.127991,435.295990,849.119995
320.127991,443.104004,847.168030
320.127991,439.200012,853.023987
320.127991,439.200012,856.927979
327.936005,439.200012,856.927979
329.888000,429.440002,849.119995
329.888000,439.200012,849.119995
327.936005,435.295990,847.168030
325.984009,445.056000,853.023987
324.032013,437.247986,847.168030
329.888000,429.440002,851.072021
329.888000,427.488007,849.119995
329.888000,429.440002,854.976013
329.888000,421.631989,854.976013
324.032013,439.200012,851.072021
337.696014,425.536011,853.023987
324.032013,433.343994,849.119995
329.888000,435.295990,851.072021
331.839996,435.295990,856.927979
331.839996,439.200012,851.072021
327.936005,437.247986,849.119995
337.696014,437.247986,851.072021
333.791992,443.104004,860.831970
331.839996,429.440002,851.072021
337.696014,437.247986,858.880005
337.696014,437.247986,847.168030
341.600006,443.104004,853.023987
331.839996,433.343994,851.072021
333.791992,429.440002,845.216003
337.696014,437.247986,853.023987
337.696014,437.247986,856.927979
331.839996,431.391998,858.880005
331.839996,437.247986,858.880005
327.936005,447.007996,847.168030
337.696014,435.295990,854.976013
333.791992,433.343994,847.168030
333.791992,427.488007,860.831970
331.839996,433.343994,853.023987
335.743988,433.343994,853.023987
333.791992,447.007996,853.023987
331.839996,437.247986,854.976013
333.791992,441.152008,847.168030
329.888000,443.104004,847.168030
331.839996,443.104004,847.168030
329.888000,441.152008,856.927979
337.696014,443.104004,856.927979
335.743988,448.959991,851.072021
335.743988,439.200012,853.023987
329.888000,433.343994,851.072021
337.696014,445.056000,860.831970
333.791992,441.152008,847.168030
333.791992,445.056000,856.927979
333.791992,437.247986,839.359985
333.791992,439.200012,843.263977
327.936005,447.007996,845.216003
327.936005,437.247986,843.263977
331.839996,439.200012,849.119995
320.127991,435.295990,851.072021
327.936005,437.247986,843.263977
324.032013,443.104004,843.263977
324.032013,443.104004,847.168030
322.079987,441.152008,847.168030
331.839996,443.104004,845.216003
324.032013,439.200012,849.119995
325.984009,441.152008,853.023987
327.936005,441.152008,847.168030
329.888000,445.056000,841.312012
329.888000,443.104004,845.216003
316.223999,447.007996,854.976013
316.223999,445.056000,849.119995
325.984009,450.911987,845.216003
320.127991,445.056000,847.168030
320.127991,439.200012,854.976013
322.079987,441.152008,853.023987
320.127991,439.200012,843.263977
320.127991,447.007996,845.216003
320.127991,445.056000,845.216003
312.320007,448.959991,843.263977
322.079987,445.056000,843.263977
322.079987,439.200012,851.072021
312.320007,441.152008,843.263977
314.272003,445.056000,843.263977
310.368011,437.247986,853.023987
312.320007,435.295990,845.216003
324.032013,445.056000,839.359985
318.175995,443.104004,841.312012
314.272003,435.295990,847.168030
312.320007,439.200012,843.263977
322.079987,437.247986,843.263977
312.320007,433.343994,843.263977
314.272003,447.007996,847.168030
320.127991,441.152008,849.119995
316.223999,437.247986,843.263977
320.127991,439.200012,851.072021
322.079987,437.247986,860.831970
324.032013,437.247986,849.119995
322.079987,443.104004,841.312012
320.127991,439.200012,851.072021
316.223999,445.056000,851.072021
324.032013,441.152008,853.023987
320.127991,445.056000,853.023987
320.127991,441.152008,853.023987
314.272003,437.247986,851.072021
312.320007,433.343994,847.168030
320.127991,441.152008,853.023987
318.175995,441.152008,849.119995
312.320007,437.247986,845.216003
314.272003,443.104004,843.263977
318.175995,439.200012,849.119995
316.223999,437.247986,849.119995
318.175995,433.343994,843.263977
316.223999,439.200012,845.216003
320.127991,437.247986,845.216003
322.079987,435.295990,849.119995
316.223999,431.391998,839.359985
316.223999,433.343994,835.455994
322.079987,433.343994,835.455994
320.127991,437.247986,839.359985
314.272003,439.200012,835.455994
322.079987,437.247986,841.312012
322.079987,433.343994,837.408020
320.127991,443.104004,845.216003
320.127991,433.343994,849.119995
316.223999,435.295990,843.263977
304.511993,429.440002,839.359985
318.175995,447.007996,845.216003
308.415985,439.200012,845.216003
312.320007,431.391998,847.168030
314.272003,431.391998,843.263977
312.320007,431.391998,845.216003
316.223999,431.391998,841.312012
316.223999,429.440002,847.168030
325.984009,431.391998,843.263977
308.415985,429.440002,845.216003
312.320007,431.391998,853.023987
318.175995,423.584015,839.359985
320.127991,423.584015,847.168030
314.272003,427.488007,847.168030
316.223999,431.391998,849.119995
322.079987,431.391998,849.119995
322.079987,433.343994,849.119995
320.127991,429.440002,849.119995
312.320007,441.152008,843.263977
318.175995,435.295990,847.168030
320.127991,435.295990,851.072021
322.079987,431.391998,843.263977
322.079987,437.247986,837.408020
320.127991,423.584015,847.168030
322.079987,437.247986,841.312012
320.127991,429.440002,851.072021
327.936005,439.200012,847.168030
325.984009,427.488007,851.072021
320.127991,431.391998,849.119995
316.223999,437.247986,851.072021
324.032013,429.440002,851.072021
331.839996,425.536011,845.216003
329.888000,425.536011,847.168030
320.127991,435.295990,843.263977
325.984009,431.391998,839.359985
327.936005,421.631989,853.023987
333.791992,431.391998,851.072021
329.888000,425.536011,854.976013
335.743988,423.584015,854.976013
329.888000,421.631989,843.263977
339.648010,425.536011,851.072021
335.743988,429.440002,860.831970
331.839996,431.391998,853.023987
331.839996,431.391998,856.927979
331.839996,429.440002,851.072021
331.839996,429.440002,860.831970
337.696014,425.536011,851.072021
337.696014,431.391998,853.023987
331.839996,431.391998,856.927979
333.791992,443.104004,843.263977
331.839996,437.247986,853.023987
333.791992,435.295990,853.023987
337.696014,435.295990,853.023987
331.839996,431.391998,847.168030
329.888000,439.200012,849.119995
327.936005,425.536011,843.263977
337.696014,421.631989,845.216003
335.743988,431.391998,849.119995
333.791992,425.536011,854.976013
337.696014,431.391998,847.168030
331.839996,429.440002,845.216003
331.839996,425.536011,856.927979
324.032013,439.200012,851.072021
329.888000,429.440002,849.119995
329.888000,450.911987,853.023987
331.839996,439.200012,851.072021
322.079987,435.295990,849.119995
327.936005,435.295990,847.168030
329.888000,439.200012,851.072021
329.888000,433.343994,851.072021
327.936005,437.247986,849.119995
324.032013,439.200012,849.119995
320.127991,439.200012,847.168030
320.127991,439.200012,851.072021
331.839996,435.295990,847.168030
320.127991,443.104004,843.263977
320.127991,437.247986,845.216003
312.320007,437.247986,847.168030
325.984009,433.343994,851.072021
322.079987,439.200012,851.072021
316.223999,441.152008,847.168030
316.223999,437.247986,837.408020
322.079987,445.056000,841.312012
320.127991,447.007996,839.359985
316.223999,445.056000,839.359985
316.223999,437.247986,837.408020
314.272003,439.200012,839.359985
318.175995,441.152008,843.263977
320.127991,447.007996,837.408020
316.223999,435.295990,835.455994
320.127991,443.104004,847.168030
322.079987,447.007996,845.216003
325.984009,447.007996,853.023987
312.320007,441.152008,841.312012
324.032013,437.247986,835.455994
318.175995,441.152008,843.263977
320.127991,450.911987,841.312012
316.223999,443.104004,831.552002
322.079987,437.247986,841.312012
316.223999,433.343994,849.119995
322.079987,437.247986,841.312012
318.175995,443.104004,835.455994
325.984009,448.959991,845.216003
316.223999,437.247986,843.263977
314.272003,441.152008,847.168030
314.272003,439.200012,839.359985
318.175995,443.104004,839.359985
306.463989,445.056000,839.359985
312.320007,441.152008,849.119995
310.368011,439.200012,839.359985
318.175995,443.104004,839.359985
316.223999,431.391998,837.408020
316.223999,439.200012,839.359985
316.223999,433.343994,841.312012
312.320007,439.200012,837.408020
316.223999,439.200012,843.263977
316.223999,433.343994,835.455994
318.175995,441.152008,837.408020
312.320007,447.007996,845.216003
304.511993,441.152008,845.216003
320.127991,439.200012,845.216003
316.223999,439.200012,841.312012
314.272003,448.959991,843.263977
318.175995,445.056000,835.455994
310.368011,450.911987,837.408020
314.272003,437.247986,835.455994
320.127991,443.104004,845.216003
320.127991,445.056000,841.312012
316.223999,445.056000,843.263977
320.127991,441.152008,831.552002
312.320007,441.152008,837.408020
314.272003,441.152008,841.312012
318.175995,443.104004,845.216003
316.223999,443.104004,839.359985
318.175995,445.056000,845.216003
318.175995,441.152008,849.119995
322.079987,437.247986,839.359985
316.223999,437.247986,849.119995
318.175995,445.056000,847.168030
312.320007,441.152008,837.408020
314.272003,445.056000,849.119995
312.320007,447.007996,841.312012
316.223999,441.152008,839.359985
320.127991,447.007996,843.263977
320.127991,454.816010,841.312012
320.127991,445.056000,845.216003
320.127991,443.104004,845.216003
320.127991,437.247986,839.359985
324.032013,437.247986,839.359985
333.791992,439.200012,839.359985
325.984009,437.247986,845.216003
329.888000,437.247986,856.927979
327.936005,435.295990,843.263977
327.936005,435.295990,843.263977
335.743988,447.007996,843.263977
333.791992,433.343994,853.023987
331.839996,443.104004,853.023987
337.696014,437.247986,849.119995
333.791992,433.343994,843.263977
331.839996,439.200012,851.072021
335.743988,437.247986,853.023987
339.648010,443.104004,854.976013
335.743988,435.295990,849.119995
341.600006,435.295990,853.023987
349.407990,429.440002,849.119995
343.552002,433.343994,856.927979
345.503998,443.104004,854.976013
349.407990,439.200012,851.072021
335.743988,437.247986,856.927979
339.648010,435.295990,853.023987
339.648010,437.247986,847.168030
341.600006,437.247986,864.736023
349.407990,439.200012,860.831970
341.600006,437.247986,858.880005
345.503998,437.247986,851.072021
341.600006,441.152008,860.831970
347.455994,437.247986,849.119995
345.503998,439.200012,847.168030
343.552002,437.247986,853.023987
341.600006,431.391998,853.023987
333.791992,437.247986,843.263977
341.600006,439.200012,853.023987
339.648010,435.295990,853.023987
333.791992,429.440002,847.168030
341.600006,427.488007,853.023987
343.552002,435.295990,849.119995
343.552002,433.343994,847.168030
341.600006,433.343994,858.880005
345.503998,433.343994,839.359985
331.839996,443.104004,856.927979
335.743988,433.343994,847.168030
341.600006,439.200012,853.023987
335.743988,445.056000,851.072021
333.791992,443.104004,849.119995
333.791992,445.056000,843.263977
339.648010,445.056000,847.168030
337.696014,443.104004,851.072021
331.839996,433.343994,853.023987
331.839996,437.247986,847.168030
320.127991,443.104004,835.455994
329.888000,439.200012,851.072021
325.984009,441.152008,847.168030
325.984009,437.247986,849.119995
333.791992,437.247986,851.072021
327.936005,447.007996,853.023987
324.032013,441.152008,853.023987
322.079987,447.007996,856.927979
325.984009,445.056000,853.023987
322.079987,447.007996,847.168030
316.223999,443.104004,851.072021
316.223999,441.152008,853.023987
318.175995,445.056000,841.312012
310.368011,448.959991,841.312012
320.127991,439.200012,849.119995
316.223999,448.959991,853.023987
318.175995,443.104004,847.168030
324.032013,443.104004,835.455994
324.032013,441.152008,849.119995
320.127991,450.911987,845.216003
320.127991,447.007996,835.455994
310.368011,443.104004,837.408020
308.415985,448.959991,845.216003
312.320007,441.152008,837.408020
310.368011,447.007996,841.312012
308.415985,435.295990,843.263977
316.223999,443.104004,841.312012
318.175995,443.104004,845.216003
318.175995,439.200012,843.263977
314.272003,435.295990,835.455994
314.272003,443.104004,843.263977
316.223999,447.007996,853.023987
308.415985,437.247986,849.119995
310.368011,441.152008,841.312012
316.223999,447.007996,845.216003
314.272003,443.104004,841.312012
314.272003,439.200012,845.216003
308.415985,435.295990,835.455994
310.368011,439.200012,843.263977
318.175995,441.152008,843.263977
310.368011,435.295990,853.023987
318.175995,431.391998,853.023987
308.415985,435.295990,858.880005
312.320007,437.247986,847.168030
314.272003,435.295990,843.263977
312.320007,429.440002,851.072021
314.272003,433.343994,856.927979
310.368011,433.343994,847.168030
312.320007,435.295990,853.023987
312.320007,433.343994,847.168030
308.415985,437.247986,853.023987
312.320007,423.584015,847.168030
308.415985,431.391998,847.168030
312.320007,441.152008,849.119995
308.415985,429.440002,847.168030
316.223999,431.391998,843.263977
310.368011,437.247986,847.168030
312.320007,421.631989,843.263977
314.272003,433.343994,847.168030
322.079987,435.295990,847.168030
314.272003,433.343994,843.263977
318.175995,423.584015,847.168030
318.175995,431.391998,849.119995
316.223999,429.440002,847.168030
312.320007,431.391998,851.072021
320.127991,433.343994,845.216003
312.320007,435.295990,847.168030
314.272003,431.391998,849.119995
310.368011,425.536011,853.023987
310.368011,431.391998,853.023987
316.223999,439.200012,847.168030
314.272003,433.343994,853.023987
314.272003,439.200012,839.359985
314.272003,439.200012,841.312012
314.272003,443.104004,851.072021
316.223999,447.007996,847.168030
316.223999,441.152008,835.455994
312.320007,441.152008,843.263977
324.032013,437.247986,847.168030
320.127991,439.200012,849.119995
316.223999,429.440002,839.359985
325.984009,435.295990,845.216003
316.223999,437.247986,843.263977
320.127991,425.536011,847.168030
318.175995,433.343994,851.072021
320.127991,429.440002,851.072021
312.320007,435.295990,853.023987
318.175995,439.200012,843.263977
324.032013,433.343994,851.072021
324.032013,437.247986,849.119995
325.984009,437.247986,851.072021
322.079987,441.152008,853.023987
322.079987,425.536011,851.072021
325.984009,433.343994,849.119995
320.127991,429.440002,854.976013
329.888000,423.584015,847.168030
324.032013,431.391998,849.119995
325.984009,433.343994,856.927979
327.936005,431.391998,860.831970
327.936005,427.488007,853.023987
331.839996,425.536011,854.976013
324.032013,435.295990,862.783997
327.936005,429.440002,853.023987
325.984009,429.440002,849.119995
320.127991,429.440002,856.927979
327.936005,431.391998,862.783997
324.032013,425.536011,847.168030
322.079987,421.631989,847.168030
320.127991,429.440002,860.831970
316.223999,429.440002,851.072021
316.223999,427.488007,854.976013
324.032013,429.440002,853.023987
320.127991,435.295990,860.831970
329.888000,421.631989,853.023987
325.984009,417.727997,853.023987
325.984009,421.631989,856.927979
322.079987,421.631989,854.976013
325.984009,425.536011,851.072021
320.127991,431.391998,854.976013
324.032013,421.631989,853.023987
320.127991,425.536011,858.880005
322.079987,427.488007,856.927979
320.127991,413.824005,847.168030
318.175995,427.488007,851.072021
314.272003,427.488007,845.216003
316.223999,431.391998,843.263977
318.175995,417.727997,849.119995
312.320007,423.584015,843.263977
314.272003,431.391998,845.216003
316.223999,435.295990,843.263977
310.368011,427.488007,845.216003
314.272003,429.440002,835.455994
310.368011,425.536011,849.119995
314.272003,429.440002,845.216003
312.320007,427.488007,845.216003
304.511993,435.295990,843.263977
310.368011,435.295990,845.216003
314.272003,427.488007,849.119995
312.320007,433.343994,847.168030
308.415985,435.295990,839.359985
308.415985,429.440002,839.359985
312.320007,421.631989,837.408020
318.175995,423.584015,839.359985
314.272003,421.631989,847.168030
316.223999,431.391998,835.455994
322.079987,431.391998,845.216003
322.079987,435.295990,839.359985
318.175995,423.584015,847.168030
322.079987,417.727997,853.023987
314.272003,421.631989,839.359985
308.415985,435.295990,856.927979
312.320007,427.488007,849.119995
314.272003,425.536011,843.263977
304.511993,429.440002,839.359985
314.272003,431.391998,831.552002
314.272003,429.440002,841.312012
310.368011,421.631989,841.312012
308.415985,423.584015,843.263977
314.272003,419.679993,837.408020
310.368011,429.440002,849.119995
310.368011,421.631989,849.119995
308.415985,423.584015,849.119995
310.368011,417.727997,851.072021
308.415985,427.488007,849.119995
316.223999,425.536011,843.263977
312.320007,417.727997,841.312012
316.223999,429.440002,841.312012
312.320007,419.679993,849.119995
308.415985,427.488007,843.263977
312.320007,417.727997,843.263977
322.079987,419.679993,853.023987
312.320007,413.824005,847.168030
312.320007,421.631989,849.119995
314.272003,419.679993,835.455994
322.079987,411.872009,839.359985
322.079987,421.631989,853.023987
308.415985,417.727997,854.976013
318.175995,423.584015,853.023987
322.079987,421.631989,856.927979
327.936005,417.727997,849.119995
320.127991,407.967987,851.072021
322.079987,421.631989,856.927979
320.127991,421.631989,851.072021
322.079987,413.824005,843.263977
320.127991,413.824005,847.168030
325.984009,423.584015,858.880005
320.127991,413.824005,839.359985
327.936005,409.920013,841.312012
324.032013,411.872009,839.359985
324.032013,419.679993,839.359985
325.984009,423.584015,847.168030
324.032013,419.679993,847.168030
322.079987,417.727997,853.023987
322.079987,419.679993,847.168030
327.936005,425.536011,849.119995
320.127991,419.679993,847.168030
324.032013,423.584015,845.216003
327.936005,423.584015,851.072021
325.984009,419.679993,845.216003
325.984009,417.727997,853.023987
324.032013,415.776001,847.168030
329.888000,415.776001,845.216003
331.839996,402.112000,847.168030
324.032013,415.776001,851.072021
322.079987,421.631989,845.216003
325.984009,429.440002,849.119995
331.839996,409.920013,843.263977
329.888000,409.920013,851.072021
327.936005,419.679993,856.927979
324.032013,409.920013,856.927979
329.888000,413.824005,843.263977
322.079987,423.584015,835.455994
324.032013,413.824005,843.263977
329.888000,411.872009,847.168030
329.888000,417.727997,839.359985
327.936005,419.679993,847.168030
337.696014,425.536011,856.927979
343.552002,423.584015,851.072021
333.791992,413.824005,851.072021
341.600006,417.727997,849.119995
337.696014,419.679993,849.119995
333.791992,423.584015,851.072021
343.552002,415.776001,847.168030
327.936005,419.679993,847.168030
333.791992,423.584015,851.072021
333.791992,419.679993,847.168030
341.600006,421.631989,839.359985
335.743988,417.727997,851.072021
335.743988,419.679993,851.072021
331.839996,407.967987,851.072021
341.600006,409.920013,849.119995
339.648010,419.679993,851.072021
335.743988,415.776001,860.831970
337.696014,404.063995,847.168030
337.696014,421.631989,849.119995
333.791992,415.776001,853.023987
341.600006,409.920013,843.263977
335.743988,411.872009,849.119995
335.743988,419.679993,854.976013
333.791992,423.584015,851.072021
337.696014,431.391998,847.168030
331.839996,417.727997,845.216003
341.600006,419.679993,851.072021
335.743988,415.776001,856.927979
345.503998,417.727997,854.976013
345.503998,425.536011,849.119995
341.600006,417.727997,849.119995
341.600006,415.776001,849.119995
337.696014,425.536011,856.927979
337.696014,423.584015,856.927979
331.839996,423.584015,853.023987
331.839996,421.631989,860.831970
335.743988,419.679993,851.072021
335.743988,417.727997,851.072021
335.743988,433.343994,853.023987
337.696014,423.584015,856.927979
333.791992,423.584015,849.119995
341.600006,417.727997,854.976013
337.696014,417.727997,854.976013
333.791992,413.824005,843.263977
335.743988,423.584015,854.976013
341.600006,421.631989,843.263977
341.600006,417.727997,841.312012
337.696014,419.679993,849.119995
335.743988,425.536011,851.072021
337.696014,425.536011,856.927979
333.791992,421.631989,851.072021
341.600006,423.584015,851.072021
331.839996,425.536011,853.023987
343.552002,427.488007,849.119995
339.648010,425.536011,851.072021
335.743988,423.584015,851.072021
333.791992,419.679993,851.072021
335.743988,421.631989,851.072021
331.839996,425.536011,851.072021
329.888000,423.584015,847.168030
333.791992,421.631989,845.216003
329.888000,425.536011,843.263977
331.839996,421.631989,837.408020
329.888000,423.584015,845.216003
333.791992,431.391998,843.263977
335.743988,427.488007,845.216003
335.743988,429.440002,847.168030
325.984009,427.488007,853.023987
320.127991,423.584015,841.312012
331.839996,423.584015,835.455994
325.984009,431.391998,837.408020
329.888000,435.295990,843.263977
329.888000,431.391998,841.312012
333.791992,421.631989,839.359985
331.839996,425.536011,839.359985
333.791992,431.391998,849.119995
333.791992,441.152008,847.168030
337.696014,431.391998,853.023987
335.743988,427.488007,841.312012
335.743988,427.488007,845.216003
335.743988,435.295990,845.216003
331.839996,431.391998,854.976013
335.743988,439.200012,847.168030
337.696014,427.488007,839.359985
341.600006,431.391998,853.023987
341.600006,429.440002,845.216003
341.600006,429.440002,847.168030
335.743988,425.536011,851.072021
337.696014,435.295990,853.023987
335.743988,423.584015,849.119995
339.648010,421.631989,864.736023
343.552002,421.631989,849.119995
349.407990,427.488007,851.072021
339.648010,417.727997,851.072021
343.552002,425.536011,858.880005
343.552002,431.391998,853.023987
347.455994,425.536011,853.023987
343.552002,425.536011,858.880005
345.503998,421.631989,860.831970
349.407990,429.440002,851.072021
343.552002,435.295990,853.023987
343.552002,425.536011,853.023987
343.552002,435.295990,854.976013
347.455994,425.536011,860.831970
347.455994,427.488007,856.927979
347.455994,425.536011,862.783997
349.407990,429.440002,854.976013
349.407990,425.536011,856.927979
353.312012,421.631989,853.023987
349.407990,429.440002,851.072021
355.264008,435.295990,851.072021
343.552002,425.536011,853.023987
339.648010,423.584015,849.119995
349.407990,435.295990,854.976013
347.455994,423.584015,851.072021
345.503998,423.584015,849.119995
349.407990,421.631989,856.927979
351.359985,429.440002,851.072021
341.600006,431.391998,856.927979
341.600006,435.295990,854.976013
353.312012,431.391998,868.640015
351.359985,421.631989,853.023987
351.359985,429.440002,860.831970
351.359985,433.343994,854.976013
347.455994,429.440002,856.927979
349.407990,435.295990,851.072021
351.359985,427.488007,856.927979
343.552002,433.343994,851.072021
351.359985,427.488007,856.927979
339.648010,419.679993,849.119995
343.552002,427.488007,849.119995
339.648010,433.343994,853.023987
349.407990,435.295990,847.168030
353.312012,435.295990,843.263977
349.407990,431.391998,843.263977
343.552002,435.295990,853.023987
347.455994,425.536011,843.263977
341.600006,427.488007,847.168030
345.503998,429.440002,845.216003
349.407990,435.295990,851.072021
353.312012,429.440002,841.312012
349.407990,431.391998,851.072021
345.503998,437.247986,853.023987
343.552002,431.391998,853.023987
341.600006,421.631989,849.119995
339.648010,427.488007,839.359985
349.407990,427.488007,851.072021
345.503998,429.440002,839.359985
345.503998,435.295990,841.312012
343.552002,425.536011,847.168030
345.503998,435.295990,843.263977
341.600006,443.104004,853.023987
339.648010,443.104004,849.119995
339.648010,439.200012,847.168030
339.648010,439.200012,841.312012
341.600006,429.440002,843.263977
341.600006,439.200012,849.119995
339.648010,435.295990,853.023987
345.503998,431.391998,851.072021
349.407990,431.391998,851.072021
349.407990,427.488007,860.831970
349.407990,429.440002,851.072021
357.216003,431.391998,843.263977
349.407990,429.440002,849.119995
337.696014,435.295990,853.023987
341.600006,443.104004,854.976013
349.407990,435.295990,853.023987
357.216003,421.631989,853.023987
343.552002,443.104004,853.023987
343.552002,437.247986,853.023987
339.648010,429.440002,847.168030
339.648010,435.295990,853.023987
341.600006,437.247986,847.168030
341.600006,431.391998,851.072021
339.648010,435.295990,853.023987
349.407990,433.343994,851.072021
341.600006,433.343994,853.023987
331.839996,437.247986,853.023987
339.648010,433.343994,845.216003
341.600006,433.343994,853.023987
333.791992,417.727997,853.023987
335.743988,429.440002,845.216003
341.600006,433.343994,847.168030
339.648010,431.391998,853.023987
335.743988,429.440002,845.216003
331.839996,433.343994,853.023987
341.600006,441.152008,849.119995
343.552002,435.295990,854.976013
335.743988,431.391998,851.072021
337.696014,429.440002,845.216003
333.791992,431.391998,854.976013
337.696014,433.343994,853.023987
329.888000,433.343994,851.072021
333.791992,435.295990,853.023987
331.839996,433.343994,849.119995
329.888000,439.200012,851.072021
337.696014,437.247986,847.168030
331.839996,433.343994,847.168030
327.936005,427.488007,839.359985
327.936005,443.104004,845.216003
325.984009,433.343994,839.359985
333.791992,439.200012,839.359985
324.032013,437.247986,841.312012
333.791992,447.007996,841.312012
325.984009,437.247986,849.119995
320.127991,439.200012,849.119995
322.079987,435.295990,843.263977
329.888000,425.536011,839.359985
327.936005,433.343994,841.312012
320.127991,433.343994,849.119995
320.127991,445.056000,847.168030
322.079987,437.247986,849.119995
320.127991,431.391998,839.359985
316.223999,439.200012,841.312012
320.127991,433.343994,849.119995
322.079987,445.056000,841.312012
329.888000,443.104004,835.455994
324.032013,437.247986,839.359985
325.984009,445.056000,835.455994
325.984009,448.959991,845.216003
318.175995,445.056000,839.359985
327.936005,452.864014,847.168030
316.223999,454.816010,837.408020
316.223999,448.959991,853.023987
318.175995,445.056000,837.408020
318.175995,452.864014,843.263977
322.079987,443.104004,841.312012
320.127991,445.056000,835.455994
318.175995,447.007996,841.312012
324.032013,445.056000,841.312012
312.320007,448.959991,845.216003
312.320007,445.056000,847.168030
324.032013,443.104004,845.216003
312.320007,448.959991,835.455994
316.223999,445.056000,837.408020
318.175995,454.816010,839.359985
314.272003,439.200012,845.216003
316.223999,435.295990,845.216003
318.175995,447.007996,839.359985
300.608002,454.816010,843.263977
306.463989,454.816010,841.312012
312.320007,460.671997,841.312012
312.320007,452.864014,831.552002
302.559998,454.816010,829.599976
306.463989,462.623993,833.504028
318.175995,450.911987,835.455994
312.320007,448.959991,835.455994
306.463989,460.671997,831.552002
306.463989,460.671997,835.455994
304.511993,454.816010,831.552002
310.368011,462.623993,829.599976
300.608002,454.816010,833.504028
304.511993,454.816010,821.791992
306.463989,460.671997,835.455994
306.463989,458.720001,837.408020
304.511993,458.720001,833.504028
306.463989,456.768005,833.504028
296.704010,462.623993,831.552002
300.608002,458.720001,831.552002
292.799988,458.720001,825.695984
296.704010,466.528015,831.552002
306.463989,462.623993,825.695984
298.656006,462.623993,829.599976
300.608002,470.432007,837.408020
302.559998,468.480011,829.599976
296.704010,468.480011,831.552002
292.799988,456.768005,835.455994
300.608002,456.768005,819.840027
300.608002,460.671997,819.840027
306.463989,458.720001,817.888000
292.799988,460.671997,831.552002
296.704010,460.671997,827.648010
294.752014,458.720001,819.840027
294.752014,464.575989,831.552002
294.752014,464.575989,819.840027
298.656006,468.480011,825.695984
292.799988,466.528015,819.840027
292.799988,470.432007,825.695984
300.608002,460.671997,823.744019
298.656006,456.768005,833.504028
296.704010,460.671997,821.791992
300.608002,466.528015,821.791992
306.463989,460.671997,821.791992
298.656006,466.528015,827.648010
292.799988,462.623993,827.648010
298.656006,460.671997,829.599976
292.799988,470.432007,825.695984
298.656006,462.623993,819.840027
288.895996,460.671997,819.840027
292.799988,458.720001,819.840027
288.895996,466.528015,819.840027
298.656006,460.671997,823.744019
294.752014,474.335999,829.599976
286.944000,464.575989,825.695984
284.992004,474.335999,819.840027
288.895996,470.432007,821.791992
292.799988,460.671997,825.695984
298.656006,458.720001,819.840027
292.799988,458.720001,817.888000
294.752014,462.623993,817.888000
302.559998,458.720001,821.791992
294.752014,460.671997,821.791992
294.752014,462.623993,812.031982
292.799988,458.720001,817.888000
300.608002,450.911987,817.888000
300.608002,470.432007,825.695984
298.656006,466.528015,823.744019
300.608002,466.528015,827.648010
290.847992,460.671997,819.840027
292.799988,458.720001,823.744019
302.559998,454.816010,825.695984
300.608002,466.528015,819.840027
310.368011,462.623993,827.648010
302.559998,458.720001,815.935974
304.511993,445.056000,825.695984
308.415985,456.768005,829.599976
304.511993,454.816010,831.552002
306.463989,456.768005,827.648010
310.368011,454.816010,831.552002
306.463989,443.104004,837.408020
306.463989,439.200012,835.455994
314.272003,458.720001,833.504028
314.272003,447.007996,829.599976
310.368011,452.864014,837.408020
310.368011,447.007996,839.359985
316.223999,454.816010,839.359985
310.368011,452.864014,841.312012
312.320007,452.864014,841.312012
312.320007,452.864014,841.312012
316.223999,445.056000,851.072021
316.223999,450.911987,847.168030
316.223999,437.247986,843.263977
318.175995,445.056000,847.168030
320.127991,441.152008,849.119995
318.175995,429.440002,856.927979
324.032013,435.295990,860.831970
322.079987,435.295990,862.783997
312.320007,439.200012,860.831970
318.175995,433.343994,860.831970
325.984009,441.152008,856.927979
329.888000,435.295990,860.831970
322.079987,437.247986,870.591980
318.175995,433.343994,858.880005
312.320007,433.343994,856.927979
322.079987,429.440002,868.640015
322.079987,433.343994,868.640015
333.791992,433.343994,866.687988
322.079987,435.295990,870.591980
318.175995,435.295990,862.783997
325.984009,433.343994,868.640015
329.888000,435.295990,858.880005
324.032013,443.104004,858.880005
318.175995,435.295990,860.831970
325.984009,435.295990,862.783997
316.223999,433.343994,866.687988
320.127991,439.200012,862.783997
322.079987,437.247986,868.640015
314.272003,439.200012,866.687988
318.175995,447.007996,872.544006
316.223999,435.295990,870.591980
310.368011,441.152008,874.495972
318.175995,439.200012,862.783997
312.320007,441.152008,868.640015
314.272003,439.200012,872.544006
310.368011,437.247986,876.447998
308.415985,441.152008,872.544006
310.368011,447.007996,862.783997
306.463989,447.007996,872.544006
298.656006,448.959991,866.687988
306.463989,445.056000,870.591980
300.608002,447.007996,862.783997
300.608002,447.007996,868.640015
316.223999,447.007996,870.591980
306.463989,445.056000,862.783997
296.704010,433.343994,866.687988
298.656006,437.247986,866.687988
296.704010,433.343994,868.640015
300.608002,437.247986,864.736023
296.704010,447.007996,864.736023
296.704010,441.152008,854.976013
294.752014,439.200012,862.783997
292.799988,443.104004,868.640015
288.895996,441.152008,860.831970
290.847992,439.200012,864.736023
288.895996,441.152008,854.976013
290.847992,437.247986,856.927979
283.040009,437.247986,868.640015
290.847992,437.247986,862.783997
281.088013,437.247986,860.831970
284.992004,431.391998,872.544006
283.040009,435.295990,866.687988
279.135986,443.104004,864.736023
286.944000,433.343994,860.831970
275.231995,437.247986,864.736023
279.135986,439.200012,858.880005
279.135986,435.295990,853.023987
271.328003,443.104004,856.927979
273.279999,443.104004,849.119995
269.376007,435.295990,853.023987
279.135986,425.536011,853.023987
277.183990,425.536011,849.119995
269.376007,429.440002,856.927979
275.231995,431.391998,854.976013
279.135986,431.391998,853.023987
265.471985,429.440002,847.168030
257.664001,427.488007,849.119995
259.615997,425.536011,841.312012
259.615997,421.631989,847.168030
269.376007,425.536011,845.216003
267.424011,419.679993,845.216003
269.376007,423.584015,837.408020
267.424011,427.488007,851.072021
265.471985,425.536011,849.119995
273.279999,425.536011,847.168030
273.279999,423.584015,849.119995
267.424011,417.727997,845.216003
263.519989,427.488007,854.976013
265.471985,425.536011,841.312012
263.519989,423.584015,841.312012
269.376007,409.920013,843.263977
261.567993,417.727997,841.312012
265.471985,411.872009,835.455994
257.664001,419.679993,839.359985
265.471985,409.920013,835.455994
263.519989,413.824005,835.455994
267.424011,423.584015,835.455994
261.567993,402.112000,837.408020
275.231995,413.824005,835.455994
257.664001,407.967987,825.695984
263.519989,402.112000,819.840027
259.615997,406.015991,837.408020
261.567993,411.872009,835.455994
265.471985,406.015991,829.599976
273.279999,407.967987,833.504028
261.567993,406.015991,839.359985
261.567993,406.015991,845.216003
271.328003,402.112000,831.552002
263.519989,400.160004,831.552002
271.328003,398.208008,839.359985
275.231995,398.208008,837.408020
261.567993,400.160004,837.408020
263.519989,400.160004,843.263977
263.519989,398.208008,843.263977
263.519989,402.112000,837.408020
259.615997,394.303986,837.408020
269.376007,390.399994,837.408020
265.471985,398.208008,835.455994
271.328003,400.160004,843.263977
265.471985,394.303986,843.263977
265.471985,394.303986,843.263977
273.279999,407.967987,839.359985
273.279999,396.256012,835.455994
269.376007,396.256012,831.552002
269.376007,390.399994,837.408020
279.135986,396.256012,839.359985
269.376007,396.256012,831.552002
273.279999,394.303986,835.455994
277.183990,388.447998,831.552002
277.183990,390.399994,827.648010
269.376007,382.592010,827.648010
273.279999,392.351990,829.599976
281.088013,392.351990,835.455994
277.183990,390.399994,831.552002
284.992004,382.592010,827.648010
281.088013,378.687988,837.408020
281.088013,384.544006,837.408020
279.135986,388.447998,831.552002
279.135986,382.592010,837.408020
273.279999,378.687988,841.312012
281.088013,384.544006,839.359985
273.279999,390.399994,835.455994
279.135986,392.351990,831.552002
275.231995,378.687988,837.408020
277.183990,372.832001,833.504028
273.279999,372.832001,835.455994
273.279999,380.640015,831.552002
281.088013,376.735992,829.599976
273.279999,390.399994,831.552002
267.424011,368.928009,825.695984
275.231995,374.783997,827.648010
271.328003,376.735992,827.648010
263.519989,384.544006,827.648010
271.328003,374.783997,829.599976
269.376007,366.976013,833.504028
269.376007,368.928009,829.599976
269.376007,363.071991,833.504028
269.376007,372.832001,833.504028
269.376007,359.167999,831.552002
275.231995,359.167999,837.408020
275.231995,361.119995,829.599976
283.040009,359.167999,833.504028
277.183990,357.216003,841.312012
277.183990,351.359985,849.119995
281.088013,347.455994,839.359985
281.088013,357.216003,849.119995
279.135986,343.552002,847.168030
279.135986,347.455994,841.312012
279.135986,357.216003,837.408020
275.231995,347.455994,843.263977
273.279999,347.455994,847.168030
277.183990,347.455994,843.263977
277.183990,355.264008,841.312012
281.088013,343.552002,853.023987
283.040009,349.407990,851.072021
284.992004,343.552002,847.168030
288.895996,349.407990,860.831970
298.656006,345.503998,854.976013
286.944000,337.696014,854.976013
294.752014,335.743988,860.831970
294.752014,333.791992,854.976013
304.511993,333.791992,866.687988
302.559998,335.743988,868.640015
304.511993,335.743988,866.687988
302.559998,327.936005,864.736023
304.511993,333.791992,866.687988
296.704010,337.696014,870.591980
300.608002,331.839996,856.927979
302.559998,324.032013,862.783997
296.704010,325.984009,864.736023
294.752014,331.839996,868.640015
302.559998,329.888000,860.831970
300.608002,327.936005,868.640015
302.559998,324.032013,868.640015
300.608002,322.079987,868.640015
296.704010,320.127991,858.880005
298.656006,325.984009,872.544006
294.752014,322.079987,876.447998
296.704010,312.320007,868.640015
292.799988,320.127991,868.640015
292.799988,314.272003,874.495972
296.704010,312.320007,872.544006
292.799988,318.175995,872.544006
292.799988,304.511993,868.640015
298.656006,318.175995,876.447998
286.944000,325.984009,862.783997
284.992004,308.415985,870.591980
290.847992,318.175995,866.687988
290.847992,312.320007,860.831970
288.895996,300.608002,872.544006
286.944000,304.511993,854.976013
279.135986,310.368011,858.880005
279.135986,312.320007,853.023987
279.135986,308.415985,854.976013
283.040009,314.272003,858.880005
269.376007,302.559998,849.119995
261.567993,306.463989,847.168030
257.664001,314.272003,843.263977
257.664001,306.463989,845.216003
261.567993,310.368011,851.072021
253.759995,310.368011,849.119995
253.759995,306.463989,849.119995
249.856003,310.368011,856.927979
244.000000,306.463989,854.976013
242.048004,310.368011,847.168030
245.951996,308.415985,858.880005
242.048004,300.608002,854.976013
238.143997,294.752014,847.168030
234.240005,296.704010,853.023987
228.384003,306.463989,849.119995
226.432007,302.559998,851.072021
228.384003,292.799988,853.023987
222.528000,292.799988,856.927979
222.528000,292.799988,858.880005
216.671997,292.799988,862.783997
216.671997,292.799988,860.831970
222.528000,296.704010,858.880005
220.576004,290.847992,872.544006
216.671997,288.895996,872.544006
224.479996,284.992004,874.495972
226.432007,290.847992,876.447998
222.528000,288.895996,872.544006
212.768005,279.135986,884.255981
220.576004,281.088013,882.304016
228.384003,269.376007,870.591980
218.623993,284.992004,880.351990
222.528000,281.088013,880.351990
222.528000,271.328003,878.400024
220.576004,279.135986,870.591980
222.528000,271.328003,872.544006
226.432007,269.376007,870.591980
222.528000,269.376007,868.640015
224.479996,257.664001,872.544006
226.432007,257.664001,858.880005
228.384003,265.471985,853.023987
226.432007,271.328003,856.927979
224.479996,269.376007,853.023987
220.576004,267.424011,853.023987
226.432007,263.519989,851.072021
220.576004,259.615997,847.168030
224.479996,263.519989,839.359985
226.432007,261.567993,839.359985
226.432007,261.567993,839.359985
232.287994,273.279999,831.552002
230.335999,271.328003,841.312012
218.623993,265.471985,831.552002
222.528000,261.567993,827.648010
218.623993,269.376007,825.695984
236.192001,265.471985,823.744019
224.479996,251.807999,825.695984
218.623993,267.424011,831.552002
216.671997,257.664001,831.552002
220.576004,251.807999,839.359985
224.479996,263.519989,843.263977
218.623993,259.615997,837.408020
214.720001,247.904007,841.312012
218.623993,247.904007,845.216003
222.528000,249.856003,837.408020
224.479996,242.048004,843.263977
228.384003,247.904007,843.263977
222.528000,247.904007,837.408020
220.576004,249.856003,841.312012
222.528000,245.951996,843.263977
220.576004,251.807999,845.216003
214.720001,253.759995,841.312012
228.384003,247.904007,841.312012
224.479996,267.424011,847.168030
226.432007,263.519989,845.216003
224.479996,253.759995,849.119995
224.479996,253.759995,841.312012
222.528000,257.664001,849.119995
224.479996,261.567993,843.263977
224.479996,267.424011,853.023987
230.335999,253.759995,854.976013
244.000000,257.664001,853.023987
234.240005,265.471985,858.880005
242.048004,251.807999,866.687988
244.000000,259.615997,872.544006
242.048004,265.471985,868.640015
247.904007,265.471985,868.640015
249.856003,269.376007,878.400024
247.904007,271.328003,864.736023
259.615997,271.328003,876.447998
261.567993,261.567993,864.736023
257.664001,269.376007,864.736023
253.759995,271.328003,866.687988
269.376007,257.664001,870.591980
279.135986,277.183990,866.687988
279.135986,265.471985,864.736023
273.279999,261.567993,854.976013
281.088013,265.471985,866.687988
279.135986,257.664001,854.976013
279.135986,279.135986,864.736023
284.992004,267.424011,851.072021
288.895996,269.376007,845.216003
281.088013,275.231995,853.023987
290.847992,284.992004,858.880005
284.992004,265.471985,847.168030
288.895996,273.279999,849.119995
302.559998,271.328003,853.023987
300.608002,277.183990,858.880005
304.511993,267.424011,851.072021
308.415985,257.664001,856.927979
312.320007,267.424011,856.927979
318.175995,263.519989,862.783997
314.272003,253.759995,854.976013
325.984009,253.759995,862.783997
331.839996,263.519989,866.687988
341.600006,277.183990,870.591980
349.407990,279.135986,874.495972
349.407990,290.847992,876.447998
343.552002,312.320007,884.255981
343.552002,314.272003,880.351990
353.312012,312.320007,872.544006
351.359985,320.127991,872.544006
357.216003,337.696014,868.640015
353.312012,331.839996,862.783997
359.167999,325.984009,858.880005
365.023987,327.936005,864.736023
370.880005,329.888000,854.976013
370.880005,329.888000,851.072021
372.832001,324.032013,856.927979
374.783997,308.415985,858.880005
376.735992,327.936005,849.119995
374.783997,341.600006,843.263977
372.832001,327.936005,849.119995
378.687988,324.032013,851.072021
376.735992,331.839996,856.927979
366.976013,333.791992,847.168030
368.928009,329.888000,851.072021
366.976013,341.600006,845.216003
372.832001,347.455994,839.359985
372.832001,349.407990,853.023987
382.592010,345.503998,851.072021
382.592010,347.455994,854.976013
380.640015,353.312012,868.640015
398.208008,370.880005,866.687988
384.544006,374.783997,868.640015
388.447998,372.832001,880.351990
378.687988,390.399994,892.064026
378.687988,390.399994,890.112000
374.783997,386.496002,899.872009
386.496002,384.544006,888.159973
386.496002,390.399994,888.159973
378.687988,394.303986,894.015991
370.880005,402.112000,897.919983
361.119995,413.824005,897.919983
368.928009,406.015991,907.679993
365.023987,417.727997,911.583984
368.928009,411.872009,915.487976
372.832001,406.015991,909.632019
365.023987,406.015991,907.679993
349.407990,419.679993,907.679993
347.455994,421.631989,907.679993
345.503998,427.488007,899.872009
355.264008,421.631989,884.255981
347.455994,398.208008,882.304016
353.312012,396.256012,890.112000
343.552002,421.631989,894.015991
349.407990,427.488007,882.304016
347.455994,419.679993,882.304016
341.600006,415.776001,888.159973
324.032013,431.391998,884.255981
316.223999,429.440002,884.255981
298.656006,421.631989,868.640015
269.376007,439.200012,866.687988
255.712006,450.911987,866.687988
242.048004,458.720001,866.687988
245.951996,431.391998,872.544006
224.479996,429.440002,874.495972
197.151993,439.200012,876.447998
160.063995,439.200012,876.447998
124.928001,333.791992,880.351990
101.503998,388.447998,886.208008
126.879997,460.671997,913.536011
130.783997,507.519989,923.296021
162.016006,493.855988,929.151978
187.391998,452.864014,913.536011
214.720001,411.872009,894.015991
208.863998,407.967987,837.408020
208.863998,435.295990,776.895996
197.151993,443.104004,739.807983
201.056000,458.720001,681.247986
206.912003,470.432007,628.544006
189.343994,468.480011,577.791992
175.679993,448.959991,542.656006
163.968002,433.343994,501.664001
152.255997,406.015991,468.480011
150.304001,370.880005,429.440002
150.304001,345.503998,390.399994
150.304001,341.600006,357.216003
165.919998,341.600006,333.791992
175.679993,363.071991,306.463989
171.776001,402.112000,281.088013
175.679993,464.575989,281.088013
171.776001,546.559998,277.183990
173.727997,609.023987,273.279999
197.151993,546.559998,263.519989
195.199997,378.687988,253.759995
197.151993,339.648010,249.856003
171.776001,400.160004,257.664001
152.255997,470.432007,265.471985
150.304001,445.056000,281.088013
146.399994,404.063995,288.895996
130.783997,388.447998,304.511993
130.783997,429.440002,312.320007
138.591995,454.816010,310.368011
146.399994,447.007996,302.559998
144.447998,413.824005,298.656006
148.352005,421.631989,288.895996
160.063995,447.007996,304.511993
169.824005,431.391998,296.704010
183.488007,406.015991,312.320007
189.343994,382.592010,325.984009
206.912003,384.544006,343.552002
228.384003,357.216003,361.119995
238.143997,327.936005,396.256012
245.951996,302.559998,435.295990
251.807999,279.135986,480.191986
273.279999,259.615997,519.231995
288.895996,238.143997,556.320007
306.463989,228.384003,595.359985
324.032013,214.720001,640.255981
337.696014,224.479996,665.632019
345.503998,236.192001,702.719971
355.264008,251.807999,728.096008
366.976013,281.088013,751.520020
376.735992,310.368011,753.471985
390.399994,324.032013,763.231995
404.063995,349.407990,772.992004
411.872009,365.023987,774.943970
421.631989,380.640015,772.992004
421.631989,372.832001,769.088013
441.152008,390.399994,755.424011
431.391998,396.256012,753.471985
441.152008,396.256012,759.328003
448.959991,396.256012,759.328003
448.959991,404.063995,755.424011
454.816010,398.208008,757.375977
454.816010,396.256012,757.375977
464.575989,384.544006,761.280029
462.623993,376.735992,774.943970
474.335999,347.455994,774.943970
476.287994,341.600006,774.943970
489.951996,322.079987,788.607971
489.951996,298.656006,798.367981
495.808014,281.088013,790.559998
503.615997,255.712006,788.607971
501.664001,259.615997,798.367981
517.280029,257.664001,810.080017
503.615997,238.143997,792.512024
513.375977,251.807999,810.080017
519.231995,265.471985,810.080017
523.135986,275.231995,813.984009
532.895996,267.424011,819.840027
528.992004,288.895996,825.695984
540.703979,292.799988,827.648010
548.512024,318.175995,835.455994
540.703979,324.032013,835.455994
548.512024,327.936005,843.263977
536.799988,329.888000,847.168030
550.463989,335.743988,851.072021
560.223999,320.127991,854.976013
566.080017,314.272003,853.023987
562.176025,304.511993,858.880005
568.031982,300.608002,864.736023
579.744019,286.944000,866.687988
575.840027,281.088013,868.640015
575.840027,267.424011,870.591980
577.791992,259.615997,878.400024
577.791992,257.664001,880.351990
581.695984,263.519989,892.064026
573.888000,245.951996,882.304016
579.744019,245.951996,878.400024
581.695984,259.615997,890.112000
579.744019,253.759995,880.351990
587.552002,263.519989,884.255981
585.599976,265.471985,880.351990
585.599976,286.944000,876.447998
589.504028,284.992004,870.591980
587.552002,292.799988,876.447998
587.552002,288.895996,880.351990
577.791992,296.704010,884.255981
587.552002,296.704010,874.495972
585.599976,300.608002,882.304016
585.599976,284.992004,874.495972
591.455994,281.088013,884.255981
595.359985,277.183990,876.447998
589.504028,275.231995,876.447998
591.455994,271.328003,878.400024
581.695984,259.615997,872.544006
587.552002,265.471985,876.447998
585.599976,259.615997,880.351990
573.888000,255.712006,872.544006
575.840027,249.856003,868.640015
577.791992,247.904007,866.687988
575.840027,242.048004,862.783997
562.176025,255.712006,856.927979
571.935974,251.807999,858.880005
571.935974,255.712006,854.976013
566.080017,261.567993,851.072021
571.935974,259.615997,853.023987
575.840027,253.759995,853.023987
571.935974,259.615997,853.023987
566.080017,255.712006,856.927979
569.984009,259.615997,851.072021
575.840027,263.519989,853.023987
571.935974,245.951996,851.072021
579.744019,251.807999,862.783997
575.840027,242.048004,866.687988
577.791992,234.240005,864.736023
573.888000,234.240005,851.072021
583.648010,220.576004,864.736023
579.744019,228.384003,872.544006
589.504028,220.576004,868.640015
587.552002,210.815994,868.640015
603.168030,210.815994,876.447998
614.880005,208.863998,878.400024
591.455994,199.104004,872.544006
597.312012,220.576004,870.591980
579.744019,210.815994,884.255981
593.408020,204.960007,886.208008
587.552002,206.912003,884.255981
609.023987,181.535995,882.304016
620.736023,150.304001,884.255981
607.072021,150.304001,880.351990
597.312012,181.535995,884.255981
599.263977,189.343994,899.872009
599.263977,165.919998,909.632019
603.168030,140.544006,911.583984
622.687988,144.447998,919.392029
632.447998,154.207993,921.343994
628.544006,154.207993,923.296021
634.400024,138.591995,921.343994
622.687988,130.783997,929.151978
609.023987,136.639999,925.247986
622.687988,140.544006,935.007996
618.783997,132.735992,931.104004
630.495972,119.071999,919.392029
634.400024,115.167999,915.487976
622.687988,121.024002,919.392029
618.783997,124.928001,917.440002
624.640015,130.783997,909.632019
626.591980,105.407997,913.536011
624.640015,87.839996,921.343994
624.640015,89.792000,907.679993
638.304016,111.264000,907.679993
642.208008,99.552002,901.823975
646.112000,93.695999,903.776001
651.968018,93.695999,913.536011
653.919983,87.839996,907.679993
636.351990,95.648003,911.583984
640.255981,95.648003,909.632019
650.015991,81.984001,915.487976
648.064026,81.984001,915.487976
648.064026,83.935997,907.679993
644.159973,81.984001,913.536011
642.208008,74.176003,909.632019
644.159973,64.416000,913.536011
650.015991,58.560001,915.487976
653.919983,58.560001,915.487976
651.968018,72.223999,909.632019
655.872009,62.464001,907.679993
651.968018,72.223999,903.776001
657.823975,54.655998,901.823975
655.872009,52.703999,901.823975
659.776001,60.512001,905.728027
673.440002,64.416000,911.583984
671.487976,64.416000,915.487976
673.440002,52.703999,911.583984
683.200012,58.560001,915.487976
675.392029,56.608002,907.679993
671.487976,64.416000,894.015991
665.632019,60.512001,899.872009
675.392029,46.848000,897.919983
679.296021,56.608002,886.208008
681.247986,50.751999,888.159973
681.247986,54.655998,890.112000
692.960022,72.223999,882.304016
681.247986,68.320000,886.208008
683.200012,64.416000,876.447998
685.151978,66.367996,878.400024
685.151978,72.223999,874.495972
687.104004,80.031998,870.591980
689.056030,76.127998,884.255981
675.392029,74.176003,874.495972
681.247986,85.888000,870.591980
671.487976,81.984001,868.640015
677.343994,81.984001,854.976013
673.440002,91.744003,860.831970
677.343994,93.695999,854.976013
665.632019,109.311996,854.976013
667.583984,93.695999,853.023987
659.776001,103.456001,839.359985
661.728027,103.456001,841.312012
663.679993,111.264000,839.359985
659.776001,115.167999,845.216003
665.632019,109.311996,864.736023
675.392029,101.503998,866.687988
683.200012,107.360001,888.159973
689.056030,107.360001,888.159973
696.864014,99.552002,899.872009
671.487976,103.456001,895.968018
653.919983,126.879997,876.447998
642.208008,138.591995,858.880005
638.304016,140.544006,839.359985
628.544006,138.591995,835.455994
620.736023,144.447998,819.840027
609.023987,167.871994,817.888000
610.976013,165.919998,792.512024
603.168030,160.063995,794.463989
597.312012,160.063995,784.703979
599.263977,169.824005,782.752014
603.168030,171.776001,771.039978
595.359985,162.016006,761.280029
607.072021,148.352005,755.424011
605.119995,136.639999,741.760010
597.312012,150.304001,737.856018
601.216003,152.255997,726.143982
595.359985,163.968002,724.192017
589.504028,152.255997,714.432007
587.552002,146.399994,710.528015
579.744019,162.016006,712.479980
585.599976,177.632004,708.575989
581.695984,177.632004,712.479980
581.695984,173.727997,702.719971
581.695984,173.727997,712.479980
577.791992,179.584000,708.575989
591.455994,203.007996,714.432007
589.504028,208.863998,710.528015
599.263977,193.248001,708.575989
595.359985,201.056000,700.768005
575.840027,210.815994,708.575989
585.599976,222.528000,710.528015
593.408020,218.623993,702.719971
587.552002,216.671997,691.007996
583.648010,220.576004,689.056030
579.744019,234.240005,679.296021
577.791992,234.240005,671.487976
581.695984,238.143997,663.679993
585.599976,220.576004,659.776001
589.504028,232.287994,663.679993
581.695984,244.000000,659.776001
587.552002,234.240005,653.919983
591.455994,242.048004,640.255981
593.408020,228.384003,655.872009
595.359985,240.095993,651.968018
589.504028,247.904007,657.823975
603.168030,255.712006,651.968018
607.072021,247.904007,651.968018
612.927979,255.712006,667.583984
622.687988,255.712006,671.487976
614.880005,267.424011,679.296021
624.640015,261.567993,692.960022
632.447998,269.376007,706.624023
636.351990,265.471985,708.575989
646.112000,265.471985,730.047974
653.919983,255.712006,730.047974
657.823975,263.519989,745.664001
671.487976,253.759995,759.328003
669.536011,259.615997,771.039978
673.440002,263.519989,782.752014
681.247986,259.615997,806.176025
685.151978,253.759995,812.031982
689.056030,251.807999,835.455994
698.815979,251.807999,837.408020
702.719971,247.904007,849.119995
712.479980,253.759995,870.591980
710.528015,251.807999,866.687988
720.288025,253.759995,872.544006
720.288025,242.048004,874.495972
726.143982,244.000000,888.159973
732.000000,253.759995,882.304016
730.047974,249.856003,892.064026
735.903992,247.904007,886.208008
730.047974,251.807999,882.304016
728.096008,244.000000,868.640015
722.239990,253.759995,866.687988
728.096008,251.807999,860.831970
730.047974,251.807999,851.072021
726.143982,257.664001,835.455994
718.335999,253.759995,823.744019
724.192017,238.143997,825.695984
724.192017,251.807999,821.791992
716.383972,249.856003,821.791992
708.575989,247.904007,806.176025
714.432007,253.759995,804.223999
718.335999,238.143997,794.463989
712.479980,247.904007,802.271973
710.528015,230.335999,798.367981
710.528015,236.192001,788.607971
706.624023,234.240005,780.799988
706.624023,236.192001,782.752014
700.768005,230.335999,784.703979
696.864014,238.143997,776.895996
704.671997,226.432007,784.703979
704.671997,226.432007,782.752014
698.815979,226.432007,776.895996
694.911987,226.432007,784.703979
698.815979,220.576004,786.656006
694.911987,214.720001,798.367981
716.383972,212.768005,790.559998
706.624023,206.912003,792.512024
716.383972,206.912003,794.463989
708.575989,199.104004,794.463989
708.575989,197.151993,802.271973
706.624023,204.960007,796.416016
712.479980,203.007996,806.176025
712.479980,195.199997,808.127991
710.528015,191.296005,806.176025
708.575989,187.391998,806.176025
712.479980,191.296005,800.320007
712.479980,193.248001,794.463989
710.528015,193.248001,794.463989
704.671997,185.440002,794.463989
710.528015,193.248001,800.320007
712.479980,187.391998,796.416016
708.575989,193.248001,788.607971
702.719971,177.632004,784.703979
694.911987,189.343994,788.607971
698.815979,191.296005,788.607971
706.624023,193.248001,794.463989
704.671997,183.488007,784.703979
704.671997,191.296005,786.656006
708.575989,193.248001,786.656006
700.768005,187.391998,786.656006
694.911987,177.632004,786.656006
696.864014,187.391998,780.799988
696.864014,181.535995,778.848022
691.007996,187.391998,774.943970
696.864014,183.488007,778.848022
685.151978,189.343994,765.184021
692.960022,183.488007,761.280029
689.056030,179.584000,771.039978
681.247986,193.248001,761.280029
671.487976,193.248001,759.328003
669.536011,197.151993,753.471985
677.343994,183.488007,751.520020
667.583984,193.248001,745.664001
671.487976,189.343994,741.760010
659.776001,185.440002,751.520020
659.776001,179.584000,741.760010
659.776001,189.343994,745.664001
659.776001,187.391998,747.616028
655.872009,185.440002,732.000000
657.823975,183.488007,739.807983
659.776001,185.440002,743.711975
655.872009,193.248001,730.047974
650.015991,187.391998,732.000000
646.112000,189.343994,733.952026
650.015991,187.391998,728.096008
640.255981,181.535995,722.239990
640.255981,183.488007,718.335999
640.255981,181.535995,712.479980
634.400024,187.391998,712.479980
636.351990,179.584000,726.143982
636.351990,189.343994,724.192017
648.064026,177.632004,716.383972
638.304016,181.535995,714.432007
638.304016,181.535995,724.192017
634.400024,175.679993,716.383972
636.351990,173.727997,720.288025
636.351990,169.824005,728.096008
622.687988,173.727997,714.432007
612.927979,179.584000,714.432007
614.880005,185.440002,714.432007
614.880005,177.632004,714.432007
610.976013,167.871994,710.528015
609.023987,163.968002,704.671997
601.216003,173.727997,714.432007
607.072021,169.824005,708.575989
605.119995,165.919998,704.671997
603.168030,167.871994,694.911987
597.312012,165.919998,691.007996
601.216003,173.727997,689.056030
607.072021,162.016006,687.104004
599.263977,165.919998,691.007996
599.263977,162.016006,679.296021
591.455994,167.871994,689.056030
585.599976,169.824005,692.960022
591.455994,167.871994,681.247986
585.599976,163.968002,675.392029
587.552002,156.160004,671.487976
587.552002,156.160004,669.536011
583.648010,165.919998,673.440002
579.744019,167.871994,667.583984
591.455994,156.160004,665.632019
585.599976,160.063995,651.968018
589.504028,148.352005,657.823975
583.648010,150.304001,650.015991
587.552002,160.063995,650.015991
573.888000,156.160004,650.015991
577.791992,150.304001,650.015991
585.599976,158.112000,648.064026
595.359985,146.399994,651.968018
593.408020,146.399994,644.159973
575.840027,142.496002,646.112000
589.504028,148.352005,648.064026
589.504028,136.639999,646.112000
595.359985,138.591995,634.400024
601.216003,128.832001,644.159973
601.216003,146.399994,661.728027
603.168030,144.447998,650.015991
609.023987,132.735992,663.679993
614.880005,146.399994,659.776001
618.783997,121.024002,665.632019
620.736023,130.783997,667.583984
622.687988,138.591995,675.392029
626.591980,128.832001,683.200012
620.736023,124.928001,685.151978
632.447998,115.167999,694.911987
634.400024,115.167999,691.007996
642.208008,119.071999,691.007996
636.351990,103.456001,691.007996
636.351990,107.360001,691.007996
640.255981,103.456001,700.768005
640.255981,105.407997,702.719971
650.015991,99.552002,696.864014
636.351990,97.599998,704.671997
650.015991,101.503998,694.911987
624.640015,103.456001,708.575989
640.255981,95.648003,702.719971
632.447998,95.648003,700.768005
640.255981,103.456001,696.864014
644.159973,93.695999,696.864014
646.112000,89.792000,691.007996
648.064026,95.648003,689.056030
646.112000,91.744003,679.296021
636.351990,91.744003,673.440002
640.255981,87.839996,673.440002
642.208008,91.744003,667.583984
644.159973,99.552002,665.632019
632.447998,95.648003,661.728027
640.255981,99.552002,655.872009
650.015991,103.456001,655.872009
650.015991,95.648003,644.159973
657.823975,91.744003,648.064026
651.968018,83.935997,646.112000
651.968018,99.552002,646.112000
657.823975,101.503998,638.304016
655.872009,95.648003,632.447998
657.823975,101.503998,632.447998
655.872009,105.407997,642.208008
659.776001,97.599998,628.544006
665.632019,103.456001,628.544006
675.392029,107.360001,628.544006
663.679993,101.503998,620.736023
671.487976,93.695999,618.783997
677.343994,97.599998,616.831970
675.392029,97.599998,626.591980
679.296021,91.744003,616.831970
685.151978,85.888000,620.736023
685.151978,97.599998,612.927979
691.007996,97.599998,624.640015
692.960022,99.552002,609.023987
689.056030,99.552002,605.119995
689.056030,101.503998,601.216003
689.056030,105.407997,597.312012
708.575989,107.360001,607.072021
694.911987,97.599998,603.168030
698.815979,111.264000,595.359985
689.056030,119.071999,589.504028
692.960022,119.071999,585.599976
694.911987,117.120003,581.695984
708.575989,124.928001,599.263977
700.768005,130.783997,591.455994
702.719971,144.447998,585.599976
712.479980,148.352005,587.552002
712.479980,140.544006,581.695984
722.239990,150.304001,579.744019
720.288025,154.207993,577.791992
726.143982,158.112000,569.984009
732.000000,154.207993,579.744019
732.000000,171.776001,579.744019
741.760010,183.488007,583.648010
747.616028,173.727997,569.984009
755.424011,177.632004,577.791992
751.520020,189.343994,589.504028
765.184021,179.584000,589.504028
767.135986,187.391998,591.455994
772.992004,191.296005,589.504028
782.752014,189.343994,589.504028
780.799988,191.296005,593.408020
788.607971,204.960007,591.455994
792.512024,216.671997,599.263977
794.463989,203.007996,603.168030
796.416016,210.815994,607.072021
817.888000,216.671997,612.927979
806.176025,218.623993,603.168030
819.840027,220.576004,609.023987
810.080017,224.479996,614.880005
815.935974,228.384003,614.880005
829.599976,230.335999,616.831970
831.552002,240.095993,612.927979
833.504028,224.479996,622.687988
837.408020,240.095993,618.783997
839.359985,251.807999,624.640015
845.216003,251.807999,620.736023
835.455994,238.143997,610.976013
843.263977,253.759995,622.687988
845.216003,253.759995,616.831970
843.263977,251.807999,618.783997
853.023987,253.759995,614.880005
851.072021,257.664001,616.831970
856.927979,261.567993,607.072021
847.168030,267.424011,612.927979
843.263977,265.471985,612.927979
853.023987,265.471985,603.168030
853.023987,261.567993,607.072021
858.880005,265.471985,597.312012
868.640015,279.135986,603.168030
870.591980,259.615997,591.455994
868.640015,253.759995,587.552002
860.831970,263.519989,591.455994
862.783997,249.856003,577.791992
851.072021,251.807999,579.744019
851.072021,273.279999,581.695984
854.976013,265.471985,579.744019
853.023987,275.231995,587.552002
858.880005,273.279999,585.599976
851.072021,273.279999,581.695984
862.783997,283.040009,573.888000
858.880005,284.992004,571.935974
854.976013,296.704010,571.935974
853.023987,302.559998,571.935974
856.927979,286.944000,573.888000
860.831970,283.040009,569.984009
862.783997,265.471985,575.840027
866.687988,257.664001,569.984009
866.687988,220.576004,568.031982
876.447998,124.928001,566.080017
868.640015,81.984001,562.176025
862.783997,195.199997,575.840027
853.023987,316.223999,585.599976
845.216003,388.447998,575.840027
854.976013,409.920013,568.031982
866.687988,447.007996,558.271973
856.927979,474.335999,558.271973
849.119995,470.432007,564.127991
853.023987,419.679993,560.223999
856.927979,365.023987,554.367981
866.687988,335.743988,554.367981
853.023987,341.600006,564.127991
856.927979,322.079987,554.367981
851.072021,286.944000,552.416016
835.455994,255.712006,550.463989
837.408020,244.000000,552.416016
831.552002,216.671997,552.416016
839.359985,189.343994,550.463989
837.408020,165.919998,542.656006
837.408020,154.207993,534.848022
837.408020,165.919998,536.799988
833.504028,173.727997,538.752014
825.695984,171.776001,527.039978
825.695984,185.440002,532.895996
825.695984,197.151993,532.895996
812.031982,206.912003,528.992004
823.744019,220.576004,530.943970
819.840027,232.287994,528.992004
821.791992,245.951996,530.943970
817.888000,257.664001,532.895996
817.888000,269.376007,528.992004
813.984009,277.183990,527.039978
812.031982,290.847992,528.992004
825.695984,273.279999,519.231995
813.984009,267.424011,519.231995
812.031982,251.807999,513.375977
798.367981,244.000000,501.664001
804.223999,236.192001,507.519989
802.271973,218.623993,505.567993
802.271973,206.912003,499.712006
804.223999,189.343994,501.664001
804.223999,191.296005,495.808014
808.127991,179.584000,491.903992
804.223999,181.535995,495.808014
804.223999,177.632004,491.903992
810.080017,160.063995,488.000000
812.031982,162.016006,495.808014
800.320007,169.824005,493.855988
792.512024,165.919998,489.951996
804.223999,163.968002,488.000000
796.416016,150.304001,488.000000
796.416016,138.591995,489.951996
794.463989,138.591995,484.096008
790.559998,138.591995,482.144012
794.463989,140.544006,478.239990
788.607971,148.352005,480.191986
788.607971,140.544006,474.335999
782.752014,156.160004,470.432007
788.607971,163.968002,466.528015
780.799988,175.679993,454.816010
780.799988,175.679993,458.720001
784.703979,179.584000,462.623993
780.799988,158.112000,462.623993
786.656006,142.496002,458.720001
782.752014,136.639999,448.959991
794.463989,132.735992,452.864014
786.656006,121.024002,448.959991
788.607971,126.879997,445.056000
774.943970,122.975998,448.959991
790.559998,126.879997,450.911987
780.799988,115.167999,448.959991
782.752014,107.360001,439.200012
788.607971,99.552002,433.343994
790.559998,87.839996,425.536011
788.607971,81.984001,437.247986
778.848022,109.311996,441.152008
772.992004,126.879997,447.007996
774.943970,130.783997,450.911987
782.752014,124.928001,454.816010
790.559998,121.024002,454.816010
794.463989,111.264000,460.671997
804.223999,117.120003,458.720001
798.367981,130.783997,458.720001
812.031982,111.264000,458.720001
808.127991,103.456001,464.575989
827.648010,93.695999,462.623993
821.791992,119.071999,462.623993
815.935974,111.264000,464.575989
821.791992,91.744003,462.623993
831.552002,87.839996,472.384003
823.744019,87.839996,472.384003
823.744019,97.599998,482.144012
819.840027,95.648003,478.239990
829.599976,89.792000,476.287994
823.744019,99.552002,482.144012
821.791992,103.456001,484.096008
815.935974,109.311996,489.951996
815.935974,99.552002,486.048004
821.791992,109.311996,489.951996
823.744019,97.599998,480.191986
821.791992,95.648003,489.951996
829.599976,85.888000,488.000000
841.312012,87.839996,489.951996
835.455994,91.744003,495.808014
827.648010,91.744003,497.760010
825.695984,87.839996,499.712006
813.984009,99.552002,493.855988
812.031982,111.264000,493.855988
817.888000,111.264000,491.903992
825.695984,109.311996,489.951996
821.791992,113.216003,480.191986
833.504028,107.360001,484.096008
839.359985,99.552002,488.000000
843.263977,97.599998,493.855988
847.168030,95.648003,489.951996
868.640015,93.695999,484.096008
853.023987,91.744003,495.808014
847.168030,87.839996,491.903992
851.072021,91.744003,488.000000
837.408020,109.311996,491.903992
835.455994,109.311996,488.000000
835.455994,115.167999,491.903992
835.455994,95.648003,501.664001
841.312012,93.695999,484.096008
845.216003,83.935997,495.808014
854.976013,58.560001,499.712006
849.119995,68.320000,509.471985
847.168030,83.935997,503.615997
839.359985,80.031998,486.048004
849.119995,76.127998,493.855988
843.263977,62.464001,489.951996
851.072021,58.560001,486.048004
860.831970,58.560001,474.335999
866.687988,40.992001,480.191986
862.783997,42.944000,478.239990
870.591980,27.327999,470.432007
872.544006,29.280001,472.384003
874.495972,40.992001,466.528015
851.072021,39.040001,478.239990
870.591980,35.136002,480.191986
874.495972,23.424000,474.335999
858.880005,19.520000,468.480011
872.544006,27.327999,466.528015
870.591980,19.520000,478.239990
882.304016,-1.952000,476.287994
895.968018,21.472000,472.384003
907.679993,27.327999,466.528015
888.159973,25.375999,464.575989
880.351990,44.896000,452.864014
862.783997,60.512001,443.104004
882.304016,70.272003,439.200012
892.064026,68.320000,433.343994
899.872009,58.560001,427.488007
899.872009,58.560001,441.152008
901.823975,52.703999,435.295990
897.919983,31.232000,413.824005
897.919983,40.992001,409.920013
905.728027,52.703999,411.872009
931.104004,58.560001,413.824005
958.432007,44.896000,413.824005
907.679993,40.992001,419.679993
927.200012,78.080002,429.440002
919.392029,91.744003,443.104004
909.632019,74.176003,454.816010
944.768005,56.608002,452.864014
915.487976,54.655998,466.528015
921.343994,99.552002,486.048004
919.392029,95.648003,489.951996
929.151978,83.935997,499.712006
915.487976,62.464001,513.375977
936.960022,70.272003,517.280029
929.151978,62.464001,534.848022
925.247986,58.560001,544.607971
944.768005,42.944000,554.367981
962.335999,35.136002,568.031982
952.575989,42.944000,566.080017
935.007996,91.744003,564.127991
909.632019,138.591995,558.271973
884.255981,146.399994,544.607971
909.632019,142.496002,540.703979
929.151978,105.407997,546.559998
948.671997,70.272003,548.512024
964.288025,48.799999,548.512024
968.192017,48.799999,554.367981
958.432007,66.367996,566.080017
962.335999,60.512001,571.935974
954.528015,35.136002,577.791992
954.528015,0.000000,573.888000
948.671997,-29.280001,573.888000
956.479980,-29.280001,569.984009
962.335999,-46.848000,579.744019
958.432007,-66.367996,581.695984
974.047974,-95.648003,589.504028
950.624023,-130.783997,587.552002
958.432007,-126.879997,585.599976
972.096008,-119.071999,587.552002
952.575989,-152.255997,573.888000
958.432007,-177.632004,577.791992
954.528015,-181.535995,575.840027
935.007996,-171.776001,562.176025
944.768005,-179.584000,560.223999
895.968018,-93.695999,556.320007
823.744019,579.744019,550.463989
897.919983,673.440002,542.656006
835.455994,-156.160004,528.992004
929.151978,-575.840027,513.375977
925.247986,-132.735992,515.328003
888.159973,242.048004,507.519989
856.927979,74.176003,486.048004
899.872009,-181.535995,476.287994
851.072021,-152.255997,462.623993
821.791992,-7.808000,423.584015
771.039978,27.327999,378.687988
772.992004,-17.568001,349.407990
804.223999,-68.320000,337.696014
804.223999,-83.935997,312.320007
821.791992,-60.512001,312.320007
817.888000,-54.655998,308.415985
808.127991,-68.320000,300.608002
763.231995,-60.512001,292.799988
741.760010,-7.808000,286.944000
780.799988,-15.616000,277.183990
800.320007,-56.608002,269.376007
796.416016,-85.888000,259.615997
821.791992,-70.272003,259.615997
813.984009,-58.560001,253.759995
813.984009,-64.416000,242.048004
823.744019,-54.655998,240.095993
821.791992,-58.560001,232.287994
823.744019,-80.031998,228.384003
819.840027,-89.792000,222.528000
815.935974,-66.367996,234.240005
810.080017,-31.232000,234.240005
788.607971,-27.327999,242.048004
810.080017,-56.608002,247.904007
798.367981,-87.839996,253.759995
812.031982,-70.272003,249.856003
817.888000,-29.280001,255.712006
810.080017,-21.472000,247.904007
806.176025,-27.327999,247.904007
815.935974,-39.040001,253.759995
819.840027,-50.751999,271.328003
831.552002,-70.272003,275.231995
845.216003,-95.648003,267.424011
845.216003,-107.360001,257.664001
833.504028,-109.311996,267.424011
821.791992,-83.935997,259.615997
810.080017,-80.031998,249.856003
796.416016,-70.272003,247.904007
788.607971,-80.031998,234.240005
788.607971,-91.744003,234.240005
782.752014,-95.648003,238.143997
782.752014,-91.744003,240.095993
800.320007,-74.176003,245.951996
792.512024,-93.695999,240.095993
810.080017,-109.311996,234.240005
804.223999,-103.456001,244.000000
815.935974,-87.839996,247.904007
829.599976,-80.031998,261.567993
843.263977,-93.695999,265.471985
860.831970,-115.167999,265.471985
853.023987,-121.024002,267.424011
845.216003,-72.223999,271.328003
866.687988,-37.088001,277.183990
870.591980,-109.311996,249.856003
792.512024,-80.031998,236.192001
794.463989,19.520000,238.143997
810.080017,58.560001,247.904007
835.455994,-25.375999,238.143997
753.471985,-89.792000,240.095993
683.200012,56.608002,230.335999
929.151978,87.839996,224.479996
948.671997,-121.024002,199.104004
966.239990,-165.919998,195.199997
1016.992004,-31.232000,210.815994
936.960022,39.040001,222.528000
933.056030,-3.904000,234.240005
960.383972,-1.952000,245.951996
923.296021,5.856000,245.951996
956.479980,-9.760000,255.712006
925.247986,-58.560001,261.567993
905.728027,-87.839996,290.847992
909.632019,-37.088001,339.648010
884.255981,27.327999,407.967987
878.400024,-23.424000,462.623993
917.440002,-87.839996,493.855988
966.239990,-46.848000,507.519989
1005.280029,19.520000,527.039978
1024.800049,-60.512001,536.799988
1050.176025,-148.352005,552.416016
1059.936035,-160.063995,550.463989
1081.407959,-124.928001,556.320007
1132.160034,-91.744003,542.656006
1098.975952,-171.776001,538.752014
1054.079956,-197.151993,542.656006
1061.887939,-191.296005,542.656006
1034.560059,-183.488007,532.895996
1038.463989,-97.599998,511.424011
1038.463989,-99.552002,499.712006
1044.319946,-201.056000,488.000000
1044.319946,-290.847992,472.384003
956.479980,-138.591995,458.720001
989.664001,-29.280001,431.391998
1044.319946,-163.968002,386.496002
979.903992,-138.591995,355.264008
1038.463989,72.223999,335.743988
1026.751953,44.896000,308.415985
1030.656006,-121.024002,292.799988
1040.416016,-64.416000,263.519989
1048.223999,68.320000,253.759995
1079.456055,17.568001,247.904007
1097.024048,-144.447998,234.240005
1073.599976,-128.832001,232.287994
1077.504028,9.760000,228.384003
1038.463989,42.944000,218.623993
1050.176025,-33.183998,212.768005
1032.608032,-46.848000,212.768005
1030.656006,33.183998,216.671997
1182.911987,9.760000,199.104004
1059.936035,-46.848000,199.104004
985.760010,160.063995,195.199997
987.711975,374.783997,183.488007
1124.352051,-3.904000,181.535995
1071.647949,-95.648003,185.440002
1077.504028,474.335999,183.488007
977.952026,347.455994,175.679993
