ACC_X,ACC_Y,ACC_Z
653.919983,388.447998,663.679993
651.968018,392.351990,663.679993
659.776001,390.399994,663.679993
655.872009,394.303986,667.583984
657.823975,386.496002,667.583984
661.728027,386.496002,657.823975
661.728027,382.592010,661.728027
661.728027,376.735992,667.583984
661.728027,386.496002,671.487976
653.919983,386.496002,661.728027
657.823975,386.496002,665.632019
657.823975,386.496002,661.728027
651.968018,390.399994,651.968018
650.015991,380.640015,659.776001
651.968018,396.256012,665.632019
650.015991,398.208008,659.776001
650.015991,396.256012,648.064026
657.823975,394.303986,657.823975
651.968018,392.351990,650.015991
651.968018,390.399994,657.823975
651.968018,392.351990,659.776001
651.968018,396.256012,653.919983
651.968018,392.351990,663.679993
644.159973,390.399994,661.728027
655.872009,392.351990,651.968018
653.919983,390.399994,655.872009
651.968018,392.351990,644.159973
655.872009,396.256012,657.823975
646.112000,396.256012,651.968018
653.919983,396.256012,661.728027
648.064026,392.351990,661.728027
646.112000,394.303986,653.919983
648.064026,398.208008,657.823975
650.015991,396.256012,650.015991
648.064026,394.303986,653.919983
648.064026,398.208008,640.255981
644.159973,398.208008,653.919983
653.919983,388.447998,651.968018
644.159973,396.256012,653.919983
648.064026,390.399994,648.064026
640.255981,398.208008,659.776001
644.159973,388.447998,653.919983
644.159973,390.399994,648.064026
644.159973,382.592010,651.968018
640.255981,382.592010,648.064026
657.823975,390.399994,646.112000
646.112000,390.399994,653.919983
646.112000,396.256012,650.015991
644.159973,390.399994,650.015991
650.015991,384.544006,650.015991
646.112000,392.351990,665.632019
648.064026,394.303986,661.728027
650.015991,390.399994,655.872009
650.015991,390.399994,655.872009
655.872009,388.447998,651.968018
653.919983,400.160004,646.112000
648.064026,398.208008,648.064026
653.919983,384.544006,653.919983
653.919983,386.496002,650.015991
657.823975,400.160004,650.015991
648.064026,396.256012,648.064026
648.064026,378.687988,653.919983
650.015991,388.447998,655.872009
650.015991,386.496002,648.064026
657.823975,390.399994,651.968018
655.872009,390.399994,655.872009
651.968018,390.399994,657.823975
655.872009,388.447998,653.919983
657.823975,390.399994,655.872009
650.015991,388.447998,653.919983
657.823975,394.303986,661.728027
651.968018,392.351990,655.872009
653.919983,400.160004,659.776001
648.064026,398.208008,659.776001
657.823975,398.208008,665.632019
657.823975,394.303986,663.679993
655.872009,392.351990,659.776001
661.728027,396.256012,661.728027
665.632019,400.160004,657.823975
659.776001,398.208008,648.064026
665.632019,392.351990,651.968018
659.776001,390.399994,646.112000
663.679993,388.447998,653.919983
661.728027,390.399994,661.728027
661.728027,392.351990,655.872009
657.823975,396.256012,651.968018
663.679993,394.303986,657.823975
657.823975,398.208008,657.823975
665.632019,394.303986,653.919983
663.679993,398.208008,661.728027
667.583984,392.351990,655.872009
663.679993,392.351990,657.823975
663.679993,380.640015,651.968018
669.536011,390.399994,659.776001
671.487976,390.399994,657.823975
663.679993,392.351990,659.776001
655.872009,402.112000,661.728027
657.823975,390.399994,659.776001
661.728027,382.592010,651.968018
669.536011,396.256012,655.872009
669.536011,394.303986,655.872009
667.583984,388.447998,657.823975
665.632019,390.399994,665.632019
671.487976,390.399994,665.632019
665.632019,394.303986,655.872009
669.536011,394.303986,657.823975
667.583984,400.160004,657.823975
671.487976,388.447998,665.632019
671.487976,394.303986,657.823975
681.247986,394.303986,657.823975
675.392029,386.496002,648.064026
681.247986,390.399994,661.728027
675.392029,398.208008,665.632019
679.296021,392.351990,663.679993
683.200012,392.351990,655.872009
681.247986,400.160004,659.776001
683.200012,390.399994,659.776001
675.392029,390.399994,661.728027
675.392029,388.447998,661.728027
677.343994,388.447998,665.632019
687.104004,374.783997,659.776001
679.296021,388.447998,663.679993
679.296021,392.351990,661.728027
677.343994,396.256012,659.776001
681.247986,390.399994,661.728027
677.343994,396.256012,659.776001
683.200012,386.496002,663.679993
677.343994,392.351990,663.679993
671.487976,386.496002,655.872009
685.151978,388.447998,661.728027
679.296021,386.496002,663.679993
683.200012,386.496002,661.728027
677.343994,386.496002,663.679993
681.247986,396.256012,661.728027
679.296021,392.351990,663.679993
681.247986,382.592010,661.728027
679.296021,386.496002,655.872009
679.296021,392.351990,663.679993
671.487976,388.447998,659.776001
679.296021,392.351990,661.728027
675.392029,386.496002,655.872009
671.487976,392.351990,659.776001
685.151978,392.351990,663.679993
685.151978,394.303986,665.632019
677.343994,386.496002,665.632019
675.392029,386.496002,659.776001
671.487976,388.447998,665.632019
679.296021,392.351990,661.728027
679.296021,392.351990,661.728027
685.151978,390.399994,655.872009
679.296021,392.351990,663.679993
683.200012,382.592010,667.583984
671.487976,386.496002,665.632019
675.392029,390.399994,655.872009
677.343994,390.399994,665.632019
675.392029,400.160004,671.487976
677.343994,392.351990,661.728027
679.296021,392.351990,663.679993
677.343994,388.447998,667.583984
671.487976,390.399994,657.823975
671.487976,382.592010,659.776001
683.200012,386.496002,657.823975
679.296021,386.496002,655.872009
673.440002,386.496002,651.968018
681.247986,388.447998,655.872009
667.583984,398.208008,653.919983
673.440002,390.399994,651.968018
667.583984,400.160004,657.823975
671.487976,394.303986,655.872009
677.343994,392.351990,655.872009
679.296021,392.351990,663.679993
675.392029,394.303986,665.632019
671.487976,382.592010,663.679993
677.343994,388.447998,665.632019
681.247986,390.399994,655.872009
679.296021,384.544006,655.872009
679.296021,392.351990,661.728027
673.440002,386.496002,651.968018
673.440002,380.640015,667.583984
677.343994,388.447998,663.679993
677.343994,394.303986,663.679993
679.296021,388.447998,663.679993
683.200012,386.496002,663.679993
677.343994,386.496002,661.728027
677.343994,384.544006,657.823975
671.487976,392.351990,663.679993
683.200012,388.447998,661.728027
681.247986,394.303986,659.776001
679.296021,400.160004,657.823975
677.343994,388.447998,661.728027
675.392029,386.496002,653.919983
675.392029,388.447998,663.679993
681.247986,392.351990,650.015991
681.247986,392.351990,665.632019
675.392029,390.399994,657.823975
681.247986,386.496002,661.728027
673.440002,378.687988,663.679993
681.247986,384.544006,661.728027
681.247986,386.496002,653.919983
677.343994,382.592010,669.536011
681.247986,394.303986,665.632019
675.392029,378.687988,661.728027
675.392029,380.640015,659.776001
669.536011,376.735992,650.015991
675.392029,384.544006,651.968018
673.440002,388.447998,657.823975
673.440002,392.351990,655.872009
675.392029,388.447998,653.919983
675.392029,386.496002,653.919983
671.487976,388.447998,665.632019
667.583984,386.496002,648.064026
667.583984,388.447998,657.823975
663.679993,382.592010,657.823975
673.440002,382.592010,651.968018
673.440002,386.496002,653.919983
659.776001,380.640015,653.919983
669.536011,382.592010,648.064026
673.440002,390.399994,655.872009
663.679993,382.592010,657.823975
675.392029,384.544006,657.823975
669.536011,384.544006,659.776001
667.583984,380.640015,655.872009
659.776001,386.496002,659.776001
665.632019,376.735992,653.919983
669.536011,374.783997,655.872009
671.487976,374.783997,655.872009
663.679993,386.496002,657.823975
665.632019,386.496002,648.064026
661.728027,384.544006,657.823975
665.632019,376.735992,661.728027
663.679993,388.447998,655.872009
663.679993,382.592010,651.968018
665.632019,386.496002,650.015991
667.583984,382.592010,653.919983
661.728027,380.640015,657.823975
657.823975,386.496002,655.872009
661.728027,386.496002,648.064026
655.872009,388.447998,651.968018
661.728027,386.496002,655.872009
665.632019,378.687988,646.112000
663.679993,380.640015,651.968018
665.632019,384.544006,659.776001
659.776001,380.640015,653.919983
665.632019,388.447998,651.968018
661.728027,378.687988,651.968018
663.679993,392.351990,659.776001
659.776001,378.687988,657.823975
667.583984,384.544006,655.872009
661.728027,374.783997,648.064026
659.776001,376.735992,657.823975
665.632019,380.640015,655.872009
659.776001,374.783997,661.728027
659.776001,370.880005,650.015991
655.872009,382.592010,653.919983
659.776001,384.544006,648.064026
661.728027,382.592010,650.015991
663.679993,380.640015,648.064026
665.632019,374.783997,653.919983
665.632019,374.783997,653.919983
667.583984,368.928009,651.968018
667.583984,388.447998,657.823975
667.583984,388.447998,665.632019
671.487976,366.976013,651.968018
659.776001,370.880005,655.872009
663.679993,382.592010,653.919983
667.583984,372.832001,653.919983
671.487976,372.832001,651.968018
671.487976,374.783997,653.919983
669.536011,370.880005,655.872009
659.776001,382.592010,651.968018
669.536011,380.640015,648.064026
669.536011,368.928009,651.968018
667.583984,368.928009,659.776001
663.679993,376.735992,655.872009
667.583984,382.592010,659.776001
669.536011,380.640015,651.968018
673.440002,370.880005,644.159973
677.343994,376.735992,648.064026
663.679993,380.640015,657.823975
671.487976,376.735992,655.872009
671.487976,378.687988,657.823975
665.632019,370.880005,657.823975
677.343994,376.735992,659.776001
663.679993,386.496002,653.919983
667.583984,370.880005,655.872009
665.632019,370.880005,655.872009
669.536011,372.832001,655.872009
675.392029,366.976013,653.919983
671.487976,376.735992,653.919983
667.583984,370.880005,655.872009
679.296021,376.735992,648.064026
669.536011,370.880005,651.968018
671.487976,374.783997,653.919983
675.392029,388.447998,653.919983
677.343994,376.735992,651.968018
663.679993,374.783997,657.823975
671.487976,378.687988,651.968018
671.487976,370.880005,648.064026
675.392029,372.832001,651.968018
679.296021,376.735992,659.776001
675.392029,372.832001,665.632019
667.583984,372.832001,655.872009
673.440002,368.928009,661.728027
671.487976,366.976013,653.919983
673.440002,380.640015,657.823975
675.392029,374.783997,648.064026
681.247986,372.832001,650.015991
669.536011,370.880005,655.872009
675.392029,368.928009,640.255981
669.536011,372.832001,661.728027
667.583984,374.783997,653.919983
671.487976,376.735992,655.872009
667.583984,376.735992,661.728027
677.343994,376.735992,653.919983
677.343994,370.880005,655.872009
675.392029,366.976013,651.968018
677.343994,361.119995,661.728027
667.583984,363.071991,651.968018
671.487976,374.783997,661.728027
671.487976,374.783997,651.968018
677.343994,374.783997,653.919983
673.440002,384.544006,661.728027
667.583984,380.640015,651.968018
675.392029,384.544006,655.872009
671.487976,368.928009,648.064026
667.583984,376.735992,655.872009
667.583984,366.976013,661.728027
669.536011,372.832001,651.968018
669.536011,370.880005,661.728027
677.343994,374.783997,651.968018
677.343994,372.832001,648.064026
667.583984,380.640015,653.919983
677.343994,374.783997,661.728027
667.583984,370.880005,663.679993
667.583984,372.832001,651.968018
677.343994,370.880005,651.968018
669.536011,366.976013,655.872009
679.296021,366.976013,657.823975
669.536011,374.783997,651.968018
679.296021,378.687988,648.064026
677.343994,380.640015,653.919983
667.583984,380.640015,648.064026
671.487976,380.640015,651.968018
669.536011,372.832001,653.919983
671.487976,380.640015,650.015991
667.583984,370.880005,653.919983
675.392029,388.447998,650.015991
665.632019,376.735992,650.015991
671.487976,374.783997,653.919983
667.583984,374.783997,650.015991
675.392029,382.592010,651.968018
675.392029,378.687988,655.872009
679.296021,366.976013,648.064026
677.343994,376.735992,657.823975
677.343994,376.735992,653.919983
677.343994,376.735992,659.776001
679.296021,376.735992,657.823975
685.151978,378.687988,653.919983
681.247986,376.735992,653.919983
671.487976,370.880005,655.872009
671.487976,374.783997,655.872009
677.343994,366.976013,661.728027
675.392029,376.735992,653.919983
677.343994,376.735992,653.919983
667.583984,366.976013,655.872009
679.296021,376.735992,648.064026
681.247986,366.976013,665.632019
691.007996,368.928009,659.776001
677.343994,376.735992,657.823975
679.296021,374.783997,655.872009
679.296021,376.735992,659.776001
685.151978,374.783997,665.632019
687.104004,376.735992,663.679993
689.056030,372.832001,667.583984
685.151978,372.832001,659.776001
679.296021,370.880005,657.823975
685.151978,368.928009,657.823975
683.200012,370.880005,657.823975
687.104004,372.832001,665.632019
689.056030,370.880005,659.776001
687.104004,372.832001,659.776001
692.960022,382.592010,655.872009
689.056030,374.783997,653.919983
681.247986,376.735992,655.872009
679.296021,380.640015,661.728027
677.343994,376.735992,657.823975
677.343994,372.832001,655.872009
683.200012,366.976013,661.728027
679.296021,372.832001,657.823975
681.247986,370.880005,659.776001
685.151978,374.783997,665.632019
683.200012,380.640015,663.679993
681.247986,370.880005,657.823975
683.200012,376.735992,653.919983
681.247986,376.735992,655.872009
675.392029,366.976013,665.632019
679.296021,372.832001,659.776001
675.392029,378.687988,663.679993
681.247986,363.071991,663.679993
683.200012,376.735992,659.776001
687.104004,366.976013,665.632019
683.200012,366.976013,651.968018
675.392029,366.976013,657.823975
671.487976,368.928009,653.919983
679.296021,370.880005,653.919983
679.296021,368.928009,659.776001
679.296021,372.832001,653.919983
675.392029,368.928009,659.776001
675.392029,370.880005,659.776001
677.343994,370.880005,661.728027
681.247986,372.832001,657.823975
679.296021,365.023987,655.872009
671.487976,376.735992,655.872009
675.392029,366.976013,661.728027
681.247986,372.832001,669.536011
671.487976,368.928009,655.872009
669.536011,366.976013,663.679993
677.343994,376.735992,657.823975
671.487976,374.783997,655.872009
681.247986,374.783997,663.679993
677.343994,368.928009,659.776001
673.440002,372.832001,663.679993
677.343994,365.023987,657.823975
671.487976,374.783997,661.728027
667.583984,368.928009,661.728027
667.583984,374.783997,655.872009
669.536011,372.832001,655.872009
665.632019,372.832001,653.919983
677.343994,368.928009,657.823975
667.583984,370.880005,661.728027
677.343994,363.071991,653.919983
673.440002,359.167999,655.872009
667.583984,372.832001,661.728027
675.392029,366.976013,665.632019
673.440002,363.071991,659.776001
663.679993,365.023987,661.728027
673.440002,361.119995,655.872009
669.536011,357.216003,659.776001
665.632019,359.167999,657.823975
669.536011,366.976013,661.728027
671.487976,365.023987,665.632019
673.440002,363.071991,657.823975
667.583984,368.928009,655.872009
673.440002,365.023987,655.872009
671.487976,366.976013,663.679993
671.487976,363.071991,655.872009
675.392029,359.167999,651.968018
667.583984,365.023987,661.728027
675.392029,363.071991,665.632019
667.583984,361.119995,651.968018
675.392029,365.023987,653.919983
677.343994,359.167999,665.632019
667.583984,365.023987,661.728027
671.487976,366.976013,663.679993
679.296021,355.264008,661.728027
669.536011,363.071991,661.728027
667.583984,361.119995,659.776001
667.583984,363.071991,659.776001
677.343994,368.928009,661.728027
673.440002,359.167999,661.728027
667.583984,355.264008,659.776001
663.679993,359.167999,659.776001
667.583984,366.976013,669.536011
677.343994,363.071991,663.679993
669.536011,366.976013,663.679993
671.487976,359.167999,669.536011
667.583984,359.167999,659.776001
671.487976,357.216003,659.776001
669.536011,359.167999,665.632019
669.536011,370.880005,653.919983
671.487976,363.071991,655.872009
669.536011,370.880005,661.728027
681.247986,359.167999,661.728027
667.583984,372.832001,663.679993
681.247986,363.071991,665.632019
673.440002,368.928009,665.632019
669.536011,355.264008,665.632019
671.487976,355.264008,665.632019
679.296021,361.119995,663.679993
677.343994,357.216003,669.536011
669.536011,359.167999,665.632019
671.487976,366.976013,655.872009
663.679993,361.119995,659.776001
667.583984,366.976013,661.728027
671.487976,361.119995,667.583984
675.392029,365.023987,661.728027
669.536011,359.167999,665.632019
669.536011,363.071991,657.823975
665.632019,359.167999,659.776001
659.776001,365.023987,667.583984
671.487976,363.071991,661.728027
667.583984,366.976013,667.583984
663.679993,365.023987,667.583984
663.679993,365.023987,663.679993
667.583984,366.976013,667.583984
671.487976,353.312012,671.487976
669.536011,359.167999,677.343994
663.679993,359.167999,665.632019
659.776001,355.264008,669.536011
665.632019,361.119995,665.632019
663.679993,365.023987,665.632019
667.583984,365.023987,663.679993
669.536011,359.167999,665.632019
659.776001,353.312012,671.487976
657.823975,355.264008,667.583984
665.632019,365.023987,671.487976
665.632019,359.167999,669.536011
661.728027,365.023987,673.440002
669.536011,365.023987,667.583984
665.632019,353.312012,665.632019
663.679993,359.167999,671.487976
661.728027,363.071991,679.296021
661.728027,365.023987,681.247986
653.919983,361.119995,669.536011
648.064026,363.071991,673.440002
659.776001,359.167999,663.679993
655.872009,363.071991,663.679993
661.728027,363.071991,665.632019
661.728027,359.167999,671.487976
657.823975,363.071991,671.487976
651.968018,366.976013,671.487976
659.776001,361.119995,663.679993
659.776001,353.312012,669.536011
657.823975,361.119995,667.583984
659.776001,361.119995,667.583984
655.872009,368.928009,669.536011
650.015991,368.928009,671.487976
651.968018,361.119995,673.440002
651.968018,368.928009,671.487976
655.872009,363.071991,665.632019
661.728027,366.976013,663.679993
657.823975,363.071991,667.583984
655.872009,365.023987,667.583984
653.919983,361.119995,667.583984
651.968018,361.119995,669.536011
651.968018,357.216003,667.583984
648.064026,366.976013,671.487976
646.112000,359.167999,665.632019
651.968018,363.071991,663.679993
651.968018,361.119995,667.583984
657.823975,363.071991,663.679993
650.015991,361.119995,665.632019
640.255981,363.071991,673.440002
650.015991,370.880005,669.536011
653.919983,361.119995,667.583984
651.968018,361.119995,669.536011
653.919983,351.359985,673.440002
653.919983,355.264008,655.872009
650.015991,363.071991,671.487976
653.919983,355.264008,667.583984
648.064026,361.119995,667.583984
655.872009,347.455994,663.679993
655.872009,357.216003,675.392029
657.823975,355.264008,675.392029
650.015991,363.071991,677.343994
650.015991,363.071991,677.343994
646.112000,351.359985,669.536011
648.064026,357.216003,673.440002
644.159973,361.119995,669.536011
646.112000,359.167999,669.536011
650.015991,359.167999,673.440002
648.064026,357.216003,667.583984
640.255981,349.407990,675.392029
640.255981,359.167999,665.632019
640.255981,357.216003,677.343994
646.112000,357.216003,667.583984
650.015991,363.071991,667.583984
640.255981,353.312012,669.536011
642.208008,357.216003,681.247986
646.112000,359.167999,667.583984
646.112000,353.312012,673.440002
648.064026,355.264008,675.392029
651.968018,351.359985,675.392029
646.112000,359.167999,669.536011
646.112000,357.216003,669.536011
650.015991,351.359985,677.343994
646.112000,355.264008,667.583984
640.255981,359.167999,665.632019
646.112000,357.216003,667.583984
640.255981,351.359985,669.536011
638.304016,355.264008,667.583984
648.064026,359.167999,673.440002
640.255981,359.167999,665.632019
636.351990,357.216003,677.343994
644.159973,349.407990,675.392029
638.304016,349.407990,673.440002
638.304016,355.264008,671.487976
638.304016,353.312012,665.632019
636.351990,357.216003,665.632019
638.304016,359.167999,669.536011
634.400024,353.312012,671.487976
646.112000,359.167999,665.632019
638.304016,351.359985,667.583984
634.400024,365.023987,665.632019
638.304016,359.167999,669.536011
634.400024,353.312012,667.583984
638.304016,353.312012,665.632019
636.351990,343.552002,667.583984
640.255981,353.312012,665.632019
632.447998,351.359985,659.776001
646.112000,355.264008,665.632019
638.304016,347.455994,669.536011
634.400024,359.167999,665.632019
636.351990,349.407990,665.632019
632.447998,349.407990,671.487976
636.351990,349.407990,671.487976
636.351990,347.455994,663.679993
628.544006,355.264008,673.440002
628.544006,353.312012,671.487976
638.304016,357.216003,669.536011
632.447998,361.119995,665.632019
634.400024,343.552002,685.151978
642.208008,355.264008,677.343994
632.447998,357.216003,671.487976
634.400024,359.167999,671.487976
628.544006,353.312012,671.487976
636.351990,353.312012,663.679993
632.447998,351.359985,677.343994
638.304016,347.455994,665.632019
632.447998,353.312012,667.583984
634.400024,347.455994,671.487976
634.400024,353.312012,671.487976
640.255981,355.264008,667.583984
632.447998,359.167999,667.583984
640.255981,353.312012,677.343994
634.400024,359.167999,677.343994
634.400024,359.167999,671.487976
632.447998,349.407990,677.343994
628.544006,347.455994,671.487976
632.447998,361.119995,671.487976
628.544006,351.359985,671.487976
634.400024,347.455994,669.536011
632.447998,353.312012,667.583984
624.640015,351.359985,673.440002
628.544006,355.264008,667.583984
634.400024,359.167999,671.487976
634.400024,353.312012,669.536011
626.591980,353.312012,669.536011
634.400024,353.312012,659.776001
634.400024,355.264008,677.343994
620.736023,353.312012,675.392029
628.544006,355.264008,671.487976
628.544006,355.264008,663.679993
622.687988,363.071991,663.679993
626.591980,361.119995,667.583984
632.447998,353.312012,665.632019
632.447998,347.455994,669.536011
628.544006,353.312012,671.487976
628.544006,363.071991,675.392029
624.640015,361.119995,669.536011
626.591980,361.119995,669.536011
634.400024,359.167999,667.583984
636.351990,361.119995,679.296021
622.687988,357.216003,687.104004
628.544006,359.167999,671.487976
628.544006,357.216003,671.487976
628.544006,365.023987,677.343994
628.544006,355.264008,667.583984
634.400024,359.167999,677.343994
632.447998,351.359985,679.296021
626.591980,351.359985,669.536011
626.591980,353.312012,671.487976
630.495972,355.264008,677.343994
628.544006,363.071991,681.247986
628.544006,363.071991,673.440002
624.640015,355.264008,679.296021
626.591980,355.264008,675.392029
630.495972,361.119995,677.343994
626.591980,361.119995,667.583984
624.640015,359.167999,685.151978
624.640015,363.071991,677.343994
626.591980,353.312012,675.392029
626.591980,363.071991,667.583984
628.544006,353.312012,665.632019
630.495972,366.976013,675.392029
630.495972,355.264008,677.343994
626.591980,357.216003,671.487976
630.495972,355.264008,677.343994
626.591980,357.216003,673.440002
622.687988,361.119995,681.247986
620.736023,365.023987,681.247986
624.640015,353.312012,673.440002
626.591980,361.119995,675.392029
624.640015,351.359985,681.247986
622.687988,357.216003,681.247986
622.687988,353.312012,681.247986
622.687988,355.264008,675.392029
634.400024,355.264008,675.392029
628.544006,357.216003,673.440002
620.736023,355.264008,675.392029
622.687988,351.359985,673.440002
620.736023,355.264008,669.536011
626.591980,359.167999,665.632019
628.544006,355.264008,667.583984
620.736023,349.407990,673.440002
622.687988,357.216003,667.583984
618.783997,349.407990,671.487976
620.736023,343.552002,677.343994
626.591980,365.023987,677.343994
624.640015,351.359985,675.392029
638.304016,353.312012,669.536011
628.544006,347.455994,665.632019
626.591980,353.312012,659.776001
626.591980,351.359985,669.536011
622.687988,347.455994,679.296021
624.640015,345.503998,671.487976
620.736023,349.407990,673.440002
620.736023,353.312012,681.247986
622.687988,357.216003,681.247986
620.736023,355.264008,667.583984
616.831970,361.119995,669.536011
618.783997,351.359985,667.583984
616.831970,349.407990,673.440002
626.591980,353.312012,679.296021
634.400024,359.167999,665.632019
620.736023,347.455994,671.487976
624.640015,351.359985,665.632019
626.591980,355.264008,671.487976
630.495972,353.312012,675.392029
616.831970,357.216003,667.583984
626.591980,351.359985,677.343994
626.591980,345.503998,681.247986
622.687988,347.455994,671.487976
620.736023,349.407990,677.343994
628.544006,359.167999,663.679993
622.687988,357.216003,669.536011
620.736023,349.407990,667.583984
622.687988,351.359985,669.536011
628.544006,355.264008,663.679993
628.544006,355.264008,665.632019
616.831970,361.119995,669.536011
634.400024,357.216003,671.487976
628.544006,359.167999,669.536011
628.544006,359.167999,669.536011
616.831970,359.167999,673.440002
634.400024,357.216003,671.487976
630.495972,343.552002,671.487976
632.447998,345.503998,671.487976
622.687988,343.552002,677.343994
634.400024,347.455994,671.487976
634.400024,357.216003,671.487976
634.400024,353.312012,677.343994
628.544006,353.312012,665.632019
628.544006,345.503998,677.343994
634.400024,355.264008,669.536011
638.304016,359.167999,673.440002
634.400024,357.216003,669.536011
634.400024,359.167999,671.487976
642.208008,359.167999,669.536011
630.495972,347.455994,663.679993
636.351990,361.119995,671.487976
628.544006,357.216003,661.728027
628.544006,361.119995,669.536011
626.591980,359.167999,665.632019
632.447998,359.167999,671.487976
632.447998,359.167999,677.343994
640.255981,365.023987,677.343994
630.495972,355.264008,679.296021
628.544006,359.167999,669.536011
634.400024,359.167999,677.343994
638.304016,361.119995,679.296021
636.351990,365.023987,665.632019
634.400024,365.023987,667.583984
638.304016,366.976013,669.536011
642.208008,366.976013,667.583984
630.495972,368.928009,669.536011
630.495972,372.832001,665.632019
636.351990,366.976013,669.536011
636.351990,368.928009,681.247986
638.304016,370.880005,675.392029
638.304016,359.167999,671.487976
636.351990,366.976013,663.679993
638.304016,365.023987,663.679993
630.495972,372.832001,669.536011
632.447998,378.687988,665.632019
636.351990,376.735992,671.487976
634.400024,365.023987,665.632019
634.400024,359.167999,665.632019
636.351990,366.976013,669.536011
636.351990,376.735992,673.440002
632.447998,366.976013,663.679993
628.544006,372.832001,671.487976
632.447998,368.928009,669.536011
634.400024,380.640015,675.392029
630.495972,376.735992,671.487976
632.447998,376.735992,663.679993
636.351990,376.735992,667.583984
632.447998,372.832001,663.679993
638.304016,374.783997,661.728027
634.400024,378.687988,669.536011
634.400024,378.687988,669.536011
628.544006,384.544006,673.440002
636.351990,378.687988,665.632019
634.400024,384.544006,667.583984
638.304016,384.544006,665.632019
630.495972,378.687988,669.536011
632.447998,378.687988,663.679993
632.447998,388.447998,673.440002
634.400024,374.783997,655.872009
640.255981,380.640015,657.823975
628.544006,374.783997,673.440002
634.400024,386.496002,665.632019
646.112000,388.447998,663.679993
638.304016,390.399994,665.632019
638.304016,390.399994,671.487976
636.351990,396.256012,663.679993
634.400024,390.399994,665.632019
636.351990,386.496002,665.632019
628.544006,388.447998,665.632019
630.495972,396.256012,663.679993
632.447998,392.351990,665.632019
634.400024,396.256012,667.583984
632.447998,390.399994,663.679993
640.255981,396.256012,665.632019
636.351990,390.399994,671.487976
640.255981,392.351990,663.679993
636.351990,407.967987,675.392029
636.351990,400.160004,663.679993
642.208008,390.399994,675.392029
640.255981,396.256012,671.487976
640.255981,390.399994,665.632019
638.304016,390.399994,667.583984
634.400024,390.399994,665.632019
640.255981,390.399994,659.776001
644.159973,400.160004,669.536011
634.400024,394.303986,655.872009
636.351990,394.303986,655.872009
642.208008,404.063995,661.728027
644.159973,398.208008,663.679993
642.208008,404.063995,665.632019
642.208008,400.160004,661.728027
642.208008,400.160004,673.440002
640.255981,394.303986,681.247986
638.304016,390.399994,667.583984
646.112000,392.351990,669.536011
648.064026,400.160004,677.343994
642.208008,398.208008,673.440002
644.159973,394.303986,665.632019
644.159973,402.112000,659.776001
651.968018,411.872009,667.583984
650.015991,411.872009,665.632019
646.112000,400.160004,667.583984
632.447998,407.967987,663.679993
642.208008,400.160004,665.632019
644.159973,406.015991,669.536011
644.159973,406.015991,665.632019
646.112000,411.872009,663.679993
650.015991,406.015991,673.440002
644.159973,407.967987,663.679993
651.968018,406.015991,665.632019
642.208008,407.967987,659.776001
650.015991,406.015991,665.632019
644.159973,404.063995,665.632019
653.919983,406.015991,667.583984
650.015991,411.872009,665.632019
648.064026,413.824005,663.679993
646.112000,413.824005,665.632019
648.064026,413.824005,669.536011
648.064026,407.967987,671.487976
642.208008,409.920013,663.679993
651.968018,406.015991,661.728027
648.064026,407.967987,659.776001
650.015991,406.015991,665.632019
650.015991,415.776001,651.968018
640.255981,407.967987,659.776001
650.015991,402.112000,665.632019
642.208008,406.015991,665.632019
651.968018,419.679993,663.679993
644.159973,409.920013,657.823975
646.112000,411.872009,661.728027
640.255981,406.015991,661.728027
651.968018,402.112000,657.823975
646.112000,407.967987,659.776001
648.064026,406.015991,655.872009
640.255981,404.063995,661.728027
650.015991,415.776001,661.728027
650.015991,415.776001,651.968018
648.064026,407.967987,657.823975
655.872009,404.063995,665.632019
655.872009,406.015991,663.679993
648.064026,404.063995,651.968018
650.015991,406.015991,657.823975
650.015991,406.015991,659.776001
648.064026,407.967987,657.823975
650.015991,400.160004,665.632019
650.015991,407.967987,661.728027
648.064026,411.872009,665.632019
650.015991,411.872009,661.728027
653.919983,409.920013,651.968018
659.776001,406.015991,655.872009
657.823975,411.872009,665.632019
648.064026,407.967987,653.919983
651.968018,406.015991,655.872009
657.823975,406.015991,650.015991
650.015991,409.920013,651.968018
651.968018,398.208008,651.968018
653.919983,406.015991,663.679993
655.872009,411.872009,659.776001
661.728027,404.063995,663.679993
655.872009,407.967987,659.776001
648.064026,407.967987,659.776001
657.823975,402.112000,661.728027
655.872009,409.920013,661.728027
657.823975,419.679993,665.632019
659.776001,407.967987,665.632019
659.776001,400.160004,655.872009
653.919983,400.160004,665.632019
655.872009,404.063995,659.776001
655.872009,404.063995,665.632019
657.823975,415.776001,663.679993
657.823975,407.967987,657.823975
659.776001,404.063995,655.872009
665.632019,402.112000,661.728027
665.632019,406.015991,661.728027
659.776001,398.208008,661.728027
663.679993,407.967987,663.679993
655.872009,406.015991,665.632019
659.776001,406.015991,655.872009
663.679993,407.967987,663.679993
661.728027,402.112000,673.440002
661.728027,398.208008,661.728027
657.823975,398.208008,657.823975
665.632019,409.920013,671.487976
665.632019,404.063995,661.728027
665.632019,404.063995,659.776001
661.728027,407.967987,661.728027
663.679993,402.112000,661.728027
663.679993,407.967987,667.583984
665.632019,398.208008,655.872009
663.679993,407.967987,661.728027
661.728027,407.967987,669.536011
651.968018,402.112000,651.968018
657.823975,394.303986,663.679993
659.776001,406.015991,661.728027
661.728027,394.303986,655.872009
665.632019,406.015991,653.919983
659.776001,396.256012,659.776001
651.968018,407.967987,653.919983
653.919983,390.399994,655.872009
661.728027,404.063995,661.728027
659.776001,400.160004,657.823975
655.872009,406.015991,659.776001
655.872009,407.967987,653.919983
655.872009,404.063995,661.728027
661.728027,406.015991,669.536011
653.919983,398.208008,657.823975
659.776001,398.208008,653.919983
661.728027,409.920013,663.679993
653.919983,398.208008,665.632019
665.632019,409.920013,657.823975
659.776001,398.208008,655.872009
665.632019,400.160004,661.728027
659.776001,407.967987,655.872009
657.823975,406.015991,655.872009
659.776001,404.063995,661.728027
651.968018,396.256012,651.968018
655.872009,396.256012,661.728027
657.823975,398.208008,653.919983
657.823975,409.920013,665.632019
657.823975,398.208008,657.823975
651.968018,396.256012,653.919983
651.968018,404.063995,665.632019
651.968018,400.160004,665.632019
655.872009,398.208008,661.728027
663.679993,398.208008,663.679993
663.679993,398.208008,661.728027
661.728027,398.208008,661.728027
646.112000,400.160004,648.064026
659.776001,398.208008,653.919983
655.872009,396.256012,655.872009
653.919983,400.160004,659.776001
653.919983,406.015991,669.536011
648.064026,392.351990,663.679993
659.776001,400.160004,653.919983
651.968018,404.063995,651.968018
653.919983,398.208008,661.728027
655.872009,402.112000,659.776001
657.823975,398.208008,657.823975
655.872009,394.303986,659.776001
661.728027,402.112000,661.728027
657.823975,402.112000,651.968018
657.823975,409.920013,657.823975
655.872009,407.967987,653.919983
659.776001,407.967987,651.968018
655.872009,409.920013,651.968018
653.919983,400.160004,659.776001
648.064026,404.063995,651.968018
653.919983,398.208008,653.919983
657.823975,400.160004,657.823975
653.919983,406.015991,667.583984
653.919983,404.063995,657.823975
651.968018,406.015991,661.728027
651.968018,409.920013,661.728027
650.015991,407.967987,653.919983
655.872009,400.160004,659.776001
657.823975,404.063995,659.776001
657.823975,400.160004,661.728027
648.064026,398.208008,657.823975
653.919983,402.112000,659.776001
650.015991,404.063995,665.632019
655.872009,402.112000,659.776001
648.064026,396.256012,651.968018
655.872009,400.160004,665.632019
653.919983,396.256012,661.728027
653.919983,398.208008,651.968018
648.064026,398.208008,659.776001
648.064026,398.208008,657.823975
651.968018,396.256012,651.968018
657.823975,407.967987,648.064026
650.015991,390.399994,653.919983
648.064026,396.256012,650.015991
646.112000,398.208008,655.872009
646.112000,396.256012,651.968018
650.015991,390.399994,648.064026
644.159973,390.399994,653.919983
648.064026,402.112000,648.064026
650.015991,398.208008,648.064026
650.015991,407.967987,648.064026
655.872009,386.496002,650.015991
659.776001,396.256012,659.776001
650.015991,398.208008,651.968018
650.015991,394.303986,659.776001
646.112000,396.256012,659.776001
644.159973,396.256012,663.679993
651.968018,392.351990,663.679993
665.632019,386.496002,655.872009
655.872009,394.303986,669.536011
657.823975,392.351990,661.728027
659.776001,396.256012,665.632019
650.015991,396.256012,655.872009
650.015991,396.256012,653.919983
650.015991,394.303986,665.632019
655.872009,386.496002,651.968018
661.728027,398.208008,669.536011
661.728027,388.447998,659.776001
661.728027,388.447998,648.064026
653.919983,392.351990,661.728027
653.919983,388.447998,655.872009
655.872009,386.496002,655.872009
653.919983,396.256012,650.015991
661.728027,394.303986,665.632019
657.823975,378.687988,659.776001
661.728027,384.544006,653.919983
663.679993,380.640015,655.872009
659.776001,388.447998,669.536011
648.064026,378.687988,651.968018
665.632019,380.640015,655.872009
665.632019,384.544006,665.632019
665.632019,380.640015,661.728027
661.728027,382.592010,651.968018
665.632019,382.592010,651.968018
669.536011,382.592010,653.919983
667.583984,380.640015,653.919983
673.440002,376.735992,655.872009
669.536011,380.640015,661.728027
667.583984,376.735992,661.728027
669.536011,376.735992,663.679993
673.440002,370.880005,657.823975
675.392029,376.735992,663.679993
677.343994,380.640015,661.728027
675.392029,376.735992,665.632019
673.440002,372.832001,655.872009
679.296021,370.880005,657.823975
683.200012,380.640015,661.728027
679.296021,376.735992,651.968018
671.487976,368.928009,657.823975
681.247986,374.783997,659.776001
679.296021,374.783997,667.583984
677.343994,376.735992,677.343994
675.392029,380.640015,659.776001
679.296021,376.735992,657.823975
685.151978,370.880005,655.872009
685.151978,366.976013,655.872009
685.151978,374.783997,665.632019
679.296021,372.832001,657.823975
683.200012,370.880005,659.776001
679.296021,376.735992,655.872009
671.487976,374.783997,655.872009
679.296021,374.783997,663.679993
685.151978,376.735992,665.632019
683.200012,366.976013,646.112000
679.296021,366.976013,659.776001
671.487976,376.735992,657.823975
675.392029,370.880005,665.632019
677.343994,372.832001,659.776001
667.583984,378.687988,663.679993
671.487976,372.832001,661.728027
673.440002,368.928009,661.728027
675.392029,370.880005,665.632019
665.632019,372.832001,655.872009
675.392029,366.976013,663.679993
675.392029,370.880005,661.728027
671.487976,366.976013,653.919983
671.487976,370.880005,644.159973
671.487976,374.783997,655.872009
671.487976,374.783997,650.015991
667.583984,380.640015,653.919983
671.487976,370.880005,661.728027
677.343994,376.735992,659.776001
677.343994,370.880005,651.968018
669.536011,370.880005,648.064026
669.536011,370.880005,650.015991
663.679993,366.976013,661.728027
665.632019,378.687988,657.823975
665.632019,372.832001,655.872009
671.487976,370.880005,661.728027
665.632019,374.783997,651.968018
659.776001,370.880005,648.064026
665.632019,368.928009,655.872009
655.872009,365.023987,655.872009
663.679993,365.023987,651.968018
663.679993,365.023987,655.872009
665.632019,370.880005,650.015991
659.776001,363.071991,651.968018
661.728027,376.735992,655.872009
663.679993,380.640015,657.823975
665.632019,368.928009,653.919983
659.776001,368.928009,653.919983
667.583984,368.928009,644.159973
667.583984,361.119995,648.064026
657.823975,368.928009,650.015991
665.632019,372.832001,661.728027
669.536011,368.928009,651.968018
659.776001,368.928009,650.015991
665.632019,361.119995,648.064026
665.632019,359.167999,646.112000
665.632019,363.071991,655.872009
663.679993,368.928009,655.872009
663.679993,363.071991,648.064026
659.776001,363.071991,650.015991
655.872009,357.216003,650.015991
661.728027,357.216003,648.064026
663.679993,357.216003,648.064026
665.632019,359.167999,659.776001
663.679993,351.359985,657.823975
663.679993,361.119995,653.919983
661.728027,361.119995,648.064026
667.583984,363.071991,644.159973
663.679993,361.119995,648.064026
671.487976,363.071991,661.728027
669.536011,359.167999,646.112000
669.536011,361.119995,657.823975
679.296021,365.023987,648.064026
673.440002,361.119995,648.064026
673.440002,361.119995,648.064026
669.536011,370.880005,651.968018
671.487976,372.832001,653.919983
667.583984,357.216003,651.968018
675.392029,361.119995,657.823975
673.440002,361.119995,651.968018
677.343994,366.976013,655.872009
681.247986,361.119995,657.823975
673.440002,361.119995,657.823975
675.392029,368.928009,648.064026
677.343994,365.023987,651.968018
673.440002,355.264008,657.823975
667.583984,365.023987,646.112000
673.440002,368.928009,650.015991
675.392029,365.023987,655.872009
679.296021,365.023987,648.064026
681.247986,359.167999,650.015991
671.487976,363.071991,651.968018
673.440002,368.928009,659.776001
677.343994,365.023987,653.919983
675.392029,366.976013,642.208008
681.247986,365.023987,644.159973
675.392029,355.264008,650.015991
675.392029,363.071991,655.872009
673.440002,363.071991,651.968018
677.343994,365.023987,646.112000
677.343994,363.071991,657.823975
675.392029,363.071991,657.823975
671.487976,368.928009,650.015991
675.392029,359.167999,657.823975
679.296021,368.928009,657.823975
673.440002,363.071991,665.632019
673.440002,361.119995,659.776001
675.392029,359.167999,653.919983
679.296021,365.023987,651.968018
677.343994,361.119995,655.872009
667.583984,359.167999,650.015991
665.632019,366.976013,653.919983
673.440002,359.167999,644.159973
675.392029,359.167999,655.872009
679.296021,372.832001,657.823975
671.487976,363.071991,655.872009
673.440002,355.264008,653.919983
667.583984,355.264008,648.064026
675.392029,355.264008,648.064026
673.440002,353.312012,653.919983
685.151978,357.216003,651.968018
675.392029,361.119995,651.968018
667.583984,355.264008,650.015991
673.440002,361.119995,648.064026
669.536011,368.928009,657.823975
677.343994,361.119995,650.015991
669.536011,363.071991,661.728027
673.440002,359.167999,653.919983
673.440002,357.216003,648.064026
675.392029,359.167999,653.919983
665.632019,361.119995,648.064026
673.440002,359.167999,650.015991
663.679993,363.071991,648.064026
669.536011,368.928009,651.968018
673.440002,366.976013,655.872009
669.536011,370.880005,661.728027
673.440002,363.071991,651.968018
667.583984,370.880005,655.872009
665.632019,363.071991,655.872009
669.536011,363.071991,648.064026
669.536011,355.264008,646.112000
671.487976,368.928009,648.064026
659.776001,374.783997,655.872009
665.632019,376.735992,653.919983
669.536011,363.071991,653.919983
665.632019,372.832001,655.872009
677.343994,372.832001,659.776001
667.583984,361.119995,655.872009
663.679993,368.928009,653.919983
669.536011,372.832001,651.968018
661.728027,376.735992,663.679993
667.583984,363.071991,648.064026
665.632019,374.783997,655.872009
665.632019,370.880005,650.015991
669.536011,370.880005,653.919983
665.632019,372.832001,653.919983
657.823975,372.832001,653.919983
659.776001,366.976013,648.064026
663.679993,380.640015,651.968018
669.536011,368.928009,651.968018
659.776001,370.880005,663.679993
659.776001,365.023987,653.919983
661.728027,366.976013,653.919983
663.679993,372.832001,655.872009
665.632019,376.735992,650.015991
663.679993,374.783997,653.919983
661.728027,380.640015,651.968018
663.679993,382.592010,659.776001
663.679993,380.640015,651.968018
665.632019,370.880005,650.015991
665.632019,370.880005,653.919983
659.776001,376.735992,655.872009
665.632019,368.928009,655.872009
665.632019,380.640015,644.159973
671.487976,374.783997,651.968018
659.776001,374.783997,655.872009
665.632019,378.687988,657.823975
669.536011,374.783997,650.015991
663.679993,374.783997,655.872009
659.776001,374.783997,653.919983
661.728027,366.976013,642.208008
659.776001,376.735992,655.872009
665.632019,372.832001,653.919983
665.632019,378.687988,659.776001
665.632019,374.783997,650.015991
665.632019,372.832001,651.968018
671.487976,368.928009,655.872009
665.632019,374.783997,653.919983
659.776001,374.783997,653.919983
659.776001,372.832001,648.064026
663.679993,374.783997,646.112000
665.632019,366.976013,653.919983
659.776001,372.832001,655.872009
665.632019,370.880005,650.015991
659.776001,366.976013,651.968018
665.632019,372.832001,650.015991
669.536011,376.735992,657.823975
663.679993,380.640015,657.823975
669.536011,382.592010,648.064026
659.776001,382.592010,644.159973
667.583984,374.783997,653.919983
669.536011,376.735992,655.872009
659.776001,372.832001,648.064026
665.632019,374.783997,644.159973
663.679993,380.640015,653.919983
673.440002,366.976013,661.728027
677.343994,376.735992,648.064026
673.440002,365.023987,650.015991
669.536011,374.783997,650.015991
675.392029,374.783997,646.112000
665.632019,380.640015,644.159973
667.583984,372.832001,644.159973
667.583984,374.783997,657.823975
677.343994,376.735992,657.823975
663.679993,368.928009,653.919983
677.343994,370.880005,646.112000
675.392029,376.735992,644.159973
671.487976,370.880005,657.823975
667.583984,370.880005,661.728027
677.343994,368.928009,661.728027
679.296021,366.976013,651.968018
671.487976,359.167999,646.112000
681.247986,368.928009,644.159973
681.247986,374.783997,659.776001
675.392029,366.976013,653.919983
681.247986,359.167999,651.968018
681.247986,365.023987,650.015991
679.296021,368.928009,650.015991
685.151978,370.880005,648.064026
679.296021,366.976013,653.919983
683.200012,370.880005,653.919983
681.247986,365.023987,650.015991
679.296021,372.832001,651.968018
677.343994,359.167999,648.064026
681.247986,365.023987,650.015991
671.487976,368.928009,644.159973
679.296021,370.880005,648.064026
669.536011,370.880005,661.728027
671.487976,370.880005,655.872009
679.296021,368.928009,657.823975
677.343994,363.071991,650.015991
679.296021,370.880005,651.968018
677.343994,363.071991,644.159973
681.247986,368.928009,640.255981
681.247986,359.167999,653.919983
675.392029,361.119995,651.968018
681.247986,359.167999,655.872009
677.343994,368.928009,646.112000
685.151978,368.928009,648.064026
681.247986,359.167999,661.728027
681.247986,359.167999,655.872009
679.296021,365.023987,659.776001
687.104004,359.167999,653.919983
687.104004,365.023987,651.968018
687.104004,365.023987,653.919983
687.104004,361.119995,657.823975
689.056030,359.167999,650.015991
681.247986,365.023987,648.064026
687.104004,359.167999,653.919983
683.200012,359.167999,650.015991
683.200012,366.976013,653.919983
681.247986,366.976013,653.919983
685.151978,372.832001,657.823975
689.056030,372.832001,653.919983
687.104004,372.832001,648.064026
681.247986,365.023987,651.968018
681.247986,363.071991,665.632019
683.200012,366.976013,659.776001
683.200012,370.880005,653.919983
687.104004,359.167999,655.872009
683.200012,365.023987,653.919983
679.296021,366.976013,648.064026
681.247986,368.928009,657.823975
685.151978,366.976013,653.919983
687.104004,366.976013,653.919983
689.056030,376.735992,648.064026
689.056030,376.735992,651.968018
689.056030,368.928009,651.968018
683.200012,372.832001,657.823975
685.151978,366.976013,659.776001
687.104004,372.832001,657.823975
685.151978,365.023987,659.776001
696.864014,368.928009,655.872009
683.200012,359.167999,650.015991
681.247986,347.455994,655.872009
689.056030,372.832001,653.919983
691.007996,359.167999,669.536011
687.104004,355.264008,655.872009
679.296021,366.976013,657.823975
683.200012,366.976013,646.112000
683.200012,368.928009,651.968018
687.104004,359.167999,655.872009
683.200012,372.832001,659.776001
681.247986,366.976013,659.776001
683.200012,363.071991,655.872009
687.104004,370.880005,663.679993
687.104004,363.071991,665.632019
687.104004,372.832001,659.776001
683.200012,372.832001,659.776001
689.056030,365.023987,659.776001
685.151978,365.023987,657.823975
683.200012,372.832001,653.919983
685.151978,370.880005,653.919983
687.104004,368.928009,661.728027
685.151978,366.976013,661.728027
689.056030,370.880005,657.823975
681.247986,372.832001,659.776001
692.960022,365.023987,657.823975
685.151978,376.735992,659.776001
689.056030,372.832001,651.968018
683.200012,380.640015,655.872009
679.296021,384.544006,655.872009
681.247986,376.735992,655.872009
685.151978,380.640015,665.632019
685.151978,374.783997,659.776001
679.296021,384.544006,663.679993
679.296021,376.735992,653.919983
683.200012,374.783997,659.776001
681.247986,384.544006,651.968018
679.296021,376.735992,657.823975
685.151978,372.832001,661.728027
671.487976,372.832001,661.728027
689.056030,376.735992,653.919983
677.343994,372.832001,648.064026
681.247986,380.640015,651.968018
671.487976,374.783997,655.872009
683.200012,378.687988,657.823975
689.056030,370.880005,650.015991
683.200012,372.832001,648.064026
683.200012,376.735992,657.823975
679.296021,380.640015,661.728027
683.200012,378.687988,655.872009
679.296021,378.687988,655.872009
685.151978,384.544006,651.968018
681.247986,386.496002,653.919983
671.487976,374.783997,661.728027
677.343994,380.640015,655.872009
681.247986,386.496002,661.728027
685.151978,384.544006,655.872009
671.487976,388.447998,659.776001
681.247986,384.544006,663.679993
675.392029,378.687988,644.159973
677.343994,384.544006,661.728027
673.440002,390.399994,655.872009
669.536011,392.351990,655.872009
675.392029,384.544006,653.919983
675.392029,390.399994,655.872009
663.679993,382.592010,651.968018
673.440002,382.592010,657.823975
675.392029,388.447998,655.872009
675.392029,392.351990,659.776001
667.583984,396.256012,661.728027
663.679993,386.496002,651.968018
667.583984,382.592010,653.919983
673.440002,386.496002,653.919983
667.583984,392.351990,665.632019
671.487976,390.399994,665.632019
661.728027,392.351990,659.776001
663.679993,392.351990,659.776001
665.632019,390.399994,665.632019
667.583984,390.399994,657.823975
663.679993,392.351990,653.919983
663.679993,400.160004,659.776001
667.583984,394.303986,655.872009
661.728027,386.496002,653.919983
667.583984,388.447998,655.872009
663.679993,382.592010,657.823975
667.583984,388.447998,661.728027
673.440002,388.447998,648.064026
669.536011,392.351990,653.919983
669.536011,382.592010,659.776001
667.583984,392.351990,659.776001
665.632019,388.447998,657.823975
663.679993,392.351990,659.776001
661.728027,386.496002,659.776001
653.919983,390.399994,655.872009
653.919983,390.399994,657.823975
655.872009,384.544006,650.015991
663.679993,392.351990,648.064026
655.872009,382.592010,655.872009
661.728027,392.351990,657.823975
651.968018,392.351990,663.679993
653.919983,384.544006,653.919983
651.968018,394.303986,659.776001
655.872009,390.399994,651.968018
659.776001,380.640015,655.872009
661.728027,388.447998,657.823975
663.679993,390.399994,653.919983
661.728027,392.351990,653.919983
651.968018,390.399994,653.919983
655.872009,382.592010,651.968018
653.919983,390.399994,653.919983
655.872009,390.399994,650.015991
659.776001,392.351990,655.872009
655.872009,384.544006,655.872009
655.872009,390.399994,651.968018
657.823975,398.208008,661.728027
655.872009,388.447998,655.872009
651.968018,396.256012,659.776001
655.872009,390.399994,661.728027
653.919983,398.208008,657.823975
659.776001,382.592010,665.632019
655.872009,380.640015,651.968018
653.919983,386.496002,655.872009
659.776001,388.447998,657.823975
651.968018,388.447998,657.823975
653.919983,390.399994,661.728027
659.776001,392.351990,661.728027
655.872009,390.399994,663.679993
655.872009,384.544006,653.919983
661.728027,386.496002,657.823975
657.823975,386.496002,655.872009
648.064026,392.351990,655.872009
657.823975,394.303986,650.015991
653.919983,390.399994,655.872009
648.064026,382.592010,663.679993
655.872009,388.447998,663.679993
657.823975,388.447998,655.872009
653.919983,380.640015,661.728027
650.015991,390.399994,655.872009
661.728027,384.544006,648.064026
655.872009,390.399994,655.872009
657.823975,388.447998,665.632019
653.919983,388.447998,663.679993
661.728027,382.592010,651.968018
651.968018,388.447998,653.919983
657.823975,394.303986,655.872009
655.872009,402.112000,659.776001
657.823975,390.399994,659.776001
653.919983,396.256012,655.872009
657.823975,384.544006,653.919983
648.064026,392.351990,669.536011
657.823975,390.399994,659.776001
663.679993,392.351990,657.823975
665.632019,390.399994,665.632019
653.919983,390.399994,655.872009
651.968018,396.256012,653.919983
655.872009,384.544006,661.728027
663.679993,386.496002,655.872009
650.015991,378.687988,661.728027
651.968018,392.351990,663.679993
650.015991,388.447998,655.872009
648.064026,392.351990,663.679993
655.872009,388.447998,659.776001
657.823975,390.399994,663.679993
655.872009,390.399994,661.728027
661.728027,386.496002,659.776001
653.919983,386.496002,663.679993
655.872009,394.303986,657.823975
653.919983,386.496002,655.872009
661.728027,400.160004,669.536011
657.823975,394.303986,661.728027
653.919983,390.399994,661.728027
644.159973,386.496002,657.823975
648.064026,382.592010,644.159973
653.919983,384.544006,651.968018
657.823975,386.496002,659.776001
651.968018,390.399994,655.872009
650.015991,380.640015,665.632019
646.112000,384.544006,665.632019
648.064026,392.351990,661.728027
653.919983,390.399994,655.872009
648.064026,392.351990,667.583984
648.064026,392.351990,663.679993
650.015991,388.447998,651.968018
650.015991,384.544006,655.872009
646.112000,378.687988,659.776001
653.919983,400.160004,659.776001
657.823975,388.447998,669.536011
638.304016,384.544006,659.776001
646.112000,382.592010,661.728027
644.159973,384.544006,653.919983
644.159973,384.544006,650.015991
648.064026,380.640015,663.679993
651.968018,396.256012,651.968018
648.064026,396.256012,650.015991
650.015991,388.447998,661.728027
644.159973,394.303986,665.632019
648.064026,388.447998,661.728027
644.159973,382.592010,661.728027
640.255981,386.496002,665.632019
648.064026,392.351990,667.583984
650.015991,388.447998,661.728027
640.255981,386.496002,657.823975
650.015991,386.496002,655.872009
640.255981,374.783997,651.968018
648.064026,380.640015,663.679993
644.159973,384.544006,655.872009
650.015991,386.496002,651.968018
644.159973,382.592010,651.968018
653.919983,386.496002,665.632019
648.064026,386.496002,661.728027
648.064026,394.303986,669.536011
648.064026,388.447998,663.679993
648.064026,388.447998,669.536011
644.159973,386.496002,661.728027
651.968018,370.880005,665.632019
650.015991,382.592010,661.728027
648.064026,380.640015,663.679993
648.064026,378.687988,659.776001
651.968018,374.783997,667.583984
651.968018,382.592010,663.679993
653.919983,382.592010,673.440002
655.872009,380.640015,665.632019
653.919983,382.592010,661.728027
650.015991,368.928009,671.487976
657.823975,378.687988,659.776001
655.872009,374.783997,659.776001
653.919983,378.687988,661.728027
653.919983,380.640015,665.632019
653.919983,374.783997,665.632019
653.919983,363.071991,659.776001
653.919983,380.640015,663.679993
651.968018,370.880005,657.823975
651.968018,372.832001,671.487976
661.728027,378.687988,663.679993
657.823975,378.687988,665.632019
655.872009,363.071991,659.776001
651.968018,370.880005,665.632019
655.872009,372.832001,665.632019
650.015991,370.880005,659.776001
650.015991,366.976013,669.536011
659.776001,366.976013,653.919983
657.823975,368.928009,667.583984
661.728027,366.976013,663.679993
653.919983,380.640015,677.343994
653.919983,372.832001,663.679993
655.872009,372.832001,663.679993
661.728027,365.023987,667.583984
653.919983,370.880005,659.776001
659.776001,368.928009,655.872009
659.776001,359.167999,665.632019
661.728027,370.880005,671.487976
657.823975,359.167999,667.583984
659.776001,366.976013,665.632019
653.919983,368.928009,665.632019
653.919983,366.976013,671.487976
661.728027,368.928009,673.440002
659.776001,366.976013,659.776001
657.823975,359.167999,671.487976
655.872009,361.119995,669.536011
653.919983,355.264008,667.583984
657.823975,357.216003,669.536011
657.823975,361.119995,667.583984
657.823975,361.119995,667.583984
651.968018,363.071991,659.776001
653.919983,351.359985,669.536011
648.064026,361.119995,667.583984
650.015991,366.976013,665.632019
657.823975,359.167999,665.632019
651.968018,368.928009,667.583984
651.968018,368.928009,667.583984
650.015991,363.071991,667.583984
646.112000,365.023987,659.776001
651.968018,361.119995,665.632019
651.968018,351.359985,667.583984
650.015991,359.167999,655.872009
644.159973,363.071991,665.632019
642.208008,365.023987,663.679993
646.112000,368.928009,661.728027
646.112000,365.023987,659.776001
646.112000,365.023987,685.151978
642.208008,355.264008,671.487976
642.208008,357.216003,665.632019
640.255981,361.119995,659.776001
640.255981,357.216003,665.632019
636.351990,359.167999,665.632019
646.112000,349.407990,663.679993
640.255981,359.167999,667.583984
638.304016,359.167999,677.343994
634.400024,359.167999,667.583984
644.159973,366.976013,665.632019
632.447998,372.832001,673.440002
636.351990,357.216003,665.632019
640.255981,353.312012,667.583984
632.447998,347.455994,667.583984
634.400024,353.312012,671.487976
628.544006,357.216003,669.536011
634.400024,359.167999,667.583984
638.304016,349.407990,663.679993
638.304016,347.455994,673.440002
640.255981,355.264008,661.728027
638.304016,355.264008,669.536011
638.304016,353.312012,665.632019
628.544006,357.216003,659.776001
628.544006,361.119995,663.679993
628.544006,353.312012,665.632019
630.495972,351.359985,665.632019
638.304016,359.167999,657.823975
632.447998,359.167999,669.536011
620.736023,353.312012,663.679993
624.640015,349.407990,663.679993
624.640015,351.359985,657.823975
630.495972,357.216003,655.872009
630.495972,361.119995,657.823975
628.544006,351.359985,665.632019
626.591980,353.312012,669.536011
630.495972,345.503998,663.679993
634.400024,357.216003,659.776001
630.495972,365.023987,669.536011
634.400024,359.167999,665.632019
622.687988,349.407990,667.583984
636.351990,347.455994,669.536011
628.544006,345.503998,659.776001
632.447998,353.312012,663.679993
634.400024,357.216003,665.632019
630.495972,345.503998,673.440002
632.447998,343.552002,663.679993
634.400024,347.455994,665.632019
634.400024,347.455994,671.487976
634.400024,355.264008,677.343994
634.400024,353.312012,667.583984
630.495972,353.312012,677.343994
634.400024,347.455994,669.536011
634.400024,357.216003,669.536011
634.400024,347.455994,667.583984
628.544006,355.264008,669.536011
638.304016,347.455994,669.536011
638.304016,355.264008,659.776001
640.255981,347.455994,671.487976
634.400024,347.455994,667.583984
636.351990,347.455994,673.440002
638.304016,343.552002,661.728027
636.351990,343.552002,667.583984
636.351990,347.455994,665.632019
632.447998,347.455994,673.440002
640.255981,359.167999,671.487976
638.304016,345.503998,667.583984
636.351990,343.552002,663.679993
634.400024,347.455994,669.536011
634.400024,347.455994,669.536011
638.304016,359.167999,667.583984
628.544006,353.312012,665.632019
638.304016,355.264008,669.536011
640.255981,349.407990,681.247986
640.255981,347.455994,671.487976
636.351990,341.600006,675.392029
640.255981,345.503998,671.487976
634.400024,357.216003,677.343994
632.447998,359.167999,665.632019
634.400024,355.264008,665.632019
638.304016,345.503998,665.632019
638.304016,353.312012,665.632019
632.447998,347.455994,667.583984
634.400024,353.312012,667.583984
634.400024,347.455994,665.632019
634.400024,353.312012,665.632019
640.255981,353.312012,669.536011
638.304016,353.312012,671.487976
636.351990,361.119995,677.343994
638.304016,359.167999,667.583984
642.208008,357.216003,665.632019
646.112000,355.264008,663.679993
638.304016,359.167999,663.679993
638.304016,359.167999,665.632019
634.400024,365.023987,671.487976
636.351990,366.976013,675.392029
632.447998,368.928009,667.583984
638.304016,357.216003,669.536011
640.255981,351.359985,667.583984
648.064026,361.119995,665.632019
640.255981,359.167999,671.487976
642.208008,359.167999,673.440002
638.304016,355.264008,667.583984
636.351990,355.264008,671.487976
644.159973,363.071991,669.536011
636.351990,363.071991,665.632019
636.351990,365.023987,673.440002
632.447998,366.976013,669.536011
636.351990,366.976013,667.583984
642.208008,365.023987,663.679993
638.304016,365.023987,667.583984
634.400024,361.119995,679.296021
636.351990,370.880005,675.392029
638.304016,365.023987,677.343994
634.400024,368.928009,675.392029
632.447998,368.928009,667.583984
632.447998,370.880005,673.440002
636.351990,366.976013,663.679993
638.304016,370.880005,663.679993
636.351990,370.880005,663.679993
636.351990,376.735992,663.679993
632.447998,376.735992,663.679993
636.351990,376.735992,663.679993
638.304016,366.976013,667.583984
632.447998,372.832001,667.583984
650.015991,374.783997,671.487976
638.304016,370.880005,681.247986
636.351990,372.832001,669.536011
640.255981,372.832001,681.247986
642.208008,372.832001,673.440002
640.255981,370.880005,673.440002
640.255981,366.976013,677.343994
642.208008,372.832001,659.776001
644.159973,374.783997,669.536011
642.208008,378.687988,673.440002
640.255981,382.592010,671.487976
638.304016,378.687988,671.487976
644.159973,376.735992,669.536011
642.208008,376.735992,667.583984
640.255981,380.640015,663.679993
648.064026,392.351990,671.487976
640.255981,378.687988,669.536011
638.304016,376.735992,663.679993
644.159973,374.783997,671.487976
640.255981,386.496002,669.536011
646.112000,384.544006,669.536011
638.304016,384.544006,669.536011
644.159973,374.783997,667.583984
648.064026,380.640015,669.536011
648.064026,392.351990,665.632019
640.255981,384.544006,667.583984
642.208008,378.687988,667.583984
646.112000,386.496002,673.440002
648.064026,384.544006,663.679993
648.064026,382.592010,669.536011
640.255981,388.447998,665.632019
644.159973,382.592010,661.728027
640.255981,376.735992,671.487976
657.823975,386.496002,671.487976
640.255981,382.592010,667.583984
642.208008,378.687988,669.536011
646.112000,382.592010,663.679993
638.304016,388.447998,665.632019
646.112000,386.496002,663.679993
648.064026,388.447998,667.583984
646.112000,388.447998,671.487976
646.112000,388.447998,669.536011
646.112000,382.592010,667.583984
650.015991,388.447998,675.392029
653.919983,382.592010,673.440002
644.159973,380.640015,671.487976
640.255981,386.496002,667.583984
650.015991,388.447998,675.392029
648.064026,388.447998,669.536011
650.015991,382.592010,663.679993
648.064026,382.592010,667.583984
642.208008,378.687988,669.536011
653.919983,386.496002,663.679993
648.064026,386.496002,669.536011
646.112000,384.544006,669.536011
638.304016,390.399994,665.632019
640.255981,388.447998,663.679993
640.255981,378.687988,667.583984
640.255981,384.544006,669.536011
650.015991,384.544006,661.728027
650.015991,380.640015,657.823975
650.015991,392.351990,669.536011
648.064026,382.592010,663.679993
650.015991,384.544006,681.247986
648.064026,382.592010,673.440002
644.159973,380.640015,669.536011
650.015991,378.687988,661.728027
651.968018,378.687988,659.776001
651.968018,380.640015,673.440002
651.968018,376.735992,671.487976
650.015991,382.592010,665.632019
648.064026,384.544006,663.679993
651.968018,372.832001,669.536011
653.919983,376.735992,671.487976
653.919983,374.783997,665.632019
653.919983,380.640015,669.536011
651.968018,382.592010,667.583984
657.823975,380.640015,663.679993
657.823975,374.783997,655.872009
648.064026,386.496002,663.679993
653.919983,382.592010,661.728027
655.872009,378.687988,679.296021
653.919983,380.640015,667.583984
651.968018,380.640015,663.679993
651.968018,378.687988,675.392029
651.968018,380.640015,663.679993
657.823975,376.735992,677.343994
663.679993,378.687988,667.583984
659.776001,384.544006,665.632019
655.872009,372.832001,665.632019
659.776001,380.640015,661.728027
661.728027,376.735992,669.536011
657.823975,376.735992,677.343994
655.872009,378.687988,671.487976
655.872009,374.783997,671.487976
659.776001,376.735992,663.679993
663.679993,370.880005,673.440002
655.872009,374.783997,665.632019
663.679993,374.783997,663.679993
657.823975,382.592010,671.487976
661.728027,376.735992,663.679993
661.728027,378.687988,667.583984
650.015991,374.783997,671.487976
655.872009,374.783997,667.583984
661.728027,372.832001,665.632019
657.823975,380.640015,667.583984
661.728027,370.880005,663.679993
661.728027,374.783997,665.632019
655.872009,372.832001,669.536011
653.919983,382.592010,665.632019
657.823975,382.592010,671.487976
651.968018,384.544006,673.440002
661.728027,374.783997,665.632019
653.919983,374.783997,671.487976
650.015991,380.640015,673.440002
655.872009,374.783997,665.632019
646.112000,388.447998,663.679993
648.064026,384.544006,667.583984
648.064026,388.447998,663.679993
644.159973,382.592010,659.776001
653.919983,382.592010,663.679993
655.872009,378.687988,673.440002
651.968018,380.640015,663.679993
648.064026,372.832001,659.776001
644.159973,374.783997,671.487976
644.159973,378.687988,661.728027
642.208008,384.544006,661.728027
653.919983,374.783997,659.776001
653.919983,384.544006,669.536011
646.112000,374.783997,665.632019
648.064026,380.640015,663.679993
640.255981,384.544006,669.536011
642.208008,388.447998,657.823975
650.015991,382.592010,655.872009
640.255981,384.544006,665.632019
636.351990,388.447998,659.776001
636.351990,394.303986,655.872009
650.015991,388.447998,661.728027
646.112000,390.399994,657.823975
642.208008,390.399994,659.776001
644.159973,396.256012,661.728027
646.112000,382.592010,663.679993
640.255981,378.687988,655.872009
640.255981,392.351990,663.679993
640.255981,386.496002,665.632019
646.112000,394.303986,661.728027
646.112000,384.544006,659.776001
640.255981,390.399994,659.776001
646.112000,384.544006,661.728027
638.304016,388.447998,665.632019
636.351990,386.496002,665.632019
636.351990,392.351990,651.968018
644.159973,392.351990,659.776001
638.304016,390.399994,665.632019
640.255981,388.447998,667.583984
642.208008,398.208008,663.679993
646.112000,394.303986,663.679993
636.351990,392.351990,657.823975
638.304016,396.256012,667.583984
634.400024,392.351990,673.440002
632.447998,386.496002,665.632019
638.304016,386.496002,665.632019
636.351990,396.256012,661.728027
634.400024,398.208008,661.728027
636.351990,398.208008,663.679993
650.015991,394.303986,665.632019
638.304016,390.399994,659.776001
640.255981,396.256012,659.776001
634.400024,394.303986,661.728027
634.400024,400.160004,661.728027
636.351990,394.303986,657.823975
632.447998,392.351990,657.823975
634.400024,394.303986,661.728027
642.208008,388.447998,659.776001
632.447998,396.256012,661.728027
636.351990,386.496002,653.919983
638.304016,392.351990,657.823975
630.495972,392.351990,657.823975
634.400024,384.544006,659.776001
638.304016,384.544006,669.536011
636.351990,392.351990,659.776001
638.304016,386.496002,665.632019
642.208008,388.447998,659.776001
642.208008,388.447998,651.968018
642.208008,398.208008,655.872009
650.015991,394.303986,659.776001
642.208008,384.544006,659.776001
638.304016,394.303986,655.872009
634.400024,380.640015,650.015991
642.208008,388.447998,653.919983
650.015991,388.447998,661.728027
636.351990,392.351990,659.776001
642.208008,384.544006,653.919983
638.304016,384.544006,665.632019
646.112000,374.783997,651.968018
644.159973,392.351990,648.064026
646.112000,390.399994,655.872009
650.015991,390.399994,651.968018
644.159973,392.351990,659.776001
650.015991,384.544006,661.728027
650.015991,386.496002,661.728027
646.112000,384.544006,661.728027
650.015991,382.592010,655.872009
644.159973,380.640015,657.823975
650.015991,390.399994,651.968018
651.968018,390.399994,655.872009
657.823975,380.640015,661.728027
655.872009,388.447998,655.872009
651.968018,388.447998,661.728027
644.159973,382.592010,657.823975
644.159973,378.687988,653.919983
657.823975,380.640015,661.728027
657.823975,374.783997,655.872009
650.015991,378.687988,651.968018
657.823975,376.735992,651.968018
655.872009,382.592010,665.632019
655.872009,380.640015,657.823975
661.728027,386.496002,659.776001
663.679993,376.735992,663.679993
661.728027,384.544006,663.679993
661.728027,384.544006,661.728027
663.679993,382.592010,659.776001
657.823975,380.640015,663.679993
663.679993,380.640015,657.823975
661.728027,382.592010,657.823975
655.872009,378.687988,653.919983
671.487976,374.783997,651.968018
669.536011,370.880005,661.728027
667.583984,376.735992,661.728027
669.536011,370.880005,655.872009
661.728027,382.592010,657.823975
669.536011,380.640015,661.728027
669.536011,374.783997,661.728027
669.536011,382.592010,657.823975
667.583984,374.783997,661.728027
671.487976,382.592010,661.728027
677.343994,376.735992,657.823975
673.440002,372.832001,663.679993
671.487976,372.832001,661.728027
673.440002,376.735992,661.728027
667.583984,366.976013,659.776001
673.440002,378.687988,667.583984
671.487976,382.592010,659.776001
667.583984,368.928009,651.968018
669.536011,378.687988,667.583984
673.440002,374.783997,665.632019
673.440002,378.687988,661.728027
673.440002,376.735992,667.583984
683.200012,376.735992,657.823975
669.536011,386.496002,669.536011
677.343994,380.640015,665.632019
675.392029,376.735992,661.728027
677.343994,380.640015,663.679993
671.487976,368.928009,661.728027
667.583984,376.735992,661.728027
677.343994,380.640015,653.919983
669.536011,374.783997,651.968018
665.632019,376.735992,663.679993
669.536011,376.735992,669.536011
669.536011,376.735992,659.776001
667.583984,380.640015,659.776001
673.440002,376.735992,655.872009
663.679993,378.687988,655.872009
663.679993,374.783997,663.679993
665.632019,378.687988,665.632019
659.776001,384.544006,665.632019
665.632019,378.687988,665.632019
661.728027,374.783997,665.632019
665.632019,378.687988,665.632019
667.583984,370.880005,661.728027
661.728027,370.880005,663.679993
655.872009,378.687988,661.728027
661.728027,376.735992,663.679993
657.823975,370.880005,657.823975
655.872009,372.832001,663.679993
657.823975,376.735992,657.823975
657.823975,366.976013,655.872009
651.968018,370.880005,659.776001
653.919983,363.071991,665.632019
648.064026,368.928009,655.872009
651.968018,370.880005,657.823975
650.015991,372.832001,659.776001
648.064026,376.735992,657.823975
646.112000,372.832001,657.823975
646.112000,363.071991,655.872009
653.919983,366.976013,657.823975
657.823975,368.928009,655.872009
640.255981,368.928009,661.728027
642.208008,365.023987,653.919983
648.064026,372.832001,659.776001
648.064026,363.071991,661.728027
632.447998,366.976013,661.728027
642.208008,365.023987,655.872009
648.064026,366.976013,653.919983
638.304016,368.928009,655.872009
640.255981,365.023987,657.823975
646.112000,366.976013,659.776001
648.064026,366.976013,651.968018
642.208008,357.216003,653.919983
644.159973,365.023987,655.872009
646.112000,365.023987,659.776001
644.159973,359.167999,650.015991
650.015991,359.167999,655.872009
648.064026,366.976013,651.968018
657.823975,365.023987,653.919983
648.064026,365.023987,651.968018
644.159973,355.264008,655.872009
650.015991,359.167999,653.919983
650.015991,365.023987,661.728027
646.112000,359.167999,657.823975
644.159973,363.071991,659.776001
646.112000,370.880005,651.968018
651.968018,365.023987,653.919983
650.015991,357.216003,661.728027
653.919983,361.119995,661.728027
646.112000,359.167999,657.823975
644.159973,365.023987,661.728027
644.159973,359.167999,661.728027
648.064026,365.023987,657.823975
648.064026,361.119995,663.679993
644.159973,355.264008,646.112000
646.112000,365.023987,651.968018
646.112000,361.119995,655.872009
648.064026,359.167999,657.823975
644.159973,361.119995,657.823975
646.112000,361.119995,661.728027
646.112000,357.216003,663.679993
650.015991,353.312012,661.728027
650.015991,357.216003,661.728027
651.968018,345.503998,659.776001
657.823975,357.216003,665.632019
655.872009,345.503998,663.679993
646.112000,357.216003,661.728027
650.015991,361.119995,659.776001
648.064026,351.359985,655.872009
651.968018,347.455994,651.968018
655.872009,349.407990,665.632019
651.968018,357.216003,669.536011
646.112000,347.455994,659.776001
650.015991,353.312012,661.728027
646.112000,355.264008,663.679993
653.919983,351.359985,661.728027
650.015991,353.312012,661.728027
648.064026,357.216003,667.583984
657.823975,355.264008,655.872009
659.776001,353.312012,665.632019
657.823975,359.167999,659.776001
650.015991,345.503998,659.776001
653.919983,353.312012,661.728027
655.872009,347.455994,655.872009
659.776001,353.312012,665.632019
653.919983,347.455994,657.823975
650.015991,351.359985,665.632019
653.919983,357.216003,665.632019
659.776001,353.312012,659.776001
651.968018,347.455994,659.776001
655.872009,347.455994,661.728027
650.015991,349.407990,665.632019
655.872009,343.552002,661.728027
661.728027,345.503998,667.583984
661.728027,339.648010,661.728027
661.728027,349.407990,669.536011
650.015991,349.407990,669.536011
655.872009,353.312012,657.823975
648.064026,339.648010,659.776001
651.968018,357.216003,667.583984
659.776001,351.359985,665.632019
657.823975,357.216003,665.632019
655.872009,337.696014,659.776001
646.112000,347.455994,653.919983
651.968018,339.648010,659.776001
651.968018,349.407990,665.632019
648.064026,351.359985,663.679993
651.968018,349.407990,659.776001
644.159973,349.407990,665.632019
648.064026,351.359985,661.728027
646.112000,353.312012,663.679993
648.064026,347.455994,655.872009
648.064026,361.119995,669.536011
644.159973,343.552002,671.487976
648.064026,353.312012,659.776001
638.304016,363.071991,651.968018
642.208008,361.119995,661.728027
650.015991,359.167999,651.968018
646.112000,359.167999,657.823975
644.159973,359.167999,648.064026
636.351990,355.264008,655.872009
634.400024,361.119995,657.823975
642.208008,355.264008,653.919983
632.447998,355.264008,657.823975
634.400024,363.071991,651.968018
636.351990,355.264008,655.872009
630.495972,359.167999,653.919983
644.159973,359.167999,655.872009
640.255981,363.071991,655.872009
636.351990,361.119995,651.968018
646.112000,365.023987,648.064026
640.255981,365.023987,657.823975
642.208008,357.216003,657.823975
638.304016,359.167999,663.679993
642.208008,365.023987,663.679993
638.304016,368.928009,655.872009
640.255981,368.928009,655.872009
648.064026,372.832001,651.968018
640.255981,378.687988,659.776001
632.447998,372.832001,667.583984
642.208008,372.832001,655.872009
632.447998,366.976013,663.679993
638.304016,366.976013,657.823975
634.400024,380.640015,653.919983
636.351990,361.119995,648.064026
640.255981,372.832001,661.728027
638.304016,374.783997,650.015991
638.304016,368.928009,648.064026
634.400024,368.928009,653.919983
636.351990,370.880005,655.872009
634.400024,372.832001,650.015991
634.400024,372.832001,653.919983
638.304016,370.880005,648.064026
640.255981,363.071991,650.015991
640.255981,370.880005,655.872009
634.400024,374.783997,655.872009
644.159973,384.544006,651.968018
638.304016,374.783997,653.919983
640.255981,374.783997,653.919983
646.112000,376.735992,648.064026
648.064026,372.832001,657.823975
650.015991,388.447998,651.968018
650.015991,374.783997,665.632019
648.064026,382.592010,661.728027
651.968018,384.544006,661.728027
655.872009,378.687988,657.823975
653.919983,378.687988,661.728027
655.872009,374.783997,663.679993
653.919983,378.687988,653.919983
651.968018,376.735992,657.823975
650.015991,372.832001,659.776001
653.919983,376.735992,655.872009
648.064026,380.640015,663.679993
644.159973,376.735992,661.728027
651.968018,374.783997,665.632019
655.872009,368.928009,659.776001
653.919983,380.640015,667.583984
653.919983,374.783997,669.536011
653.919983,374.783997,669.536011
663.679993,376.735992,667.583984
661.728027,370.880005,665.632019
661.728027,372.832001,663.679993
663.679993,376.735992,663.679993
657.823975,366.976013,651.968018
657.823975,380.640015,655.872009
657.823975,374.783997,651.968018
661.728027,382.592010,648.064026
657.823975,376.735992,648.064026
653.919983,376.735992,650.015991
648.064026,376.735992,648.064026
659.776001,368.928009,642.208008
648.064026,376.735992,653.919983
657.823975,370.880005,646.112000
650.015991,374.783997,646.112000
653.919983,376.735992,648.064026
653.919983,384.544006,651.968018
657.823975,376.735992,651.968018
661.728027,382.592010,651.968018
665.632019,374.783997,661.728027
659.776001,390.399994,669.536011
657.823975,388.447998,663.679993
659.776001,388.447998,667.583984
659.776001,388.447998,667.583984
659.776001,386.496002,667.583984
665.632019,390.399994,677.343994
663.679993,394.303986,681.247986
669.536011,384.544006,669.536011
665.632019,380.640015,661.728027
669.536011,386.496002,677.343994
659.776001,386.496002,663.679993
659.776001,390.399994,665.632019
659.776001,384.544006,665.632019
651.968018,384.544006,655.872009
659.776001,372.832001,657.823975
655.872009,388.447998,651.968018
653.919983,388.447998,661.728027
650.015991,374.783997,665.632019
648.064026,386.496002,661.728027
653.919983,388.447998,661.728027
655.872009,382.592010,665.632019
650.015991,392.351990,661.728027
650.015991,390.399994,651.968018
653.919983,392.351990,663.679993
650.015991,388.447998,661.728027
646.112000,390.399994,671.487976
653.919983,392.351990,663.679993
640.255981,392.351990,669.536011
642.208008,394.303986,665.632019
638.304016,388.447998,665.632019
630.495972,392.351990,659.776001
628.544006,388.447998,659.776001
626.591980,390.399994,665.632019
616.831970,392.351990,661.728027
618.783997,386.496002,651.968018
610.976013,386.496002,651.968018
610.976013,386.496002,646.112000
614.880005,386.496002,640.255981
618.783997,396.256012,642.208008
614.880005,386.496002,624.640015
622.687988,382.592010,622.687988
616.831970,374.783997,607.072021
616.831970,386.496002,620.736023
614.880005,384.544006,614.880005
616.831970,398.208008,616.831970
616.831970,402.112000,624.640015
616.831970,398.208008,620.736023
616.831970,404.063995,616.831970
622.687988,392.351990,622.687988
616.831970,396.256012,620.736023
616.831970,396.256012,622.687988
622.687988,394.303986,634.400024
622.687988,390.399994,624.640015
626.591980,394.303986,626.591980
622.687988,398.208008,622.687988
618.783997,407.967987,628.544006
616.831970,407.967987,626.591980
616.831970,419.679993,630.495972
620.736023,415.776001,632.447998
614.880005,413.824005,630.495972
614.880005,400.160004,624.640015
624.640015,407.967987,620.736023
618.783997,415.776001,630.495972
616.831970,427.488007,626.591980
601.216003,419.679993,620.736023
603.168030,423.584015,618.783997
603.168030,406.015991,620.736023
599.263977,413.824005,609.023987
597.312012,411.872009,612.927979
593.408020,409.920013,605.119995
589.504028,398.208008,597.312012
587.552002,400.160004,597.312012
587.552002,388.447998,591.455994
589.504028,390.399994,599.263977
579.744019,398.208008,601.216003
591.455994,396.256012,599.263977
589.504028,394.303986,605.119995
579.744019,404.063995,607.072021
583.648010,400.160004,610.976013
575.840027,407.967987,612.927979
577.791992,409.920013,614.880005
566.080017,409.920013,605.119995
577.791992,425.536011,618.783997
579.744019,415.776001,616.831970
581.695984,419.679993,624.640015
569.984009,423.584015,634.400024
575.840027,421.631989,628.544006
577.791992,419.679993,640.255981
577.791992,413.824005,632.447998
573.888000,409.920013,646.112000
573.888000,407.967987,632.447998
571.935974,407.967987,636.351990
566.080017,411.872009,642.208008
568.031982,407.967987,632.447998
575.840027,404.063995,638.304016
575.840027,398.208008,638.304016
573.888000,406.015991,642.208008
569.984009,404.063995,644.159973
571.935974,404.063995,650.015991
575.840027,400.160004,650.015991
575.840027,404.063995,653.919983
571.935974,404.063995,661.728027
573.888000,394.303986,651.968018
566.080017,398.208008,659.776001
585.599976,400.160004,657.823975
575.840027,407.967987,665.632019
571.935974,406.015991,673.440002
575.840027,409.920013,663.679993
571.935974,404.063995,667.583984
569.984009,407.967987,663.679993
573.888000,407.967987,663.679993
562.176025,404.063995,663.679993
560.223999,400.160004,665.632019
569.984009,394.303986,667.583984
583.648010,392.351990,663.679993
579.744019,392.351990,657.823975
573.888000,398.208008,661.728027
575.840027,392.351990,669.536011
585.599976,392.351990,661.728027
579.744019,386.496002,650.015991
581.695984,378.687988,653.919983
577.791992,390.399994,659.776001
591.455994,386.496002,663.679993
585.599976,386.496002,663.679993
585.599976,382.592010,673.440002
581.695984,378.687988,661.728027
585.599976,396.256012,677.343994
593.408020,386.496002,681.247986
593.408020,390.399994,675.392029
595.359985,380.640015,681.247986
601.216003,392.351990,677.343994
603.168030,384.544006,677.343994
605.119995,392.351990,679.296021
601.216003,386.496002,677.343994
610.976013,388.447998,679.296021
607.072021,388.447998,677.343994
618.783997,378.687988,675.392029
609.023987,380.640015,663.679993
616.831970,378.687988,677.343994
610.976013,376.735992,669.536011
622.687988,380.640015,665.632019
616.831970,380.640015,669.536011
616.831970,388.447998,663.679993
620.736023,388.447998,663.679993
618.783997,390.399994,655.872009
618.783997,390.399994,661.728027
622.687988,390.399994,661.728027
624.640015,388.447998,657.823975
626.591980,384.544006,667.583984
632.447998,378.687988,661.728027
632.447998,384.544006,659.776001
628.544006,388.447998,661.728027
638.304016,390.399994,667.583984
638.304016,390.399994,667.583984
638.304016,390.399994,671.487976
642.208008,396.256012,663.679993
650.015991,392.351990,661.728027
646.112000,390.399994,655.872009
648.064026,396.256012,659.776001
642.208008,386.496002,661.728027
642.208008,384.544006,657.823975
648.064026,376.735992,653.919983
644.159973,384.544006,650.015991
646.112000,392.351990,642.208008
644.159973,384.544006,650.015991
650.015991,384.544006,644.159973
644.159973,380.640015,648.064026
646.112000,374.783997,650.015991
648.064026,370.880005,651.968018
648.064026,376.735992,648.064026
653.919983,378.687988,644.159973
646.112000,376.735992,651.968018
646.112000,374.783997,653.919983
651.968018,370.880005,651.968018
661.728027,368.928009,646.112000
655.872009,366.976013,640.255981
651.968018,366.976013,659.776001
655.872009,365.023987,651.968018
655.872009,365.023987,651.968018
657.823975,365.023987,648.064026
659.776001,363.071991,650.015991
655.872009,353.312012,650.015991
659.776001,349.407990,653.919983
665.632019,363.071991,655.872009
655.872009,347.455994,655.872009
661.728027,341.600006,655.872009
661.728027,335.743988,655.872009
663.679993,347.455994,651.968018
665.632019,339.648010,651.968018
669.536011,337.696014,644.159973
667.583984,333.791992,642.208008
671.487976,327.936005,644.159973
675.392029,322.079987,650.015991
675.392029,316.223999,642.208008
675.392029,316.223999,650.015991
675.392029,320.127991,651.968018
679.296021,329.888000,642.208008
691.007996,314.272003,653.919983
692.960022,324.032013,651.968018
696.864014,308.415985,651.968018
702.719971,304.511993,653.919983
700.768005,312.320007,650.015991
702.719971,306.463989,651.968018
708.575989,302.559998,659.776001
712.479980,304.511993,659.776001
720.288025,300.608002,655.872009
718.335999,302.559998,651.968018
726.143982,298.656006,653.919983
739.807983,302.559998,651.968018
733.952026,290.847992,657.823975
735.903992,296.704010,655.872009
749.567993,292.799988,648.064026
755.424011,296.704010,653.919983
751.520020,292.799988,659.776001
755.424011,296.704010,651.968018
767.135986,288.895996,659.776001
771.039978,286.944000,653.919983
784.703979,292.799988,659.776001
778.848022,294.752014,651.968018
790.559998,290.847992,671.487976
788.607971,284.992004,667.583984
796.416016,284.992004,673.440002
806.176025,286.944000,671.487976
796.416016,290.847992,667.583984
810.080017,283.040009,673.440002
813.984009,281.088013,669.536011
829.599976,277.183990,665.632019
827.648010,288.895996,663.679993
829.599976,277.183990,667.583984
829.599976,277.183990,667.583984
839.359985,281.088013,669.536011
835.455994,277.183990,667.583984
843.263977,273.279999,663.679993
841.312012,275.231995,671.487976
853.023987,271.328003,667.583984
843.263977,269.376007,679.296021
854.976013,271.328003,673.440002
856.927979,261.567993,677.343994
854.976013,253.759995,675.392029
854.976013,261.567993,675.392029
853.023987,245.951996,673.440002
860.831970,257.664001,677.343994
851.072021,249.856003,681.247986
860.831970,247.904007,675.392029
868.640015,249.856003,677.343994
860.831970,255.712006,679.296021
854.976013,245.951996,673.440002
854.976013,249.856003,675.392029
854.976013,238.143997,667.583984
851.072021,251.807999,665.632019
839.359985,247.904007,665.632019
831.552002,245.951996,661.728027
837.408020,238.143997,659.776001
833.504028,240.095993,665.632019
833.504028,230.335999,665.632019
823.744019,240.095993,663.679993
821.791992,230.335999,665.632019
819.840027,240.095993,663.679993
819.840027,220.576004,663.679993
817.888000,216.671997,663.679993
802.271973,224.479996,663.679993
802.271973,218.623993,663.679993
800.320007,212.768005,665.632019
786.656006,216.671997,663.679993
786.656006,210.815994,661.728027
782.752014,212.768005,655.872009
778.848022,214.720001,657.823975
769.088013,212.768005,665.632019
763.231995,206.912003,653.919983
757.375977,208.863998,642.208008
753.471985,214.720001,644.159973
745.664001,204.960007,642.208008
737.856018,216.671997,636.351990
726.143982,210.815994,632.447998
732.000000,208.863998,638.304016
716.383972,216.671997,628.544006
708.575989,220.576004,624.640015
708.575989,220.576004,628.544006
702.719971,214.720001,616.831970
692.960022,216.671997,624.640015
689.056030,218.623993,624.640015
685.151978,222.528000,622.687988
675.392029,228.384003,622.687988
669.536011,224.479996,616.831970
661.728027,234.240005,620.736023
651.968018,242.048004,618.783997
642.208008,240.095993,618.783997
642.208008,249.856003,626.591980
632.447998,245.951996,620.736023
624.640015,247.904007,632.447998
616.831970,245.951996,622.687988
605.119995,257.664001,622.687988
603.168030,255.712006,616.831970
585.599976,257.664001,612.927979
587.552002,259.615997,616.831970
583.648010,255.712006,612.927979
583.648010,247.904007,616.831970
569.984009,257.664001,622.687988
560.223999,265.471985,624.640015
560.223999,271.328003,622.687988
550.463989,269.376007,628.544006
542.656006,275.231995,620.736023
534.848022,279.135986,620.736023
527.039978,275.231995,630.495972
527.039978,290.847992,622.687988
519.231995,294.752014,624.640015
519.231995,296.704010,624.640015
521.184021,296.704010,630.495972
505.567993,306.463989,632.447998
503.615997,296.704010,634.400024
495.808014,302.559998,626.591980
491.903992,298.656006,630.495972
495.808014,306.463989,622.687988
489.951996,288.895996,630.495972
486.048004,296.704010,632.447998
470.432007,306.463989,624.640015
472.384003,308.415985,620.736023
474.335999,304.511993,630.495972
468.480011,314.272003,618.783997
470.432007,310.368011,630.495972
460.671997,314.272003,620.736023
460.671997,310.368011,626.591980
458.720001,318.175995,620.736023
458.720001,312.320007,624.640015
458.720001,318.175995,630.495972
462.623993,324.032013,630.495972
470.432007,318.175995,632.447998
456.768005,331.839996,638.304016
464.575989,333.791992,626.591980
464.575989,324.032013,632.447998
462.623993,331.839996,634.400024
470.432007,329.888000,638.304016
468.480011,327.936005,640.255981
474.335999,331.839996,646.112000
474.335999,320.127991,648.064026
482.144012,324.032013,648.064026
476.287994,327.936005,646.112000
486.048004,322.079987,651.968018
488.000000,324.032013,655.872009
495.808014,327.936005,653.919983
489.951996,333.791992,646.112000
497.760010,325.984009,655.872009
497.760010,333.791992,648.064026
505.567993,337.696014,659.776001
513.375977,329.888000,657.823975
513.375977,322.079987,661.728027
525.088013,325.984009,653.919983
527.039978,327.936005,657.823975
536.799988,320.127991,661.728027
540.703979,316.223999,665.632019
534.848022,325.984009,665.632019
542.656006,333.791992,667.583984
546.559998,327.936005,665.632019
554.367981,324.032013,663.679993
564.127991,331.839996,669.536011
560.223999,331.839996,663.679993
564.127991,329.888000,669.536011
566.080017,331.839996,671.487976
577.791992,335.743988,667.583984
573.888000,335.743988,673.440002
583.648010,331.839996,675.392029
601.216003,331.839996,659.776001
589.504028,337.696014,667.583984
595.359985,333.791992,677.343994
607.072021,325.984009,677.343994
610.976013,322.079987,681.247986
612.927979,320.127991,685.151978
622.687988,316.223999,675.392029
630.495972,318.175995,671.487976
636.351990,308.415985,681.247986
640.255981,308.415985,679.296021
648.064026,322.079987,685.151978
661.728027,327.936005,692.960022
661.728027,327.936005,692.960022
669.536011,320.127991,691.007996
677.343994,318.175995,681.247986
685.151978,325.984009,692.960022
691.007996,316.223999,700.768005
687.104004,318.175995,691.007996
691.007996,316.223999,696.864014
694.911987,316.223999,702.719971
698.815979,314.272003,694.911987
694.911987,316.223999,704.671997
702.719971,308.415985,700.768005
706.624023,314.272003,692.960022
702.719971,314.272003,702.719971
710.528015,314.272003,691.007996
706.624023,318.175995,696.864014
714.432007,310.368011,689.056030
710.528015,320.127991,694.911987
706.624023,310.368011,696.864014
696.864014,312.320007,685.151978
700.768005,318.175995,685.151978
691.007996,312.320007,675.392029
696.864014,325.984009,679.296021
683.200012,325.984009,671.487976
691.007996,333.791992,677.343994
691.007996,324.032013,673.440002
691.007996,318.175995,659.776001
679.296021,325.984009,669.536011
681.247986,316.223999,661.728027
689.056030,322.079987,663.679993
685.151978,306.463989,665.632019
679.296021,314.272003,665.632019
685.151978,310.368011,659.776001
692.960022,308.415985,663.679993
691.007996,318.175995,655.872009
694.911987,314.272003,663.679993
694.911987,314.272003,669.536011
694.911987,314.272003,663.679993
698.815979,312.320007,650.015991
700.768005,320.127991,655.872009
700.768005,324.032013,665.632019
689.056030,325.984009,669.536011
685.151978,325.984009,675.392029
706.624023,308.415985,681.247986
702.719971,325.984009,669.536011
712.479980,316.223999,681.247986
708.575989,306.463989,677.343994
710.528015,316.223999,673.440002
724.192017,312.320007,667.583984
728.096008,320.127991,663.679993
720.288025,355.264008,677.343994
720.288025,345.503998,683.200012
718.335999,355.264008,675.392029
720.288025,380.640015,673.440002
728.096008,372.832001,681.247986
728.096008,372.832001,685.151978
728.096008,374.783997,679.296021
733.952026,376.735992,681.247986
722.239990,368.928009,683.200012
718.335999,361.119995,691.007996
714.432007,370.880005,687.104004
696.864014,355.264008,685.151978
691.007996,349.407990,679.296021
696.864014,351.359985,663.679993
689.056030,349.407990,669.536011
673.440002,343.552002,659.776001
677.343994,333.791992,657.823975
667.583984,337.696014,648.064026
655.872009,351.359985,659.776001
632.447998,353.312012,651.968018
636.351990,339.648010,669.536011
644.159973,349.407990,679.296021
657.823975,374.783997,718.335999
661.728027,396.256012,726.143982
677.343994,380.640015,733.952026
673.440002,382.592010,743.711975
687.104004,419.679993,759.328003
687.104004,406.015991,757.375977
679.296021,400.160004,730.047974
687.104004,413.824005,694.911987
673.440002,427.488007,685.151978
665.632019,419.679993,669.536011
655.872009,406.015991,659.776001
651.968018,402.112000,644.159973
653.919983,404.063995,634.400024
636.351990,392.351990,622.687988
634.400024,376.735992,603.168030
628.544006,376.735992,583.648010
628.544006,357.216003,575.840027
626.591980,351.359985,569.984009
609.023987,347.455994,554.367981
609.023987,357.216003,554.367981
612.927979,359.167999,560.223999
616.831970,361.119995,548.512024
609.023987,363.071991,540.703979
603.168030,386.496002,540.703979
597.312012,386.496002,534.848022
595.359985,392.351990,536.799988
597.312012,406.015991,528.992004
626.591980,409.920013,521.184021
829.599976,392.351990,499.712006
390.399994,548.512024,532.895996
853.023987,480.191986,609.023987
466.528015,406.015991,648.064026
712.479980,552.416016,593.408020
614.880005,314.272003,612.927979
665.632019,281.088013,679.296021
665.632019,528.992004,661.728027
542.656006,261.567993,677.343994
655.872009,411.872009,683.200012
648.064026,474.335999,667.583984
667.583984,212.768005,685.151978
620.736023,427.488007,675.392029
657.823975,530.943970,671.487976
620.736023,439.200012,661.728027
655.872009,491.903992,636.351990
648.064026,435.295990,628.544006
640.255981,427.488007,614.880005
636.351990,530.943970,612.927979
650.015991,486.048004,612.927979
673.440002,407.967987,601.216003
687.104004,423.584015,607.072021
696.864014,439.200012,601.216003
663.679993,415.776001,618.783997
618.783997,407.967987,620.736023
632.447998,366.976013,612.927979
651.968018,314.272003,618.783997
659.776001,312.320007,612.927979
663.679993,298.656006,601.216003
653.919983,240.095993,609.023987
644.159973,242.048004,581.695984
648.064026,265.471985,573.888000
663.679993,255.712006,564.127991
685.151978,244.000000,546.559998
665.632019,273.279999,540.703979
648.064026,296.704010,538.752014
630.495972,325.984009,530.943970
636.351990,351.359985,523.135986
648.064026,366.976013,532.895996
644.159973,384.544006,527.039978
640.255981,400.160004,525.088013
650.015991,407.967987,519.231995
671.487976,388.447998,509.471985
663.679993,380.640015,497.760010
671.487976,370.880005,491.903992
671.487976,353.312012,489.951996
685.151978,333.791992,489.951996
683.200012,318.175995,488.000000
689.056030,294.752014,493.855988
687.104004,294.752014,499.712006
704.671997,279.135986,491.903992
710.528015,261.567993,484.096008
720.288025,253.759995,482.144012
712.479980,247.904007,478.239990
722.239990,236.192001,476.287994
722.239990,234.240005,482.144012
722.239990,230.335999,482.144012
728.096008,240.095993,484.096008
732.000000,240.095993,484.096008
730.047974,253.759995,478.239990
726.143982,245.951996,480.191986
733.952026,255.712006,476.287994
733.952026,255.712006,474.335999
741.760010,253.759995,474.335999
749.567993,255.712006,486.048004
753.471985,247.904007,489.951996
747.616028,281.088013,486.048004
751.520020,292.799988,488.000000
751.520020,300.608002,497.760010
751.520020,284.992004,505.567993
763.231995,284.992004,507.519989
767.135986,292.799988,515.328003
765.184021,294.752014,515.328003
763.231995,284.992004,511.424011
765.184021,296.704010,521.184021
778.848022,288.895996,525.088013
774.943970,294.752014,532.895996
774.943970,283.040009,530.943970
778.848022,277.183990,542.656006
778.848022,284.992004,556.320007
780.799988,261.567993,573.888000
780.799988,238.143997,566.080017
776.895996,232.287994,569.984009
788.607971,242.048004,577.791992
790.559998,238.143997,583.648010
798.367981,257.664001,589.504028
806.176025,259.615997,581.695984
815.935974,249.856003,591.455994
808.127991,253.759995,583.648010
808.127991,290.847992,595.359985
804.223999,302.559998,589.504028
806.176025,296.704010,585.599976
804.223999,298.656006,573.888000
806.176025,306.463989,573.888000
804.223999,322.079987,583.648010
800.320007,320.127991,583.648010
802.271973,335.743988,579.744019
796.416016,320.127991,579.744019
800.320007,314.272003,568.031982
796.416016,312.320007,566.080017
804.223999,308.415985,564.127991
806.176025,294.752014,569.984009
808.127991,288.895996,573.888000
812.031982,298.656006,583.648010
808.127991,281.088013,581.695984
808.127991,292.799988,581.695984
808.127991,292.799988,575.840027
813.984009,286.944000,581.695984
813.984009,302.559998,579.744019
819.840027,300.608002,595.359985
833.504028,300.608002,599.263977
841.312012,310.368011,597.312012
841.312012,322.079987,614.880005
851.072021,325.984009,620.736023
866.687988,331.839996,630.495972
876.447998,345.503998,634.400024
876.447998,345.503998,646.112000
882.304016,361.119995,653.919983
884.255981,355.264008,669.536011
825.695984,404.063995,681.247986
886.208008,372.832001,679.296021
929.151978,275.231995,683.200012
929.151978,324.032013,692.960022
911.583984,386.496002,689.056030
913.536011,314.272003,700.768005
907.679993,279.135986,704.671997
917.440002,337.696014,702.719971
938.911987,353.312012,712.479980
940.864014,349.407990,712.479980
948.671997,335.743988,737.856018
952.575989,312.320007,743.711975
954.528015,363.071991,747.616028
940.864014,380.640015,765.184021
948.671997,355.264008,772.992004
964.288025,368.928009,778.848022
956.479980,396.256012,788.607971
974.047974,384.544006,782.752014
976.000000,343.552002,784.703979
993.567993,351.359985,794.463989
976.000000,400.160004,802.271973
999.424011,400.160004,812.031982
1009.184021,376.735992,819.840027
1015.039978,347.455994,825.695984
1026.751953,345.503998,829.599976
1026.751953,327.936005,837.408020
1032.608032,337.696014,860.831970
1034.560059,316.223999,864.736023
1036.511963,296.704010,890.112000
1044.319946,294.752014,909.632019
1061.887939,290.847992,919.392029
1081.407959,263.519989,917.440002
1116.543945,242.048004,936.960022
1132.160034,204.960007,950.624023
1132.160034,156.160004,972.096008
1151.680054,152.255997,983.807983
1179.008057,119.071999,1001.375977
815.935974,-343.552002,1061.887939
478.239990,-651.968018,1026.751953
970.143982,-179.584000,913.536011
921.343994,667.583984,876.447998
946.719971,1089.215942,813.984009
960.383972,1243.423950,800.320007
808.127991,1590.880005,827.648010
979.903992,-273.279999,755.424011
991.616028,-1383.968018,730.047974
849.119995,245.951996,735.903992
958.432007,1182.911987,751.520020
825.695984,806.176025,761.280029
897.919983,390.399994,741.760010
933.056030,507.519989,751.520020
972.096008,638.304016,767.135986
931.104004,564.127991,771.039978
884.255981,472.384003,776.895996
919.392029,388.447998,772.992004
929.151978,370.880005,798.367981
966.239990,327.936005,817.888000
827.648010,267.424011,833.504028
776.895996,259.615997,856.927979
913.536011,167.871994,841.312012
911.583984,-113.216003,851.072021
548.512024,-437.247986,895.968018
484.096008,-478.239990,856.927979
1011.135986,-99.552002,792.512024
1083.359985,19.520000,786.656006
882.304016,-247.904007,804.223999
899.872009,-407.967987,778.848022
946.719971,-310.368011,794.463989
601.216003,-421.631989,825.695984
445.056000,-523.135986,792.512024
962.335999,-435.295990,692.960022
936.960022,-478.239990,696.864014
757.375977,-464.575989,733.952026
733.952026,-187.391998,720.288025
638.304016,154.207993,714.432007
597.312012,448.959991,696.864014
650.015991,548.512024,651.968018
685.151978,493.855988,628.544006
691.007996,447.007996,628.544006
718.335999,489.951996,628.544006
720.288025,476.287994,618.783997
757.375977,427.488007,616.831970
712.479980,349.407990,607.072021
515.328003,327.936005,597.312012
650.015991,290.847992,605.119995
888.159973,134.688004,589.504028
839.359985,-37.088001,587.552002
710.528015,-17.568001,612.927979
655.872009,74.176003,630.495972
730.047974,44.896000,620.736023
872.544006,-44.896000,614.880005
673.440002,-197.151993,640.255981
530.943970,-148.352005,626.591980
687.104004,103.456001,566.080017
614.880005,242.048004,544.607971
552.416016,331.839996,519.231995
624.640015,450.911987,507.519989
687.104004,523.135986,499.712006
743.711975,569.984009,503.615997
747.616028,601.216003,525.088013
706.624023,689.056030,552.416016
696.864014,759.328003,581.695984
821.791992,835.455994,587.552002
929.151978,872.544006,585.599976
792.512024,747.616028,607.072021
589.504028,363.071991,644.159973
320.127991,-739.807983,659.776001
501.664001,-1786.079956,591.455994
1114.592041,-1266.848022,525.088013
1126.303955,-519.231995,532.895996
735.903992,-462.623993,569.984009
651.968018,-324.032013,571.935974
769.088013,-111.264000,552.416016
638.304016,76.127998,540.703979
507.519989,468.480011,532.895996
769.088013,683.200012,525.088013
784.703979,527.039978,532.895996
630.495972,407.967987,556.320007
683.200012,538.752014,542.656006
712.479980,696.864014,554.367981
681.247986,651.968018,568.031982
644.159973,513.375977,587.552002
677.343994,425.536011,571.935974
755.424011,351.359985,558.271973
214.720001,-1368.352051,458.720001
888.159973,-1643.583984,230.335999
1130.208008,-946.719971,191.296005
979.903992,-804.223999,220.576004
946.719971,-425.536011,304.511993
884.255981,-68.320000,404.063995
815.935974,195.199997,497.760010
749.567993,234.240005,538.752014
691.007996,117.120003,527.039978
741.760010,3.904000,521.184021
745.664001,-15.616000,527.039978
743.711975,-1.952000,550.463989
757.375977,-39.040001,571.935974
753.471985,-124.928001,558.271973
751.520020,-208.863998,560.223999
796.416016,-269.376007,573.888000
841.312012,-368.928009,589.504028
868.640015,-472.384003,597.312012
905.728027,-558.271973,601.216003
938.911987,-618.783997,624.640015
868.640015,-583.648010,642.208008
677.343994,1.952000,702.719971
694.911987,493.855988,769.088013
716.383972,240.095993,741.760010
696.864014,-119.071999,675.392029
1075.552002,-244.000000,667.583984
769.088013,-359.167999,661.728027
730.047974,-122.975998,663.679993
-694.911987,3714.656006,614.880005
1413.248047,4323.680176,634.400024
767.135986,3132.959961,774.943970
173.727997,-948.671997,876.447998
827.648010,-1497.183960,753.471985
976.000000,-1223.904053,626.591980
1030.656006,-1048.223999,583.648010
911.583984,-991.616028,595.359985
661.728027,-54.655998,642.208008
681.247986,1858.303955,691.007996
650.015991,1676.767944,712.479980
538.752014,-238.143997,708.575989
823.744019,-1260.991943,698.815979
788.607971,-532.895996,681.247986
538.752014,819.840027,651.968018
839.359985,880.351990,679.296021
691.007996,-128.832001,675.392029
630.495972,-677.343994,638.304016
692.960022,-189.343994,628.544006
696.864014,499.712006,628.544006
659.776001,437.247986,636.351990
636.351990,-103.456001,646.112000
677.343994,-329.888000,651.968018
636.351990,-3.904000,642.208008
601.216003,345.503998,630.495972
579.744019,294.752014,644.159973
583.648010,11.712000,675.392029
1141.920044,-101.503998,735.903992
583.648010,87.839996,706.624023
472.384003,361.119995,704.671997
618.783997,271.328003,735.903992
687.104004,134.688004,735.903992
856.927979,50.751999,735.903992
673.440002,224.479996,708.575989
1032.608032,245.951996,743.711975
288.895996,306.463989,691.007996
815.935974,62.464001,706.624023
696.864014,-62.464001,669.536011
753.471985,101.503998,642.208008
628.544006,119.071999,634.400024
644.159973,128.832001,638.304016
698.815979,158.112000,655.872009
722.239990,220.576004,667.583984
593.408020,189.343994,646.112000
651.968018,189.343994,620.736023
667.583984,195.199997,636.351990
806.176025,222.528000,669.536011
657.823975,191.296005,696.864014
657.823975,286.944000,696.864014
689.056030,314.272003,698.815979
759.328003,236.192001,691.007996
714.432007,167.871994,655.872009
632.447998,162.016006,640.255981
628.544006,134.688004,632.447998
769.088013,83.935997,634.400024
644.159973,78.080002,614.880005
562.176025,87.839996,599.263977
431.391998,81.984001,593.408020
497.760010,113.216003,601.216003
665.632019,111.264000,612.927979
601.216003,81.984001,614.880005
571.935974,89.792000,610.976013
538.752014,138.591995,603.168030
530.943970,158.112000,597.312012
540.703979,80.031998,595.359985
536.799988,33.183998,587.552002
525.088013,39.040001,585.599976
527.039978,119.071999,587.552002
501.664001,150.304001,587.552002
497.760010,124.928001,581.695984
499.712006,85.888000,585.599976
505.567993,58.560001,573.888000
536.799988,105.407997,577.791992
486.048004,163.968002,568.031982
441.152008,201.056000,562.176025
472.384003,146.399994,562.176025
462.623993,95.648003,550.463989
472.384003,119.071999,544.607971
464.575989,162.016006,558.271973
448.959991,189.343994,548.512024
466.528015,167.871994,552.416016
462.623993,156.160004,544.607971
466.528015,156.160004,544.607971
470.432007,158.112000,532.895996
489.951996,160.063995,534.848022
493.855988,167.871994,525.088013
501.664001,171.776001,501.664001
491.903992,165.919998,480.191986
460.671997,144.447998,470.432007
443.104004,119.071999,441.152008
448.959991,89.792000,425.536011
468.480011,99.552002,400.160004
454.816010,109.311996,366.976013
456.768005,152.255997,357.216003
464.575989,144.447998,353.312012
472.384003,113.216003,335.743988
486.048004,76.127998,329.888000
484.096008,74.176003,322.079987
478.239990,93.695999,312.320007
478.239990,103.456001,294.752014
478.239990,91.744003,271.328003
484.096008,68.320000,253.759995
497.760010,44.896000,247.904007
491.903992,46.848000,224.479996
495.808014,66.367996,220.576004
486.048004,80.031998,208.863998
497.760010,76.127998,203.007996
511.424011,50.751999,197.151993
525.088013,44.896000,185.440002
540.703979,72.223999,165.919998
536.799988,89.792000,160.063995
556.320007,81.984001,158.112000
560.223999,66.367996,144.447998
568.031982,50.751999,146.399994
558.271973,33.183998,158.112000
546.559998,52.703999,146.399994
554.367981,87.839996,150.304001
550.463989,109.311996,165.919998
560.223999,83.935997,160.063995
564.127991,54.655998,156.160004
554.367981,54.655998,165.919998
564.127991,78.080002,162.016006
566.080017,105.407997,169.824005
554.367981,111.264000,169.824005
577.791992,105.407997,181.535995
587.552002,87.839996,171.776001
597.312012,89.792000,179.584000
610.976013,115.167999,187.391998
622.687988,134.688004,195.199997
626.591980,158.112000,216.671997
632.447998,160.063995,234.240005
620.736023,191.296005,238.143997
651.968018,220.576004,288.895996
685.151978,111.264000,337.696014
640.255981,74.176003,351.359985
689.056030,417.727997,370.880005
710.528015,679.296021,411.872009
708.575989,491.903992,443.104004
732.000000,169.824005,450.911987
757.375977,255.712006,464.575989
769.088013,536.799988,493.855988
772.992004,439.200012,544.607971
784.703979,189.343994,599.263977
806.176025,179.584000,628.544006
806.176025,318.175995,659.776001
821.791992,284.992004,692.960022
837.408020,163.968002,735.903992
827.648010,134.688004,772.992004
831.552002,152.255997,798.367981
831.552002,162.016006,804.223999
847.168030,140.544006,815.935974
851.072021,119.071999,825.695984
845.216003,89.792000,815.935974
837.408020,74.176003,804.223999
837.408020,91.744003,796.416016
825.695984,91.744003,772.992004
815.935974,70.272003,759.328003
827.648010,37.088001,741.760010
804.223999,50.751999,698.815979
800.320007,80.031998,677.343994
786.656006,74.176003,640.255981
780.799988,37.088001,607.072021
771.039978,44.896000,591.455994
749.567993,72.223999,560.223999
751.520020,81.984001,530.943970
745.664001,72.223999,525.088013
732.000000,78.080002,507.519989
730.047974,97.599998,497.760010
724.192017,105.407997,484.096008
720.288025,103.456001,482.144012
712.479980,115.167999,466.528015
706.624023,121.024002,468.480011
710.528015,122.975998,460.671997
706.624023,121.024002,472.384003
716.383972,117.120003,470.432007
702.719971,113.216003,476.287994
702.719971,111.264000,480.191986
681.247986,105.407997,482.144012
698.815979,117.120003,495.808014
714.432007,74.176003,503.615997
728.096008,31.232000,505.567993
739.807983,54.655998,521.184021
739.807983,64.416000,540.703979
739.807983,31.232000,550.463989
741.760010,37.088001,560.223999
747.616028,62.464001,552.416016
745.664001,76.127998,554.367981
749.567993,62.464001,566.080017
745.664001,78.080002,558.271973
737.856018,105.407997,568.031982
741.760010,109.311996,560.223999
737.856018,97.599998,556.320007
747.616028,99.552002,544.607971
753.471985,115.167999,540.703979
753.471985,107.360001,534.848022
757.375977,91.744003,536.799988
749.567993,87.839996,534.848022
745.664001,93.695999,534.848022
741.760010,89.792000,534.848022
743.711975,85.888000,534.848022
753.471985,74.176003,538.752014
741.760010,70.272003,536.799988
747.616028,54.655998,540.703979
749.567993,54.655998,544.607971
753.471985,40.992001,544.607971
751.520020,25.375999,538.752014
749.567993,29.280001,538.752014
771.039978,25.375999,530.943970
772.992004,23.424000,540.703979
767.135986,25.375999,548.512024
774.943970,25.375999,544.607971
767.135986,37.088001,540.703979
761.280029,46.848000,548.512024
769.088013,35.136002,542.656006
772.992004,44.896000,550.463989
778.848022,54.655998,554.367981
782.752014,58.560001,558.271973
780.799988,60.512001,558.271973
782.752014,54.655998,571.935974
772.992004,48.799999,569.984009
786.656006,60.512001,575.840027
786.656006,56.608002,573.888000
794.463989,54.655998,573.888000
794.463989,56.608002,581.695984
792.512024,46.848000,577.791992
786.656006,48.799999,575.840027
786.656006,46.848000,569.984009
790.559998,39.040001,575.840027
798.367981,40.992001,568.031982
792.512024,40.992001,564.127991
792.512024,39.040001,554.367981
788.607971,35.136002,548.512024
788.607971,35.136002,548.512024
782.752014,37.088001,536.799988
776.895996,33.183998,528.992004
786.656006,37.088001,534.848022
782.752014,44.896000,521.184021
790.559998,40.992001,509.471985
782.752014,48.799999,513.375977
786.656006,50.751999,503.615997
780.799988,56.608002,509.471985
794.463989,56.608002,499.712006
794.463989,62.464001,488.000000
794.463989,56.608002,488.000000
786.656006,64.416000,480.191986
786.656006,54.655998,480.191986
788.607971,66.367996,486.048004
794.463989,72.223999,478.239990
796.416016,72.223999,482.144012
798.367981,64.416000,482.144012
788.607971,54.655998,480.191986
798.367981,58.560001,472.384003
798.367981,62.464001,472.384003
778.848022,44.896000,478.239990
784.703979,72.223999,482.144012
806.176025,52.703999,489.951996
821.791992,3.904000,482.144012
835.455994,15.616000,480.191986
833.504028,35.136002,489.951996
833.504028,19.520000,489.951996
817.888000,15.616000,493.855988
831.552002,60.512001,493.855988
835.455994,76.127998,480.191986
847.168030,81.984001,489.951996
839.359985,113.216003,488.000000
847.168030,121.024002,501.664001
853.023987,113.216003,493.855988
862.783997,107.360001,503.615997
878.400024,124.928001,495.808014
890.112000,138.591995,513.375977
888.159973,111.264000,505.567993
897.919983,111.264000,519.231995
903.776001,122.975998,528.992004
911.583984,121.024002,538.752014
915.487976,97.599998,542.656006
905.728027,107.360001,542.656006
917.440002,97.599998,536.799988
925.247986,97.599998,536.799988
929.151978,93.695999,544.607971
931.104004,81.984001,534.848022
940.864014,76.127998,532.895996
948.671997,66.367996,530.943970
962.335999,72.223999,525.088013
960.383972,58.560001,523.135986
964.288025,58.560001,509.471985
960.383972,81.984001,511.424011
972.096008,99.552002,519.231995
966.239990,109.311996,519.231995
970.143982,113.216003,519.231995
968.192017,128.832001,517.280029
968.192017,140.544006,515.328003
968.192017,138.591995,519.231995
972.096008,144.447998,519.231995
985.760010,150.304001,519.231995
995.520020,148.352005,523.135986
997.471985,146.399994,528.992004
1001.375977,130.783997,536.799988
1003.328003,136.639999,540.703979
1007.231995,121.024002,544.607971
1009.184021,117.120003,546.559998
1001.375977,119.071999,544.607971
1001.375977,109.311996,540.703979
1003.328003,119.071999,538.752014
999.424011,111.264000,532.895996
995.520020,105.407997,538.752014
997.471985,103.456001,528.992004
1001.375977,95.648003,528.992004
995.520020,97.599998,523.135986
987.711975,87.839996,513.375977
997.471985,87.839996,509.471985
985.760010,93.695999,501.664001
991.616028,103.456001,497.760010
993.567993,105.407997,499.712006
987.711975,105.407997,495.808014
979.903992,107.360001,495.808014
985.760010,121.024002,501.664001
979.903992,124.928001,501.664001
977.952026,122.975998,497.760010
979.903992,121.024002,507.519989
989.664001,117.120003,501.664001
983.807983,115.167999,511.424011
981.856018,115.167999,513.375977
989.664001,115.167999,511.424011
991.616028,113.216003,513.375977
991.616028,107.360001,507.519989
989.664001,97.599998,511.424011
991.616028,85.888000,515.328003
985.760010,85.888000,507.519989
985.760010,91.744003,509.471985
985.760010,91.744003,509.471985
972.096008,87.839996,497.760010
972.096008,83.935997,511.424011
968.192017,93.695999,503.615997
964.288025,99.552002,501.664001
964.288025,95.648003,503.615997
966.239990,89.792000,501.664001
946.719971,91.744003,491.903992
954.528015,83.935997,488.000000
958.432007,83.935997,491.903992
952.575989,83.935997,489.951996
954.528015,89.792000,488.000000
944.768005,85.888000,480.191986
950.624023,81.984001,474.335999
935.007996,93.695999,480.191986
936.960022,85.888000,482.144012
935.007996,91.744003,478.239990
933.056030,76.127998,474.335999
935.007996,72.223999,468.480011
931.104004,72.223999,466.528015
938.911987,70.272003,476.287994
933.056030,64.416000,472.384003
938.911987,68.320000,466.528015
940.864014,60.512001,462.623993
944.768005,50.751999,462.623993
942.815979,56.608002,456.768005
952.575989,54.655998,462.623993
948.671997,54.655998,466.528015
948.671997,54.655998,454.816010
950.624023,60.512001,454.816010
958.432007,60.512001,433.343994
950.624023,58.560001,437.247986
946.719971,72.223999,421.631989
942.815979,72.223999,425.536011
936.960022,62.464001,417.727997
942.815979,58.560001,415.776001
950.624023,56.608002,425.536011
958.432007,44.896000,427.488007
972.096008,48.799999,425.536011
966.239990,39.040001,431.391998
964.288025,33.183998,429.440002
968.192017,23.424000,429.440002
968.192017,35.136002,435.295990
972.096008,31.232000,425.536011
976.000000,21.472000,411.872009
979.903992,35.136002,421.631989
979.903992,33.183998,431.391998
989.664001,31.232000,431.391998
989.664001,31.232000,431.391998
991.616028,37.088001,445.056000
997.471985,25.375999,441.152008
1001.375977,40.992001,441.152008
1005.280029,37.088001,448.959991
1003.328003,33.183998,450.911987
1001.375977,39.040001,454.816010
995.520020,39.040001,450.911987
991.616028,35.136002,458.720001
1003.328003,40.992001,458.720001
999.424011,40.992001,462.623993
997.471985,42.944000,464.575989
1001.375977,27.327999,460.671997
999.424011,39.040001,472.384003
999.424011,19.520000,480.191986
1007.231995,11.712000,489.951996
1001.375977,11.712000,489.951996
1003.328003,7.808000,493.855988
1013.088013,5.856000,507.519989
1005.280029,-3.904000,507.519989
997.471985,5.856000,513.375977
993.567993,0.000000,511.424011
991.616028,0.000000,517.280029
993.567993,-3.904000,523.135986
991.616028,-3.904000,527.039978
997.471985,1.952000,536.799988
993.567993,-19.520000,536.799988
999.424011,-13.664000,532.895996
993.567993,-13.664000,527.039978
1001.375977,-3.904000,525.088013
987.711975,-1.952000,542.656006
989.664001,-5.856000,527.039978
979.903992,-1.952000,532.895996
981.856018,-1.952000,530.943970
989.664001,0.000000,538.752014
979.903992,-7.808000,536.799988
979.903992,-1.952000,530.943970
974.047974,-15.616000,536.799988
977.952026,-9.760000,540.703979
976.000000,-27.327999,544.607971
981.856018,-27.327999,540.703979
979.903992,-42.944000,548.512024
979.903992,-33.183998,546.559998
966.239990,-9.760000,546.559998
962.335999,46.848000,546.559998
950.624023,52.703999,550.463989
942.815979,-9.760000,532.895996
944.768005,-66.367996,538.752014
946.719971,-105.407997,530.943970
950.624023,-97.599998,527.039978
936.960022,-81.984001,523.135986
931.104004,-70.272003,527.039978
911.583984,-81.984001,521.184021
907.679993,-95.648003,511.424011
905.728027,-105.407997,501.664001
897.919983,-95.648003,501.664001
907.679993,-83.935997,489.951996
901.823975,-78.080002,488.000000
899.872009,-74.176003,478.239990
895.968018,-85.888000,474.335999
890.112000,-76.127998,458.720001
882.304016,-81.984001,452.864014
880.351990,-74.176003,431.391998
874.495972,-58.560001,417.727997
878.400024,-50.751999,409.920013
866.687988,-42.944000,407.967987
872.544006,-46.848000,386.496002
866.687988,-54.655998,380.640015
864.736023,-54.655998,363.071991
851.072021,-39.040001,353.312012
845.216003,-27.327999,345.503998
847.168030,-7.808000,343.552002
849.119995,-23.424000,333.791992
843.263977,-29.280001,329.888000
845.216003,-31.232000,325.984009
843.263977,-27.327999,320.127991
841.312012,-21.472000,314.272003
837.408020,-13.664000,320.127991
847.168030,-27.327999,314.272003
835.455994,-27.327999,308.415985
835.455994,-31.232000,304.511993
819.840027,-21.472000,308.415985
833.504028,-7.808000,302.559998
823.744019,-15.616000,296.704010
827.648010,-46.848000,302.559998
827.648010,-58.560001,290.847992
823.744019,-52.703999,281.088013
812.031982,-27.327999,281.088013
817.888000,-19.520000,281.088013
808.127991,-23.424000,267.424011
810.080017,-35.136002,269.376007
815.935974,-39.040001,273.279999
819.840027,-35.136002,263.519989
806.176025,-25.375999,261.567993
810.080017,-5.856000,251.807999
796.416016,-11.712000,226.432007
788.607971,-5.856000,218.623993
796.416016,11.712000,214.720001
804.223999,25.375999,216.671997
882.304016,29.280001,216.671997
884.255981,-29.280001,206.912003
796.416016,-39.040001,206.912003
714.432007,37.088001,199.104004
739.807983,101.503998,210.815994
782.752014,72.223999,197.151993
841.312012,-1.952000,173.727997
860.831970,-33.183998,162.016006
722.239990,66.367996,152.255997
716.383972,193.248001,154.207993
751.520020,158.112000,158.112000
771.039978,0.000000,163.968002
860.831970,-72.223999,158.112000
894.015991,-42.944000,140.544006
759.328003,103.456001,124.928001
784.703979,240.095993,124.928001
774.943970,185.440002,119.071999
735.903992,-95.648003,103.456001
769.088013,-214.720001,85.888000
804.223999,-97.599998,97.599998
860.831970,27.327999,101.503998
827.648010,56.608002,124.928001
851.072021,-37.088001,148.352005
833.504028,-105.407997,173.727997
845.216003,-54.655998,187.391998
843.263977,40.992001,193.248001
849.119995,83.935997,187.391998
849.119995,50.751999,195.199997
878.400024,-7.808000,201.056000
880.351990,-31.232000,191.296005
886.208008,-33.183998,204.960007
919.392029,-46.848000,208.863998
938.911987,-54.655998,191.296005
950.624023,-85.888000,189.343994
976.000000,-89.792000,208.863998
974.047974,-81.984001,230.335999
972.096008,-44.896000,236.192001
974.047974,27.327999,255.712006
1011.135986,72.223999,279.135986
985.760010,33.183998,298.656006
995.520020,-31.232000,320.127991
1013.088013,-78.080002,339.648010
1036.511963,-105.407997,351.359985
1042.368042,-54.655998,363.071991
1054.079956,0.000000,404.063995
1059.936035,-27.327999,429.440002
1079.456055,-128.832001,435.295990
1136.063965,-222.528000,429.440002
1046.271973,-269.376007,429.440002
954.528015,-132.735992,452.864014
952.575989,83.935997,519.231995
919.392029,76.127998,568.031982
909.632019,-169.824005,566.080017
997.471985,-249.856003,542.656006
1110.687988,-208.863998,517.280029
1112.640015,-402.112000,491.903992
1262.943970,-579.744019,513.375977
1282.463989,-462.623993,544.607971
1223.904053,-126.879997,581.695984
1196.576050,-361.119995,560.223999
1202.432007,-503.615997,593.408020
1346.880005,-515.328003,609.023987
1311.744019,-513.375977,634.400024
1301.984009,-363.071991,648.064026
1374.208008,-452.864014,655.872009
1358.592041,-587.552002,669.536011
1317.599976,-636.351990,677.343994
1415.199951,-571.935974,675.392029
987.711975,-528.992004,640.255981
1266.848022,-146.399994,579.744019
720.288025,-122.975998,517.280029
1108.735962,-13.664000,478.239990
1034.560059,-224.479996,439.200012
1157.536011,-122.975998,388.447998
1030.656006,31.232000,335.743988
1102.880005,62.464001,308.415985
1188.767944,74.176003,310.368011
1387.871948,70.272003,327.936005
1419.104004,103.456001,345.503998
1479.615967,144.447998,353.312012
1383.968018,140.544006,361.119995
1358.592041,232.287994,392.351990
1323.456055,259.615997,413.824005
1342.975952,259.615997,429.440002
1387.871948,273.279999,447.007996
1360.543945,290.847992,466.528015
1305.887939,306.463989,486.048004
1251.232056,296.704010,493.855988
1223.904053,288.895996,513.375977
1225.855957,316.223999,525.088013
1262.943970,308.415985,544.607971
1290.271973,275.231995,546.559998
1301.984009,234.240005,544.607971
1288.319946,267.424011,554.367981
1331.264038,269.376007,573.888000
1364.447998,201.056000,591.455994
1307.839966,199.104004,583.648010
1309.791992,284.992004,568.031982
1196.576050,257.664001,556.320007
1161.439941,271.328003,554.367981
1138.015991,312.320007,528.992004
1196.576050,374.783997,503.615997
1233.663940,343.552002,491.903992
1448.384033,218.623993,501.664001
1378.112061,142.496002,507.519989
1346.880005,232.287994,519.231995
1348.832031,279.135986,548.512024
1290.271973,253.759995,544.607971
1342.975952,312.320007,569.984009
1339.072021,255.712006,585.599976
1356.640015,154.207993,595.359985
1356.640015,257.664001,603.168030
1372.255981,267.424011,626.591980
1346.880005,144.447998,638.304016
1300.031982,193.248001,640.255981
1282.463989,304.511993,634.400024
1266.848022,238.143997,630.495972
1249.280029,216.671997,632.447998
1245.375977,267.424011,624.640015
1280.511963,185.440002,599.263977
1309.791992,152.255997,597.312012
1319.552002,103.456001,593.408020
1307.839966,66.367996,585.599976
1259.040039,80.031998,605.119995
1243.423950,72.223999,741.760010
1259.040039,-201.056000,786.656006
1247.328003,-199.104004,669.536011
1276.608032,99.552002,546.559998
1264.895996,48.799999,491.903992
1221.952026,-64.416000,534.848022
1171.199951,1.952000,612.927979
1141.920044,9.760000,597.312012
1136.063965,103.456001,511.424011
1151.680054,290.847992,425.536011
1159.488037,165.919998,368.928009
1136.063965,70.272003,331.839996
1093.119995,288.895996,333.791992
1059.936035,351.359985,306.463989
1065.791992,210.815994,269.376007
1077.504028,203.007996,236.192001
1067.744019,279.135986,204.960007
1040.416016,247.904007,179.584000
1009.184021,201.056000,175.679993
997.471985,126.879997,173.727997
981.856018,78.080002,171.776001
985.760010,101.503998,146.399994
977.952026,68.320000,122.975998
960.383972,-35.136002,113.216003
962.335999,-62.464001,122.975998
935.007996,-33.183998,113.216003
936.960022,-39.040001,103.456001
933.056030,-76.127998,99.552002
923.296021,-62.464001,93.695999
927.200012,-42.944000,101.503998
907.679993,-19.520000,105.407997
892.064026,-13.664000,109.311996
886.208008,-21.472000,111.264000
882.304016,33.183998,122.975998
890.112000,56.608002,124.928001
892.064026,46.848000,121.024002
882.304016,58.560001,122.975998
899.872009,97.599998,122.975998
897.919983,83.935997,115.167999
880.351990,85.888000,126.879997
868.640015,89.792000,130.783997
854.976013,58.560001,150.304001
847.168030,52.703999,173.727997
853.023987,17.568001,183.488007
880.351990,-39.040001,210.815994
892.064026,-62.464001,218.623993
895.968018,-87.839996,226.432007
892.064026,-95.648003,236.192001
884.255981,-87.839996,245.951996
876.447998,-72.223999,253.759995
872.544006,-70.272003,255.712006
851.072021,-40.992001,253.759995
833.504028,-31.232000,265.471985
808.127991,-13.664000,257.664001
786.656006,7.808000,255.712006
722.239990,42.944000,255.712006
874.495972,3.904000,201.056000
862.783997,-42.944000,140.544006
780.799988,107.360001,87.839996
648.064026,46.848000,15.616000
648.064026,21.472000,-56.608002
564.127991,292.799988,-130.783997
560.223999,154.207993,-201.056000
839.359985,-179.584000,-249.856003
997.471985,-124.928001,-238.143997
1042.368042,528.992004,-216.671997
1011.135986,644.159973,-148.352005
1032.608032,257.664001,-85.888000
1020.895996,117.120003,-85.888000
1024.800049,113.216003,-78.080002
878.400024,50.751999,-7.808000
782.752014,-25.375999,56.608002
673.440002,-318.175995,117.120003
