ACC_X,ACC_Y,ACC_Z,Time
-464.447021,588.409424,659.454346,0.000178
-459.411621,606.628418,656.250000,0.000957
-464.263916,581.451416,658.355713,0.001763
-464.355469,578.155518,663.665771,0.002535
-462.066650,587.402344,661.193848,0.003300
-460.601807,583.923340,655.792236,0.004066
-464.630127,582.275391,659.820557,0.004855
-458.587646,584.197998,659.729004,0.005620
-465.270996,590.057373,655.792236,0.006383
-471.130371,582.366943,656.341553,0.007153
-461.883545,589.874268,652.862549,0.007939
-459.503174,592.803955,664.672852,0.008704
-465.911865,581.451416,657.806396,0.009466
-466.644287,584.838867,653.411865,0.010224
-464.721680,590.423584,651.763916,0.011010
-474.060059,590.240479,633.270264,0.011811
-461.242676,586.669922,654.052734,0.012585
-465.637207,580.352783,651.031494,0.013347
-466.735840,581.451416,646.636963,0.014140
-459.960938,588.134766,659.179688,0.014920
-456.024170,583.831787,649.108887,0.015685
-457.122803,578.338623,652.679443,0.016456
-452.911377,580.078125,658.813477,0.017222
-462.249756,579.803467,661.193848,0.017988
-463.439941,581.542969,633.819580,0.018751
-456.848145,574.584961,649.749756,0.019516
-468.658447,588.958740,651.214600,0.020277
-455.749512,584.289551,650.115967,0.021037
-458.038330,579.986572,654.144287,0.021798
-450.622559,579.803467,658.172607,0.022561
-448.333740,575.225830,634.735107,0.023329
-456.207275,586.395264,647.003174,0.024094
-451.995850,581.542969,653.411865,0.024858
-460.876465,574.584961,674.652100,0.025646
-455.108643,577.148438,661.834717,0.026406
-451.171875,582.183838,654.418945,0.027168
-458.770752,578.247070,662.750244,0.027931
-451.995850,580.810547,647.094727,0.028719
-454.559326,576.141357,652.130127,0.029484
-454.650879,587.219238,665.130615,0.030245
-450.073242,578.796387,658.996582,0.031007
-452.911377,576.324463,656.982422,0.031796
-450.256348,573.486328,646.820068,0.032612
-452.728271,583.007812,653.594971,0.033394
-442.108154,580.444336,658.447266,0.034207
-456.481934,576.782227,648.193359,0.034986
-451.904297,580.352783,656.982422,0.035752
-452.545166,582.916260,655.975342,0.036510
-450.897217,581.451416,655.975342,0.037297
-445.770264,607.635498,654.052734,0.038054
-452.636719,583.374023,660.369873,0.038811
-448.974609,578.887939,658.813477,0.039568
-454.650879,584.381104,662.567139,0.040397
-455.200195,577.789307,662.841797,0.041166
-453.094482,575.592041,662.658691,0.041924
-450.347900,582.733154,664.581299,0.042703
-452.819824,587.860107,661.926270,0.043470
-452.819824,582.366943,667.510986,0.044227
-450.347900,584.014893,659.729004,0.044981
-459.411621,592.895508,660.095215,0.045760
-458.587646,577.514648,660.827637,0.046520
-454.193115,582.733154,666.687012,0.047306
-458.862305,581.451416,658.996582,0.048071
-461.059570,582.916260,656.524658,0.048852
-454.284668,583.099365,655.700684,0.049633
-450.531006,575.958252,655.242920,0.050422
-458.496094,574.951172,657.714844,0.051183
-460.144043,578.155518,652.038574,0.051976
-463.531494,577.697754,658.996582,0.052858
-457.580566,580.261230,663.208008,0.053682
-456.390381,578.063965,658.813477,0.054502
-461.425781,572.753906,658.538818,0.055318
-466.094971,576.324463,654.602051,0.056197
-468.475342,570.190430,655.426025,0.057007
-491.455078,571.289062,653.961182,0.057815
-466.094971,567.810059,650.665283,0.058629
-463.256836,582.092285,660.186768,0.059440
-469.482422,571.380615,653.320312,0.060271
-473.144531,577.606201,651.489258,0.061080
-469.207764,570.831299,652.954102,0.061918
-462.432861,578.887939,646.087646,0.062734
-464.630127,567.810059,650.848389,0.063543
-466.735840,576.416016,660.369873,0.064362
-469.940186,577.148438,632.812500,0.065207
-462.707520,568.359375,652.038574,0.066009
-487.243652,568.908691,648.010254,0.066806
-467.742920,572.753906,645.629883,0.067577
-472.320557,569.458008,653.686523,0.068433
-467.651367,569.824219,653.320312,0.069239
-469.665527,575.134277,652.496338,0.070035
-466.094971,571.289062,647.094727,0.070830
-460.601807,564.331055,653.320312,0.071621
-468.109131,574.401855,655.700684,0.072411
-463.348389,583.007812,654.876709,0.073200
-469.573975,569.641113,655.883789,0.074042
-470.306396,576.049805,658.081055,0.074962
-467.559814,572.296143,665.679932,0.075738
-467.651367,580.627441,657.714844,0.076516
-469.573975,579.711914,662.658691,0.077315
-465.179443,579.345703,661.651611,0.078155
-467.102051,580.993652,652.679443,0.078923
-465.179443,579.162598,656.890869,0.079693
-469.024658,580.627441,653.411865,0.080471
-461.608887,581.634521,659.545898,0.081232
-465.362549,581.359863,659.545898,0.082009
-460.784912,575.042725,634.460449,0.082800
-470.489502,578.155518,661.560059,0.083586
-472.320557,580.078125,660.461426,0.084358
-464.630127,588.134766,669.525146,0.085135
-469.940186,580.535889,661.010742,0.085916
-471.038818,585.113525,656.799316,0.086685
-467.468262,578.338623,663.116455,0.087449
-470.855713,576.416016,661.285400,0.088216
-469.390869,580.444336,660.461426,0.089011
-470.031738,574.676514,662.017822,0.089779
-469.482422,577.148438,662.200928,0.090543
-469.390869,582.550049,666.229248,0.091306
-464.721680,589.691162,655.975342,0.092096
-468.566895,580.902100,652.313232,0.092903
-468.933105,563.232422,650.390625,0.093669
-472.869873,586.944580,672.454834,0.094545
-472.137451,585.937500,661.743164,0.096124
-458.312988,585.571289,660.278320,0.097646
-465.637207,589.782715,661.560059,0.099212
-465.454102,586.212158,666.320801,0.100732
-467.193604,586.395264,652.954102,0.102287
-471.313477,587.036133,658.264160,0.103814
-477.722168,583.190918,655.792236,0.105368
-476.074219,577.697754,651.214600,0.106891
-475.891113,564.422607,653.686523,0.108457
-476.257324,587.036133,655.059814,0.110034
-475.616455,581.634521,649.383545,0.111624
-479.827881,590.332031,658.538818,0.113242
-478.088379,585.205078,655.975342,0.114829
-473.327637,588.409424,659.729004,0.116456
-488.616943,579.162598,655.517578,0.118014
-491.729736,578.338623,657.623291,0.119606
-492.553711,582.916260,655.059814,0.121413
-483.032227,578.155518,655.792236,0.123046
-488.525391,581.451416,659.729004,0.124613
-486.145020,577.606201,648.468018,0.126159
-493.652344,578.704834,655.700684,0.127645
-488.891602,574.859619,677.764893,0.129281
-490.173340,578.338623,656.707764,0.130835
-485.595703,575.866699,657.531738,0.132380
-484.771729,586.944580,657.440186,0.133955
-488.067627,580.352783,652.038574,0.135480
-480.102539,579.803467,656.707764,0.136992
-481.109619,575.592041,655.334473,0.138616
-486.328125,582.275391,633.911133,0.140218
-475.982666,582.641602,666.870117,0.141773
-483.581543,587.768555,657.073975,0.143375
-480.102539,589.691162,656.341553,0.144928
-477.996826,583.740234,663.574219,0.146507
-468.933105,585.754395,657.531738,0.148094
-478.179932,588.684082,658.630371,0.149662
-475.982666,591.430664,662.109375,0.151224
-468.841553,597.290039,661.010742,0.152812
-477.172852,600.585938,662.200928,0.154406
-469.116211,588.409424,663.299561,0.156024
-475.524902,596.740723,661.010742,0.157635
-470.214844,595.367432,656.066895,0.159204
-474.700928,600.677490,660.003662,0.160772
-466.461182,598.846436,654.693604,0.162339
-470.214844,593.811035,656.890869,0.163832
-471.221924,601.776123,660.095215,0.164649
-470.397949,597.839355,657.806396,0.165478
-471.038818,597.290039,661.834717,0.166290
-474.151611,598.480225,659.637451,0.167086
-470.214844,592.346191,662.017822,0.167907
-465.637207,599.029541,670.715332,0.168707
-475.158691,593.627930,663.299561,0.169515
-480.651855,597.198486,662.292480,0.170299
-477.905273,593.994141,661.560059,0.171095
-477.996826,590.789795,662.109375,0.171878
-475.616455,586.578369,656.341553,0.172676
-474.151611,589.782715,659.179688,0.173454
-477.996826,592.712402,663.024902,0.174260
-469.299316,585.754395,658.355713,0.175088
-470.397949,584.289551,658.996582,0.175885
-480.102539,577.148438,654.327393,0.176682
-480.285645,586.944580,661.651611,0.177516
-481.109619,581.085205,661.468506,0.178324
-481.292725,582.366943,647.918701,0.179122
-479.003906,571.746826,649.475098,0.179931
-454.467773,573.303223,654.235840,0.180715
-472.869873,579.162598,649.566650,0.181503
-467.102051,576.141357,654.785156,0.182340
-471.771240,577.606201,647.460938,0.183150
-466.369629,574.035645,653.228760,0.183957
-474.151611,576.416016,654.418945,0.184858
-479.370117,577.789307,652.130127,0.185655
-470.306396,578.521729,651.763916,0.186514
-467.559814,576.873779,653.686523,0.187331
-471.588135,575.225830,645.629883,0.188142
-471.862793,576.690674,650.207520,0.188946
-466.918945,573.852539,650.848389,0.189763
-470.947266,574.859619,657.989502,0.190559
-462.432861,566.070557,654.602051,0.191380
-458.312988,570.922852,660.919189,0.192209
-463.806152,572.021484,651.306152,0.193051
-458.679199,573.028564,653.320312,0.193888
-462.066650,568.267822,652.862549,0.194697
-464.538574,573.577881,654.144287,0.195503
-455.932617,575.225830,655.700684,0.196309
-457.397461,576.049805,657.806396,0.197144
-452.362061,577.514648,651.580811,0.197941
-462.890625,566.894531,655.883789,0.198737
-449.615479,580.902100,658.630371,0.199536
-466.461182,577.606201,658.081055,0.200379
-450.622559,577.514648,660.827637,0.201180
-454.284668,582.183838,655.517578,0.201974
-446.868896,579.986572,659.912109,0.202861
-454.833984,582.458496,662.384033,0.203769
-457.580566,583.465576,657.073975,0.204622
-453.552246,602.600098,656.433105,0.205421
-455.566406,575.134277,652.587891,0.206235
-453.094482,587.036133,656.158447,0.207028
-449.340820,585.845947,655.609131,0.207819
-457.763672,588.409424,649.749756,0.208601
-452.911377,583.557129,661.468506,0.209372
-456.024170,579.986572,655.975342,0.210136
-446.044922,583.007812,663.208008,0.210898
-443.572998,577.056885,658.172607,0.211660
-442.291260,574.768066,659.820557,0.212427
-459.594727,573.577881,652.862549,0.213199
-448.974609,581.817627,650.573730,0.213965
-451.263428,577.423096,649.017334,0.214731
-443.847656,574.401855,653.961182,0.215492
-445.953369,578.887939,646.362305,0.216295
-446.594238,572.296143,658.630371,0.217059
-447.601318,566.253662,657.348633,0.217848
-448.883057,572.662354,653.320312,0.218620
-449.615479,572.753906,649.841309,0.219419
-450.714111,573.944092,652.679443,0.220189
-450.256348,574.310303,652.496338,0.220958
-446.594238,577.148438,656.433105,0.221722
-445.495605,571.655273,658.721924,0.222511
-449.066162,582.458496,647.460938,0.223274
-449.707031,573.120117,658.905029,0.224037
-454.559326,576.507568,662.567139,0.224799
-447.143555,577.789307,662.292480,0.225592
-450.439453,580.627441,658.447266,0.226359
-449.066162,602.691650,658.905029,0.227122
-453.735352,574.676514,652.038574,0.227893
-455.841064,577.880859,660.552979,0.228649
-452.636719,582.183838,656.250000,0.229401
-450.347900,584.838867,656.158447,0.230151
-451.446533,582.366943,660.003662,0.230917
-451.904297,582.733154,656.799316,0.231685
-457.031250,584.472656,661.376953,0.232449
-457.305908,589.965820,661.193848,0.233218
-464.080811,578.887939,660.095215,0.234008
-457.305908,590.972900,664.855957,0.234774
-452.911377,579.528809,660.644531,0.235539
-453.643799,581.542969,650.115967,0.236304
-462.707520,586.212158,635.192871,0.237099
-461.059570,575.500488,656.341553,0.237863
-460.968018,582.092285,662.017822,0.238625
-466.186523,582.092285,665.405273,0.239388
-465.179443,579.895020,659.820557,0.240180
-467.010498,582.092285,655.059814,0.240944
-460.784912,580.810547,665.222168,0.241707
-469.390869,586.761475,657.714844,0.242478
-465.545654,584.472656,656.799316,0.243273
-466.461182,578.063965,636.199951,0.244039
-461.151123,575.134277,656.250000,0.244817
-461.059570,580.261230,657.806396,0.245579
-460.418701,582.824707,676.940918,0.246372
-462.799072,581.817627,656.066895,0.247137
-465.820312,587.036133,655.792236,0.247900
-472.320557,586.395264,654.876709,0.248669
-468.200684,582.458496,656.158447,0.249456
-446.411133,578.155518,655.151367,0.250222
-467.102051,574.951172,674.926758,0.250990
-476.623535,579.162598,655.334473,0.251901
-466.278076,580.444336,657.897949,0.252694
-470.581055,579.528809,653.686523,0.253462
-474.151611,583.374023,653.320312,0.254252
-472.503662,576.049805,657.257080,0.255035
-491.180420,587.585449,653.869629,0.255818
-468.841553,587.402344,656.707764,0.256574
-468.475342,583.648682,656.982422,0.257359
-468.841553,584.106445,652.954102,0.258122
-471.496582,587.310791,652.954102,0.258891
-472.686768,585.205078,658.172607,0.259650
-472.137451,588.684082,665.130615,0.260497
-445.953369,589.416504,658.721924,0.261261
-464.630127,591.613770,677.856445,0.262020
-473.327637,582.641602,662.292480,0.262776
-474.792480,585.937500,652.130127,0.263561
-474.792480,583.374023,648.101807,0.264322
-463.348389,582.183838,650.299072,0.265079
-461.517334,584.930420,651.489258,0.265839
-464.172363,586.944580,651.123047,0.266641
-469.665527,586.669922,657.714844,0.267404
-466.552734,582.183838,651.855469,0.268162
-470.581055,580.078125,652.038574,0.268919
-471.130371,579.437256,653.228760,0.269734
-471.313477,582.550049,655.517578,0.270524
-479.095459,591.064453,659.454346,0.271300
-476.623535,585.296631,652.587891,0.272094
-474.151611,584.838867,655.975342,0.272859
-478.729248,583.190918,659.729004,0.273664
-476.440430,573.944092,648.010254,0.274429
-467.285156,573.669434,653.320312,0.275173
-471.771240,575.866699,646.728516,0.275964
-469.665527,584.655762,648.010254,0.276782
-471.954346,582.641602,648.284912,0.277601
-470.214844,587.127686,646.820068,0.278375
-471.588135,592.895508,647.460938,0.279150
-476.257324,588.775635,645.446777,0.279963
-469.848633,583.374023,645.996094,0.280754
-472.503662,584.381104,654.785156,0.281532
-473.693848,584.564209,651.489258,0.282307
-478.820801,589.782715,657.623291,0.283193
-478.271484,587.860107,648.651123,0.283981
-475.524902,593.811035,652.038574,0.284757
-474.060059,590.057373,652.496338,0.285538
-478.179932,592.163086,657.714844,0.286341
-477.081299,596.649170,659.271240,0.287112
-478.271484,597.106934,658.447266,0.287876
-474.975586,597.015381,656.616211,0.288662
-478.179932,596.282959,660.186768,0.289435
-472.686768,594.268799,652.038574,0.290226
-477.630615,596.191406,655.334473,0.290997
-470.306396,590.240479,667.419434,0.291837
-478.729248,592.346191,663.940430,0.292624
-475.433350,596.374512,665.313721,0.293409
-476.989746,599.212646,657.989502,0.294191
-478.088379,598.571777,654.785156,0.295049
-478.363037,591.156006,656.799316,0.295810
-475.158691,598.754883,655.975342,0.296594
-470.489502,597.564697,654.785156,0.297374
-476.440430,594.268799,634.002686,0.298192
-473.876953,591.613770,652.038574,0.298974
-469.665527,592.529297,662.200928,0.299786
-480.285645,599.029541,658.172607,0.300592
-474.426270,604.522705,661.285400,0.301392
-468.750000,601.226807,660.552979,0.302205
-473.876953,588.226318,662.109375,0.303010
-469.573975,596.099854,655.059814,0.303818
-470.764160,596.740723,658.172607,0.304584
-473.236084,593.994141,647.186279,0.305367
-471.038818,600.402832,648.559570,0.306126
-474.243164,593.994141,656.982422,0.306923
-471.313477,590.332031,659.362793,0.307687
-472.412109,591.156006,655.883789,0.308449
-471.496582,585.937500,660.827637,0.309209
-470.489502,588.500977,664.947510,0.309960
-480.377197,592.071533,659.179688,0.310708
-480.651855,590.972900,659.820557,0.311458
-476.715088,592.346191,662.567139,0.312247
-482.299805,587.860107,657.440186,0.313006
-475.158691,584.381104,658.538818,0.313771
-476.715088,583.374023,657.257080,0.314528
-470.672607,592.895508,661.285400,0.315288
-473.693848,569.458008,662.750244,0.316046
-474.060059,588.317871,656.066895,0.316804
-481.750488,584.197998,654.418945,0.317566
-477.905273,592.620850,658.996582,0.318358
-472.961426,583.099365,652.038574,0.319128
-470.397949,592.803955,658.905029,0.319885
-490.997314,590.881348,654.510498,0.320643
-472.595215,588.775635,662.567139,0.321430
-469.482422,589.965820,661.651611,0.322199
-491.638184,580.535889,656.250000,0.322961
-473.876953,582.092285,633.636475,0.323722
-480.743408,583.007812,660.369873,0.324511
-473.876953,586.029053,648.925781,0.325277
-475.433350,586.669922,654.327393,0.326039
-482.666016,576.782227,649.841309,0.326799
-484.039307,575.408936,653.137207,0.327573
-480.834961,570.373535,650.207520,0.328323
-475.067139,572.845459,662.475586,0.329066
-477.081299,563.598633,660.095215,0.329811
-477.447510,573.669434,657.714844,0.330609
-473.144531,572.845459,651.855469,0.331380
-475.433350,576.324463,647.460938,0.332147
-474.243164,573.577881,650.573730,0.332912
-475.158691,572.113037,652.313232,0.333711
-450.531006,580.627441,656.707764,0.334584
-474.792480,581.542969,657.165527,0.335349
-478.363037,570.739746,653.137207,0.336112
-483.947754,572.570801,650.115967,0.336877
-473.968506,574.493408,646.820068,0.337640
-470.031738,574.493408,648.925781,0.338400
-454.010010,580.169678,652.770996,0.339156
-468.933105,584.930420,654.602051,0.339906
-473.693848,575.408936,661.468506,0.340656
-469.207764,574.676514,651.397705,0.341404
-468.475342,573.303223,658.813477,0.342204
-464.996338,576.690674,649.932861,0.342969
-467.102051,568.725586,645.172119,0.343731
-462.707520,576.507568,647.003174,0.344496
-466.735840,581.817627,654.785156,0.345281
-468.383789,588.958740,654.785156,0.346046
-462.158203,583.282471,656.433105,0.346807
-463.623047,582.000732,654.327393,0.347570
-463.256836,577.423096,646.911621,0.348359
-467.926025,581.817627,654.602051,0.349135
-470.672607,578.063965,657.714844,0.349907
-477.996826,583.190918,656.066895,0.350676
-475.616455,579.986572,651.306152,0.351472
-475.708008,571.105957,653.686523,0.352243
-467.742920,580.810547,655.975342,0.353029
-464.630127,583.282471,653.137207,0.353825
-467.651367,585.571289,646.911621,0.354599
-468.658447,571.197510,650.756836,0.355364
-464.904785,581.817627,654.144287,0.356178
-466.461182,580.810547,654.876709,0.356948
-468.750000,576.141357,653.686523,0.357711
-468.566895,572.479248,646.087646,0.358470
-466.369629,582.458496,649.383545,0.359243
-465.087891,584.472656,661.102295,0.360003
-462.524414,579.620361,658.538818,0.360761
-464.447021,580.535889,662.017822,0.361519
-465.362549,577.056885,650.115967,0.362300
-463.439941,575.775146,652.313232,0.363055
-464.813232,574.035645,654.327393,0.363802
-463.165283,571.105957,660.095215,0.364550
-462.341309,581.268311,656.890869,0.365314
-462.066650,573.303223,650.756836,0.366071
-453.460693,577.514648,654.602051,0.366827
-464.813232,580.718994,650.207520,0.367586
-465.545654,586.303711,657.440186,0.368367
-460.876465,581.268311,651.214600,0.369150
-453.369141,584.197998,651.306152,0.369911
-461.425781,583.007812,651.123047,0.370682
-460.510254,582.733154,653.411865,0.371487
-461.883545,585.571289,661.743164,0.372242
-459.136963,591.064453,664.123535,0.372991
-452.819824,586.120605,660.369873,0.373795
-452.545166,585.205078,667.877197,0.374550
-464.996338,592.071533,657.257080,0.375295
-461.059570,586.029053,662.109375,0.376043
-458.587646,604.156494,662.933350,0.376799
-457.305908,587.585449,657.623291,0.377547
-467.926025,588.226318,657.073975,0.378294
-463.348389,588.409424,665.496826,0.379043
-462.890625,583.282471,660.186768,0.379809
-462.341309,587.493896,665.405273,0.380559
-463.531494,599.304199,664.031982,0.381306
-463.989258,594.635010,664.123535,0.382051
-457.855225,589.874268,654.693604,0.382814
-459.503174,593.170166,660.369873,0.383565
-462.615967,595.733643,659.179688,0.384312
-460.693359,590.332031,660.095215,0.385059
-464.721680,599.670410,664.581299,0.385830
-462.158203,592.987061,658.172607,0.386616
-469.024658,594.268799,666.595459,0.387377
-470.581055,601.409912,656.799316,0.388135
-466.369629,586.029053,653.320312,0.388919
-466.735840,595.184326,660.369873,0.389677
-466.552734,595.458984,667.694092,0.390435
-469.024658,596.282959,659.362793,0.391194
-447.143555,588.226318,665.588379,0.391977
-475.433350,600.402832,662.933350,0.392736
-473.327637,594.543457,662.567139,0.393498
-476.165771,594.177246,661.743164,0.394256
-472.778320,590.332031,666.320801,0.395028
-474.426270,596.649170,661.285400,0.395777
-471.588135,597.564697,659.271240,0.396544
-466.369629,602.966309,664.672852,0.397311
-465.911865,597.015381,667.785645,0.398100
-469.940186,590.423584,660.736084,0.398898
-474.792480,596.282959,659.454346,0.399681
-476.348877,598.022461,662.017822,0.400470
-479.644775,593.261719,657.531738,0.401233
-473.510742,599.853516,663.024902,0.401990
-479.370117,595.825195,662.475586,0.402772
-478.271484,599.487305,661.926270,0.403535
-482.574463,594.360352,663.665771,0.404297
-485.595703,600.860596,665.405273,0.405053
-484.313965,604.339600,655.975342,0.405809
-482.849121,596.923828,660.644531,0.406577
-478.729248,589.050293,664.123535,0.407389
-474.243164,593.719482,657.714844,0.408137
-472.229004,588.684082,657.531738,0.408884
-477.355957,594.451904,659.179688,0.409683
-476.165771,598.480225,661.285400,0.410443
-471.130371,593.719482,658.630371,0.411201
-477.539062,597.930908,654.876709,0.411962
-470.855713,590.423584,656.982422,0.412745
-470.397949,591.613770,660.186768,0.413533
-476.165771,591.705322,655.700684,0.414292
-477.905273,593.078613,659.912109,0.415051
-465.911865,600.860596,659.088135,0.415855
-476.074219,594.268799,660.919189,0.416619
-475.067139,596.008301,662.841797,0.417374
-478.454590,582.000732,669.982910,0.418131
-472.595215,595.825195,653.503418,0.418918
-468.566895,593.353271,660.369873,0.419681
-471.221924,589.324951,652.679443,0.420438
-474.609375,592.803955,652.954102,0.421201
-472.137451,595.275879,655.517578,0.421953
-473.876953,589.141846,652.038574,0.422704
-476.715088,608.734131,650.482178,0.423483
-467.193604,585.021973,652.587891,0.424301
-467.651367,587.310791,651.855469,0.425061
-474.243164,606.262207,657.348633,0.425821
-473.785400,590.148926,655.334473,0.426593
-470.581055,585.662842,654.602051,0.427365
-469.848633,608.642578,655.792236,0.428142
-469.940186,582.824707,650.299072,0.428930
-469.299316,585.754395,648.559570,0.429699
-474.517822,590.148926,649.108887,0.430493
-463.439941,592.071533,650.299072,0.431277
-470.397949,586.669922,650.482178,0.432047
-469.482422,584.930420,661.651611,0.432809
-465.454102,585.479736,659.179688,0.433599
-463.348389,588.592529,660.095215,0.434368
-465.911865,586.029053,656.158447,0.435130
-446.044922,579.711914,659.729004,0.435920
-465.911865,586.212158,652.587891,0.436679
-469.390869,587.677002,650.573730,0.437435
-465.728760,587.677002,663.024902,0.438194
-458.587646,591.705322,663.208008,0.438974
-457.763672,590.423584,655.334473,0.439735
-458.129883,590.423584,657.623291,0.440498
-456.939697,588.958740,654.785156,0.441261
-464.172363,586.212158,654.327393,0.442036
-459.686279,584.838867,653.228760,0.442787
-457.672119,585.021973,648.376465,0.443536
-456.298828,584.472656,652.954102,0.444288
-460.601807,580.902100,657.623291,0.445096
-455.932617,586.029053,653.228760,0.445851
-457.855225,582.916260,651.855469,0.446596
-458.679199,584.106445,655.975342,0.447354
-462.066650,579.803467,650.207520,0.448113
-451.721191,584.289551,656.066895,0.448874
-455.474854,563.964844,652.954102,0.449632
-458.496094,579.345703,647.369385,0.450392
-458.587646,582.550049,650.573730,0.451150
-456.390381,583.831787,653.137207,0.451908
-456.573486,579.345703,658.630371,0.452667
-450.531006,585.571289,649.291992,0.453463
-451.904297,581.268311,657.073975,0.454245
-453.186035,578.887939,633.087158,0.455020
-454.833984,583.648682,651.489258,0.455797
-458.679199,582.824707,648.193359,0.456590
-455.932617,591.156006,647.918701,0.457351
-457.397461,585.662842,651.672363,0.458113
-455.841064,584.472656,657.440186,0.458873
-448.791504,589.782715,658.813477,0.459648
-448.150635,586.761475,653.228760,0.460400
-448.608398,584.106445,662.475586,0.461150
-457.855225,583.740234,633.453369,0.461899
-446.136475,581.726074,652.221680,0.462695
-446.136475,588.958740,655.609131,0.463459
-447.692871,593.444824,678.771973,0.464229
-450.256348,585.388184,659.820557,0.464990
-447.235107,588.043213,661.926270,0.465781
-452.087402,588.775635,654.052734,0.466545
-454.376221,584.197998,658.355713,0.467304
-457.122803,592.895508,657.989502,0.468064
-450.531006,592.437744,638.214111,0.468847
-453.369141,583.465576,656.158447,0.469609
-450.256348,588.958740,655.792236,0.470367
-450.073242,583.374023,651.947021,0.471124
-450.256348,589.691162,649.200439,0.471904
-451.629639,585.113525,653.045654,0.472653
-450.988770,587.768555,652.404785,0.473402
-456.573486,588.775635,653.594971,0.474187
-446.136475,598.571777,658.172607,0.474950
-458.129883,563.964844,659.362793,0.475742
-456.298828,589.324951,656.707764,0.476504
-459.228516,589.324951,654.785156,0.477260
-453.643799,584.655762,658.081055,0.478019
-463.439941,593.261719,658.081055,0.478779
-459.228516,590.972900,657.348633,0.479538
-451.904297,588.500977,656.799316,0.480328
-454.193115,590.606689,658.813477,0.481189
-457.031250,588.867188,657.257080,0.481968
-459.411621,587.585449,657.440186,0.482734
-457.580566,594.451904,658.630371,0.483524
-451.721191,591.796875,660.369873,0.484307
-455.291748,585.388184,658.813477,0.485095
-452.453613,590.148926,663.665771,0.485853
-462.799072,598.480225,652.038574,0.486647
-450.988770,591.796875,645.812988,0.487407
-451.080322,587.310791,657.531738,0.488166
-456.939697,593.353271,650.482178,0.488942
-458.862305,589.233398,656.433105,0.489713
-456.665039,585.845947,651.214600,0.490477
-455.566406,588.867188,657.897949,0.491241
-464.538574,583.923340,644.348145,0.492001
-462.158203,577.972412,646.270752,0.492753
-462.341309,582.275391,650.024414,0.493511
-454.742432,586.029053,647.369385,0.494267
-456.298828,585.479736,650.573730,0.495033
-455.200195,583.374023,645.904541,0.495803
-453.643799,574.951172,648.010254,0.496572
-462.615967,575.408936,654.144287,0.497334
-455.566406,569.000244,652.587891,0.498120
-457.397461,571.014404,644.439697,0.498881
-457.489014,576.232910,653.503418,0.499649
-459.960938,577.331543,667.602539,0.500419
-457.855225,574.127197,651.947021,0.501229
-461.334229,576.416016,650.299072,0.501998
-459.777832,574.951172,659.362793,0.502763
-462.158203,568.725586,674.835205,0.503532
-454.467773,573.211670,654.876709,0.504342
-458.770752,574.951172,653.228760,0.505114
-456.481934,575.775146,651.031494,0.505880
-464.538574,578.430176,657.897949,0.506670
-458.312988,575.042725,650.299072,0.507446
-456.115723,581.451416,646.453857,0.508215
-455.566406,580.718994,654.693604,0.508980
-453.918457,581.085205,655.883789,0.509774
-455.291748,577.331543,656.433105,0.510582
-460.144043,574.310303,655.975342,0.511348
-466.003418,577.880859,661.468506,0.512116
-468.200684,573.944092,653.137207,0.512882
-465.087891,579.803467,661.376953,0.513651
-472.229004,575.408936,656.799316,0.514416
-462.615967,582.000732,646.087646,0.515173
-457.031250,580.078125,651.397705,0.515921
-455.200195,583.923340,657.440186,0.516711
-463.531494,580.535889,648.376465,0.517483
-463.897705,583.007812,647.369385,0.518296
-466.278076,585.205078,651.214600,0.519087
-465.820312,579.254150,657.531738,0.519848
-466.644287,581.817627,660.644531,0.520601
-470.672607,582.733154,653.320312,0.521412
-474.060059,580.078125,660.552979,0.522182
-466.735840,575.775146,650.939941,0.522949
-470.397949,586.853027,654.785156,0.523751
-448.150635,584.655762,652.221680,0.524520
-473.602295,588.592529,656.066895,0.525289
-474.884033,581.634521,653.869629,0.526055
-471.679688,582.092285,649.932861,0.526829
-473.144531,585.205078,648.193359,0.527609
-476.165771,590.789795,650.299072,0.528379
-478.820801,576.324463,645.446777,0.529144
-473.785400,576.965332,652.587891,0.529946
-472.595215,580.078125,653.503418,0.530714
-470.123291,581.909180,654.418945,0.531482
-471.588135,583.282471,655.792236,0.532269
-476.348877,578.430176,656.158447,0.533072
-477.264404,577.056885,649.108887,0.533853
-472.961426,579.528809,647.827148,0.534623
-451.171875,575.683594,655.975342,0.535453
-476.989746,575.866699,654.968262,0.536229
-472.412109,580.810547,652.496338,0.537018
-471.862793,578.521729,653.594971,0.537804
-472.045898,571.929932,651.397705,0.538600
-475.708008,568.267822,655.151367,0.539379
-481.567383,577.423096,653.961182,0.540176
-474.975586,575.958252,656.890869,0.540968
-475.250244,570.098877,657.073975,0.541797
-484.222412,556.365967,651.763916,0.542595
-474.517822,575.500488,647.735596,0.543398
-473.785400,582.641602,650.665283,0.544184
-486.328125,578.063965,659.545898,0.544971
-477.813721,567.718506,658.996582,0.545761
-476.715088,572.570801,659.088135,0.546529
-469.299316,574.493408,653.320312,0.547318
-468.933105,571.197510,649.658203,0.548081
-475.708008,571.105957,654.876709,0.548844
-475.341797,565.063477,655.700684,0.549607
-477.264404,563.781738,656.707764,0.550380
-479.919434,573.577881,648.834229,0.551167
-474.792480,574.676514,655.242920,0.551936
-479.644775,573.944092,651.397705,0.552696
-481.658936,572.753906,656.341553,0.553497
-481.842041,573.211670,655.242920,0.554249
-479.827881,573.669434,645.446777,0.555114
-478.088379,573.669434,657.165527,0.555864
-474.243164,574.493408,653.137207,0.556640
-475.250244,577.972412,651.580811,0.557384
-473.144531,570.098877,633.911133,0.558128
-482.116699,572.753906,658.081055,0.558871
-479.461670,574.951172,652.587891,0.559641
-476.074219,572.296143,656.066895,0.560404
-480.743408,576.873779,655.609131,0.561173
-480.834961,575.408936,652.404785,0.561936
-482.391357,568.817139,673.370361,0.562743
-481.475830,577.789307,659.454346,0.563534
-479.736328,578.979492,650.024414,0.564336
-473.236084,573.669434,658.813477,0.565142
-480.834961,580.078125,653.869629,0.565919
-479.187012,583.099365,648.010254,0.566699
-481.018066,577.789307,654.693604,0.567477
-474.792480,579.986572,653.228760,0.568272
-477.081299,579.528809,636.016846,0.569035
-483.947754,575.225830,649.291992,0.569802
-479.461670,578.521729,657.806396,0.570571
-479.187012,580.627441,666.412354,0.571359
-486.145020,583.282471,661.743164,0.572136
-480.010986,584.564209,669.158936,0.572912
-481.475830,584.106445,656.158447,0.573687
-478.179932,587.310791,650.299072,0.574466
-466.644287,584.655762,660.552979,0.575258
-478.637695,588.684082,666.320801,0.576028
-475.982666,588.043213,658.447266,0.576820
-476.898193,589.691162,658.081055,0.577588
-471.954346,583.740234,660.644531,0.578404
-482.482910,586.120605,656.707764,0.579199
-480.926514,583.648682,657.989502,0.579977
-472.137451,582.458496,654.235840,0.580777
-477.264404,585.937500,657.623291,0.581547
-484.497070,588.226318,655.334473,0.582338
-480.194092,595.184326,655.883789,0.583106
-480.194092,589.599609,655.059814,0.583873
-480.926514,590.332031,659.729004,0.584636
-485.137939,584.564209,656.799316,0.585427
-479.919434,588.409424,659.545898,0.586188
-479.095459,588.226318,660.552979,0.586966
-475.250244,591.705322,661.285400,0.587740
-479.553223,593.811035,659.912109,0.588509
-478.363037,584.472656,660.552979,0.589318
-479.370117,591.796875,663.940430,0.590091
-482.666016,587.493896,661.834717,0.590880
-476.623535,591.979980,652.770996,0.591660
-486.968994,586.944580,658.813477,0.592425
-477.813721,585.296631,665.588379,0.593189
-476.348877,587.219238,657.165527,0.594027
-472.869873,591.613770,653.228760,0.594796
-486.419678,585.296631,659.088135,0.595558
-492.004395,588.226318,654.235840,0.596380
-492.004395,592.803955,654.968262,0.597171
-486.694336,594.360352,657.257080,0.597951
-484.680176,591.796875,654.602051,0.598735
-488.433838,595.092773,659.820557,0.599530
-490.356445,591.796875,655.700684,0.600295
-488.800049,586.944580,657.897949,0.601070
-479.095459,590.881348,657.531738,0.601855
-489.257812,586.761475,654.968262,0.602606
-490.173340,588.134766,656.341553,0.603380
-485.321045,585.388184,655.609131,0.604138
-489.898682,584.472656,652.954102,0.604925
-486.694336,580.535889,653.411865,0.605684
-482.482910,585.479736,654.235840,0.606435
-483.398438,587.677002,660.278320,0.607200
-487.701416,587.860107,661.834717,0.607957
-483.123779,586.395264,656.524658,0.608707
-482.666016,594.909668,659.362793,0.609457
-492.095947,581.542969,654.418945,0.610220
-492.279053,582.458496,645.904541,0.610973
-492.828369,581.817627,639.678955,0.611724
-494.567871,581.909180,650.115967,0.612476
-502.624512,587.585449,651.763916,0.613254
-487.701416,581.817627,650.390625,0.614018
-488.616943,577.789307,652.038574,0.614779
-481.475830,577.514648,645.996094,0.615545
-488.433838,584.472656,649.566650,0.616339
-487.060547,579.071045,650.115967,0.617105
-487.060547,591.247559,651.580811,0.617866
-482.849121,585.113525,654.510498,0.618629
-484.130859,583.740234,648.101807,0.619420
-485.412598,583.648682,651.580811,0.620191
-489.166260,590.606689,656.616211,0.620951
-478.546143,591.705322,655.792236,0.621715
-479.187012,587.036133,653.045654,0.622502
-484.588623,587.127686,658.630371,0.623267
-481.842041,592.346191,656.707764,0.624028
-478.179932,590.881348,655.517578,0.624791
-481.842041,592.895508,657.989502,0.625581
-481.018066,599.121094,654.693604,0.626342
-477.722168,597.747803,653.869629,0.627106
-477.447510,599.212646,663.574219,0.627900
-477.355957,601.776123,658.721924,0.628716
-471.130371,595.733643,657.897949,0.629467
-471.130371,599.945068,660.186768,0.630216
-468.841553,593.994141,655.700684,0.630994
-476.257324,599.670410,666.778564,0.631758
-469.299316,601.043701,654.235840,0.632522
-470.581055,592.071533,661.560059,0.633285
-468.200684,599.853516,664.581299,0.634073
-470.123291,593.902588,654.510498,0.634835
-466.369629,597.564697,653.594971,0.635598
-470.581055,593.353271,651.031494,0.636361
-463.165283,598.388672,651.855469,0.637158
-466.186523,598.205566,654.235840,0.637922
-470.031738,595.458984,656.799316,0.638685
-461.791992,607.269287,660.644531,0.639446
-460.876465,603.790283,655.975342,0.640225
-461.425781,601.409912,657.531738,0.640978
-461.151123,600.128174,654.785156,0.641730
-461.883545,605.438232,652.770996,0.642477
-461.883545,601.959229,678.039551,0.643265
-460.601807,602.874756,665.130615,0.644032
-463.439941,597.656250,657.531738,0.644792
-458.496094,595.367432,634.552002,0.645585
-463.806152,600.677490,651.763916,0.646349
-459.777832,604.248047,654.785156,0.647118
-453.002930,605.438232,661.102295,0.647902
-451.446533,604.522705,655.792236,0.648707
-455.017090,602.874756,656.524658,0.649482
-457.672119,603.332520,660.186768,0.650253
-457.397461,608.459473,653.686523,0.651016
-450.531006,600.311279,654.327393,0.651828
-453.186035,601.867676,648.559570,0.652614
-454.650879,602.600098,653.869629,0.653386
-458.679199,599.578857,656.890869,0.654203
-453.460693,602.233887,662.109375,0.654975
-446.868896,597.747803,658.172607,0.655738
-446.228027,596.557617,658.447266,0.656502
-447.692871,604.156494,658.172607,0.657294
-453.186035,591.339111,653.778076,0.658058
-452.911377,594.360352,653.778076,0.658821
-455.932617,599.670410,658.813477,0.659587
-439.086914,597.930908,662.017822,0.660347
-453.826904,586.029053,655.883789,0.661108
-448.699951,593.353271,656.250000,0.661867
-448.883057,594.177246,655.426025,0.662701
-447.143555,595.550537,658.447266,0.663497
-450.439453,597.473145,645.721436,0.664252
-449.707031,595.550537,653.137207,0.665062
-443.298340,601.043701,657.623291,0.665828
-446.044922,592.254639,659.820557,0.666582
-445.678711,588.592529,653.228760,0.667337
-445.678711,588.500977,662.933350,0.668124
-449.890137,592.346191,661.376953,0.668875
-447.052002,598.480225,653.228760,0.669625
-447.052002,595.092773,658.172607,0.670373
-456.848145,590.332031,657.806396,0.671158
-444.671631,597.290039,652.679443,0.671913
-449.432373,600.311279,660.095215,0.672669
-451.354980,589.141846,654.144287,0.673419
-455.017090,597.198486,653.411865,0.674205
-453.277588,597.106934,651.763916,0.674958
-452.178955,592.346191,651.672363,0.675708
-452.728271,596.649170,652.313232,0.676460
-447.784424,599.304199,662.292480,0.677253
-447.692871,599.853516,661.193848,0.678019
-450.714111,588.867188,663.574219,0.678782
-449.340820,589.965820,654.052734,0.679545
-445.220947,589.416504,664.215088,0.680334
-443.847656,590.240479,657.073975,0.681101
-447.235107,594.543457,653.869629,0.681896
-443.847656,588.500977,648.559570,0.682670
-436.706543,584.472656,655.883789,0.683436
-442.840576,592.987061,654.968262,0.684231
-444.396973,585.845947,657.440186,0.684999
-440.826416,583.374023,655.700684,0.685794
-441.101074,594.177246,637.481689,0.686562
-439.910889,586.029053,647.369385,0.687368
-442.840576,580.993652,653.869629,0.688133
-447.418213,585.662842,657.806396,0.688926
-447.875977,578.887939,646.087646,0.689693
-445.953369,587.310791,646.179199,0.690457
-446.502686,564.605713,648.193359,0.691219
-446.044922,572.570801,653.778076,0.691997
-445.404053,581.359863,660.369873,0.692749
-439.270020,579.162598,651.947021,0.693501
-442.474365,590.148926,652.313232,0.694251
-443.023682,590.332031,653.869629,0.695165
-444.763184,584.472656,647.918701,0.695933
-443.115234,563.323975,656.250000,0.696701
-434.143066,587.951660,655.700684,0.697473
-434.783936,585.205078,655.517578,0.698236
-438.171387,589.233398,650.756836,0.698997
-441.925049,587.677002,643.981934,0.699795
-440.643311,584.289551,645.721436,0.700596
-446.228027,586.669922,649.841309,0.701360
-440.277100,588.775635,645.080566,0.702240
-441.375732,585.296631,651.123047,0.703006
-442.565918,583.923340,647.094727,0.703764
-447.235107,577.606201,649.932861,0.704520
-423.156738,586.212158,654.510498,0.705334
-442.657471,590.057373,651.214600,0.706104
-441.375732,586.578369,657.531738,0.706900
-450.897217,587.860107,655.700684,0.707679
-423.339844,587.127686,652.862549,0.708453
-441.192627,582.641602,653.137207,0.709249
-450.256348,591.430664,649.932861,0.710012
-450.622559,585.662842,653.411865,0.710775
-445.220947,589.508057,647.186279,0.711528
-446.868896,589.874268,647.644043,0.712319
-441.467285,585.388184,648.010254,0.713095
-452.728271,583.740234,652.313232,0.713842
-447.143555,585.113525,652.679443,0.714586
-445.495605,579.071045,654.418945,0.715385
-439.453125,597.290039,656.616211,0.716156
-443.206787,599.945068,636.016846,0.716927
-457.122803,597.015381,658.447266,0.717722
-447.967529,593.719482,652.770996,0.718500
-447.052002,589.416504,647.369385,0.719278
-454.467773,590.698242,644.073486,0.720059
-448.059082,586.578369,645.172119,0.720828
-449.066162,595.825195,658.813477,0.721583
-452.453613,590.789795,652.862549,0.722372
-456.207275,605.255127,634.277344,0.723141
-457.763672,599.121094,656.524658,0.723938
-428.741455,599.945068,655.517578,0.724707
-455.474854,600.769043,656.341553,0.725470
-457.122803,595.367432,657.531738,0.726278
-453.826904,601.684570,660.919189,0.727060
-449.890137,588.592529,663.940430,0.727832
-458.129883,587.677002,654.510498,0.728620
-463.256836,590.881348,655.242920,0.729420
-455.474854,589.874268,660.644531,0.730197
-451.263428,593.902588,651.397705,0.730969
-455.932617,597.564697,655.883789,0.731746
-462.524414,591.888428,658.996582,0.732560
-461.059570,593.536377,661.834717,0.733359
-465.179443,590.423584,656.982422,0.734138
-460.784912,593.078613,650.573730,0.734945
-461.151123,588.500977,656.616211,0.735714
-467.193604,590.515137,655.883789,0.736477
-467.468262,599.212646,659.729004,0.737246
-468.017578,589.782715,650.207520,0.738034
-466.735840,595.825195,633.544922,0.738812
-468.109131,587.036133,650.207520,0.739581
-454.467773,583.740234,649.749756,0.740345
-490.447998,589.508057,650.665283,0.741166
-473.144531,588.867188,634.002686,0.741934
-470.764160,585.754395,647.552490,0.742700
-475.524902,583.831787,649.932861,0.743485
-491.455078,586.944580,654.693604,0.744280
-462.799072,581.726074,635.375977,0.745047
-467.926025,580.810547,656.524658,0.745820
-470.489502,581.817627,652.954102,0.746617
-471.130371,577.880859,652.130127,0.747380
-473.968506,573.577881,647.369385,0.748141
-471.771240,578.796387,651.489258,0.748907
-475.708008,580.993652,653.137207,0.749674
-477.081299,577.239990,651.123047,0.750439
-477.905273,581.542969,653.045654,0.751199
-478.637695,577.606201,650.756836,0.751992
-476.440430,575.958252,650.939941,0.752772
-476.348877,581.817627,643.524170,0.753523
-479.919434,572.479248,653.869629,0.754277
-472.045898,575.225830,653.137207,0.755045
-471.405029,579.803467,656.250000,0.755841
-476.440430,575.958252,650.115967,0.756608
-484.222412,565.979004,644.439697,0.757371
-472.961426,570.465088,645.355225,0.758133
-486.968994,574.676514,654.327393,0.758925
-484.039307,563.049316,655.059814,0.759699
-479.278564,567.443848,650.024414,0.760463
-480.651855,568.542480,644.805908,0.761227
-474.151611,581.909180,644.897461,0.762017
-478.363037,568.725586,647.003174,0.762784
-481.750488,560.211182,639.129639,0.763548
-481.658936,566.253662,647.918701,0.764314
-483.398438,572.204590,649.658203,0.765083
-480.743408,569.549561,637.573242,0.765870
-486.694336,564.331055,643.890381,0.766631
-482.025146,574.676514,647.094727,0.767421
-489.532471,569.183350,650.115967,0.768175
-484.954834,567.077637,644.622803,0.768926
-469.390869,565.979004,643.249512,0.769702
-476.715088,566.619873,643.341064,0.770498
-481.201172,562.408447,649.108887,0.771264
-478.454590,563.964844,648.193359,0.772028
-477.264404,569.366455,653.869629,0.772790
-476.989746,563.323975,649.658203,0.773584
-484.863281,570.281982,651.031494,0.774351
-482.208252,568.267822,639.221191,0.775115
-479.827881,576.416016,656.524658,0.775878
-479.187012,566.802979,651.947021,0.776731
-477.905273,573.120117,650.573730,0.777543
-481.475830,570.556641,647.277832,0.778307
-483.581543,566.070557,646.728516,0.779070
-477.905273,567.626953,655.975342,0.779849
-478.820801,571.563721,650.207520,0.780622
-470.947266,571.380615,651.397705,0.781373
-476.715088,575.683594,649.749756,0.782126
-478.088379,573.577881,654.052734,0.782922
-476.531982,568.176270,652.221680,0.783688
-476.898193,570.190430,652.038574,0.784451
-473.968506,574.859619,653.320312,0.785214
-472.320557,573.669434,656.707764,0.786007
-474.700928,579.345703,654.785156,0.786772
-474.884033,573.028564,653.503418,0.787535
-477.996826,577.697754,656.066895,0.788297
-481.201172,581.268311,659.179688,0.789059
-477.447510,583.648682,653.594971,0.789821
-478.088379,574.035645,657.989502,0.790582
-469.940186,576.782227,656.250000,0.791414
-475.067139,578.063965,658.172607,0.792179
-472.412109,578.796387,659.637451,0.792939
-469.665527,582.550049,659.088135,0.793698
-462.524414,578.338623,660.552979,0.794494
-466.461182,574.584961,656.066895,0.795267
-468.475342,580.444336,649.932861,0.796060
-470.123291,583.740234,656.066895,0.796828
-466.918945,575.500488,656.250000,0.797620
-467.559814,582.092285,656.158447,0.798387
-468.292236,581.726074,658.721924,0.799149
-465.637207,579.071045,676.666260,0.799934
-466.461182,582.092285,652.404785,0.800717
-460.601807,578.063965,654.327393,0.801486
-461.883545,573.669434,653.228760,0.802285
-464.447021,574.401855,653.411865,0.803081
-466.918945,577.056885,655.609131,0.803844
-468.750000,575.500488,657.897949,0.804609
-464.538574,575.225830,660.186768,0.805370
-469.390869,578.613281,657.531738,0.806156
-465.179443,578.155518,648.834229,0.806935
-463.989258,570.556641,653.778076,0.807700
-466.369629,576.873779,635.375977,0.808459
-473.052979,573.486328,654.052734,0.809312
-469.573975,579.895020,653.778076,0.810068
-472.137451,574.401855,654.144287,0.810819
-468.933105,572.296143,650.756836,0.811601
-473.236084,575.592041,650.848389,0.812356
-469.482422,577.423096,651.855469,0.813110
-468.475342,570.831299,652.954102,0.813861
-470.947266,574.493408,658.264160,0.814647
-469.207764,571.746826,652.404785,0.815400
-472.229004,582.641602,652.587891,0.816159
-476.715088,575.317383,660.736084,0.816908
-471.679688,577.239990,653.503418,0.817694
-470.947266,571.655273,647.918701,0.818445
-474.975586,575.042725,655.792236,0.819193
-478.088379,573.394775,656.433105,0.819954
-472.686768,576.232910,674.926758,0.820752
-476.715088,576.690674,654.968262,0.821514
-470.581055,581.085205,656.799316,0.822278
-470.947266,585.754395,659.362793,0.823039
-478.912354,578.704834,643.890381,0.823831
-480.834961,581.085205,650.115967,0.824598
-478.179932,582.092285,651.397705,0.825361
-484.863281,583.831787,648.742676,0.826122
-483.764648,590.240479,655.151367,0.826900
-477.264404,579.528809,653.320312,0.827654
-485.687256,583.099365,651.123047,0.828404
-485.321045,586.212158,649.749756,0.829156
-476.989746,584.747314,652.221680,0.829948
-480.285645,585.662842,655.334473,0.830704
-481.842041,584.197998,656.433105,0.831455
-479.644775,592.620850,658.172607,0.832235
-481.567383,586.669922,651.031494,0.833001
-484.771729,588.226318,659.912109,0.833764
-483.764648,592.254639,659.088135,0.834529
-484.039307,596.008301,653.503418,0.835297
-485.137939,599.670410,658.355713,0.836061
-475.616455,589.782715,662.841797,0.836827
-482.025146,591.888428,657.897949,0.837590
-482.391357,590.606689,655.242920,0.838363
-480.468750,594.635010,661.834717,0.839126
-478.912354,594.085693,659.454346,0.839890
-486.236572,600.036621,652.496338,0.840653
-483.581543,601.409912,655.792236,0.841415
-490.081787,601.409912,646.911621,0.842178
-487.243652,596.374512,652.954102,0.842941
-490.447998,602.233887,659.729004,0.843702
-479.370117,605.346680,647.186279,0.844521
-486.053467,599.395752,658.264160,0.845287
-485.778809,603.698730,651.947021,0.846046
-486.785889,604.980469,656.524658,0.846816
-484.313965,597.930908,656.616211,0.847601
-481.750488,602.142334,654.235840,0.848366
-480.651855,603.057861,677.581787,0.849149
-483.947754,603.057861,652.770996,0.850001
-482.025146,611.297607,645.996094,0.850768
-475.982666,610.656738,653.503418,0.851534
-479.370117,604.797363,652.038574,0.852303
-477.630615,603.424072,651.031494,0.853118
-484.588623,601.318359,650.756836,0.853904
-484.588623,603.881836,647.186279,0.854684
-482.574463,609.741211,647.460938,0.855459
-483.398438,607.910156,649.108887,0.856251
-491.729736,601.776123,648.834229,0.857016
-480.834961,610.107422,659.088135,0.857778
-480.743408,609.741211,651.031494,0.858540
-479.095459,610.198975,646.362305,0.859325
-478.179932,604.888916,644.989014,0.860077
-477.539062,611.389160,658.905029,0.860826
-478.820801,607.177734,652.404785,0.861574
-483.306885,615.051270,636.199951,0.862370
-480.560303,616.607666,658.081055,0.863137
-475.982666,613.311768,658.538818,0.863898
-480.834961,612.121582,662.292480,0.864665
-473.876953,607.727051,664.215088,0.865427
-476.257324,608.184814,664.764404,0.866191
-473.876953,614.776611,663.116455,0.866962
-480.834961,611.114502,658.447266,0.867721
-485.137939,611.297607,660.552979,0.868484
-485.321045,607.543945,649.841309,0.869254
-472.778320,615.875244,653.778076,0.870024
-482.849121,616.790771,659.454346,0.870817
-478.820801,620.178223,657.623291,0.871592
-481.842041,616.790771,659.088135,0.872355
-476.074219,614.593506,658.538818,0.873124
-480.102539,610.748291,657.348633,0.873920
-478.637695,618.438721,655.242920,0.874704
-476.348877,617.706299,652.313232,0.875470
-476.898193,611.755371,648.651123,0.876258
-472.869873,611.114502,654.418945,0.877026
-476.806641,622.558594,656.616211,0.877792
-475.616455,624.481201,659.545898,0.878553
-474.334717,611.846924,663.574219,0.879322
-473.602295,610.565186,658.630371,0.880092
-473.236084,614.135742,657.165527,0.880857
-471.496582,616.790771,655.700684,0.881622
-474.609375,621.276855,650.390625,0.882386
-477.813721,615.875244,644.622803,0.883149
-476.348877,613.952637,650.665283,0.883915
-480.834961,632.720947,662.933350,0.884683
-473.052979,616.699219,658.721924,0.885465
-470.764160,616.333008,656.890869,0.886220
-470.489502,616.149902,661.285400,0.886972
-473.236084,615.142822,652.038574,0.887724
-468.200684,613.494873,658.630371,0.888523
-463.714600,592.529297,656.524658,0.889293
-465.270996,610.565186,655.059814,0.890059
-462.524414,614.501953,650.299072,0.890822
-456.390381,612.854004,663.665771,0.891614
-462.799072,610.015869,660.827637,0.892381
-456.573486,608.642578,657.531738,0.893146
-456.298828,614.410400,654.418945,0.893911
-460.784912,603.881836,660.369873,0.894702
-463.073730,605.255127,658.081055,0.895471
-465.911865,629.516602,657.348633,0.896236
-458.312988,606.811523,653.869629,0.897001
-452.362061,609.100342,660.003662,0.897779
-457.763672,609.924316,658.264160,0.898534
-459.594727,607.360840,654.327393,0.899285
-461.242676,604.064941,655.059814,0.900037
-451.995850,595.184326,664.672852,0.900829
-456.024170,604.156494,654.418945,0.901600
-450.164795,602.142334,657.440186,0.902369
-455.566406,598.388672,661.834717,0.903148
-456.390381,601.593018,678.588867,0.903934
-452.362061,600.952148,659.545898,0.904693
-454.284668,597.106934,658.447266,0.905450
-454.650879,598.663330,659.454346,0.906238
-457.122803,599.212646,678.588867,0.907012
-452.545166,603.240967,656.066895,0.907778
-448.883057,596.557617,653.594971,0.908544
-454.650879,593.994141,649.749756,0.909340
-455.108643,592.529297,653.503418,0.910136
-428.741455,593.536377,645.996094,0.910899
-452.545166,590.240479,639.312744,0.911662
-446.228027,592.163086,644.714355,0.912439
-450.347900,593.078613,646.362305,0.913194
-450.897217,593.444824,651.489258,0.913952
-448.791504,598.571777,654.052734,0.914705
-467.376709,595.642090,657.073975,0.915501
-443.664551,592.803955,649.841309,0.916270
-442.840576,594.635010,654.602051,0.917037
-447.143555,593.902588,655.151367,0.917803
-452.636719,590.972900,645.996094,0.918572
-445.220947,605.346680,655.700684,0.919360
-448.059082,593.811035,652.496338,0.920128
-451.721191,590.972900,661.193848,0.920890
-442.840576,596.374512,661.560059,0.921655
-446.502686,600.128174,657.806396,0.922419
-446.502686,595.184326,657.714844,0.923257
-459.594727,596.008301,654.785156,0.924051
-454.742432,590.881348,651.580811,0.924838
-422.698975,589.599609,655.517578,0.925603
-443.115234,605.712891,659.729004,0.926367
-446.044922,598.754883,653.869629,0.927145
-466.827393,597.198486,651.306152,0.927899
-454.101562,597.198486,651.397705,0.928649
-452.728271,599.395752,659.271240,0.929401
-446.594238,602.783203,650.665283,0.930194
-448.791504,600.402832,662.475586,0.930965
-445.495605,601.684570,654.235840,0.931735
-451.629639,597.930908,654.876709,0.932499
-447.143555,591.613770,652.313232,0.933285
-444.488525,600.219727,656.616211,0.934051
-448.791504,600.036621,654.052734,0.934817
-452.636719,594.818115,650.207520,0.935608
-441.741943,595.275879,650.756836,0.936386
-446.594238,598.480225,656.799316,0.937151
-448.150635,601.409912,655.334473,0.937915
-450.073242,605.712891,652.404785,0.938679
-447.235107,599.029541,654.418945,0.939465
-448.242188,598.663330,655.883789,0.940221
-450.164795,597.564697,648.284912,0.940971
-442.474365,593.353271,652.130127,0.941729
-452.545166,588.592529,647.460938,0.942498
-446.594238,594.451904,646.453857,0.943265
-444.030762,595.092773,641.510010,0.944024
-442.474365,587.127686,643.341064,0.944837
-448.791504,594.268799,648.193359,0.945619
-450.988770,591.339111,651.672363,0.946401
-452.728271,592.712402,654.510498,0.947249
-457.763672,602.416992,654.693604,0.948065
-460.876465,593.444824,649.932861,0.948855
-460.601807,595.916748,649.658203,0.949634
-453.186035,591.430664,645.446777,0.950421
-451.995850,591.888428,645.355225,0.951203
-452.270508,590.240479,642.700195,0.951994
-448.883057,594.268799,654.693604,0.952781
-449.249268,597.839355,645.904541,0.953625
-452.453613,595.367432,650.939941,0.954404
-447.967529,592.620850,653.686523,0.955177
-445.129395,588.500977,651.123047,0.955938
-447.784424,591.156006,654.785156,0.956748
-447.784424,597.381592,643.615723,0.957505
-449.798584,598.754883,654.235840,0.958256
-451.171875,606.994629,654.235840,0.959018
-447.509766,594.177246,647.552490,0.959768
-444.671631,595.550537,651.306152,0.960513
-442.199707,603.424072,654.327393,0.961249
-436.706543,602.874756,659.545898,0.961986
-444.396973,602.691650,654.785156,0.962760
-443.115234,600.677490,655.151367,0.963544
-445.312500,598.571777,655.975342,0.964306
-449.981689,596.099854,653.137207,0.965097
-451.812744,596.008301,655.334473,0.965858
-452.545166,596.466064,650.848389,0.966613
-448.059082,592.712402,650.939941,0.967364
-446.136475,590.057373,651.397705,0.968150
-454.559326,591.339111,651.855469,0.968908
-446.044922,592.254639,650.665283,0.969661
-449.157715,592.987061,647.094727,0.970412
-448.699951,586.578369,651.306152,0.971198
-452.178955,590.698242,648.010254,0.971952
-448.333740,585.754395,645.904541,0.972747
-443.481445,591.430664,652.313232,0.973503
-451.812744,582.092285,648.101807,0.974300
-446.228027,586.761475,656.433105,0.975068
-445.404053,582.641602,655.334473,0.975818
-450.897217,586.578369,653.594971,0.976588
-454.376221,578.430176,653.228760,0.977345
-455.841064,579.162598,650.756836,0.978099
-451.538086,574.859619,646.911621,0.978853
-454.284668,580.718994,651.672363,0.979622
-456.024170,600.219727,645.538330,0.980389
-456.298828,583.831787,644.897461,0.981157
-452.178955,577.972412,649.291992,0.981927
-457.672119,572.937012,645.355225,0.982682
-456.115723,575.866699,647.918701,0.983439
-452.545166,576.416016,647.644043,0.984192
-467.926025,575.317383,648.834229,0.984946
-458.312988,574.401855,637.298584,0.985770
-451.171875,579.345703,645.172119,0.986536
-456.573486,570.373535,645.538330,0.987328
-457.580566,582.275391,643.615723,0.988101
-455.566406,582.092285,654.052734,0.988897
-458.312988,583.465576,649.749756,0.989669
-455.474854,579.437256,647.552490,0.990436
-452.362061,581.542969,651.397705,0.991199
-455.200195,588.317871,658.630371,0.991995
-462.158203,589.965820,639.404297,0.992764
-457.489014,588.958740,655.059814,0.993528
-454.742432,585.937500,653.320312,0.994299
-462.615967,577.239990,649.108887,0.995083
-464.630127,581.909180,647.918701,0.995836
-457.489014,586.761475,648.742676,0.996706
-461.334229,564.788818,647.552490,0.997479
-460.601807,580.535889,652.221680,0.998250
-457.305908,597.015381,648.742676,0.999017
-463.714600,589.782715,652.313232,0.999783
-461.517334,586.029053,649.108887,1.000548
-456.481934,581.542969,655.792236,1.001326
-469.482422,587.585449,652.496338,1.002097
-466.278076,586.761475,655.426025,1.002861
-465.362549,593.902588,651.489258,1.003660
-467.834473,589.965820,644.256592,1.004431
-474.334717,592.620850,656.982422,1.005197
-478.637695,588.409424,653.137207,1.005963
-489.715576,584.381104,654.144287,1.006756
-469.848633,593.811035,656.250000,1.007522
-473.419189,585.571289,656.341553,1.008291
-473.510742,591.247559,652.221680,1.009055
-474.700928,584.289551,654.327393,1.009836
-473.693848,585.388184,652.221680,1.010592
-477.447510,581.817627,650.207520,1.011367
-474.609375,576.324463,653.503418,1.012151
-474.334717,589.782715,654.144287,1.012922
-477.172852,585.113525,657.531738,1.013688
-476.715088,585.113525,656.707764,1.014456
-478.088379,580.718994,655.059814,1.015221
-480.834961,580.169678,654.693604,1.016000
-483.123779,582.275391,650.848389,1.016773
-476.989746,583.557129,655.059814,1.017542
-476.165771,576.782227,651.580811,1.018305
-479.370117,584.381104,654.144287,1.019096
-479.187012,577.514648,652.130127,1.019886
-481.933594,576.599121,651.306152,1.020658
-486.328125,574.127197,646.270752,1.021475
-480.468750,578.247070,650.573730,1.022264
-477.264404,575.592041,646.453857,1.023030
-481.384277,579.528809,655.975342,1.023788
-479.278564,582.092285,649.108887,1.024577
-476.165771,580.078125,649.017334,1.025340
-478.179932,579.528809,644.439697,1.026104
-481.201172,575.408936,652.221680,1.026866
-481.933594,579.437256,648.925781,1.027631
-490.173340,570.190430,647.003174,1.028393
-477.905273,576.416016,657.073975,1.029157
-484.222412,579.986572,656.799316,1.029988
-482.666016,581.451416,650.115967,1.030742
-482.025146,576.599121,650.848389,1.031493
-482.849121,580.718994,647.918701,1.032244
-474.151611,584.106445,649.383545,1.033027
-477.905273,578.887939,657.073975,1.033798
-480.285645,581.359863,655.059814,1.034559
-485.321045,576.232910,653.869629,1.035319
-473.968506,576.324463,656.524658,1.036102
-478.546143,580.993652,652.954102,1.036864
-483.215332,573.303223,650.756836,1.037624
-475.158691,586.944580,656.433105,1.038382
-478.271484,575.317383,656.066895,1.039171
-480.743408,585.479736,659.820557,1.039934
-477.813721,582.641602,654.235840,1.040695
-479.370117,580.352783,652.313232,1.041456
-474.884033,581.542969,654.693604,1.042235
-473.327637,581.726074,651.672363,1.042986
-478.363037,582.641602,659.637451,1.043735
-479.553223,591.705322,660.461426,1.044483
-483.947754,590.148926,655.151367,1.045281
-471.679688,593.536377,655.700684,1.046042
-477.355957,592.529297,652.313232,1.046803
-479.919434,586.029053,659.637451,1.047568
-476.715088,585.754395,656.524658,1.048346
-479.827881,595.916748,654.693604,1.049100
-479.736328,590.789795,658.538818,1.049851
-477.447510,587.951660,660.003662,1.050597
-476.440430,584.747314,658.630371,1.051386
-477.905273,587.860107,654.602051,1.052148
-474.700928,585.845947,656.524658,1.052905
-476.806641,594.177246,663.116455,1.053665
-473.236084,590.881348,655.059814,1.054484
-480.010986,592.163086,655.792236,1.055249
-474.426270,598.205566,650.115967,1.056028
-473.144531,599.670410,656.524658,1.056822
-474.334717,593.811035,660.827637,1.057598
-475.341797,593.719482,656.066895,1.058409
-477.630615,589.141846,652.862549,1.059172
-477.172852,594.177246,648.742676,1.059967
-481.750488,592.163086,650.848389,1.060730
-478.820801,592.895508,651.031494,1.061489
-473.144531,587.402344,648.651123,1.062275
-479.827881,590.332031,659.362793,1.063038
-474.151611,587.951660,664.123535,1.063800
-479.187012,587.219238,650.482178,1.064558
-481.018066,585.388184,645.538330,1.065359
-468.292236,591.796875,654.693604,1.066111
-476.257324,587.951660,651.214600,1.066863
-474.609375,581.909180,651.763916,1.067613
-481.567383,589.691162,652.679443,1.068379
-478.820801,590.240479,646.087646,1.069147
-478.820801,587.951660,654.418945,1.069910
-474.609375,595.184326,656.524658,1.070760
-474.517822,587.768555,653.961182,1.071546
-478.729248,587.860107,650.939941,1.072308
-479.553223,590.698242,656.433105,1.073069
-469.390869,585.388184,650.756836,1.073849
-480.560303,583.557129,678.314209,1.074630
-474.792480,590.148926,660.552979,1.075391
-478.820801,585.205078,649.383545,1.076180
-477.172852,564.880371,644.439697,1.076940
-472.778320,584.289551,647.277832,1.077726
-481.292725,585.937500,653.869629,1.078487
-483.032227,582.824707,651.672363,1.079246
-478.454590,579.071045,659.545898,1.080014
-471.954346,587.036133,652.954102,1.080801
-478.363037,563.873291,651.123047,1.081561
-482.574463,588.958740,645.996094,1.082315
-478.820801,584.381104,643.615723,1.083061
-469.848633,591.430664,643.066406,1.083837
-476.715088,589.874268,649.291992,1.084600
-475.067139,586.212158,648.193359,1.085359
-475.433350,584.930420,655.426025,1.086147
-480.377197,579.711914,649.932861,1.086939
-470.397949,589.508057,662.750244,1.087727
-467.102051,585.021973,653.961182,1.088516
-474.060059,588.409424,655.609131,1.089344
-475.891113,582.733154,647.186279,1.090125
-475.067139,586.395264,653.503418,1.090904
-475.708008,580.169678,654.693604,1.091687
-474.792480,584.655762,653.686523,1.092491
-474.334717,575.500488,645.812988,1.093264
-476.348877,594.726562,661.010742,1.094035
-477.539062,586.669922,651.397705,1.094836
-476.440430,588.043213,654.418945,1.095615
-483.032227,580.535889,648.101807,1.096402
-480.102539,580.352783,654.968262,1.097178
-469.116211,582.824707,652.587891,1.097979
-481.018066,577.972412,658.721924,1.098760
-470.764160,575.775146,656.799316,1.099548
-474.060059,577.423096,650.207520,1.100319
-482.940674,572.479248,645.172119,1.101133
-479.095459,576.690674,642.974854,1.101905
-475.616455,577.239990,655.700684,1.102666
-471.588135,570.922852,649.383545,1.103424
-471.496582,580.627441,647.186279,1.104227
-473.052979,586.486816,645.538330,1.104994
-468.109131,572.937012,646.087646,1.105765
-476.806641,570.281982,651.306152,1.106554
-469.024658,570.007324,653.778076,1.107311
-491.363525,574.218750,646.362305,1.108084
-470.764160,571.197510,656.616211,1.108839
-464.904785,566.070557,652.130127,1.109612
-491.455078,574.676514,646.820068,1.110366
-465.179443,582.275391,650.482178,1.111116
-466.094971,578.979492,647.827148,1.111868
-464.721680,575.317383,650.299072,1.112538
-469.757080,575.958252,652.130127,1.113287
-466.094971,581.268311,651.947021,1.114034
-470.947266,574.951172,645.538330,1.114780
-467.285156,572.204590,648.010254,1.115567
-460.235596,582.550049,652.038574,1.116315
-465.728760,586.303711,650.024414,1.117061
-464.447021,587.402344,654.876709,1.117812
-454.742432,586.303711,653.686523,1.118599
-458.404541,590.698242,657.531738,1.119351
-465.911865,592.437744,660.827637,1.120101
-454.650879,589.782715,659.912109,1.120879
-462.158203,584.472656,660.736084,1.121634
-457.122803,592.895508,654.144287,1.122381
-462.707520,587.127686,653.778076,1.123128
-459.594727,582.275391,663.391113,1.123911
-454.101562,595.367432,652.313232,1.124662
-457.214355,603.240967,663.757324,1.125414
-457.214355,592.529297,661.376953,1.126163
-451.171875,592.163086,658.996582,1.126941
-449.340820,593.078613,649.749756,1.127694
-458.221436,594.085693,659.454346,1.128443
-457.855225,594.360352,663.116455,1.129190
-457.489014,595.550537,657.257080,1.129962
-456.665039,601.776123,657.989502,1.130726
-463.348389,597.747803,653.045654,1.131488
-453.918457,595.367432,655.792236,1.132251
-457.580566,604.614258,657.165527,1.133041
-454.925537,597.930908,656.799316,1.133801
-456.848145,599.578857,662.475586,1.134565
-455.841064,599.029541,660.552979,1.135323
-453.460693,588.775635,662.933350,1.136121
-458.312988,598.571777,661.285400,1.136905
-457.580566,597.106934,662.017822,1.137695
-456.115723,602.874756,657.165527,1.138487
-457.855225,597.290039,662.292480,1.139329
-456.665039,595.825195,653.137207,1.140115
-457.489014,600.769043,658.081055,1.140886
-451.538086,601.501465,658.172607,1.141677
-454.650879,593.353271,656.524658,1.142452
-450.988770,597.290039,654.968262,1.143219
-460.693359,597.381592,658.355713,1.144082
-466.461182,598.297119,656.616211,1.144851
-464.630127,595.642090,660.003662,1.145646
-460.052490,594.360352,655.883789,1.146415
-459.777832,598.022461,655.059814,1.147177
-459.869385,591.064453,659.912109,1.147971
-457.946777,594.543457,657.989502,1.148738
-457.397461,596.923828,652.954102,1.149502
-457.489014,597.015381,657.989502,1.150268
-455.841064,593.994141,652.404785,1.151054
-458.404541,593.627930,657.257080,1.151886
-464.080811,591.522217,657.714844,1.152651
-461.700439,600.585938,658.447266,1.153415
-462.249756,591.430664,659.088135,1.154210
-462.799072,591.796875,662.200928,1.154975
-462.799072,590.698242,656.066895,1.155742
-461.059570,591.430664,658.264160,1.156507
-457.946777,589.324951,663.024902,1.157273
-456.024170,598.297119,655.151367,1.158036
-462.524414,588.592529,655.609131,1.158801
-455.566406,597.381592,657.440186,1.159564
-464.263916,595.001221,656.982422,1.160316
-458.038330,599.395752,660.186768,1.161070
-456.481934,591.430664,655.883789,1.161820
-452.911377,601.959229,653.869629,1.162588
-446.411133,595.916748,654.235840,1.163360
-450.897217,596.923828,652.862549,1.164127
-446.685791,597.656250,653.961182,1.164901
-468.383789,597.564697,653.686523,1.165692
-449.707031,606.262207,655.700684,1.166458
-443.939209,594.360352,658.996582,1.167222
-446.319580,592.163086,656.890869,1.167988
-445.404053,595.733643,663.848877,1.168782
-444.946289,591.064453,654.785156,1.169575
-449.707031,587.768555,660.095215,1.170338
-447.601318,589.782715,655.700684,1.171113
-444.030762,592.895508,653.869629,1.171919
-447.143555,585.021973,646.453857,1.172706
-443.481445,585.662842,655.883789,1.173499
-424.163818,584.747314,656.433105,1.174269
-447.235107,587.402344,654.052734,1.175032
-444.122314,584.014893,645.721436,1.175796
-443.298340,579.895020,650.573730,1.176560
-451.263428,575.317383,644.256592,1.177344
-441.925049,582.183838,647.277832,1.178107
-444.305420,577.056885,646.087646,1.178875
-434.692383,590.515137,647.186279,1.179640
-445.587158,588.592529,650.024414,1.180415
-447.143555,585.021973,649.017334,1.181172
-443.298340,593.170166,658.355713,1.181922
-442.749023,595.642090,648.193359,1.182675
-443.206787,600.311279,660.736084,1.183471
-441.741943,606.353760,675.567627,1.184245
-437.988281,599.945068,660.003662,1.185011
-441.192627,605.621338,658.355713,1.185775
-436.431885,608.734131,661.285400,1.186558
-426.452637,610.839844,663.299561,1.187324
-435.882568,605.438232,659.820557,1.188117
-436.157227,604.064941,660.461426,1.188879
-424.621582,605.255127,664.031982,1.189665
-413.177490,604.339600,672.088623,1.190432
-392.578125,615.417480,669.342041,1.191198
-402.374268,605.529785,674.377441,1.191967
-442.291260,589.050293,684.173584,1.192723
-444.213867,592.529297,676.757812,1.193476
-472.320557,596.374512,665.130615,1.194229
-462.249756,599.121094,669.158936,1.194991
-465.911865,612.487793,666.778564,1.195756
-452.819824,620.178223,671.905518,1.196518
-447.692871,617.706299,667.419434,1.197285
-446.411133,617.980957,666.320801,1.198045
-460.418701,602.416992,650.939941,1.198813
-449.798584,600.402832,633.087158,1.199565
-457.580566,614.227295,640.411377,1.200317
-445.404053,615.325928,634.368896,1.201085
-444.213867,626.678467,652.587891,1.201847
-452.911377,623.748779,671.630859,1.202657
-458.129883,623.107910,677.032471,1.203421
-471.405029,646.728516,694.702148,1.204205
-502.990723,629.608154,694.244385,1.204967
-530.822754,631.896973,707.244873,1.205729
-531.097412,628.875732,703.216553,1.206493
-505.828857,627.960205,699.096680,1.207280
-489.715576,638.305664,712.738037,1.208044
-469.116211,641.784668,702.941895,1.208809
-439.727783,625.671387,688.476562,1.209615
-436.798096,624.023438,674.652100,1.210406
-436.614990,603.881836,669.799805,1.211170
-430.755615,601.776123,659.362793,1.211933
-421.234131,598.022461,648.468018,1.212698
-414.093018,603.149414,651.489258,1.213457
-406.311035,594.085693,664.581299,1.214217
-420.318604,593.353271,672.821045,1.214975
-441.833496,578.704834,686.279297,1.215736
-451.995850,589.965820,686.737061,1.216488
-457.397461,630.065918,691.864014,1.217348
-448.974609,627.410889,729.766846,1.218119
-460.235596,627.777100,742.767334,1.218910
-425.994873,645.538330,726.104736,1.219673
-423.248291,642.333984,713.745117,1.220439
-453.002930,629.882812,699.462891,1.221199
-430.664062,627.502441,667.968750,1.221982
-435.974121,625.213623,663.665771,1.222746
-414.550781,630.157471,653.594971,1.223510
-403.198242,628.509521,654.510498,1.224290
-386.627197,616.516113,660.736084,1.225048
-404.571533,612.213135,671.173096,1.225800
-423.065186,606.536865,675.292969,1.226554
-459.686279,593.536377,681.243896,1.227340
-472.595215,590.057373,694.061279,1.228105
-469.940186,596.832275,701.934814,1.228863
-486.511230,604.522705,706.787109,1.229623
-486.053467,602.874756,703.948975,1.230432
-485.412598,596.832275,700.469971,1.231199
-497.863770,587.127686,685.363770,1.231961
-484.680176,583.465576,675.659180,1.232744
-482.666016,579.986572,680.786133,1.233532
-460.784912,575.134277,697.082520,1.234296
-449.340820,588.409424,686.370850,1.235059
-457.946777,583.557129,692.596436,1.235822
-475.799561,580.535889,697.082520,1.236618
-504.730225,565.979004,692.321777,1.237386
-515.258789,568.267822,703.308105,1.238154
-524.963379,567.169189,697.998047,1.238941
-522.125244,561.401367,697.906494,1.239706
-521.392822,557.098389,698.181152,1.240468
-511.138916,537.689209,688.018799,1.241231
-527.801514,532.012939,659.271240,1.242015
-535.766602,509.399414,664.306641,1.242778
-546.752930,493.652344,641.876221,1.243542
-530.090332,483.306885,630.249023,1.244304
-505.096436,493.469238,629.425049,1.245096
-506.652832,514.068604,628.967285,1.245871
-487.792969,523.498535,620.361328,1.246642
-498.779297,502.899170,671.722412,1.247418
-545.928955,486.511230,675.567627,1.248219
-524.322510,509.765625,681.701660,1.248992
-530.181885,519.836426,689.483643,1.249752
-502.075195,520.477295,701.110840,1.250510
-524.230957,514.343262,704.772949,1.251294
-499.420166,526.062012,689.300537,1.252089
-497.772217,520.385742,675.842285,1.252846
-520.660400,500.061035,675.476074,1.253627
-509.765625,490.539551,676.208496,1.254379
-496.582031,500.976562,658.813477,1.255129
-479.187012,506.744385,638.580322,1.255880
-457.672119,514.617920,660.552979,1.256660
-452.819824,515.533447,650.756836,1.257410
-459.594727,509.399414,670.715332,1.258159
-478.546143,519.287109,651.306152,1.258908
-514.892578,507.385254,644.073486,1.259737
-503.631592,505.554199,646.911621,1.260489
-519.287109,502.166748,647.186279,1.261243
-510.864258,523.132324,654.052734,1.261994
-486.328125,527.252197,667.602539,1.262771
-460.327148,544.006348,678.680420,1.263526
-427.368164,548.309326,682.891846,1.264281
-413.177490,556.274414,686.279297,1.265034
-365.203857,567.718506,689.941406,1.265814
-351.837158,566.711426,703.582764,1.266572
-356.689453,563.598633,707.702637,1.267323
-356.872559,563.690186,707.153320,1.268077
-390.472412,557.098389,712.097168,1.268865
-394.134521,551.422119,713.836670,1.269622
-410.980225,538.696289,721.893311,1.270384
-403.198242,558.929443,730.041504,1.271148
-424.163818,575.408936,728.576660,1.271932
-432.586670,585.662842,739.196777,1.272686
-434.143066,614.868164,752.655029,1.273435
-426.818848,624.023438,774.627686,1.274190
-425.994873,610.015869,797.058105,1.274943
-414.642334,567.260742,826.080322,1.275694
-406.402588,574.127197,807.128906,1.276444
-340.026855,594.268799,782.592773,1.277212
-311.187744,630.157471,774.078369,1.277963
-305.877686,625.854492,782.592773,1.278710
-302.856445,587.768555,797.698975,1.279460
-258.087158,585.754395,787.445068,1.280235
-275.573730,571.655273,818.939209,1.280990
-303.405762,579.437256,803.558350,1.281758
-326.934814,559.387207,807.128906,1.282508
-348.999023,564.971924,804.931641,1.283307
-357.055664,562.408447,805.755615,1.284112
-360.900879,558.105469,806.304932,1.284904
-365.661621,542.083740,806.671143,1.285688
-370.330811,528.442383,805.847168,1.286469
-385.803223,465.270996,815.460205,1.287275
-395.507812,460.693359,792.572021,1.288058
-393.493652,474.700928,782.043457,1.288921
-391.754150,497.039795,766.845703,1.289708
-390.472412,429.199219,766.937256,1.290593
-406.036377,482.574463,753.021240,1.291367
-299.743652,490.447998,746.246338,1.292156
-304.321289,516.723633,755.767822,1.292920
-319.610596,495.300293,740.936279,1.293680
-344.421387,503.906250,728.210449,1.294439
-378.295898,458.496094,704.406738,1.295214
-384.338379,428.558350,684.539795,1.295964
-377.471924,417.663574,682.800293,1.296711
-376.190186,436.157227,665.588379,1.297461
-380.218506,434.967041,661.468506,1.298259
-407.318115,425.903320,660.552979,1.299022
-414.459229,436.065674,667.785645,1.299783
-412.628174,439.361572,674.560547,1.300544
-427.642822,433.593750,683.624268,1.301304
-437.164307,427.825928,686.737061,1.302069
-434.692383,434.417725,697.357178,1.302830
-409.881592,436.431885,710.998535,1.303593
-381.958008,453.918457,718.322754,1.304355
-377.563477,458.404541,731.689453,1.305116
-375.091553,456.848145,731.872559,1.305877
-411.346436,438.903809,746.978760,1.306652
-409.149170,452.178955,755.584717,1.307402
-413.269043,443.023682,743.591309,1.308150
-408.416748,463.348389,756.225586,1.308899
-363.464355,446.228027,773.437500,1.309725
-358.245850,455.566406,808.685303,1.310485
-357.788086,452.270508,806.854248,1.311232
-360.717773,454.559326,792.022705,1.311975
-353.027344,455.108643,784.881592,1.312772
-376.647949,450.164795,780.120850,1.313564
-394.958496,424.072266,754.211426,1.314344
-378.204346,442.749023,731.048584,1.315134
-341.857910,485.778809,723.541260,1.315940
-332.244873,507.202148,725.006104,1.316720
-320.800781,507.110596,734.802246,1.317506
-306.610107,497.406006,744.964600,1.318273
-322.082520,483.032227,731.414795,1.319041
-332.611084,469.757080,718.322754,1.319802
-316.497803,466.827393,705.230713,1.320580
-315.673828,474.151611,704.772949,1.321371
-302.398682,480.743408,699.462891,1.322133
-295.166016,481.109619,710.174561,1.322894
-293.884277,481.750488,710.815430,1.323653
-292.602539,464.813232,704.040527,1.324446
-302.124023,454.467773,701.934814,1.325208
-301.391602,457.763672,698.272705,1.325973
-298.187256,449.890137,686.920166,1.326736
-289.947510,446.777344,689.941406,1.327520
-292.785645,431.488037,677.673340,1.328276
-290.222168,420.684814,680.053711,1.329024
-291.412354,412.536621,681.335449,1.329777
-289.764404,418.395996,705.780029,1.330576
-285.369873,412.994385,704.132080,1.331338
-283.996582,416.564941,689.025879,1.332100
-278.137207,413.360596,676.574707,1.332898
-281.433105,419.036865,673.645020,1.333662
-286.102295,417.388916,658.996582,1.334423
-296.539307,429.199219,653.503418,1.335189
-298.278809,423.797607,635.650635,1.335957
-291.870117,422.149658,624.298096,1.336736
-294.525146,420.684814,620.269775,1.337512
-303.405762,396.240234,615.875244,1.338292
-326.019287,389.556885,637.756348,1.339134
-320.983887,394.683838,641.326904,1.339911
-304.595947,399.444580,652.221680,1.340720
-296.356201,403.747559,656.982422,1.341508
-299.102783,399.261475,642.333984,1.342350
-307.067871,397.979736,647.552490,1.343152
-298.370361,391.937256,652.221680,1.343947
-301.574707,376.556396,676.849365,1.344750
-295.806885,407.043457,705.230713,1.345524
-286.468506,433.044434,713.012695,1.346325
-285.827637,458.770752,732.604980,1.347097
-302.215576,461.151123,733.886719,1.347914
-332.977295,445.129395,724.731445,1.348726
-372.894287,423.248291,701.202393,1.349513
-383.972168,406.951904,682.708740,1.350319
-398.803711,406.951904,672.729492,1.351105
-407.958984,429.656982,639.312744,1.351885
532.379150,540.252686,357.421875,1.352687
-58.776855,399.261475,568.634033,1.353509
-908.386230,316.680908,500.976562,1.354292
-206.268311,410.888672,415.832520,1.355072
-539.520264,396.423340,488.525391,1.355852
-742.126465,379.852295,498.504639,1.356665
-458.587646,405.212402,452.178955,1.357455
-652.587891,323.913574,456.848145,1.358236
-1194.854736,375.457764,289.123535,1.359025
-581.726074,436.523438,372.161865,1.359809
-311.187744,412.078857,481.567383,1.360586
-584.197998,380.767822,448.242188,1.361364
-442.932129,415.832520,445.587158,1.362156
-391.571045,415.924072,486.785889,1.362920
-399.810791,409.332275,523.315430,1.363722
-332.061768,433.227539,562.957764,1.364498
-303.588867,435.241699,623.474121,1.365415
-254.608154,460.601807,634.826660,1.366180
-219.085693,485.961914,636.566162,1.366943
-233.276367,481.842041,657.531738,1.367704
-225.860596,485.229492,656.250000,1.368485
-215.057373,480.926514,668.701172,1.369250
-241.699219,476.348877,664.031982,1.370009
-262.115479,460.876465,667.144775,1.370770
-276.763916,455.200195,668.609619,1.371598
-293.243408,445.129395,664.672852,1.372360
-304.321289,453.186035,668.518066,1.373119
-301.208496,446.044922,669.342041,1.373881
-294.342041,451.721191,681.518555,1.374659
-288.024902,454.559326,696.899414,1.375412
-238.586426,470.855713,715.393066,1.376153
-267.150879,474.792480,720.062256,1.376905
-244.079590,473.236084,730.590820,1.377719
-219.451904,481.750488,734.069824,1.378491
-238.220215,477.722168,725.097656,1.379264
-218.444824,484.771729,727.661133,1.380043
-211.578369,467.285156,709.350586,1.380826
-233.734131,470.031738,703.582764,1.381602
-201.873779,469.207764,691.589355,1.382379
-226.043701,467.285156,700.653076,1.383156
-221.832275,462.799072,698.913574,1.383928
-201.507568,466.552734,706.146240,1.384690
-215.240479,467.193604,704.772949,1.385475
-188.873291,454.193115,714.843750,1.386267
-208.374023,447.235107,709.259033,1.387029
-205.169678,439.819336,717.132568,1.387791
-200.958252,428.741455,701.843262,1.388561
-216.979980,418.395996,701.660156,1.389368
-220.092773,404.663086,670.440674,1.390149
-241.699219,408.782959,671.630859,1.390917
-244.628906,408.416748,646.820068,1.391678
-268.066406,407.226562,641.052246,1.392466
-267.608643,389.099121,644.073486,1.393227
-265.411377,368.682861,639.404297,1.393989
-283.172607,365.386963,633.636475,1.394754
-285.919189,364.288330,620.452881,1.395518
-287.567139,353.393555,617.065430,1.396276
-286.743164,366.119385,615.692139,1.397036
-295.989990,371.429443,602.508545,1.397792
-292.419434,379.211426,596.008301,1.398543
-293.701172,375.823975,579.345703,1.399326
-299.194336,377.838135,584.472656,1.400127
-302.215576,360.443115,566.345215,1.400919
-310.272217,352.020264,550.689697,1.401673
-329.589844,355.224609,547.760010,1.402427
-308.898926,354.309082,537.048340,1.403178
-323.822021,358.978271,525.329590,1.403964
-328.948975,363.739014,517.547607,1.404713
-334.259033,360.168457,504.455566,1.405473
-342.590332,373.260498,502.349854,1.406236
-326.202393,398.162842,490.905762,1.407013
-337.554932,390.930176,483.764648,1.407807
-329.498291,395.690918,480.560303,1.408554
-327.484131,396.331787,474.700928,1.409331
-328.399658,403.747559,476.623535,1.410082
-330.871582,408.874512,473.327637,1.410829
-336.822510,402.191162,461.883545,1.411575
-338.928223,408.233643,463.348389,1.412329
-327.575684,425.994873,454.925537,1.413075
-322.631836,434.875488,454.833984,1.413824
-301.757812,441.101074,475.708008,1.414608
-301.849365,456.207275,473.968506,1.415389
-280.883789,476.074219,483.673096,1.416139
-252.593994,482.391357,489.532471,1.416888
-247.833252,496.215820,495.574951,1.417637
-226.593018,514.984131,491.546631,1.418404
-212.677002,521.575928,502.441406,1.419165
-212.585449,522.308350,526.519775,1.419929
-196.838379,545.837402,523.406982,1.420689
-179.901123,560.028076,538.330078,1.421449
-166.900635,572.296143,558.929443,1.422209
-153.717041,590.057373,561.859131,1.422967
-120.483398,602.874756,573.120117,1.423728
-125.701904,614.776611,599.853516,1.424479
-130.279541,623.474121,589.141846,1.425228
-125.152588,635.833740,589.141846,1.425975
-138.702393,642.333984,588.134766,1.426727
-135.223389,654.144287,600.860596,1.427529
-128.540039,668.334961,629.608154,1.428293
-136.413574,672.271729,634.918213,1.429056
-140.899658,677.307129,674.560547,1.429819
-142.456055,696.624756,704.040527,1.430613
-152.526855,705.230713,725.738525,1.431381
-156.097412,719.787598,748.535156,1.432144
-156.372070,717.315674,775.268555,1.432942
-159.301758,732.971191,801.818848,1.433738
-171.661377,732.971191,802.368164,1.434504
-166.442871,738.372803,822.235107,1.435271
-154.266357,728.851318,820.953369,1.436061
-158.752441,716.766357,811.614990,1.436829
-141.448975,720.886230,823.699951,1.437592
-144.653320,720.336914,808.776855,1.438437
-144.470215,720.428467,808.502197,1.439198
-133.117676,708.526611,795.776367,1.439979
-122.863770,701.019287,787.536621,1.440731
-119.750977,702.301025,773.529053,1.441486
-111.785889,679.138184,766.479492,1.442254
-100.524902,678.771973,751.373291,1.443019
-88.897705,676.757812,738.281250,1.443783
-81.390381,660.278320,727.386475,1.444545
-76.538086,654.144287,710.357666,1.445332
-69.213867,654.418945,697.540283,1.446097
-66.558838,642.883301,694.427490,1.446862
-63.995361,645.996094,691.680908,1.447625
-63.354492,645.080566,690.856934,1.448411
-58.685303,647.186279,686.096191,1.449176
-60.607910,650.848389,688.385010,1.449938
-61.614990,652.679443,684.631348,1.450716
-63.903809,646.270752,672.637939,1.451503
-66.650391,651.763916,666.137695,1.452271
-86.791992,648.651123,651.855469,1.453033
-91.827393,646.270752,632.904053,1.453797
-119.659424,642.883301,622.650146,1.454560
-143.005371,638.488770,597.015381,1.455335
-181.274414,634.735107,573.486328,1.456103
-171.386719,634.826660,562.591553,1.456868
-180.267334,641.235352,552.337646,1.457636
-176.330566,653.045654,553.894043,1.458404
-169.006348,652.221680,548.675537,1.459167
-163.146973,668.884277,553.344727,1.459958
-138.702393,678.863525,559.661865,1.460739
-126.800537,692.138672,566.528320,1.461524
-120.025635,697.448730,563.781738,1.462284
-111.968994,711.456299,566.619873,1.463073
-104.644775,727.020264,571.105957,1.463861
-109.954834,735.900879,574.676514,1.464663
-104.644775,751.739502,567.352295,1.465450
-106.750488,753.753662,564.605713,1.466241
-107.666016,775.360107,580.078125,1.467036
-111.877441,783.508301,581.451416,1.467814
-111.419678,799.346924,596.282959,1.468615
-126.983643,810.058594,627.044678,1.469393
-148.864746,822.143555,617.156982,1.470172
-161.865234,836.059570,644.073486,1.470950
-173.309326,845.123291,667.053223,1.471740
-202.697754,848.968506,668.975830,1.472500
-208.282471,864.624023,685.913086,1.473261
-213.958740,869.110107,689.300537,1.474019
-219.543457,888.793945,686.096191,1.474800
-226.501465,890.991211,682.617188,1.475554
-222.930908,886.596680,695.159912,1.476306
-218.994141,905.090332,691.772461,1.477055
-224.304199,918.731689,703.125000,1.477853
-207.275391,914.611816,711.090088,1.478616
-204.803467,909.942627,701.660156,1.479392
-201.232910,933.288574,697.357178,1.480158
-191.619873,959.381104,690.307617,1.480919
-206.176758,929.992676,685.729980,1.481729
-199.493408,931.732178,693.420410,1.482500
-192.535400,930.999756,683.166504,1.483292
-202.514648,912.048340,683.715820,1.484054
-197.479248,907.104492,679.962158,1.484815
-204.620361,906.005859,673.004150,1.485573
-213.043213,896.392822,662.475586,1.486375
-205.993652,901.245117,667.510986,1.487135
-206.726074,882.019043,660.095215,1.487894
-205.902100,881.561279,658.630371,1.488654
-208.648682,879.180908,665.496826,1.489429
-212.036133,864.715576,662.750244,1.490179
-204.711914,864.532471,655.517578,1.490915
-202.514648,856.384277,650.665283,1.491649
-203.247070,850.708008,639.221191,1.492442
-191.345215,846.130371,618.621826,1.493204
-196.746826,846.496582,610.565186,1.493958
-188.049316,839.355469,611.206055,1.494712
-181.915283,824.523926,610.748291,1.495483
-173.034668,818.389893,605.804443,1.496244
-162.322998,820.587158,613.220215,1.497010
-152.984619,819.854736,609.832764,1.497786
-146.575928,830.474854,629.058838,1.498551
-145.660400,818.115234,613.769531,1.499318
-138.061523,820.953369,610.839844,1.500070
-139.251709,821.868896,619.445801,1.500832
-137.603760,818.023682,614.501953,1.501575
-133.758545,816.467285,622.009277,1.502318
-133.941650,813.079834,617.156982,1.503062
-135.223389,803.558350,610.290527,1.503841
-131.744385,806.945801,605.895996,1.504604
-140.350342,803.924561,603.515625,1.505367
-126.159668,800.079346,591.705322,1.506134
-123.962402,800.354004,598.114014,1.506916
-122.680664,795.501709,588.684082,1.507671
-118.194580,801.544189,596.740723,1.508424
-122.497559,802.093506,582.641602,1.509174
-123.046875,803.100586,577.239990,1.509971
-116.180420,810.516357,585.845947,1.510736
-111.785889,811.981201,575.683594,1.511552
-111.968994,811.706543,582.916260,1.512316
-95.581055,820.861816,575.592041,1.513104
-112.060547,823.333740,569.458008,1.513864
-108.947754,824.523926,573.852539,1.514624
-108.306885,838.073730,583.557129,1.515395
-107.025146,843.109131,576.599121,1.516182
-100.067139,844.482422,566.894531,1.516946
-93.475342,861.053467,570.281982,1.517707
-86.059570,844.940186,561.401367,1.518469
-84.136963,851.715088,561.767578,1.519258
-92.010498,852.630615,558.563232,1.520006
-95.397949,850.250244,540.985107,1.520756
-101.440430,857.025146,534.484863,1.521516
-105.560303,869.567871,534.301758,1.522273
-101.898193,863.708496,535.858154,1.523032
-99.151611,866.455078,538.604736,1.523803
-105.651855,863.250732,528.625488,1.524575
-96.496582,871.673584,528.076172,1.525348
-99.334717,872.955322,519.744873,1.526122
-97.686768,890.258789,517.547607,1.526907
-101.348877,895.935059,518.920898,1.527724
-98.327637,900.878906,512.695312,1.528503
-90.270996,895.843506,515.075684,1.529265
-94.757080,910.858154,515.625000,1.530026
-88.348389,916.625977,519.561768,1.530821
-87.707520,921.844482,516.815186,1.531588
-89.447021,928.985596,518.096924,1.532349
-83.862305,945.922852,516.906738,1.533143
-83.496094,969.818115,508.300781,1.533903
-81.298828,1004.608154,504.913330,1.534662
-96.038818,991.699219,509.674072,1.535428
-68.481445,991.973877,536.407471,1.536202
-55.755615,993.988037,527.801514,1.537026
-74.981689,1028.503418,536.315918,1.537809
-67.932129,1028.594971,543.273926,1.538581
-62.072754,1031.066895,551.055908,1.539397
-63.537598,1036.010742,564.056396,1.540174
-51.269531,1044.250488,575.866699,1.540972
-67.016602,1054.962158,589.508057,1.541734
-88.165283,1052.947998,596.282959,1.542519
-82.122803,1062.927246,617.523193,1.543281
-76.171875,1074.462891,624.572754,1.544039
-92.926025,1085.815430,640.960693,1.544827
-86.975098,1098.724365,648.193359,1.545585
-86.700439,1102.661133,673.370361,1.546381
-96.130371,1106.781006,677.490234,1.547155
-88.897705,1107.055664,688.018799,1.547941
-91.369629,1103.210449,690.673828,1.548696
-95.855713,1100.830078,687.194824,1.549445
-90.087891,1101.745605,678.131104,1.550193
-91.552734,1102.203369,677.215576,1.550986
-88.623047,1086.730957,668.060303,1.551738
-88.806152,1080.688477,657.531738,1.552485
-99.151611,1077.850342,642.608643,1.553234
-106.292725,1063.568115,621.276855,1.554010
-112.609863,1048.370361,587.402344,1.554765
-152.252197,1030.242920,589.141846,1.555511
-154.357910,1015.869141,550.781250,1.556258
-189.331055,1006.622314,517.364502,1.557046
-221.374512,992.248535,524.322510,1.557794
-235.931396,982.086182,513.244629,1.558542
-232.543945,985.290527,525.695801,1.559287
-239.135742,971.832275,541.534424,1.560066
-223.571777,973.114014,571.563721,1.560814
-197.021484,977.783203,583.007812,1.561564
-183.105469,972.564697,583.831787,1.562343
-167.175293,970.550537,593.536377,1.563111
-158.111572,967.987061,576.507568,1.563870
-160.675049,960.662842,557.830811,1.564633
-158.294678,953.521729,545.013428,1.565391
-176.055908,939.514160,535.400391,1.566142
-180.908203,931.732178,507.019043,1.566891
-183.013916,918.457031,497.406006,1.567641
-196.838379,911.682129,495.941162,1.568394
-193.634033,898.590088,481.567383,1.569188
-189.239502,916.076660,499.969482,1.569938
-178.527832,906.372070,500.701904,1.570686
-169.372559,912.506104,509.033203,1.571473
-163.055420,912.048340,520.477295,1.572235
-150.146484,901.245117,536.682129,1.573001
-142.822266,896.759033,543.182373,1.573760
-138.793945,898.406982,546.295166,1.574551
-139.526367,897.033691,542.266846,1.575310
-143.280029,869.659424,532.196045,1.576069
-154.541016,877.441406,520.385742,1.576826
-160.583496,879.455566,516.540527,1.577616
-168.548584,876.525879,511.871338,1.578500
-167.449951,866.546631,502.899170,1.579319
-170.654297,859.039307,497.589111,1.580123
-161.224365,869.476318,498.779297,1.580979
-154.083252,864.807129,509.399414,1.581782
-149.688721,862.335205,507.934570,1.582580
-139.160156,862.609863,513.519287,1.583430
-131.286621,874.603271,516.632080,1.584284
-127.624512,858.398438,514.434814,1.585102
-120.941162,876.800537,511.779785,1.586066
-118.377686,869.293213,509.124756,1.586911
-119.659424,859.680176,504.089355,1.587735
-103.088379,871.673584,514.617920,1.588564
-112.609863,861.053467,498.779297,1.589437
-106.933594,864.257812,494.659424,1.590269
-101.715088,863.616943,509.307861,1.591082
-78.918457,850.982666,501.617432,1.591929
-64.453125,849.975586,514.251709,1.592747
-51.086426,842.651367,506.195068,1.593554
-55.664062,838.897705,494.567871,1.594369
-59.326172,831.481934,481.018066,1.595269
-65.185547,829.376221,474.884033,1.596080
-67.840576,825.897217,473.236084,1.596901
-62.347412,822.235107,471.130371,1.597728
-59.875488,827.453613,467.285156,1.598552
-65.643311,826.080322,456.298828,1.599345
-64.086914,868.652344,441.650391,1.600120
-43.395996,832.122803,440.734863,1.600936
-117.370605,800.903320,463.897705,1.601713
-1.281738,789.459229,451.538086,1.602542
-33.233643,827.270508,430.938721,1.603333
-119.293213,835.968018,433.685303,1.604124
-56.579590,820.678711,440.460205,1.604954
-74.798584,832.580566,417.938232,1.605782
-31.585693,821.228027,390.289307,1.606580
148.956299,816.467285,392.028809,1.607443
166.442871,812.713623,369.049072,1.608253
49.621582,806.854248,370.330811,1.609046
100.982666,816.650391,365.661621,1.609898
166.076660,808.410645,360.260010,1.610704
80.383301,787.536621,365.936279,1.611478
120.117188,787.536621,366.210938,1.612248
155.548096,782.592773,360.900879,1.613017
125.244141,777.099609,367.584229,1.613793
139.068604,782.135010,366.485596,1.614564
162.597656,792.755127,361.358643,1.615336
131.744385,778.015137,356.964111,1.616109
140.899658,780.578613,361.267090,1.616877
159.942627,779.388428,368.225098,1.617645
145.935059,767.486572,370.605469,1.618429
164.886475,760.437012,373.626709,1.619207
155.090332,747.894287,353.118896,1.620059
150.787354,741.485596,380.493164,1.620846
180.541992,735.351562,376.098633,1.621620
162.048340,733.154297,374.084473,1.622447
162.231445,745.605469,378.753662,1.623223
158.111572,741.485596,367.401123,1.623994
161.041260,735.076904,361.816406,1.624767
156.188965,740.020752,362.915039,1.625562
162.322998,755.218506,348.541260,1.626329
156.280518,785.156250,325.012207,1.627099
140.899658,807.769775,324.279785,1.627865
103.912354,784.240723,333.068848,1.628655
92.285156,779.754639,326.660156,1.629422
63.446045,789.093018,314.483643,1.630187
53.009033,788.452148,334.259033,1.630955
58.685303,782.775879,340.301514,1.631747
63.995361,808.044434,359.252930,1.632512
59.875488,822.967529,389.923096,1.633278
88.989258,839.630127,414.825439,1.634042
83.404541,848.236084,485.778809,1.634925
77.178955,902.618408,474.060059,1.635693
94.940186,955.169678,509.399414,1.636460
23.071289,948.394775,564.971924,1.637253
49.530029,937.500000,587.951660,1.638021
33.416748,935.577393,615.509033,1.638787
20.050049,939.147949,613.677979,1.639555
24.261475,974.761963,598.388672,1.640404
24.719238,989.776611,591.339111,1.641172
34.973145,1011.383057,591.430664,1.641934
31.951904,1065.124512,585.388184,1.642702
25.634766,1112.640381,604.064941,1.643493
34.606934,1128.295898,623.016357,1.644260
6.408691,1121.429443,644.714355,1.645025
7.049561,1139.282227,678.955078,1.645778
3.570557,1129.669189,717.315674,1.646562
-6.042480,1128.112793,743.041992,1.647327
5.126953,1154.937744,767.761230,1.648109
-9.979248,1161.071777,806.762695,1.648892
-8.880615,1173.797607,813.720703,1.649700
-4.760742,1154.388428,840.454102,1.650475
-6.317139,1138.000488,851.806641,1.651241
33.874512,1098.358154,858.032227,1.652019
47.607422,1076.843262,834.686279,1.652835
63.262939,1066.406250,788.726807,1.653617
104.095459,1050.018311,770.782471,1.654413
149.139404,1032.714844,728.851318,1.655202
165.618896,1028.411865,684.173584,1.655984
190.063477,1024.566650,667.785645,1.656770
196.563721,1016.601562,653.778076,1.657567
188.140869,994.171143,629.608154,1.658355
185.943604,991.241455,628.143311,1.659157
179.626465,951.141357,588.409424,1.659943
150.238037,932.830811,534.576416,1.660729
107.482910,907.653809,513.244629,1.661539
51.361084,879.272461,462.707520,1.662316
30.944824,866.088867,435.058594,1.663093
-25.177002,855.560303,430.572510,1.664016
-50.628662,841.094971,430.023193,1.664871
-62.713623,849.334717,427.551270,1.665656
-85.968018,836.975098,444.580078,1.666437
-99.792480,830.841064,446.319580,1.667224
-97.320557,820.129395,433.593750,1.668009
-95.855713,809.600830,423.522949,1.668788
-83.038330,796.600342,414.093018,1.669571
-80.017090,798.797607,380.676270,1.670384
-63.629150,783.233643,372.161865,1.671169
-29.022217,782.043457,359.252930,1.671949
-42.663574,775.451660,341.857910,1.672740
-51.727295,761.444092,337.738037,1.673555
-40.740967,744.873047,335.632324,1.674339
-42.114258,736.816406,337.921143,1.675121
-46.875000,730.773926,333.343506,1.675898
-61.523438,727.661133,336.547852,1.676707
-51.452637,730.316162,322.082520,1.677494
-61.248779,733.337402,317.047119,1.678277
-69.580078,743.774414,315.216064,1.679063
-70.220947,746.978760,307.159424,1.679889
-73.242188,749.725342,310.455322,1.680661
-78.186035,743.041992,306.152344,1.681427
-72.601318,757.232666,296.813965,1.682195
-82.672119,768.218994,290.863037,1.682989
-103.088379,783.325195,293.151855,1.683877
-93.933105,794.036865,282.806396,1.684664
-110.961914,789.001465,293.334961,1.685443
-102.905273,786.437988,297.637939,1.686243
-99.426270,779.479980,298.278809,1.687009
-101.989746,783.142090,293.975830,1.687772
-109.588623,793.304443,287.384033,1.688566
-113.983154,785.522461,285.186768,1.689334
-105.194092,776.458740,284.545898,1.690087
-110.229492,780.029297,281.890869,1.690841
-110.412598,791.290283,278.045654,1.691640
-104.919434,797.515869,260.192871,1.692407
-113.800049,808.593750,247.924805,1.693172
-114.990234,815.826416,239.227295,1.693940
-108.947754,813.812256,247.009277,1.694742
-124.511719,829.925537,241.607666,1.695514
-116.455078,851.440430,239.227295,1.696332
-139.068604,860.046387,213.226318,1.697113
-200.317383,854.370117,188.964844,1.697928
-260.925293,845.214844,188.690186,1.698713
-314.758301,847.686768,184.020996,1.699502
-347.259521,839.080811,196.838379,1.700284
-371.154785,844.482422,189.971924,1.701099
-376.373291,854.553223,209.564209,1.701884
-364.562988,870.208740,258.270264,1.702661
-274.108887,901.153564,287.017822,1.703471
-169.830322,927.886963,368.499756,1.704256
-122.131348,957.092285,380.859375,1.705027
-44.311523,950.225830,357.238770,1.705870
-50.537109,967.254639,341.949463,1.706638
23.345947,963.592529,327.941895,1.707402
37.719727,961.761475,328.033447,1.708222
44.677734,955.810547,315.399170,1.708990
77.453613,949.859619,313.293457,1.709817
83.129883,954.162598,308.441162,1.710587
87.799072,949.127197,296.356201,1.711354
73.791504,951.599121,305.145264,1.712120
73.974609,966.796875,308.807373,1.712911
62.072754,962.677002,315.582275,1.713675
34.881592,966.888428,334.259033,1.714435
13.641357,961.578369,355.407715,1.715199
9.338379,955.169678,364.379883,1.716001
-13.732910,963.409424,362.365723,1.716771
-23.803711,956.909180,363.464355,1.717536
-6.591797,965.789795,355.041504,1.718300
2.838135,961.669922,334.533691,1.719091
11.352539,958.923340,325.012207,1.719859
18.585205,932.098389,290.954590,1.720649
29.296875,930.450439,286.926270,1.721449
76.263428,944.549561,251.770020,1.722213
26.733398,942.260742,232.452393,1.723031
16.754150,943.267822,224.212646,1.723794
39.825439,946.472168,188.507080,1.724561
51.361084,946.197510,178.161621,1.725326
22.155762,948.852539,171.661377,1.726092
42.297363,887.878418,254.333496,1.726859
293.243408,921.478271,253.234863,1.727652
-313.385010,1015.319824,271.087646,1.728421
-236.297607,967.620850,268.432617,1.729197
3.295898,989.135742,256.988525,1.729965
-367.126465,1020.355225,266.784668,1.730757
-68.756104,1055.694580,250.122070,1.731540
-139.526367,1052.124023,259.643555,1.732305
-188.507080,1036.010742,255.889893,1.733068
-66.192627,1019.989014,243.713379,1.733864
-80.200195,1040.130615,266.510010,1.734630
-30.578613,1054.229736,276.123047,1.735416
57.495117,1052.581787,298.736572,1.736197
13.824463,1089.294434,341.583252,1.736998
-23.803711,1063.751221,365.112305,1.737770
-106.292725,1038.665771,411.163330,1.738536
-142.272949,1040.130615,466.186523,1.739301
-170.745850,1042.602539,463.073730,1.740180
-127.075195,1048.095703,488.708496,1.740954
-92.102051,1064.208984,512.054443,1.741722
-41.564941,1079.223633,529.907227,1.742489
46.142578,1102.111816,555.816650,1.743277
95.489502,1125.091553,570.098877,1.744043
162.597656,1128.112793,577.972412,1.744807
172.393799,1140.747070,602.874756,1.745606
167.175293,1131.225586,631.530762,1.746389
-436.981201,1060.729980,656.433105,1.747158
8.972168,1092.773438,671.722412,1.747926
182.098389,1131.317139,697.357178,1.748694
-38.818359,1088.195801,701.660156,1.749463
-209.381104,1092.041016,735.626221,1.750255
-36.987305,1107.696533,744.964600,1.751020
61.614990,1133.148193,752.929688,1.751808
-131.469727,1106.414795,757.598877,1.752579
-64.727783,1104.949951,748.443604,1.753424
81.207275,1106.506348,739.196777,1.754195
-23.162842,1095.153809,736.267090,1.754992
-20.782471,1074.829102,710.266113,1.755760
53.375244,1070.892334,696.075439,1.756528
30.761719,1048.736572,660.919189,1.757335
2.563477,1020.263672,630.706787,1.758135
9.521484,1019.897461,604.156494,1.758905
16.113281,1017.059326,558.013916,1.759672
-10.894775,1009.643555,506.469727,1.760463
-37.353516,991.882324,478.088379,1.761255
-39.459229,957.824707,417.846680,1.762023
-51.361084,924.682617,376.007080,1.762830
-67.474365,913.787842,340.759277,1.763616
-55.114746,897.674561,306.518555,1.764397
-47.698975,882.751465,266.601562,1.765179
-54.290771,847.412109,236.389160,1.765979
-52.001953,843.017578,225.128174,1.766747
-43.853760,828.002930,189.056396,1.767512
-42.572021,815.460205,153.533936,1.768277
-33.966064,820.312500,137.237549,1.769041
-27.740479,812.713623,108.764648,1.769806
-24.169922,804.565430,63.446045,1.770570
-24.444580,798.248291,57.495117,1.771332
-28.656006,796.142578,28.747559,1.772106
-34.149170,774.993896,13.458252,1.772897
-32.318115,773.803711,-6.683350,1.773662
-25.268555,762.908936,-31.585693,1.774429
-14.007568,753.295898,-39.825439,1.775195
-10.711670,725.830078,-48.522949,1.775976
-18.768311,714.752197,-61.614990,1.776740
-9.246826,703.125000,-68.847656,1.777513
-19.500732,695.800781,-76.812744,1.778280
-21.881104,679.779053,-106.933594,1.779073
-8.972168,681.976318,-113.250732,1.779838
-13.366699,666.412354,-127.349854,1.780606
-10.620117,658.996582,-157.287598,1.781371
-2.655029,653.045654,-184.387207,1.782162
-12.817383,644.897461,-205.902100,1.782929
-2.014160,643.432617,-251.861572,1.783695
-15.655518,640.869141,-265.960693,1.784457
-0.732422,610.839844,-291.778564,1.785244
32.226562,585.571289,-292.510986,1.786010
62.896729,603.149414,-224.121094,1.786773
8.148193,563.415527,-114.166260,1.787534
34.423828,580.261230,-89.813232,1.788337
59.143066,569.000244,-95.214844,1.789103
16.204834,588.226318,-160.949707,1.789867
68.664551,643.157959,-191.711426,1.790640
97.503662,690.673828,-229.339600,1.791427
55.389404,732.330322,-253.326416,1.792193
35.247803,723.907471,-265.411377,1.792986
71.136475,774.444580,-276.489258,1.793748
9.979248,765.747070,-301.574707,1.794530
-14.831543,761.993408,-303.405762,1.795289
35.430908,795.959473,-307.250977,1.796088
-2.655029,781.219482,-278.869629,1.796890
-18.493652,774.536133,-253.234863,1.797660
18.951416,815.643311,-249.298096,1.798429
-13.641357,812.530518,-250.213623,1.799193
-15.655518,799.255371,-219.635010,1.799984
-17.944336,804.107666,-207.092285,1.800755
-10.711670,815.277100,-194.091797,1.801646
-48.248291,853.729248,-213.134766,1.802470
-28.381348,893.371582,-210.113525,1.803267
-43.853760,900.970459,-200.317383,1.804038
-28.106689,940.338135,-200.317383,1.804805
-32.135010,736.724854,-132.202148,1.805571
99.792480,1175.354004,-25.543213,1.806361
412.994385,1418.975830,-23.254395,1.807129
302.124023,1312.225342,44.586182,1.807895
439.727783,1270.202637,78.826904,1.808673
264.038086,1148.254395,210.113525,1.809478
361.083984,1154.113770,314.392090,1.810251
254.241943,1155.670166,353.576660,1.811020
236.206055,1259.857178,383.697510,1.811796
87.799072,341.674805,1489.562988,1.812584
-1537.811279,1123.809814,1348.571777,1.813357
481.109619,1349.853516,959.289551,1.814126
1141.845703,1613.800049,713.745117,1.814894
815.002441,1583.129883,834.045410,1.815780
-368.774414,1432.708740,899.139404,1.816569
293.884277,1565.093994,544.738770,1.817338
264.312744,1531.127930,540.893555,1.818114
-177.429199,1503.387451,603.515625,1.818905
241.516113,1460.174561,726.654053,1.819690
598.754883,1625.976562,580.627441,1.820466
1123.352051,1631.561279,596.099854,1.821281
230.072021,1503.387451,538.696289,1.822070
-70.678711,1459.167480,485.046387,1.822854
-101.898193,1445.983887,473.693848,1.823682
239.868164,1423.553467,411.254883,1.824524
173.767090,1366.424561,330.230713,1.825320
4.394531,1331.359863,229.522705,1.826102
-220.642090,1265.167236,182.464600,1.826885
-182.373047,1199.890137,77.270508,1.827729
-140.625000,1153.656006,-16.387939,1.828516
-132.751465,1133.514404,-63.079834,1.829296
-118.743896,1114.379883,-139.251709,1.830067
-106.567383,1081.420898,-221.649170,1.830833
-126.800537,1068.878174,-266.143799,1.831598
-248.291016,1051.025391,-358.154297,1.832363
-296.356201,1055.694580,-409.698486,1.833126
-248.565674,1012.207031,-448.699951,1.833891
-140.075684,991.516113,-534.393311,1.834667
-114.440918,977.233887,-578.338623,1.835440
-556.274414,940.063477,-540.527344,1.836235
-890.899658,898.590088,-398.071289,1.837016
-515.991211,930.816650,-416.931152,1.837785
467.468262,1039.947510,-435.607910,1.838554
418.945312,1026.489258,-512.512207,1.839358
53.558350,997.650146,-600.402832,1.840125
-343.597412,904.815674,-629.425049,1.840906
-218.261719,873.596191,-702.209473,1.841705
-157.012939,960.571289,-742.492676,1.842523
-66.833496,938.598633,-834.594727,1.843324
-82.580566,932.556152,-885.406494,1.844092
-376.831055,910.125732,-705.688477,1.844860
-745.697021,905.822754,-449.523926,1.845653
-735.717773,961.212158,-166.351318,1.846421
-693.237305,1159.240723,-134.582520,1.847187
650.115967,1253.814697,-168.090820,1.847957
727.752686,1269.378662,-216.522217,1.848746
241.790771,1251.892090,-134.124756,1.849516
-675.750732,1225.524902,-113.800049,1.850281
-354.766846,1241.363525,-188.690186,1.851046
162.139893,1404.876709,225.952148,1.851835
1088.287354,1149.810791,428.466797,1.852604
-911.773682,1115.020752,573.028564,1.853378
-1197.509766,1200.164795,387.817383,1.854166
131.744385,1258.850098,287.750244,1.854935
1019.073486,1320.831299,76.171875,1.855701
672.637939,1316.894531,-34.881592,1.856466
-604.064941,1241.180420,-76.446533,1.857257
-734.069824,1271.667480,-152.618408,1.858023
-203.338623,1315.704346,-289.123535,1.858783
714.202881,1397.827148,-347.808838,1.859549
-207.092285,1272.216797,-102.172852,1.860319
-1200.531006,1166.198730,217.987061,1.861084
-1051.116943,1125.549316,477.722168,1.861851
-147.308350,1347.473145,310.363770,1.862621
1152.557373,1422.454834,171.661377,1.863392
152.435303,1338.134766,117.919922,1.864161
-591.613770,1232.299805,164.520264,1.864927
-971.466064,1217.651367,121.032715,1.865693
9.429932,1317.352295,2.746582,1.866487
282.714844,1338.958740,-124.877930,1.867252
558.288574,1433.898926,-67.657471,1.868019
986.480713,1321.472168,221.832275,1.868785
536.499023,1217.102051,306.884766,1.869582
-263.854980,1192.565918,295.532227,1.870351
-1317.993164,1169.952393,601.135254,1.871118
-1607.116699,1185.333252,573.028564,1.871904
-1545.043945,1197.235107,262.298584,1.872773
-395.965576,1217.193604,65.917969,1.873556
1164.276123,1325.500488,114.532471,1.874336
1449.188232,1344.818115,80.657959,1.875116
187.500000,1263.977051,52.917480,1.875927
-1103.118896,1182.678223,36.071777,1.876715
-1209.503174,1175.170898,-41.290283,1.877497
-445.129395,1146.514893,-97.595215,1.878278
408.599854,1175.903320,-181.182861,1.879089
420.684814,1164.367676,-230.255127,1.879857
-247.558594,1060.638428,-271.362305,1.880627
-731.323242,1018.341064,-345.336914,1.881396
-581.909180,1003.784180,-267.517090,1.882161
-29.754639,1001.312256,-242.797852,1.882941
-580.993652,1029.602051,-27.099609,1.883758
-951.416016,1087.097168,138.702393,1.884550
-1418.975830,1093.231201,148.590088,1.885316
-314.849854,1073.089600,67.840576,1.886080
885.864258,1214.355469,-89.080811,1.886846
1363.128662,1130.310059,-120.391846,1.887645
-478.088379,990.509033,-112.884521,1.888496
-1047.821045,1002.044678,-187.591553,1.889267
-542.358398,1051.849365,-266.876221,1.890049
557.189941,1117.034912,-466.735840,1.890945
378.112793,1016.418457,-474.426270,1.891709
-320.617676,944.183350,-501.342773,1.892472
-414.642334,925.872803,-516.998291,1.893239
85.876465,973.663330,-540.618896,1.894036
883.941650,1001.586914,-421.783447,1.894801
690.582275,1210.693359,-233.642578,1.895568
-4.119873,1520.324707,-173.675537,1.896335
65.093994,1534.698486,-236.663818,1.897100
707.702637,1525.451660,-227.600098,1.897862
502.532959,1349.487305,-137.145996,1.898625
-4.211426,1128.570557,33.599854,1.899407
-935.485840,1065.216064,87.524414,1.900165
-407.867432,1088.745117,44.952393,1.900918
250.396729,1178.283691,-87.982178,1.901673
800.079346,1205.200195,-135.498047,1.902444
-86.059570,1052.032471,-195.373535,1.903214
-547.302246,1009.094238,-240.783691,1.903981
-615.325928,1049.377441,-272.644043,1.904751
-288.848877,1082.244873,-331.512451,1.905521
232.727051,1064.941406,-353.942871,1.906292
8.972168,1020.172119,-380.310059,1.907056
-270.263672,984.466553,-391.662598,1.907817
-488.159180,1014.312744,-383.972168,1.908583
-32.043457,1080.963135,-387.268066,1.909394
221.282959,1097.351074,-391.937256,1.910164
289.855957,1067.047119,-388.916016,1.910942
-164.062500,1010.192871,-407.775879,1.911720
-357.147217,1077.117920,-410.339355,1.912486
-374.542236,1082.244873,-386.352539,1.913271
-326.568604,1071.807861,-275.665283,1.914037
-299.743652,1110.992432,-114.624023,1.914824
-20.416260,1180.480957,-77.087402,1.915587
236.755371,1244.110107,-96.221924,1.916424
65.643311,1195.404053,-116.363525,1.917205
-108.032227,1156.494141,-108.581543,1.918012
-288.665771,1080.963135,-123.870850,1.918815
-117.462158,1131.958008,-160.949707,1.919585
-61.889648,1155.761719,-148.132324,1.920350
-181.549072,1162.719727,-144.836426,1.921145
-419.860840,1080.047607,-175.964355,1.921914
-407.226562,1076.202393,-160.125732,1.922680
-240.966797,1117.950439,-109.497070,1.923458
-174.041748,1170.593262,-67.657471,1.924254
-205.718994,1149.993896,-129.364014,1.925024
-284.179688,1062.927246,-176.055908,1.925805
-148.498535,1039.672852,-251.220703,1.926581
-57.495117,1021.820068,-264.953613,1.927348
-79.833984,981.445312,-263.305664,1.928147
-443.115234,968.719482,-238.403320,1.928921
-661.834717,973.022461,-216.979980,1.929685
-925.140381,958.099365,-254.333496,1.930452
-784.606934,858.032227,-421.691895,1.931216
-331.878662,805.023193,-547.668457,1.931985
1548.156738,900.970459,-585.937500,1.932783
1094.421387,830.017090,-569.732666,1.933553
6.408691,716.766357,-541.442871,1.934317
-1339.691162,740.936279,-550.048828,1.935084
-891.448975,746.429443,-530.822754,1.935882
-18.493652,859.405518,-617.340088,1.936672
1391.876221,916.534424,366.394043,1.937459
2069.274902,1444.519043,1890.930176,1.938230
1703.887939,1798.736572,2999.908447,1.939027
294.616699,1159.881592,392.395020,1.939870
-717.407227,655.792236,-1548.797607,1.940650
-1696.472168,217.712402,-1890.380859,1.941453
-634.185791,394.500732,-1084.625244,1.942220
-66.009521,616.241455,416.381836,1.942982
1235.504150,1112.091064,683.532715,1.943744
1351.135254,1038.574219,91.369629,1.944510
423.248291,822.418213,-410.339355,1.945273
-484.771729,545.196533,-934.478760,1.946035
-698.364258,633.270264,-673.004150,1.946803
-265.960693,763.092041,-399.353027,1.947567
255.889893,881.835938,-41.839600,1.948336
319.610596,843.658447,-262.115479,1.949102
185.943604,684.814453,-440.734863,1.949867
-102.813721,577.697754,-551.330566,1.950636
-158.752441,660.003662,-392.761230,1.951467
-61.340332,777.648926,-272.003174,1.952322
34.973145,781.311035,-292.510986,1.953091
9.155273,711.181641,-504.913330,1.953993
-61.798096,684.906006,-483.947754,1.954769
-2.563477,755.218506,-365.936279,1.955540
-15.563965,796.508789,-238.677979,1.956315
-85.052490,843.750000,-227.233887,1.957085
-172.943115,765.747070,12.634277,1.957853
-15.838623,833.404541,-167.999268,1.958619
206.909180,919.372559,-455.566406,1.959410
393.493652,868.194580,-479.370117,1.960194
278.411865,882.110596,-400.726318,1.960958
331.237793,837.341309,-245.727539,1.961783
181.823730,803.009033,-429.748535,1.962577
-52.917480,828.002930,-452.545166,1.963340
-91.552734,967.803955,-337.738037,1.964103
-115.173340,1105.224609,-215.698242,1.964866
-265.502930,1148.071289,-165.802002,1.965636
-581.726074,1139.373779,-90.454102,1.966401
-670.349121,1133.239746,-2.655029,1.967166
-720.977783,1115.112305,-35.247803,1.967929
-630.889893,1038.665771,-161.865234,1.968720
-479.095459,1019.165039,-256.072998,1.969485
-74.707031,1053.497314,-268.615723,1.970253
228.149414,1112.457275,-273.834229,1.971089
277.130127,1110.717773,-304.412842,1.971887
183.837891,1110.626221,-362.823486,1.972657
42.480469,1080.780029,-383.697510,1.973428
-11.077881,1077.209473,-391.387939,1.974192
-30.303955,1087.188721,-380.401611,1.974888
30.120850,1093.505859,-342.590332,1.975654
56.304932,1096.893311,-344.879150,1.976416
57.769775,1087.921143,-352.020264,1.977180
41.839600,1077.667236,-369.598389,1.977971
34.973145,1077.392578,-379.486084,1.978738
53.833008,1091.217041,-367.858887,1.979502
32.318115,1108.795166,-354.309082,1.980266
27.465820,1106.140137,-358.978271,1.981058
6.958008,1093.231201,-385.528564,1.981834
34.790039,1080.413818,-417.755127,1.982606
57.678223,1074.829102,-421.051025,1.983378
94.482422,1082.244873,-380.950928,1.984047
104.095459,1083.343506,-362.365723,1.984837
89.996338,1098.449707,-352.844238,1.985607
48.156738,1081.878662,-367.126465,1.986376
35.156250,1083.343506,-387.725830,1.987168
8.422852,1071.075439,-382.049561,1.987942
47.149658,1090.667725,-347.717285,1.988709
70.678711,1109.069824,-373.626709,1.989483
66.467285,1109.069824,-365.936279,1.990273
42.938232,1068.786621,-393.127441,1.991041
56.945801,1064.941406,-368.865967,1.991869
113.616943,1082.885742,-345.520020,1.992686
103.546143,1104.125977,-350.189209,1.993459
75.347900,1066.223145,-371.978760,1.994250
50.903320,1044.067383,-374.816895,1.995025
112.792969,1075.378418,-335.998535,1.995823
128.356934,1062.286377,-337.921143,1.996656
89.263916,1045.623779,-384.887695,1.997427
68.847656,1022.369385,-378.021240,1.998183
67.932129,1014.129639,-370.697021,1.998995
33.325195,987.030029,-413.269043,1.999772
60.241699,970.001221,-425.994873,2.000550
112.609863,989.318848,-424.530029,2.001320
111.602783,1002.685547,-390.747070,2.002115
97.778320,995.361328,-394.226074,2.002884
20.965576,954.895020,-460.144043,2.003654
16.754150,943.176270,-466.461182,2.004425
54.199219,961.029053,-436.248779,2.005206
43.945312,970.275879,-404.754639,2.005965
40.466309,930.175781,-435.516357,2.006725
55.755615,925.872803,-453.918457,2.007481
66.375732,933.929443,-460.784912,2.008300
69.122314,956.268311,-426.727295,2.009067
65.185547,963.043213,-414.459229,2.009835
37.994385,959.289551,-430.755615,2.010605
24.902344,949.951172,-419.586182,2.011373
4.760742,943.908691,-417.938232,2.012179
-6.866455,953.063965,-416.015625,2.012952
-46.051025,937.316895,-437.622070,2.013718
-35.156250,919.464111,-437.438965,2.014485
-6.774902,931.274414,-412.445068,2.015253
-8.972168,943.267822,-428.283691,2.016003
-27.099609,932.098389,-437.255859,2.016793
-32.867432,923.858643,-432.403564,2.017570
-22.796631,919.189453,-468.841553,2.018351
-20.141602,925.964355,-472.320557,2.019131
-13.366699,931.365967,-452.819824,2.019933
-3.845215,943.725586,-449.981689,2.020706
-28.564453,937.408447,-468.566895,2.021473
-45.593262,929.443359,-473.052979,2.022246
-35.888672,929.718018,-487.335205,2.023050
-19.592285,944.183350,-484.039307,2.023901
0.457764,959.197998,-475.341797,2.024681
-24.261475,965.148926,-478.271484,2.025465
-31.860352,980.163574,-474.151611,2.026287
-47.882080,985.290527,-446.594238,2.027070
-71.502686,1003.509521,-471.771240,2.027849
-84.594727,1022.827148,-465.728760,2.028643
-82.031250,1034.820557,-461.334229,2.029411
-55.023193,1030.426025,-466.186523,2.030174
-45.318604,1045.623779,-478.546143,2.030938
-39.367676,1058.074951,-457.763672,2.031763
-68.572998,1073.364258,-459.136963,2.032530
-108.581543,1062.652588,-484.039307,2.033297
-96.038818,1057.525635,-498.687744,2.034059
-6.958008,1055.511475,-495.941162,2.034855
-9.521484,1076.568604,-488.800049,2.035706
-52.093506,1057.800293,-515.991211,2.036475
-99.792480,1072.998047,-513.885498,2.037247
-22.521973,1059.906006,-468.017578,2.038048
-27.557373,1061.645508,-542.724609,2.038814
-61.248779,1068.969727,-538.787842,2.039579
-63.354492,1073.913574,-513.702393,2.040344
-39.825439,1083.068848,-482.574463,2.041187
-49.255371,1095.703125,-506.927490,2.041953
-110.961914,1065.399170,-548.217773,2.042720
-106.201172,1065.032959,-503.082275,2.043484
-55.938721,1101.196289,-495.300293,2.044279
-91.003418,1114.379883,-521.026611,2.045045
-156.829834,1107.513428,-500.885010,2.045875
-132.202148,1124.267578,-477.264404,2.046643
-131.744385,1124.267578,-499.145508,2.047469
-153.900146,1117.126465,-502.807617,2.048247
-145.294189,1140.472412,-484.954834,2.049011
-118.835449,1142.486572,-474.884033,2.049796
-171.295166,1132.690430,-503.082275,2.050560
-185.852051,1117.034912,-484.313965,2.051323
-134.216309,1108.978271,-471.221924,2.052088
-118.927002,1099.548340,-519.836426,2.052855
-116.088867,1098.175049,-494.476318,2.053618
-112.518311,1081.512451,-519.744873,2.054383
-82.305908,1066.314697,-525.787354,2.055145
-57.128906,1063.751221,-511.047363,2.055962
-58.593750,1071.075439,-529.083252,2.056726
-82.214355,1074.920654,-541.717529,2.057480
-101.715088,1072.814941,-517.730713,2.058233
-144.561768,1085.906982,-467.376709,2.059025
-171.112061,1057.525635,-529.541016,2.059806
-208.648682,1043.426514,-526.519775,2.060583
-189.422607,1043.518066,-499.786377,2.061361
-207.183838,1082.885742,-508.941650,2.062176
-181.274414,1088.470459,-483.123779,2.062956
-157.928467,1033.813477,-526.977539,2.063736
-83.770752,957.366943,-561.218262,2.064537
83.312988,935.119629,-500.518799,2.065393
307.159424,944.915771,-502.899170,2.066190
434.967041,982.635498,-526.062012,2.067027
323.547363,976.867676,-519.104004,2.067864
114.990234,958.831787,-465.179443,2.068679
2.655029,962.493896,-387.542725,2.069466
-167.816162,967.895508,-373.352051,2.070248
-253.326416,1004.516602,-342.041016,2.071038
-259.552002,1023.010254,-289.123535,2.071803
-261.840820,1007.995605,-303.222656,2.072569
-209.381104,981.353760,-328.582764,2.073339
-169.006348,962.310791,-352.844238,2.074145
-126.983643,963.500977,-377.838135,2.074914
-108.489990,995.819092,-326.751709,2.075683
-112.060547,995.544434,-324.462891,2.076439
-168.365479,956.176758,-365.661621,2.077229
-181.732178,926.239014,-382.507324,2.078001
-155.273438,918.731689,-384.613037,2.078777
-121.765137,911.682129,-410.797119,2.079555
-106.292725,920.288086,-415.374756,2.080373
-106.567383,910.583496,-427.276611,2.081151
-121.490479,902.252197,-430.664062,2.081924
-169.097900,915.618896,-390.655518,2.082701
-162.689209,923.400879,-407.958984,2.083520
-159.667969,897.766113,-429.840088,2.084303
-156.005859,881.652832,-457.214355,2.085081
-119.567871,884.399414,-449.890137,2.085920
-126.983643,889.801025,-449.066162,2.086701
-133.483887,880.371094,-450.073242,2.087478
-147.766113,888.519287,-443.847656,2.088323
-154.815674,890.991211,-416.107178,2.089180
-164.520264,889.892578,-402.832031,2.089962
-189.971924,882.843018,-419.311523,2.090727
-203.796387,872.314453,-438.995361,2.091490
-197.387695,875.152588,-463.256836,2.092283
-161.865234,862.976074,-472.869873,2.093045
-147.857666,840.179443,-497.772217,2.093806
-158.386230,843.383789,-502.716064,2.094640
-189.422607,836.975098,-530.914307,2.095418
-198.760986,803.100586,-572.113037,2.096186
-200.317383,820.129395,-555.450439,2.097043
-136.230469,867.370605,-523.223877,2.097818
-177.337646,844.940186,-578.338623,2.098625
-208.557129,804.382324,-595.733643,2.099400
-228.515625,828.643799,-582.458496,2.100229
-169.921875,893.920898,-492.279053,2.101095
-194.183350,884.582520,-526.611328,2.101865
-231.903076,879.272461,-534.759521,2.102731
-235.473633,918.640137,-478.729248,2.103504
-232.727051,896.392822,-515.350342,2.104347
-221.191406,871.582031,-489.257812,2.105139
-146.667480,935.211182,-414.001465,2.105941
-148.040771,925.140381,-450.073242,2.106721
-218.078613,876.251221,-559.936523,2.107523
-257.354736,867.370605,-510.314941,2.108339
-224.853516,906.463623,-442.199707,2.109120
-175.323486,931.457520,-379.577637,2.109888
-193.359375,900.146484,-460.968018,2.110643
-219.818115,879.180908,-477.172852,2.111396
-249.298096,873.779297,-469.940186,2.112149
-257.720947,881.744385,-479.553223,2.112906
-238.311768,872.406006,-473.144531,2.113661
-208.007812,882.110596,-404.663086,2.114411
-194.091797,895.111084,-425.720215,2.115169
-236.022949,843.292236,-536.865234,2.115940
-257.720947,778.656006,-655.334473,2.116693
-248.199463,785.705566,-507.019043,2.117477
-169.830322,871.856689,-381.042480,2.118260
-237.304688,876.434326,-452.453613,2.119044
-295.257568,785.064697,-598.846436,2.119800
-335.998535,778.198242,-614.318848,2.120555
-363.006592,771.240234,-662.841797,2.121308
-314.025879,780.670166,-631.164551,2.122087
-207.000732,777.923584,-637.481689,2.122833
-211.853027,763.183594,-702.117920,2.123572
-247.009277,757.690430,-711.181641,2.124319
-266.143799,691.955566,-724.639893,2.125117
-297.180176,642.059326,-792.388916,2.125887
-287.658691,652.587891,-778.472900,2.126668
-285.644531,662.017822,-805.664062,2.127440
-295.349121,662.750244,-842.193604,2.128255
-342.681885,649.383545,-883.300781,2.129025
-267.150879,659.912109,-858.032227,2.129819
-39.001465,651.672363,-485.961914,2.130591
659.271240,671.356201,-240.875244,2.131393
974.121094,783.325195,102.264404,2.132160
738.555908,899.871826,-184.753418,2.132930
38.909912,848.693848,-454.559326,2.133700
-323.730469,632.446289,-869.476318,2.134503
-439.636230,495.758057,-863.433838,2.135269
-586.303711,522.583008,-717.407227,2.136112
-622.192383,550.140381,-678.588867,2.137029
-464.721680,538.513184,-710.449219,2.137809
-247.650146,520.111084,-849.609375,2.138602
-196.655273,462.249756,-1114.105225,2.139390
-100.982666,478.546143,-817.749023,2.140208
-20.416260,470.672607,-803.009033,2.140962
-54.473877,420.593262,-1032.989502,2.141717
-84.960938,353.027344,-1303.527832,2.142480
-131.195068,219.360352,-1371.276855,2.143270
1160.980225,904.998779,483.306885,2.144034
2999.908447,1594.207764,-106.109619,2.144796
2451.507568,803.283691,-2185.913086,2.145566
-1047.363281,-246.093750,-2770.935059,2.146360
-1796.173096,-429.290771,-2587.188721,2.147126
-1649.688721,-91.735840,-2387.969971,2.147892
-1731.994629,294.342041,-1418.060303,2.148658
-2155.059814,342.956543,-880.004883,2.149425
-2241.027832,362.182617,-334.350586,2.150190
-1516.571045,451.995850,-547.210693,2.150955
1020.721436,702.667236,-644.531250,2.151764
2999.908447,811.798096,-28.381348,2.152530
2999.908447,648.468018,245.727539,2.153295
1068.603516,605.712891,-9.338379,2.154062
822.143555,523.406982,-553.436279,2.154824
1112.457275,615.966797,-122.955322,2.155603
1273.681641,944.458008,-0.366211,2.156367
1342.987061,1180.206299,-197.204590,2.157132
1169.586182,1228.271484,-522.857666,2.157895
212.768555,1073.730469,-794.860840,2.158658
135.864258,933.929443,-782.684326,2.159452
175.323486,860.504150,-457.855225,2.160214
244.445801,757.232666,-345.703125,2.161001
300.659180,690.948486,-260.467529,2.161765
381.866455,716.033936,-266.418457,2.162527
575.408936,722.259521,-335.632324,2.163288
628.051758,697.265625,-460.235596,2.164079
694.793701,687.011719,-546.386719,2.164843
697.906494,520.843506,-747.802734,2.165604
675.201416,465.637207,-978.607178,2.166367
585.937500,418.212891,-1093.872070,2.167156
661.193848,640.502930,-1089.111328,2.167923
791.107178,759.338379,-976.776123,2.168685
920.288086,869.934082,-989.410400,2.169449
1039.306641,963.958740,-1124.450684,2.170239
705.505371,982.269287,-1000.030518,2.171048
-424.896240,740.386963,-756.408691,2.171812
307.342529,532.379150,-485.961914,2.172574
1206.115723,586.212158,-697.448730,2.173363
2158.813477,733.154297,-816.467285,2.174141
1075.378418,576.049805,-1015.228271,2.174905
854.187012,604.248047,-1244.110107,2.175675
825.347900,634.094238,-1380.706787,2.176479
-195.739746,391.937256,-1067.779541,2.177258
-929.077148,199.218750,-706.329346,2.178038
-989.227295,56.488037,-822.784424,2.178885
17.303467,289.947510,-978.515625,2.179661
638.854980,871.948242,-1044.433594,2.180423
228.973389,788.452148,-809.875488,2.181270
444.305420,641.601562,-800.903320,2.182059
1246.765137,732.971191,-916.168213,2.182822
1327.239990,698.272705,-1009.918213,2.183584
204.071045,386.444092,-1048.278809,2.184346
-250.946045,207.824707,-1162.811279,2.185124
-406.036377,539.245605,-1292.541504,2.185957
-411.163330,667.785645,-1157.043457,2.186728
223.480225,705.871582,-1031.433105,2.187492
27.282715,473.327637,-944.091797,2.188281
-308.532715,429.107666,-979.522705,2.189044
-866.821289,435.241699,-1189.453125,2.189809
-1011.474609,593.078613,-1173.889160,2.190638
-937.316895,706.695557,-848.419189,2.191451
-1400.207520,1044.342041,-661.010742,2.192233
-1413.757324,1018.249512,-527.984619,2.193012
-1183.959961,908.294678,-564.788818,2.193783
-1272.857666,732.879639,-690.673828,2.194570
-912.322998,839.813232,-1035.003662,2.195325
-999.206543,919.006348,-772.155762,2.196089
-1066.131592,804.565430,-717.041016,2.196846
-552.062988,815.460205,-876.617432,2.197648
-446.502686,869.476318,-965.606689,2.198413
-365.478516,898.223877,-860.687256,2.199177
-440.643311,810.791016,-784.423828,2.199942
-170.013428,864.440918,-846.588135,2.200708
