ACC_X,ACC_Y,ACC_Z,Time
-462.524414,739.288330,479.370117,0.000148
-464.447021,728.393555,475.799561,0.000920
-466.186523,747.253418,478.179932,0.001675
-468.292236,746.154785,476.440430,0.002417
-465.270996,745.605469,478.088379,0.003159
-464.630127,746.612549,477.813721,0.003900
-464.904785,741.943359,473.236084,0.004653
-462.982178,746.520996,475.982666,0.005395
-459.594727,742.218018,478.271484,0.006136
-461.700439,745.788574,473.419189,0.006877
-466.094971,743.499756,476.165771,0.007619
-462.524414,738.830566,475.799561,0.008351
-466.644287,747.253418,480.194092,0.009082
-457.305908,744.323730,473.876953,0.009812
-461.151123,729.034424,473.510742,0.010570
-468.383789,749.816895,478.271484,0.011311
-459.503174,756.225586,474.700928,0.012052
-460.601807,760.162354,481.933594,0.012793
-456.298828,746.337891,475.799561,0.013545
-460.693359,752.105713,484.130859,0.014286
-461.791992,751.464844,480.651855,0.015027
-451.812744,749.816895,480.651855,0.015768
-463.714600,757.232666,482.482910,0.016519
-451.904297,757.781982,488.433838,0.017260
-448.608398,751.098633,483.947754,0.018001
-457.763672,748.718262,477.539062,0.018741
-447.143555,740.478516,481.109619,0.019482
-451.446533,771.148682,486.694336,0.020213
-447.875977,749.450684,487.335205,0.020944
-452.911377,748.443604,479.003906,0.021675
-447.326660,748.168945,482.299805,0.022429
-447.875977,749.267578,487.518311,0.023169
-446.319580,747.253418,485.229492,0.023909
-443.298340,749.084473,480.834961,0.024649
-445.129395,748.901367,477.355957,0.025400
-446.777344,742.767334,481.384277,0.026140
-448.791504,748.535156,477.630615,0.026912
-445.678711,742.858887,476.806641,0.027664
-465.362549,750.457764,487.060547,0.028395
-447.326660,745.697021,478.271484,0.029125
-444.122314,748.077393,481.658936,0.029856
-438.903809,740.844727,481.567383,0.030609
-439.544678,743.133545,475.433350,0.031349
-434.509277,740.386963,480.377197,0.032088
-433.685303,744.049072,486.328125,0.032828
-442.199707,734.069824,479.919434,0.033647
-440.917969,738.281250,474.884033,0.034400
-440.277100,738.006592,486.145020,0.035148
-440.093994,731.140137,485.229492,0.035892
-436.523438,734.069824,481.933594,0.036667
-443.847656,736.999512,480.743408,0.037410
-440.368652,732.604980,486.419678,0.038153
-439.361572,731.872559,482.208252,0.038895
-444.671631,735.992432,486.968994,0.039638
-441.192627,713.653564,480.926514,0.040380
-440.185547,731.048584,484.130859,0.041123
-441.925049,729.400635,476.531982,0.041865
-437.530518,730.133057,478.912354,0.042608
-435.150146,729.949951,481.475830,0.043350
-438.262939,731.964111,472.503662,0.044098
-438.354492,724.365234,475.341797,0.044845
-436.614990,728.668213,476.623535,0.045580
-446.960449,728.210449,470.214844,0.046313
-434.143066,726.654053,480.102539,0.047053
-436.798096,704.589844,475.524902,0.047797
-447.052002,719.879150,476.623535,0.048540
-422.149658,719.055176,476.898193,0.049284
-439.544678,725.921631,477.081299,0.050028
-446.411133,719.696045,476.440430,0.050772
-438.537598,719.329834,478.454590,0.051539
-442.382812,724.182129,481.567383,0.052284
-439.086914,720.062256,477.630615,0.053045
-439.270020,722.625732,480.560303,0.053790
-447.692871,717.681885,475.891113,0.054533
-443.023682,717.498779,474.609375,0.055277
-448.333740,715.850830,473.785400,0.056032
-438.446045,720.977783,472.229004,0.056776
-442.016602,718.048096,471.954346,0.057520
-443.115234,713.562012,468.841553,0.058281
-437.805176,716.217041,474.609375,0.059112
-441.833496,716.125488,448.791504,0.059862
-443.756104,713.928223,475.250244,0.060605
-442.199707,714.752197,472.869873,0.061349
-440.917969,718.688965,473.419189,0.062101
-432.769775,718.963623,475.158691,0.062835
-432.495117,725.372314,475.250244,0.063568
-445.220947,710.815430,469.757080,0.064302
-442.840576,720.336914,474.517822,0.065062
-443.939209,721.527100,476.165771,0.065807
-440.826416,721.710205,475.708008,0.066551
-438.446045,728.668213,471.405029,0.067316
-443.023682,727.386475,469.116211,0.068091
-447.601318,719.604492,472.869873,0.068834
-444.671631,728.210449,473.327637,0.069577
-443.572998,735.076904,471.038818,0.070330
-443.847656,728.668213,478.637695,0.071189
-441.284180,724.731445,469.757080,0.071932
-444.763184,730.316162,476.257324,0.072674
-441.650391,725.280762,478.637695,0.073430
-446.502686,736.450195,477.722168,0.074195
-448.608398,741.577148,472.412109,0.074938
-442.199707,738.739014,472.503662,0.075680
-439.361572,736.816406,478.179932,0.076436
-443.298340,742.401123,472.961426,0.077174
-442.016602,739.013672,477.722168,0.077907
-435.699463,735.076904,473.693848,0.078659
-435.150146,735.168457,472.686768,0.079418
-434.967041,738.281250,476.806641,0.080151
-436.065674,738.281250,469.482422,0.080885
-437.255859,737.548828,475.067139,0.081619
-439.086914,745.239258,473.419189,0.082368
-443.298340,745.880127,477.081299,0.083116
-436.431885,743.316650,475.067139,0.083849
-440.734863,743.865967,481.018066,0.084588
-444.488525,739.471436,475.433350,0.085322
-443.756104,743.774414,481.384277,0.086055
-439.453125,739.837646,479.461670,0.086788
-440.917969,729.766846,485.137939,0.087545
-441.650391,743.133545,486.145020,0.088290
-446.777344,737.274170,479.095459,0.089034
-441.101074,745.971680,483.764648,0.089778
-446.960449,741.394043,479.278564,0.090524
-459.777832,736.907959,477.630615,0.091268
-450.805664,738.555908,479.370117,0.092011
-436.065674,742.126465,487.701416,0.092755
-447.052002,748.168945,481.933594,0.093495
-446.868896,737.091064,483.856201,0.094229
-440.826416,737.091064,484.497070,0.094962
-461.608887,740.295410,480.194092,0.095750
-445.129395,738.830566,480.377197,0.096509
-444.305420,741.210938,477.447510,0.097253
-446.777344,737.640381,478.637695,0.097997
-446.044922,742.034912,487.335205,0.098741
-441.467285,737.457275,477.172852,0.099495
-439.819336,744.964600,472.961426,0.100239
-443.572998,740.020752,482.574463,0.100982
-450.805664,740.753174,479.003906,0.101726
-443.664551,742.309570,480.194092,0.102462
-444.671631,743.957520,480.102539,0.103196
-448.333740,738.372803,480.560303,0.103985
-444.213867,739.379883,477.447510,0.104730
-442.932129,728.851318,488.250732,0.105482
-444.946289,731.048584,483.398438,0.106223
-447.875977,738.922119,485.321045,0.106964
-441.650391,736.541748,480.102539,0.107730
-423.156738,737.915039,479.919434,0.108488
-449.432373,728.759766,481.658936,0.109233
-443.847656,738.464355,483.215332,0.109976
-453.002930,735.076904,476.989746,0.110720
-452.178955,733.520508,479.370117,0.111464
-430.206299,737.640381,484.954834,0.112198
-447.235107,738.006592,480.377197,0.112932
-445.129395,735.900879,480.651855,0.113666
-440.460205,728.851318,482.299805,0.114426
-438.262939,732.696533,482.849121,0.115170
-440.185547,726.654053,475.341797,0.115914
-441.925049,726.745605,483.398438,0.116657
-446.044922,721.252441,479.003906,0.117411
-448.883057,721.527100,476.165771,0.118156
-441.101074,723.999023,481.842041,0.118899
-444.030762,723.449707,480.560303,0.119643
-449.157715,725.097656,477.630615,0.120396
-447.601318,727.569580,483.215332,0.121140
-445.129395,723.541260,477.905273,0.121883
-443.939209,720.336914,482.666016,0.122627
-440.551758,721.069336,474.609375,0.123371
-441.375732,723.358154,478.179932,0.124105
-439.819336,724.914551,480.377197,0.124838
-441.101074,719.879150,477.630615,0.125572
-442.291260,732.147217,473.876953,0.126339
-424.438477,724.914551,475.433350,0.127082
-443.847656,726.562500,474.884033,0.127825
-447.692871,723.083496,472.137451,0.128567
-445.678711,728.210449,484.313965,0.129319
-447.143555,730.133057,479.461670,0.130062
-422.149658,720.977783,478.271484,0.130804
-443.298340,728.668213,473.693848,0.131547
-440.277100,726.837158,474.609375,0.132299
-442.474365,727.844238,476.989746,0.133041
-447.875977,728.485107,477.264404,0.133783
-448.516846,734.985352,476.715088,0.134525
-445.861816,732.696533,473.419189,0.135278
-452.545166,732.147217,475.982666,0.136021
-447.326660,736.175537,477.630615,0.136763
-451.354980,736.450195,475.982666,0.137505
-467.926025,731.140137,473.968506,0.138248
-445.312500,742.034912,476.989746,0.138990
-449.340820,744.598389,476.989746,0.139732
-448.974609,738.189697,481.292725,0.140475
-455.841064,735.626221,467.834473,0.141217
-455.566406,741.210938,475.067139,0.142058
-453.002930,744.232178,483.947754,0.142804
-453.643799,745.880127,482.116699,0.143546
-456.024170,746.246338,471.313477,0.144302
-456.024170,751.007080,481.201172,0.145045
-450.714111,747.253418,475.891113,0.145787
-459.136963,747.161865,481.567383,0.146530
-458.221436,772.430420,481.475830,0.147282
-463.073730,750.091553,476.898193,0.148024
-461.517334,754.852295,478.271484,0.148767
-461.425781,748.260498,476.989746,0.149509
-463.165283,753.295898,478.820801,0.150261
-460.968018,771.881104,479.827881,0.151003
-469.482422,748.077393,476.348877,0.151745
-476.806641,752.380371,477.539062,0.152487
-467.193604,747.985840,469.848633,0.153239
-474.151611,749.908447,473.419189,0.153981
-475.708008,727.935791,468.933105,0.154723
-469.116211,750.549316,477.722168,0.155466
-472.869873,755.035400,474.609375,0.156218
-479.461670,749.725342,477.813721,0.156961
-471.405029,744.506836,473.327637,0.157703
-474.609375,771.331787,474.426270,0.158446
-471.496582,739.471436,470.581055,0.159211
-478.820801,748.718262,476.165771,0.159844
-475.524902,752.655029,465.820312,0.160606
-477.996826,755.676270,473.602295,0.161368
-475.067139,756.500244,473.327637,0.162164
-474.792480,751.281738,470.947266,0.162962
-475.524902,757.415771,477.996826,0.163746
-478.912354,760.894775,471.313477,0.164548
-478.637695,755.401611,476.257324,0.165343
-479.278564,754.669189,469.940186,0.166108
-478.820801,756.683350,473.327637,0.166872
-477.172852,763.732910,480.926514,0.167668
-483.398438,762.084961,475.891113,0.168421
-474.884033,755.859375,472.686768,0.169203
-477.264404,756.317139,474.517822,0.169967
-484.680176,753.387451,466.918945,0.170760
-490.356445,766.479492,469.665527,0.171546
-477.264404,763.458252,474.792480,0.172293
-481.201172,752.105713,481.933594,0.173057
-477.539062,761.718750,476.623535,0.173800
-481.933594,757.873535,474.426270,0.174543
-482.299805,764.282227,474.060059,0.175285
-488.525391,769.042969,479.370117,0.176072
-484.130859,768.585205,480.377197,0.176833
-486.053467,766.387939,476.257324,0.177594
-486.694336,773.254395,480.285645,0.178348
-486.968994,764.190674,481.750488,0.179124
-483.306885,771.148682,478.637695,0.179868
-483.398438,767.852783,476.531982,0.180612
-487.152100,776.184082,479.095459,0.181423
-486.877441,768.402100,477.172852,0.182190
-482.940674,768.127441,476.440430,0.182939
-482.208252,771.331787,480.834961,0.183711
-480.560303,776.641846,481.475830,0.184459
-479.827881,778.289795,480.743408,0.185201
-482.666016,771.423340,484.405518,0.185943
-484.771729,750.183105,481.018066,0.186686
-481.842041,767.578125,476.165771,0.187428
-478.820801,780.120850,478.912354,0.188170
-479.187012,776.550293,475.891113,0.188913
-479.370117,771.057129,476.440430,0.189655
-473.144531,768.127441,473.693848,0.190397
-477.996826,771.514893,478.454590,0.191154
-471.679688,765.014648,482.849121,0.191897
-476.257324,764.648438,481.842041,0.192639
-473.144531,762.359619,476.531982,0.193381
-477.905273,759.338379,475.708008,0.194137
-477.081299,764.099121,478.546143,0.194879
-470.123291,762.451172,475.891113,0.195622
-469.299316,760.803223,471.496582,0.196364
-470.306396,756.774902,474.609375,0.197118
-469.757080,761.535645,474.426270,0.197861
-472.778320,758.880615,476.623535,0.198603
-478.637695,756.958008,480.377197,0.199345
-469.757080,760.620117,471.954346,0.200097
-468.109131,760.162354,471.954346,0.200839
-469.848633,756.958008,480.651855,0.201581
-472.045898,749.084473,468.383789,0.202324
-466.918945,754.211426,476.165771,0.203075
-466.094971,747.528076,469.848633,0.203817
-466.461182,750.183105,472.229004,0.204559
-465.545654,755.035400,475.982666,0.205302
-469.848633,753.021240,474.700928,0.206061
-463.714600,753.295898,473.602295,0.206804
-469.757080,753.295898,471.771240,0.207546
-465.820312,756.408691,468.658447,0.208288
-463.439941,751.098633,469.940186,0.209040
-466.552734,750.457764,470.947266,0.209820
-461.151123,739.562988,466.369629,0.210565
-463.897705,751.464844,478.454590,0.211307
-458.404541,751.739502,473.236084,0.212062
-462.615967,750.183105,477.081299,0.212805
-455.383301,751.190186,468.383789,0.213548
-459.411621,742.218018,471.221924,0.214387
-455.474854,751.281738,477.172852,0.215154
-450.897217,746.612549,472.595215,0.215906
-454.833984,748.443604,476.165771,0.216683
-457.305908,747.985840,469.299316,0.217439
-462.066650,748.352051,470.397949,0.218198
-458.679199,739.746094,473.693848,0.218951
-455.474854,745.971680,476.806641,0.219722
-460.784912,746.978760,472.045898,0.220530
-456.665039,748.809814,474.975586,0.221286
-457.580566,745.147705,475.982666,0.222040
-457.580566,745.239258,471.771240,0.222796
-453.094482,748.626709,475.708008,0.223582
-447.326660,745.697021,474.060059,0.224366
-444.030762,754.028320,476.715088,0.225119
-456.756592,745.971680,468.841553,0.225860
-449.523926,749.908447,475.250244,0.226637
-454.650879,757.873535,473.236084,0.227372
-452.636719,745.422363,469.207764,0.228114
-457.397461,746.246338,467.010498,0.228874
-454.284668,747.894287,467.193604,0.229608
-453.460693,743.133545,470.489502,0.230341
-458.221436,755.401611,471.862793,0.231075
-460.418701,741.668701,461.334229,0.231808
-449.432373,748.077393,460.968018,0.232551
-451.904297,743.133545,468.475342,0.233284
-447.143555,735.443115,467.559814,0.234051
-447.052002,748.992920,475.891113,0.234819
-447.692871,738.922119,469.116211,0.235593
-448.059082,743.133545,463.897705,0.236337
-452.270508,740.386963,467.285156,0.237079
-458.679199,743.408203,471.954346,0.237821
-450.805664,744.323730,472.503662,0.238563
-451.904297,740.753174,479.736328,0.239305
-440.826416,739.288330,471.588135,0.240048
-454.650879,740.844727,474.700928,0.240790
-459.320068,741.119385,478.546143,0.241532
-456.207275,745.605469,467.926025,0.242274
-458.312988,737.091064,472.229004,0.243016
-458.404541,741.027832,469.024658,0.243817
-460.784912,738.098145,467.468262,0.244571
-459.869385,741.577148,477.081299,0.245329
-462.341309,745.788574,471.862793,0.246077
-450.531006,753.662109,473.968506,0.246820
-444.213867,742.675781,474.060059,0.247562
-452.636719,744.781494,476.531982,0.248304
-454.101562,744.598389,479.095459,0.249046
-454.010010,750.457764,476.715088,0.249787
-458.862305,752.655029,475.708008,0.250528
-450.805664,748.901367,475.799561,0.251294
-454.833984,753.753662,472.961426,0.252043
-452.178955,745.330811,473.327637,0.252806
-453.002930,744.781494,476.440430,0.253551
-452.545166,748.809814,480.285645,0.254294
-441.192627,748.352051,484.130859,0.255038
-445.404053,747.711182,480.926514,0.255791
-446.319580,751.556396,477.813721,0.256535
-467.468262,754.943848,480.377197,0.257279
-450.164795,750.274658,479.553223,0.258022
-450.164795,744.140625,473.052979,0.258775
-444.488525,742.218018,479.278564,0.259551
-459.777832,739.379883,471.313477,0.260297
-445.495605,743.408203,474.334717,0.261041
-447.784424,740.478516,470.031738,0.261796
-450.073242,737.640381,475.067139,0.262540
-442.840576,742.126465,476.074219,0.263283
-449.157715,734.710693,476.074219,0.264027
-457.122803,739.837646,477.813721,0.264780
-451.446533,738.922119,484.497070,0.265524
-451.354980,734.344482,470.306396,0.266268
-446.960449,735.626221,471.679688,0.267011
-445.220947,734.985352,477.539062,0.267755
-448.425293,737.823486,472.045898,0.268489
-444.671631,740.753174,475.158691,0.269223
-443.115234,736.999512,473.144531,0.269956
-449.066162,731.872559,474.609375,0.270730
-446.777344,735.260010,482.208252,0.271473
-452.453613,734.802246,476.440430,0.272235
-451.538086,731.414795,475.067139,0.272991
-444.763184,738.006592,473.419189,0.273744
-447.784424,727.844238,477.996826,0.274486
-443.572998,736.724854,468.566895,0.275225
-442.840576,727.203369,469.757080,0.275959
-433.410645,735.260010,472.137451,0.276714
-439.453125,728.851318,492.095947,0.277456
-432.952881,733.154297,472.045898,0.278197
-442.840576,736.907959,468.841553,0.278940
-438.537598,730.499268,469.573975,0.279692
-443.298340,730.957031,474.884033,0.280434
-442.657471,729.125977,491.271973,0.281176
-436.248779,729.125977,472.320557,0.281918
-430.572510,732.238770,472.961426,0.282762
-431.304932,738.647461,477.996826,0.283506
-426.361084,737.823486,476.257324,0.284249
-435.241699,733.428955,473.693848,0.284991
-429.382324,733.886719,469.024658,0.285846
-428.192139,734.252930,467.926025,0.286589
-426.544189,733.428955,471.771240,0.287331
-432.952881,733.978271,474.700928,0.288073
-425.903320,740.936279,477.355957,0.288825
-434.692383,738.739014,478.454590,0.289568
-427.642822,741.119385,480.468750,0.290310
-432.495117,745.239258,486.053467,0.291052
-424.346924,743.133545,479.095459,0.291804
-430.572510,739.379883,478.271484,0.292547
-434.783936,737.091064,475.067139,0.293289
-433.410645,737.457275,481.750488,0.294031
-433.685303,736.175537,477.539062,0.294788
-434.600830,737.182617,482.025146,0.295531
-440.185547,743.041992,476.623535,0.296273
-435.699463,742.401123,475.891113,0.297015
-433.502197,744.415283,479.003906,0.297768
-443.572998,747.070312,476.531982,0.298510
-439.270020,743.041992,476.074219,0.299252
-443.298340,727.020264,479.095459,0.300055
-449.066162,737.823486,484.771729,0.300808
-451.354980,752.563477,478.179932,0.301551
-441.192627,745.971680,484.313965,0.302293
-451.080322,748.809814,479.278564,0.303036
-443.756104,747.070312,479.827881,0.303788
-452.362061,750.274658,478.729248,0.304530
-448.059082,748.626709,480.102539,0.305273
-446.319580,746.246338,481.567383,0.306016
-447.601318,748.809814,484.680176,0.306785
-445.037842,745.239258,481.658936,0.307602
-451.721191,737.915039,474.151611,0.308377
-447.509766,741.485596,480.010986,0.309127
-453.552246,734.527588,478.363037,0.309870
-454.559326,740.386963,477.081299,0.310612
-449.157715,735.443115,471.405029,0.311355
-451.263428,736.816406,470.031738,0.312151
-449.798584,738.922119,478.546143,0.312910
-454.559326,730.133057,475.433350,0.313660
-452.270508,737.091064,479.827881,0.314432
-451.995850,730.407715,474.334717,0.315179
-448.974609,735.809326,479.919434,0.315921
-449.981689,746.154785,465.911865,0.316664
-452.362061,728.759766,471.313477,0.317407
-455.566406,739.654541,471.313477,0.318174
-456.298828,731.689453,464.630127,0.318923
-462.158203,733.886719,460.235596,0.319666
-460.510254,733.886719,466.369629,0.320408
-459.411621,737.915039,465.454102,0.321150
-465.270996,731.781006,470.764160,0.321890
-472.412109,739.471436,468.750000,0.322653
-490.173340,740.844727,469.940186,0.323400
-462.615967,744.049072,472.320557,0.324156
-465.270996,738.372803,469.848633,0.324898
-467.010498,731.414795,473.419189,0.325641
-467.468262,741.394043,477.722168,0.326384
-467.376709,743.316650,475.524902,0.327138
-465.087891,744.506836,476.531982,0.327881
-468.566895,751.831055,470.306396,0.328623
-472.229004,749.267578,473.968506,0.329366
-472.137451,746.704102,479.919434,0.330115
-470.214844,745.788574,472.961426,0.330858
-473.327637,748.352051,478.820801,0.331601
-472.595215,753.479004,479.278564,0.332399
-467.651367,750.915527,479.644775,0.333155
-469.482422,750.274658,479.461670,0.333898
-472.595215,747.894287,478.363037,0.334641
-466.827393,750.366211,471.862793,0.335384
-473.144531,753.295898,475.616455,0.336136
-467.651367,751.373291,470.214844,0.336879
-463.439941,758.789062,471.771240,0.337621
-467.193604,754.852295,471.954346,0.338364
-463.348389,754.577637,473.510742,0.339116
-467.742920,752.655029,467.559814,0.339858
-467.468262,753.845215,475.158691,0.340601
-469.757080,750.640869,465.820312,0.341343
-463.623047,751.739502,471.496582,0.342133
-459.320068,755.584717,470.947266,0.342877
-465.179443,757.049561,473.052979,0.343620
-468.566895,757.415771,468.292236,0.344362
-463.989258,757.598877,465.270996,0.345115
-460.144043,750.732422,466.918945,0.345858
-460.144043,763.366699,471.221924,0.346600
-457.763672,758.605957,472.961426,0.347343
-453.002930,759.429932,472.229004,0.348096
-456.115723,756.774902,474.700928,0.348839
-459.594727,757.232666,475.341797,0.349581
-455.474854,755.401611,476.348877,0.350324
-457.305908,763.275146,482.208252,0.351076
-455.017090,760.345459,488.159180,0.351840
-457.122803,757.324219,483.306885,0.352583
-462.707520,754.577637,478.546143,0.353325
-456.207275,752.014160,481.475830,0.354078
-455.200195,750.549316,481.933594,0.354821
-456.756592,756.958008,483.856201,0.355564
-456.848145,761.901855,485.595703,0.356306
-462.066650,752.746582,487.243652,0.357156
-456.939697,766.387939,484.497070,0.357900
-449.890137,770.050049,490.722656,0.358643
-454.742432,763.458252,490.264893,0.359385
-452.178955,757.324219,484.771729,0.360138
-455.932617,762.084961,480.377197,0.360881
-456.390381,751.281738,485.137939,0.361623
-453.186035,759.704590,490.631104,0.362365
-460.144043,747.985840,481.109619,0.363116
-449.523926,753.662109,484.588623,0.363860
-457.489014,753.570557,483.032227,0.364633
-447.235107,748.535156,476.165771,0.365449
-446.685791,755.401611,480.377197,0.366220
-447.052002,750.457764,486.236572,0.366963
-439.178467,744.598389,475.250244,0.367705
-441.558838,747.894287,477.447510,0.368448
-442.382812,744.049072,480.651855,0.369200
-428.192139,738.006592,478.546143,0.369942
-445.312500,734.619141,477.355957,0.370685
-445.678711,741.302490,473.510742,0.371428
-443.756104,741.760254,474.517822,0.372178
-441.375732,744.506836,478.179932,0.372930
-442.199707,744.598389,482.940674,0.373668
-435.791016,741.577148,483.581543,0.374403
-442.382812,739.196777,478.454590,0.375136
-440.551758,738.647461,475.616455,0.375885
-444.122314,744.873047,482.482910,0.376658
-450.164795,746.978760,482.940674,0.377405
-448.242188,747.344971,486.602783,0.378140
-447.235107,743.865967,484.588623,0.378903
-456.573486,737.091064,490.081787,0.379661
-445.129395,738.647461,487.060547,0.380442
-441.833496,736.358643,475.799561,0.381176
-449.249268,735.168457,478.729248,0.381910
-455.566406,734.710693,477.081299,0.382642
-449.707031,737.640381,482.025146,0.383466
-443.206787,734.252930,482.482910,0.384226
-445.404053,733.520508,473.510742,0.384990
-448.883057,736.175537,474.334717,0.385740
-440.185547,732.879639,474.243164,0.386507
-446.136475,727.111816,477.172852,0.387250
-448.516846,727.752686,472.961426,0.387992
-447.967529,725.555420,467.102051,0.388735
-447.784424,726.928711,473.785400,0.389487
-446.044922,726.928711,470.764160,0.390229
-449.890137,727.844238,469.482422,0.390972
-444.396973,733.062744,469.940186,0.391714
-443.206787,722.625732,468.566895,0.392464
-443.206787,724.914551,468.933105,0.393205
-448.883057,729.675293,469.573975,0.394038
-447.875977,727.478027,469.024658,0.394809
-445.312500,732.421875,470.397949,0.395608
-442.657471,732.513428,471.405029,0.396369
-434.875488,730.316162,474.151611,0.397115
-453.094482,741.760254,466.003418,0.397858
-455.108643,735.168457,461.883545,0.398646
-447.692871,734.527588,465.911865,0.399390
-451.171875,727.569580,466.186523,0.400132
-451.263428,734.893799,471.771240,0.400875
-448.883057,740.753174,469.573975,0.401627
-445.587158,736.541748,467.834473,0.402373
-455.932617,740.936279,479.827881,0.403175
-448.059082,736.267090,473.052979,0.403935
-448.425293,747.436523,473.052979,0.404700
-448.150635,744.598389,473.693848,0.405476
-447.235107,740.020752,475.433350,0.406226
-446.228027,734.710693,478.454590,0.407001
-452.636719,744.049072,469.757080,0.407746
-450.897217,735.809326,465.545654,0.408488
-451.629639,747.070312,475.158691,0.409231
-451.263428,751.190186,474.334717,0.410092
-449.890137,746.337891,479.644775,0.410838
-454.559326,747.528076,476.074219,0.411581
-457.122803,751.190186,475.982666,0.412323
-454.376221,745.697021,474.792480,0.413064
-452.270508,748.535156,469.116211,0.413822
-452.911377,739.929199,470.214844,0.414566
-457.489014,747.619629,468.841553,0.415309
-457.214355,730.773926,473.419189,0.416064
-457.855225,749.816895,476.715088,0.416807
-457.763672,748.260498,464.630127,0.417549
-450.805664,753.204346,470.489502,0.418292
-457.122803,752.563477,468.658447,0.419034
-460.235596,750.183105,474.700928,0.419777
-462.341309,745.147705,477.081299,0.420571
-462.158203,757.324219,466.003418,0.421314
-454.742432,754.669189,475.158691,0.422068
-456.665039,757.598877,474.517822,0.422810
-451.812744,751.464844,473.510742,0.423553
-456.848145,751.922607,473.510742,0.424296
-458.312988,752.838135,474.609375,0.425048
-456.665039,754.028320,473.693848,0.425791
-453.826904,761.077881,468.566895,0.426534
-457.580566,758.789062,475.158691,0.427276
-456.024170,754.577637,470.489502,0.428019
-452.911377,756.866455,473.876953,0.428762
-454.742432,760.253906,479.919434,0.429601
-455.383301,757.049561,475.799561,0.430345
-459.045410,749.816895,472.045898,0.431090
-461.151123,758.697510,481.018066,0.431832
-457.763672,760.253906,476.623535,0.432575
-453.826904,756.774902,478.912354,0.433317
-458.770752,757.141113,474.975586,0.434125
-461.334229,759.887695,484.222412,0.434870
-457.031250,748.077393,474.243164,0.435612
-460.693359,761.077881,481.750488,0.436355
-458.770752,751.922607,479.095459,0.437107
-453.552246,753.936768,477.996826,0.437850
-454.467773,761.718750,476.074219,0.438593
-456.207275,759.063721,472.137451,0.439335
-447.967529,753.112793,472.045898,0.440088
-456.573486,751.922607,481.567383,0.440831
-453.735352,751.922607,482.025146,0.441573
-450.622559,754.211426,471.862793,0.442315
-449.798584,756.683350,476.531982,0.443067
-453.643799,750.000000,483.123779,0.443810
-459.869385,752.929688,479.003906,0.444589
-449.340820,761.535645,484.771729,0.445333
-452.911377,760.345459,488.891602,0.446086
-447.326660,761.169434,478.363037,0.446829
-451.995850,761.260986,485.504150,0.447572
-446.868896,753.021240,479.003906,0.448315
-454.193115,751.739502,484.497070,0.449094
-454.284668,753.570557,490.447998,0.449846
-453.002930,757.141113,486.145020,0.450621
-455.566406,727.478027,484.405518,0.451371
-451.538086,755.126953,478.729248,0.452138
-448.242188,753.570557,483.856201,0.452882
-455.017090,753.662109,483.673096,0.453684
-452.362061,746.429443,476.989746,0.454443
-452.453613,749.267578,475.982666,0.455193
-458.496094,749.633789,480.926514,0.455963
-451.721191,746.246338,479.278564,0.456707
-450.714111,747.802734,476.898193,0.457450
-446.594238,745.605469,477.447510,0.458192
-450.073242,741.668701,478.271484,0.458935
-455.566406,745.239258,478.179932,0.459678
-449.798584,750.274658,480.743408,0.460420
-447.875977,747.528076,478.912354,0.461194
-447.326660,745.056152,474.700928,0.461938
-460.968018,747.344971,473.968506,0.462680
-455.841064,741.394043,477.355957,0.463422
-450.347900,743.041992,479.827881,0.464163
-447.418213,738.098145,473.968506,0.464903
-444.305420,740.020752,479.919434,0.465643
-448.425293,739.196777,477.355957,0.466409
-438.262939,743.682861,474.792480,0.467156
-440.917969,738.647461,479.278564,0.467898
-449.340820,738.372803,472.137451,0.468640
-450.073242,744.415283,474.151611,0.469383
-447.784424,736.816406,475.341797,0.470126
-446.960449,733.978271,477.539062,0.470868
-444.854736,738.922119,475.982666,0.471611
-446.868896,735.076904,476.165771,0.472354
-452.178955,738.098145,472.961426,0.473097
-455.932617,735.260010,475.067139,0.473840
-456.573486,737.182617,480.102539,0.474583
-450.714111,743.041992,474.884033,0.475326
-448.883057,737.548828,475.341797,0.476068
-451.538086,737.365723,482.391357,0.476811
-444.305420,739.929199,483.673096,0.477553
-443.389893,747.161865,481.109619,0.478309
-450.256348,743.408203,482.666016,0.479052
-447.418213,740.753174,479.919434,0.479794
-453.826904,736.816406,481.842041,0.480586
-456.756592,734.619141,485.137939,0.481332
-458.770752,733.428955,481.475830,0.482074
-454.193115,738.006592,486.785889,0.482817
-452.819824,739.837646,484.954834,0.483559
-456.207275,745.788574,488.708496,0.484302
-452.270508,727.935791,484.222412,0.485044
-452.545166,739.654541,480.468750,0.485787
-446.411133,737.182617,491.363525,0.486530
-453.918457,727.661133,484.588623,0.487285
-449.798584,738.098145,481.750488,0.488028
-451.263428,739.562988,478.454590,0.488771
-451.995850,734.802246,471.771240,0.489514
-451.629639,744.689941,476.531982,0.490265
-450.988770,746.063232,454.833984,0.491008
-454.284668,743.957520,474.243164,0.491751
-451.995850,741.394043,466.918945,0.492493
-442.108154,739.013672,477.172852,0.493236
-453.460693,733.154297,474.151611,0.493979
-453.277588,731.781006,470.764160,0.494722
-450.256348,729.034424,464.904785,0.495494
-456.665039,729.034424,476.898193,0.496270
-454.559326,727.569580,481.018066,0.497027
-450.256348,733.978271,475.891113,0.497769
-453.552246,742.218018,472.778320,0.498512
-455.932617,733.978271,472.686768,0.499265
-455.383301,739.379883,482.391357,0.500040
-447.967529,739.105225,471.038818,0.500935
-438.537598,738.098145,476.715088,0.501729
-441.741943,733.612061,477.081299,0.502482
-448.791504,734.985352,469.299316,0.503279
-450.714111,735.260010,482.116699,0.504069
-453.369141,733.612061,482.574463,0.504852
-444.580078,736.175537,473.144531,0.505665
-444.305420,733.245850,473.785400,0.506425
-451.446533,733.703613,469.573975,0.507253
-449.157715,736.175537,476.806641,0.508067
-449.981689,730.133057,476.440430,0.508896
-447.052002,733.245850,476.806641,0.509654
-447.875977,733.154297,477.630615,0.510446
-446.411133,739.105225,475.433350,0.511183
-446.777344,732.696533,476.806641,0.511917
-444.854736,735.076904,474.975586,0.512705
-466.552734,734.344482,476.623535,0.513440
-443.023682,742.126465,474.975586,0.514174
-447.509766,737.915039,471.130371,0.514908
-448.608398,731.231689,476.715088,0.515641
-443.847656,732.971191,469.848633,0.516374
-466.918945,737.365723,468.566895,0.517107
-441.101074,733.978271,476.074219,0.517842
-442.199707,726.562500,470.855713,0.518596
-442.932129,737.915039,470.855713,0.519365
-449.340820,741.210938,472.778320,0.520124
-442.657471,735.626221,475.891113,0.520892
-448.150635,737.091064,480.194092,0.521631
-444.580078,740.295410,475.524902,0.522364
-422.241211,743.316650,485.046387,0.523169
-442.657471,738.372803,482.025146,0.523933
-445.312500,740.570068,474.884033,0.524682
-442.932129,742.401123,482.574463,0.525423
-442.840576,742.218018,471.954346,0.526204
-443.847656,739.288330,470.397949,0.526944
-439.361572,734.069824,475.891113,0.527678
-438.171387,741.394043,476.074219,0.528411
-433.868408,739.379883,472.412109,0.529159
-445.220947,735.900879,473.052979,0.529893
-443.847656,733.886719,465.454102,0.530627
-441.741943,739.929199,481.018066,0.531359
-437.255859,743.957520,479.095459,0.532109
-438.812256,745.513916,472.961426,0.532842
-441.650391,743.682861,478.088379,0.533576
-441.009521,743.591309,472.229004,0.534308
-423.339844,740.661621,468.933105,0.535073
-446.319580,738.922119,472.137451,0.535811
-445.404053,736.358643,478.912354,0.536544
-450.897217,742.218018,476.623535,0.537277
-441.375732,746.154785,472.869873,0.538023
-441.284180,744.781494,475.433350,0.538757
-442.382812,748.168945,473.327637,0.539490
-447.052002,747.894287,475.250244,0.540223
-444.763184,735.351562,479.736328,0.540966
-452.911377,742.401123,476.898193,0.541699
-450.988770,750.457764,479.553223,0.542433
-453.002930,751.922607,471.313477,0.543166
-451.995850,744.140625,479.919434,0.543914
-447.418213,740.203857,472.137451,0.544648
-448.150635,744.964600,476.898193,0.545382
-450.347900,737.731934,476.257324,0.546115
-452.819824,740.386963,480.468750,0.546859
-455.841064,742.584229,471.588135,0.547593
-446.868896,740.203857,469.390869,0.548326
-444.671631,735.717773,473.785400,0.549060
-451.080322,736.999512,474.700928,0.549803
-447.601318,736.267090,469.482422,0.550536
-440.185547,737.548828,466.094971,0.551269
-445.404053,738.372803,471.130371,0.552084
-449.157715,732.055664,473.236084,0.552850
-451.263428,732.971191,465.728760,0.553593
-439.636230,737.548828,471.862793,0.554336
-443.847656,739.746094,469.757080,0.555079
-446.868896,730.682373,471.954346,0.555831
-444.488525,728.118896,468.383789,0.556573
-445.678711,724.548340,467.834473,0.557316
-447.052002,728.576660,468.109131,0.558059
-446.044922,726.379395,467.285156,0.558811
-448.242188,747.711182,469.390869,0.559554
-452.270508,728.118896,473.602295,0.560297
-449.615479,718.963623,469.665527,0.561056
-448.059082,719.970703,467.376709,0.561976
-450.805664,726.013184,471.679688,0.562759
-455.566406,727.386475,473.236084,0.563502
-452.178955,728.576660,475.799561,0.564245
-453.643799,726.654053,469.207764,0.564988
-454.833984,725.097656,460.327148,0.565730
-452.911377,725.280762,466.644287,0.566473
-447.875977,731.964111,467.193604,0.567227
-449.157715,725.280762,467.926025,0.567970
-447.326660,734.619141,468.475342,0.568713
-445.495605,737.091064,474.151611,0.569455
-453.460693,724.182129,476.623535,0.570198
-450.256348,734.436035,473.876953,0.570941
-448.425293,733.428955,473.510742,0.571684
-449.707031,732.238770,475.250244,0.572526
-449.707031,742.126465,479.644775,0.573282
-449.249268,742.218018,466.552734,0.574134
-446.228027,745.330811,469.940186,0.574878
-443.206787,747.619629,473.968506,0.575620
-468.658447,739.196777,479.370117,0.576374
-452.911377,742.858887,478.912354,0.577117
-454.467773,749.633789,476.531982,0.577860
-454.833984,746.978760,473.327637,0.578603
-455.291748,742.034912,474.517822,0.579355
-450.897217,755.401611,482.299805,0.580098
-451.721191,756.683350,477.539062,0.580841
-451.263428,757.781982,478.729248,0.581584
-460.784912,747.711182,481.292725,0.582336
-454.010010,754.394531,480.560303,0.583079
-458.496094,754.302979,483.398438,0.583822
-456.573486,756.408691,484.039307,0.584564
-457.946777,752.838135,484.497070,0.585316
-454.193115,750.823975,479.827881,0.586059
-450.531006,753.845215,482.666016,0.586802
-451.995850,754.302979,483.673096,0.587544
-447.784424,767.944336,484.130859,0.588295
-452.911377,761.810303,480.285645,0.589036
-452.819824,753.662109,478.088379,0.589776
-463.073730,753.753662,473.785400,0.590516
-455.291748,761.993408,480.468750,0.591317
-457.855225,750.183105,479.553223,0.592079
-450.164795,751.464844,480.651855,0.592831
-456.481934,743.499756,468.658447,0.593574
-461.242676,752.197266,471.405029,0.594337
-459.686279,751.464844,470.672607,0.595080
-455.474854,754.211426,480.010986,0.595822
-462.432861,747.802734,471.405029,0.596565
-462.341309,743.591309,469.482422,0.597362
-454.925537,750.457764,476.806641,0.598124
-452.362061,750.915527,473.419189,0.598942
-450.347900,729.217529,472.778320,0.599730
-460.693359,752.838135,476.806641,0.600474
-454.101562,745.788574,474.700928,0.601217
-455.108643,751.373291,476.165771,0.601959
-454.284668,751.831055,471.954346,0.602755
-455.200195,753.845215,469.573975,0.603499
-454.193115,754.028320,490.081787,0.604242
-452.453613,757.507324,464.538574,0.604984
-451.171875,753.479004,468.750000,0.605727
-454.284668,763.092041,471.221924,0.606470
-444.396973,752.380371,478.271484,0.607246
-449.523926,757.965088,477.355957,0.607990
-454.284668,760.345459,485.137939,0.608732
-452.087402,759.887695,473.785400,0.609495
-455.749512,758.239746,468.658447,0.610242
-454.650879,757.324219,473.785400,0.610985
-453.643799,757.232666,475.341797,0.611751
-458.587646,759.429932,487.426758,0.612496
-448.608398,761.444092,485.504150,0.613242
-460.876465,763.916016,479.461670,0.614000
-455.932617,754.577637,478.179932,0.614766
-450.805664,763.824463,474.151611,0.615509
-463.531494,763.641357,480.468750,0.616301
-452.728271,759.246826,482.574463,0.617110
-453.369141,755.126953,479.461670,0.617887
-453.552246,757.415771,474.060059,0.618631
-453.277588,760.986328,479.278564,0.619378
-459.411621,749.359131,480.377197,0.620153
-460.052490,762.176514,473.144531,0.620910
-453.094482,768.676758,477.081299,0.621653
-463.714600,758.056641,476.715088,0.622396
-458.221436,751.190186,472.137451,0.623139
-463.623047,756.134033,477.447510,0.623891
-459.320068,762.084961,471.496582,0.624634
-457.855225,753.295898,464.904785,0.625377
-462.066650,751.556396,466.644287,0.626119
-463.348389,751.190186,471.221924,0.626871
-464.263916,752.929688,489.715576,0.627614
-458.953857,757.965088,468.017578,0.628356
-452.636719,728.485107,470.031738,0.629099
-455.657959,751.007080,472.595215,0.629920
-460.510254,748.535156,464.813232,0.630665
-462.799072,750.000000,466.003418,0.631408
-456.115723,749.176025,470.397949,0.632150
-457.397461,749.633789,468.109131,0.632904
-459.136963,751.190186,464.538574,0.633646
-457.672119,742.218018,470.764160,0.634389
-457.580566,745.697021,470.306396,0.635131
-465.637207,733.886719,473.510742,0.635883
-459.320068,743.408203,472.137451,0.636626
-458.862305,741.760254,469.116211,0.637368
-458.129883,751.190186,475.067139,0.638112
-459.869385,745.330811,473.602295,0.638864
-465.545654,747.802734,476.165771,0.639606
-465.545654,741.119385,471.221924,0.640349
-469.116211,746.063232,472.869873,0.641092
-466.094971,746.704102,469.207764,0.641844
-460.876465,744.781494,467.468262,0.642590
-453.186035,745.513916,473.785400,0.643332
-455.017090,746.154785,490.081787,0.644173
-459.503174,743.682861,470.031738,0.644917
-456.848145,743.499756,470.489502,0.645659
-456.481934,742.126465,474.517822,0.646402
-454.101562,746.612549,472.595215,0.647144
-460.968018,741.943359,469.848633,0.647913
-456.939697,750.366211,475.250244,0.648657
-456.756592,746.063232,473.419189,0.649399
-455.566406,744.873047,471.588135,0.650142
-460.052490,748.260498,473.052979,0.650895
-455.657959,744.415283,474.426270,0.651637
-460.784912,750.000000,474.884033,0.652380
-457.946777,747.070312,469.757080,0.653122
-453.186035,746.704102,468.933105,0.653873
-454.925537,749.084473,473.968506,0.654607
-455.841064,751.281738,467.285156,0.655341
-449.432373,749.908447,467.926025,0.656075
-454.376221,750.549316,477.905273,0.656835
-447.326660,744.323730,482.391357,0.657615
-456.024170,748.168945,471.771240,0.658359
-457.489014,748.077393,477.081299,0.659101
-452.362061,751.739502,478.546143,0.659854
-445.953369,749.908447,479.553223,0.660596
-443.481445,753.753662,479.187012,0.661339
-448.699951,756.683350,481.292725,0.662081
-448.883057,749.084473,474.243164,0.662832
-451.263428,753.204346,483.856201,0.663573
-443.481445,757.598877,481.109619,0.664314
-443.023682,756.683350,486.419678,0.665072
-452.087402,757.598877,480.651855,0.665825
-447.509766,754.577637,476.898193,0.666605
-439.819336,752.288818,484.588623,0.667351
-467.834473,760.894775,477.447510,0.668117
-444.763184,755.126953,475.158691,0.668850
-446.777344,757.049561,480.102539,0.669583
-453.643799,760.711670,482.666016,0.670316
-449.615479,752.471924,480.377197,0.671055
-442.199707,756.408691,491.363525,0.671861
-442.749023,759.613037,469.573975,0.672606
-448.150635,745.147705,475.708008,0.673357
-451.171875,752.014160,478.729248,0.674118
-447.784424,750.640869,477.722168,0.674853
-440.734863,750.732422,481.201172,0.675643
-439.453125,752.471924,476.257324,0.676379
-431.579590,743.865967,479.187012,0.677141
-437.530518,749.359131,471.679688,0.677884
-438.903809,726.562500,469.573975,0.678626
-434.051514,749.359131,473.693848,0.679368
-445.404053,747.802734,477.264404,0.680120
-443.756104,749.542236,471.221924,0.680884
-443.298340,752.746582,491.821289,0.681631
-445.678711,752.746582,477.081299,0.682373
-444.305420,744.506836,474.151611,0.683129
-452.362061,745.605469,477.081299,0.683872
-444.396973,745.056152,483.856201,0.684615
-451.721191,742.858887,478.546143,0.685358
-445.770264,748.535156,481.750488,0.686110
-444.946289,751.098633,479.644775,0.686853
-442.565918,746.704102,473.693848,0.687595
-442.657471,746.337891,474.426270,0.688338
-448.333740,748.901367,483.856201,0.689090
-447.143555,754.852295,477.813721,0.689832
-453.277588,749.359131,472.045898,0.690575
-444.580078,747.711182,475.067139,0.691317
-456.115723,741.943359,476.989746,0.692069
-451.538086,747.070312,474.884033,0.692812
-455.474854,741.027832,465.637207,0.693555
-451.354980,746.154785,470.123291,0.694297
-448.059082,744.873047,471.954346,0.695049
-450.531006,745.239258,472.045898,0.695791
-449.066162,741.302490,448.883057,0.696533
-443.023682,740.112305,467.651367,0.697276
-443.572998,738.006592,471.038818,0.698037
-439.544678,745.697021,469.665527,0.698780
-443.023682,746.978760,469.390869,0.699522
-449.615479,746.887207,471.221924,0.700265
-454.376221,745.330811,470.214844,0.701017
-456.115723,747.344971,470.214844,0.701760
-425.628662,750.000000,472.503662,0.702651
-440.643311,755.401611,473.602295,0.703396
-446.777344,749.908447,479.461670,0.704151
-444.030762,755.859375,471.313477,0.704894
-449.523926,756.866455,479.553223,0.705637
-453.552246,755.401611,470.123291,0.706379
-449.340820,751.281738,477.813721,0.707132
-447.509766,756.500244,477.996826,0.707874
-448.883057,757.965088,477.447510,0.708658
-447.967529,754.028320,481.750488,0.709406
-447.052002,750.732422,473.602295,0.710194
-453.002930,748.718262,481.201172,0.710937
-453.369141,753.753662,475.341797,0.711679
-452.728271,751.739502,477.813721,0.712422
-452.270508,748.901367,478.546143,0.713174
-453.094482,751.373291,468.841553,0.713917
-453.002930,748.626709,470.214844,0.714659
-451.446533,752.471924,475.433350,0.715401
-451.904297,753.112793,473.693848,0.716252
-448.333740,759.063721,474.151611,0.716996
-450.988770,753.936768,473.968506,0.717739
-453.094482,758.331299,478.088379,0.718493
-445.129395,756.866455,480.285645,0.719235
-450.164795,751.190186,464.080811,0.719978
-444.213867,751.007080,465.820312,0.720721
-442.749023,747.711182,468.841553,0.721464
-445.312500,749.725342,467.834473,0.722206
-445.129395,742.034912,464.538574,0.722949
-444.213867,744.689941,467.193604,0.723691
-444.488525,747.161865,468.109131,0.724434
-443.756104,746.154785,468.750000,0.725177
-440.551758,751.190186,475.067139,0.725919
-438.720703,743.865967,470.214844,0.726662
-438.720703,748.168945,472.778320,0.727404
-447.418213,741.943359,467.651367,0.728147
-443.023682,744.873047,473.327637,0.728889
-445.678711,746.612549,470.672607,0.729631
-442.291260,747.528076,472.686768,0.730374
-442.749023,746.429443,471.771240,0.731135
-437.530518,739.471436,467.102051,0.731878
-434.326172,747.985840,468.933105,0.732621
-445.861816,751.007080,466.278076,0.733363
-439.178467,745.330811,470.764160,0.734116
-444.580078,748.077393,470.397949,0.734858
-443.847656,744.232178,473.510742,0.735600
-442.291260,749.816895,474.975586,0.736342
-441.192627,747.711182,477.447510,0.737126
-439.086914,747.802734,476.440430,0.737953
-441.192627,755.950928,473.144531,0.738704
-435.791016,756.958008,472.229004,0.739472
-436.614990,752.929688,473.236084,0.740213
-442.932129,751.647949,485.046387,0.740953
-437.713623,751.831055,478.912354,0.741694
-444.122314,756.042480,473.236084,0.742458
-440.185547,749.725342,471.038818,0.743202
-437.622070,749.267578,479.644775,0.743945
-447.052002,742.309570,474.243164,0.744727
-450.714111,748.718262,475.708008,0.745509
-439.453125,745.239258,475.799561,0.746260
-445.404053,754.669189,475.067139,0.747033
-442.749023,745.239258,477.905273,0.747780
-442.749023,747.985840,480.743408,0.748544
-444.763184,748.260498,475.250244,0.749287
-434.692383,745.513916,469.299316,0.750030
-441.558838,742.584229,470.489502,0.750772
-442.932129,748.260498,477.722168,0.751523
-446.502686,751.464844,479.644775,0.752261
-446.868896,745.605469,472.137451,0.753015
-447.967529,742.034912,471.771240,0.753755
-438.354492,749.450684,475.524902,0.754499
-445.587158,742.034912,476.898193,0.755242
-446.502686,736.358643,474.334717,0.755985
-446.777344,737.823486,473.144531,0.756728
-447.418213,737.548828,469.299316,0.757478
-451.629639,732.330322,467.285156,0.758221
-443.389893,739.105225,476.440430,0.759041
-464.080811,739.929199,473.693848,0.759788
-451.904297,746.429443,472.869873,0.760530
-453.552246,736.358643,474.975586,0.761273
-452.636719,741.485596,477.539062,0.762015
-447.509766,747.253418,479.003906,0.762758
-453.826904,739.562988,475.067139,0.763501
-449.340820,740.203857,474.426270,0.764243
-449.615479,740.844727,481.475830,0.764986
-449.432373,736.267090,490.356445,0.765728
-448.059082,746.978760,485.046387,0.766471
-423.339844,733.337402,469.848633,0.767214
-443.298340,737.182617,468.933105,0.767956
-443.847656,748.443604,473.052979,0.768699
-446.411133,739.471436,469.665527,0.769523
-447.418213,741.577148,471.771240,0.770268
-453.918457,734.619141,475.433350,0.771011
-453.826904,734.436035,466.186523,0.771765
-444.671631,732.879639,465.179443,0.772509
-442.291260,731.597900,464.813232,0.773251
-447.692871,731.781006,465.270996,0.773994
-448.608398,734.252930,473.602295,0.774737
-448.059082,731.872559,474.975586,0.775480
-449.890137,741.394043,472.412109,0.776222
-450.256348,735.076904,461.975098,0.776965
-446.777344,735.443115,462.615967,0.777707
-439.270020,743.591309,474.334717,0.778460
-439.910889,741.027832,472.137451,0.779203
-443.115234,730.133057,471.130371,0.779946
-446.044922,743.041992,464.996338,0.780689
-446.960449,742.401123,476.440430,0.781444
-451.446533,740.570068,473.602295,0.782189
-446.228027,740.753174,472.503662,0.782931
-444.213867,747.985840,470.031738,0.783698
-443.023682,745.056152,469.390869,0.784442
-444.213867,748.077393,474.426270,0.785210
-447.692871,747.070312,476.440430,0.785953
-447.784424,745.788574,472.412109,0.786697
-442.657471,744.415283,475.799561,0.787535
-448.791504,751.647949,473.327637,0.788278
-446.685791,749.084473,480.102539,0.789020
-449.523926,752.105713,475.250244,0.789780
-452.911377,750.549316,479.553223,0.790523
-451.721191,749.542236,480.377197,0.791266
-443.206787,755.493164,478.363037,0.792009
-455.017090,756.866455,475.708008,0.792811
-453.186035,753.936768,477.905273,0.793555
-448.425293,754.760742,475.982666,0.794298
-449.066162,752.563477,484.130859,0.795040
-447.601318,748.443604,474.884033,0.795793
-449.707031,753.387451,477.722168,0.796535
-443.939209,757.690430,474.334717,0.797278
-448.699951,751.190186,475.067139,0.798020
-448.150635,751.098633,480.010986,0.798825
-447.143555,749.633789,476.531982,0.799568
-451.080322,747.894287,474.243164,0.800311
-446.228027,747.436523,472.686768,0.801053
-448.516846,751.647949,470.855713,0.801805
-452.087402,747.528076,464.080811,0.802548
-450.897217,743.225098,468.841553,0.803290
-444.488525,744.598389,468.109131,0.804032
-448.699951,746.704102,473.785400,0.804785
-454.833984,748.718262,472.229004,0.805527
-453.918457,746.429443,468.566895,0.806269
-450.347900,736.358643,469.940186,0.807067
-446.044922,750.732422,471.038818,0.807821
-445.312500,743.133545,465.454102,0.808584
-453.460693,740.478516,471.771240,0.809343
-444.763184,738.372803,472.778320,0.810116
-450.531006,747.985840,466.003418,0.810894
-445.404053,739.013672,466.827393,0.811637
-446.868896,741.577148,467.285156,0.812379
-446.044922,747.253418,464.355469,0.813121
-453.552246,750.640869,490.905762,0.813871
-447.326660,748.260498,475.250244,0.814618
-453.002930,751.739502,467.285156,0.815388
-448.242188,747.711182,466.369629,0.816260
-453.094482,749.267578,473.968506,0.817021
-456.756592,737.274170,477.264404,0.817788
-446.411133,758.880615,480.468750,0.818524
-456.573486,751.190186,478.088379,0.819282
-454.193115,755.310059,484.222412,0.820015
-451.995850,747.253418,476.257324,0.820749
-451.995850,753.570557,478.546143,0.821481
-454.284668,760.345459,485.778809,0.822227
-449.249268,754.486084,480.010986,0.822961
-452.362061,756.774902,483.489990,0.823694
-453.643799,752.380371,478.271484,0.824448
-450.622559,746.612549,468.475342,0.825212
-455.474854,750.823975,473.693848,0.825976
-459.228516,752.929688,476.257324,0.826722
-451.995850,754.302979,487.518311,0.827466
-452.087402,749.725342,478.820801,0.828223
-459.045410,755.859375,477.722168,0.828967
-453.826904,751.739502,481.018066,0.829711
-455.749512,751.464844,474.426270,0.830455
-456.848145,745.788574,477.539062,0.831210
-451.904297,753.112793,481.842041,0.831954
-454.010010,753.021240,473.052979,0.832698
-453.002930,750.823975,475.433350,0.833442
-456.298828,745.697021,475.158691,0.834187
-460.235596,749.084473,471.496582,0.834921
-457.397461,749.176025,472.595215,0.835655
-458.312988,746.887207,468.933105,0.836388
-459.777832,741.943359,469.207764,0.837145
-464.080811,743.225098,466.186523,0.837889
-465.454102,751.739502,471.405029,0.838631
-466.644287,748.718262,473.144531,0.839374
-461.425781,742.858887,467.559814,0.840127
-457.672119,744.323730,471.954346,0.840878
-460.144043,745.056152,472.961426,0.841668
-457.214355,744.140625,471.954346,0.842412
-457.397461,746.154785,473.419189,0.843166
-464.172363,747.711182,476.989746,0.843909
-463.073730,749.816895,468.017578,0.844652
-454.193115,755.401611,475.067139,0.845394
-452.453613,750.183105,478.271484,0.846148
-450.988770,752.014160,479.003906,0.846944
-455.383301,746.704102,472.503662,0.847680
-459.869385,747.436523,470.123291,0.848414
-456.115723,749.908447,471.313477,0.849175
-459.960938,745.605469,469.848633,0.849918
-456.665039,747.070312,473.785400,0.850660
-454.833984,750.640869,472.320557,0.851402
-460.327148,746.246338,465.362549,0.852155
-462.158203,750.366211,471.771240,0.852899
-455.566406,754.028320,475.067139,0.853642
-458.312988,758.972168,468.841553,0.854384
-455.108643,760.803223,475.616455,0.855136
-455.291748,755.676270,471.313477,0.855879
-455.841064,752.288818,473.144531,0.856621
-456.939697,748.718262,470.581055,0.857364
-450.622559,755.676270,470.214844,0.858116
-452.636719,759.704590,468.566895,0.858964
-454.467773,759.063721,476.440430,0.859708
-450.988770,752.014160,477.172852,0.860466
-457.214355,754.760742,477.081299,0.861237
-452.636719,756.683350,475.982666,0.861980
-444.213867,756.958008,474.243164,0.862723
-447.875977,758.789062,472.686768,0.863466
-449.340820,760.253906,473.144531,0.864221
-462.341309,758.056641,476.440430,0.864964
-454.467773,754.486084,466.186523,0.865706
-450.897217,761.169434,471.771240,0.866450
-454.650879,757.781982,477.447510,0.867277
-457.397461,751.922607,473.968506,0.868022
-453.460693,757.507324,473.510742,0.868765
-450.805664,754.028320,469.665527,0.869507
-455.566406,750.640869,469.390869,0.870261
-451.995850,749.816895,467.376709,0.871003
-462.707520,750.000000,467.376709,0.871746
-446.960449,750.457764,468.750000,0.872488
-450.714111,751.647949,477.539062,0.873240
-451.629639,750.091553,465.179443,0.873983
-450.073242,746.978760,466.369629,0.874730
-446.685791,729.125977,475.799561,0.875472
-449.981689,750.457764,475.250244,0.876224
-450.073242,751.098633,477.355957,0.876967
-453.735352,757.324219,476.165771,0.877710
-465.637207,745.788574,474.426270,0.878453
-460.327148,748.809814,480.560303,0.879202
-454.193115,748.260498,474.975586,0.879961
-452.087402,751.007080,472.412109,0.880785
-454.010010,741.851807,471.862793,0.881572
-453.186035,750.823975,482.666016,0.882323
-460.144043,741.210938,473.693848,0.883066
-453.186035,747.436523,473.785400,0.883809
-451.263428,749.816895,473.785400,0.884553
-447.143555,746.887207,473.236084,0.885354
-447.326660,751.464844,471.038818,0.886110
-451.904297,753.570557,473.327637,0.886861
-441.192627,754.577637,475.708008,0.887649
-451.721191,741.394043,472.503662,0.888394
-444.854736,746.520996,465.270996,0.889137
-441.741943,745.513916,475.158691,0.889879
-443.847656,743.316650,471.405029,0.890633
-437.530518,742.034912,474.700928,0.891376
-442.657471,741.302490,477.996826,0.892119
-439.453125,742.584229,465.545654,0.892862
-440.093994,754.302979,472.595215,0.893613
-466.278076,747.070312,476.348877,0.894354
-443.847656,754.028320,480.834961,0.895095
-447.875977,752.380371,476.165771,0.895876
-445.953369,747.161865,468.200684,0.896636
-440.643311,765.747070,473.144531,0.897379
-446.777344,749.633789,479.553223,0.898121
-423.889160,747.344971,482.391357,0.898864
-442.382812,740.753174,478.179932,0.899616
-445.770264,749.176025,479.278564,0.900359
-445.312500,728.851318,477.355957,0.901102
-442.199707,749.908447,473.510742,0.901844
-448.516846,748.626709,481.475830,0.902596
-440.826416,744.049072,478.271484,0.903339
-441.192627,748.077393,481.384277,0.904171
-441.192627,738.464355,474.792480,0.904916
-451.629639,744.323730,478.271484,0.905674
-443.481445,738.555908,473.510742,0.906417
-439.910889,745.697021,475.524902,0.907159
-439.178467,745.330811,448.699951,0.907901
-444.488525,746.520996,478.729248,0.908653
-439.178467,735.351562,473.327637,0.909396
-434.326172,737.915039,470.397949,0.910139
-436.706543,737.365723,472.961426,0.910882
-431.396484,736.724854,472.778320,0.911634
-435.516357,737.823486,468.933105,0.912377
-437.255859,746.887207,469.482422,0.913119
-435.058594,732.147217,469.482422,0.913862
-433.776855,736.083984,467.285156,0.914644
-439.636230,734.527588,473.693848,0.915389
-442.474365,737.182617,471.954346,0.916131
-447.601318,739.379883,476.531982,0.916874
-442.840576,745.330811,449.890137,0.917629
-438.995361,735.168457,475.891113,0.918372
-446.960449,739.379883,469.390869,0.919115
-447.326660,732.971191,471.954346,0.919858
-440.734863,737.365723,469.390869,0.920610
-440.277100,742.492676,446.960449,0.921353
-445.220947,736.816406,462.799072,0.922095
-440.917969,740.295410,468.658447,0.922838
-447.418213,738.555908,491.180420,0.923631
-438.720703,743.225098,469.757080,0.924375
-436.706543,738.281250,472.869873,0.925117
-438.903809,742.584229,470.489502,0.925860
-438.629150,746.612549,470.397949,0.926661
-444.671631,745.330811,471.771240,0.927404
-444.488525,746.704102,474.609375,0.928147
-437.438965,741.302490,471.130371,0.928890
-438.171387,747.070312,487.060547,0.929642
-443.939209,747.711182,474.609375,0.930481
-438.171387,746.704102,476.623535,0.931226
-434.600830,754.852295,473.419189,0.931970
-434.509277,755.310059,473.602295,0.932712
-438.079834,751.281738,468.658447,0.933455
-439.910889,731.323242,469.848633,0.934198
-439.727783,742.401123,472.137451,0.934941
-435.882568,748.260498,472.412109,0.935684
-438.171387,749.359131,471.313477,0.936426
-439.453125,746.429443,466.369629,0.937169
-443.481445,746.063232,465.545654,0.937912
-443.756104,750.366211,464.172363,0.938655
-442.016602,752.380371,466.918945,0.939398
-436.523438,742.950439,465.454102,0.940140
-442.108154,751.922607,468.475342,0.940883
-441.467285,748.260498,464.447021,0.941639
-435.150146,750.549316,469.665527,0.942382
-429.565430,751.464844,465.820312,0.943124
-437.347412,752.929688,467.926025,0.943867
-430.206299,751.007080,466.094971,0.944619
-438.446045,751.739502,465.820312,0.945363
-442.840576,755.310059,469.207764,0.946097
-439.727783,757.598877,463.989258,0.946831
-446.044922,758.056641,463.623047,0.947588
-445.037842,752.471924,461.517334,0.948331
-443.115234,755.401611,468.841553,0.949074
-433.044434,758.514404,458.587646,0.949817
-440.185547,757.049561,473.785400,0.950577
-442.474365,757.873535,468.750000,0.951385
-446.777344,764.007568,465.179443,0.952161
-437.347412,754.394531,468.475342,0.953024
-436.981201,756.408691,471.496582,0.953778
-447.692871,751.831055,477.264404,0.954520
-437.622070,761.901855,479.736328,0.955263
-440.826416,759.613037,474.243164,0.956058
-439.727783,762.908936,468.383789,0.956818
-446.594238,764.831543,475.067139,0.957573
-438.812256,772.613525,473.785400,0.958346
-444.213867,761.535645,463.439941,0.959115
-443.756104,758.514404,474.609375,0.959859
-443.206787,760.620117,472.412109,0.960602
-437.347412,760.528564,467.742920,0.961345
-440.460205,761.810303,474.975586,0.962095
-443.939209,767.028809,482.757568,0.962835
-441.925049,764.739990,472.229004,0.963589
-446.685791,762.817383,471.405029,0.964326
-443.023682,759.887695,471.496582,0.965081
-442.932129,764.923096,469.299316,0.965814
-438.537598,762.908936,469.024658,0.966547
-449.707031,763.458252,468.750000,0.967296
-449.890137,757.781982,461.883545,0.968045
-440.093994,765.197754,465.270996,0.968779
-442.840576,761.444092,473.785400,0.969512
-449.615479,757.781982,487.701416,0.970245
-448.333740,753.021240,469.573975,0.970988
-446.960449,755.218506,474.426270,0.971730
-445.037842,760.711670,471.313477,0.972465
-441.009521,758.972168,477.630615,0.973198
-445.587158,764.923096,471.130371,0.973959
-444.946289,762.817383,478.179932,0.974703
-446.228027,761.077881,471.130371,0.975446
-453.643799,764.465332,477.996826,0.976189
-452.453613,766.021729,473.144531,0.976944
-448.516846,766.021729,474.975586,0.977688
-452.545166,763.732910,478.729248,0.978431
-454.650879,766.113281,470.764160,0.979173
-455.657959,761.352539,477.355957,0.979925
-454.650879,758.331299,472.778320,0.980668
-453.460693,769.683838,475.891113,0.981411
-446.411133,763.916016,473.510742,0.982154
-447.601318,764.007568,474.151611,0.982964
-445.404053,771.972656,482.666016,0.983709
-445.678711,755.035400,470.947266,0.984452
-447.143555,760.620117,471.862793,0.985194
-453.460693,763.732910,478.088379,0.985947
-449.615479,762.817383,479.187012,0.986690
-451.171875,750.091553,472.412109,0.987433
-448.242188,769.409180,479.736328,0.988176
-453.552246,763.641357,473.968506,0.988928
-445.220947,768.218994,473.510742,0.989671
-443.115234,771.881104,479.919434,0.990413
-443.023682,750.457764,479.187012,0.991156
-437.530518,765.838623,479.370117,0.991957
-439.819336,777.374268,483.215332,0.992700
-444.305420,767.669678,479.187012,0.993453
-446.502686,768.493652,479.370117,0.994198
-443.023682,768.218994,475.616455,0.994961
-443.023682,765.472412,476.806641,0.995718
-442.565918,764.465332,474.517822,0.996500
-437.255859,763.824463,478.729248,0.997245
-445.220947,765.655518,475.891113,0.997988
-444.030762,769.683838,482.482910,0.998757
-443.206787,756.683350,479.553223,0.999501
-438.995361,761.260986,483.581543,1.000245
-439.544678,765.838623,478.363037,1.000987
-434.600830,767.120361,480.377197,1.001730
-441.375732,765.289307,482.208252,1.002572
-445.770264,759.979248,475.158691,1.003337
-442.474365,756.500244,478.454590,1.004080
-442.382812,759.429932,479.827881,1.004823
-441.558838,760.894775,479.187012,1.005565
-437.530518,764.465332,477.722168,1.006318
-441.925049,765.380859,474.426270,1.007060
-444.213867,762.725830,468.750000,1.007803
-443.664551,760.070801,478.637695,1.008545
-448.974609,763.732910,475.524902,1.009296
-449.340820,760.620117,479.461670,1.010039
-441.192627,757.965088,478.363037,1.010781
-448.425293,755.310059,474.884033,1.011523
-445.129395,757.781982,474.151611,1.012265
-439.178467,751.556396,469.207764,1.013008
-443.298340,754.394531,475.799561,1.013750
-444.946289,751.007080,478.088379,1.014492
-445.587158,757.873535,486.602783,1.015235
-437.896729,755.126953,475.799561,1.015978
-440.277100,759.429932,482.391357,1.016721
-441.101074,757.507324,478.088379,1.017463
-445.220947,753.387451,478.363037,1.018206
-449.066162,757.507324,477.813721,1.018949
-444.580078,750.915527,475.524902,1.019691
-451.354980,752.746582,479.003906,1.020433
-455.383301,749.450684,472.503662,1.021186
-448.791504,750.732422,479.003906,1.021926
-439.910889,748.992920,478.088379,1.022666
-448.425293,745.971680,472.229004,1.023441
-446.136475,744.964600,473.602295,1.024206
-448.974609,743.865967,466.827393,1.024984
-446.868896,742.126465,464.447021,1.025721
-446.868896,742.858887,468.109131,1.026454
-456.939697,747.253418,476.074219,1.027238
-447.235107,742.950439,469.207764,1.027982
-452.087402,735.717773,464.904785,1.028724
-448.425293,744.140625,457.397461,1.029517
-447.967529,737.457275,468.383789,1.030273
-448.791504,737.915039,462.432861,1.031015
-447.784424,734.802246,457.031250,1.031757
-443.298340,744.873047,460.693359,1.032499
-445.404053,748.535156,462.615967,1.033283
-454.010010,739.746094,463.623047,1.034039
-450.439453,744.049072,462.890625,1.034787
-449.066162,743.041992,465.270996,1.035559
-448.791504,743.682861,464.721680,1.036388
-443.572998,747.161865,470.855713,1.037133
-448.608398,743.957520,470.306396,1.037876
-453.094482,739.929199,465.087891,1.038618
-447.875977,745.147705,461.334229,1.039396
-449.890137,744.689941,462.524414,1.040142
-454.193115,751.007080,490.173340,1.040884
-451.995850,749.359131,468.475342,1.041631
-452.362061,727.294922,468.292236,1.042377
-450.256348,748.535156,467.010498,1.043120
-443.847656,747.253418,473.236084,1.043862
-445.037842,747.894287,473.876953,1.044605
-451.080322,742.309570,468.658447,1.045348
-449.340820,744.049072,466.827393,1.046089
-457.397461,754.302979,473.144531,1.046831
-453.094482,747.894287,469.848633,1.047581
-447.235107,752.105713,467.376709,1.048370
-448.974609,750.549316,465.911865,1.049115
-455.108643,745.147705,468.566895,1.049857
-452.911377,747.253418,467.376709,1.050613
-449.798584,749.542236,466.003418,1.051355
-447.326660,755.035400,472.595215,1.052097
-452.453613,744.964600,469.665527,1.052839
-456.115723,748.992920,473.602295,1.053581
-452.270508,751.739502,475.891113,1.054323
-448.883057,745.605469,469.848633,1.055065
-451.080322,747.528076,469.573975,1.055807
-456.390381,751.281738,474.609375,1.056549
-442.749023,751.647949,472.869873,1.057291
-446.868896,746.337891,460.327148,1.058033
-446.136475,750.274658,468.566895,1.058775
-449.523926,748.443604,468.292236,1.059517
-451.721191,748.443604,474.792480,1.060260
-452.362061,750.183105,471.496582,1.061002
-454.101562,751.190186,491.821289,1.061744
-448.883057,741.027832,471.313477,1.062487
-452.178955,740.112305,467.102051,1.063239
-450.347900,751.922607,468.383789,1.063982
-451.538086,750.549316,462.432861,1.064724
-446.136475,749.908447,467.834473,1.065466
-453.277588,750.549316,468.841553,1.066220
-456.024170,745.880127,463.714600,1.066961
-451.354980,745.147705,467.742920,1.067704
-455.566406,743.408203,468.292236,1.068445
-454.284668,744.689941,468.292236,1.069200
-451.446533,746.612549,466.735840,1.069942
-447.235107,749.908447,462.249756,1.070683
-458.770752,752.288818,465.728760,1.071425
-451.721191,745.147705,465.362549,1.072183
-456.573486,740.386963,466.186523,1.072925
-455.200195,743.225098,467.010498,1.073767
-456.665039,747.161865,471.588135,1.074511
-449.798584,743.316650,469.207764,1.075253
-459.228516,743.591309,488.616943,1.075995
-458.679199,736.175537,464.447021,1.076737
-457.763672,741.210938,467.742920,1.077481
-456.848145,741.119385,468.841553,1.078224
-448.242188,744.506836,470.214844,1.078966
-454.650879,736.999512,466.278076,1.079709
-454.742432,740.020752,471.771240,1.080451
-457.580566,738.830566,467.285156,1.081283
-453.918457,737.731934,463.714600,1.082026
-459.136963,742.492676,471.588135,1.082769
-453.826904,735.626221,468.933105,1.083511
-448.883057,731.872559,470.031738,1.084253
-451.263428,734.527588,465.637207,1.084995
-445.678711,729.125977,465.362549,1.085737
-447.601318,729.583740,469.390869,1.086479
-454.650879,735.351562,467.102051,1.087254
-457.305908,734.344482,472.229004,1.087998
-456.481934,736.175537,468.292236,1.088740
-456.756592,739.837646,472.320557,1.089482
-455.291748,738.464355,470.397949,1.090225
-448.791504,734.069824,462.615967,1.090967
-444.213867,737.915039,475.524902,1.091709
-447.692871,738.281250,475.891113,1.092450
-450.073242,735.992432,463.165283,1.093190
-452.728271,742.858887,469.390869,1.093930
-452.819824,734.252930,472.137451,1.094671
-453.094482,744.140625,469.848633,1.095456
-447.143555,736.358643,470.672607,1.096207
-458.770752,734.893799,469.665527,1.096984
-454.376221,741.394043,478.088379,1.097732
-452.911377,737.731934,483.581543,1.098496
-455.383301,742.675781,479.095459,1.099239
-451.263428,743.225098,479.278564,1.099981
-452.819824,740.295410,472.595215,1.100723
-453.186035,741.668701,471.038818,1.101475
-455.474854,746.612549,477.081299,1.102218
-459.045410,743.499756,471.313477,1.102960
-447.418213,741.668701,475.341797,1.103702
-449.890137,737.823486,471.588135,1.104454
-446.044922,740.295410,474.243164,1.105197
-453.369141,736.358643,478.088379,1.106124
-459.320068,738.464355,469.207764,1.106896
-450.805664,738.922119,472.320557,1.107688
-457.946777,735.717773,470.306396,1.108436
-454.833984,737.915039,471.313477,1.109178
-465.820312,729.217529,467.742920,1.109920
-456.573486,732.238770,445.861816,1.110702
-458.587646,730.133057,467.285156,1.111446
-451.721191,734.436035,475.524902,1.112199
-455.749512,738.830566,460.601807,1.112950
-464.996338,733.337402,460.144043,1.113683
-460.693359,729.034424,473.785400,1.114416
-459.503174,735.626221,476.257324,1.115149
-463.073730,740.386963,476.806641,1.115894
-459.320068,741.027832,474.060059,1.116627
-455.017090,740.295410,469.848633,1.117360
-458.221436,737.457275,469.207764,1.118093
-460.601807,735.992432,468.841553,1.118827
-461.791992,743.591309,468.750000,1.119561
-457.489014,741.302490,477.355957,1.120294
-458.496094,753.112793,477.355957,1.121027
-458.953857,740.844727,479.187012,1.121760
-459.869385,739.654541,480.560303,1.122493
-456.939697,739.013672,476.806641,1.123226
-461.608887,744.781494,478.820801,1.123960
-462.799072,752.288818,471.130371,1.124699
-460.052490,752.380371,468.566895,1.125299
-460.968018,749.084473,477.905273,1.126041
-465.728760,751.007080,469.390869,1.126783
-459.320068,741.210938,471.954346,1.127544
-450.622559,743.682861,473.876953,1.128300
-454.101562,745.330811,471.405029,1.129075
-458.496094,747.436523,465.545654,1.129820
-456.573486,755.859375,475.616455,1.130562
-456.115723,754.211426,473.876953,1.131304
-456.573486,752.471924,473.602295,1.132047
-455.108643,748.535156,473.052979,1.132788
-459.686279,742.309570,473.327637,1.133531
-458.679199,760.070801,472.412109,1.134284
-462.432861,754.669189,468.017578,1.135027
-455.108643,745.605469,465.911865,1.135761
-465.087891,746.795654,473.602295,1.136495
-452.178955,754.028320,467.193604,1.137250
-460.144043,745.239258,471.862793,1.137992
-458.679199,744.415283,471.221924,1.138734
-456.939697,744.415283,463.531494,1.139477
-460.784912,755.493164,471.771240,1.140228
-454.559326,763.458252,471.313477,1.140970
-456.665039,751.281738,469.390869,1.141712
-458.862305,750.640869,468.292236,1.142455
-463.623047,756.591797,472.320557,1.143206
-460.144043,746.154785,475.433350,1.143948
-456.481934,755.767822,468.841553,1.144785
-456.481934,750.915527,490.356445,1.145529
-456.390381,761.535645,467.010498,1.146272
-454.925537,751.007080,475.341797,1.147014
-456.665039,752.929688,480.285645,1.147761
-447.692871,752.014160,476.898193,1.148527
-448.699951,758.972168,474.426270,1.149270
-448.059082,751.647949,470.031738,1.150020
-452.087402,754.119873,469.940186,1.150765
-445.678711,746.154785,490.722656,1.151522
-453.735352,747.619629,473.785400,1.152286
-452.087402,755.676270,474.243164,1.153045
-450.531006,758.972168,468.750000,1.153788
-452.362061,756.591797,474.151611,1.154545
-456.939697,748.626709,466.918945,1.155287
-455.291748,755.767822,472.045898,1.156029
-449.890137,758.239746,477.813721,1.156771
-451.171875,757.415771,477.264404,1.157514
-450.073242,757.507324,477.722168,1.158256
-451.354980,761.077881,474.151611,1.158999
-458.496094,752.838135,468.566895,1.159741
-453.002930,756.408691,476.531982,1.160483
-459.960938,761.169434,471.038818,1.161225
-452.362061,760.894775,478.912354,1.161995
-453.918457,759.796143,478.912354,1.162738
-454.467773,759.704590,480.834961,1.163480
-447.235107,749.542236,479.370117,1.164220
-454.925537,752.197266,479.095459,1.164960
-450.073242,751.831055,470.581055,1.165700
-454.742432,744.140625,483.398438,1.166491
-454.833984,755.859375,473.144531,1.167243
-448.059082,753.936768,474.517822,1.168017
-444.671631,752.471924,474.792480,1.168762
-456.573486,746.612549,471.771240,1.169525
-456.756592,741.027832,474.975586,1.170267
-455.200195,751.831055,475.250244,1.171009
-454.742432,745.056152,477.722168,1.171751
-443.939209,747.802734,484.222412,1.172503
-447.052002,743.041992,475.341797,1.173245
-450.164795,739.471436,471.313477,1.174019
-448.883057,749.359131,475.982666,1.174775
-454.925537,745.422363,474.151611,1.175547
-450.164795,752.563477,473.236084,1.176320
-454.650879,741.485596,470.489502,1.177066
-452.911377,745.880127,473.876953,1.177808
-452.911377,741.943359,470.947266,1.178567
-448.974609,739.105225,468.017578,1.179311
-457.489014,737.823486,471.130371,1.180053
-446.777344,743.682861,473.602295,1.180795
-451.629639,742.584229,477.081299,1.181566
-453.277588,744.964600,467.651367,1.182313
-448.883057,770.690918,481.018066,1.183179
-445.220947,740.936279,476.074219,1.183934
-453.369141,737.640381,468.475342,1.184686
-453.186035,742.950439,470.489502,1.185428
-446.228027,739.654541,471.130371,1.186170
-445.129395,743.499756,473.693848,1.186912
-451.080322,743.682861,471.679688,1.187665
-454.467773,734.344482,469.390869,1.188408
-451.721191,741.668701,467.376709,1.189150
-445.770264,731.048584,471.038818,1.189892
-438.720703,730.133057,468.933105,1.190644
-447.601318,737.915039,463.073730,1.191386
-444.213867,737.457275,465.911865,1.192128
-445.220947,736.999512,464.355469,1.192870
-448.242188,738.555908,466.461182,1.193621
-445.587158,747.528076,465.545654,1.194363
-447.692871,746.520996,469.940186,1.195105
-439.544678,747.528076,470.855713,1.195847
-440.368652,745.697021,445.953369,1.196598
-446.960449,741.668701,470.672607,1.197340
-450.897217,737.915039,470.855713,1.198082
-446.960449,743.499756,469.390869,1.198824
-451.354980,742.034912,467.010498,1.199575
-451.080322,740.203857,460.052490,1.200317
-449.523926,745.788574,468.200684,1.201059
-449.981689,752.655029,465.270996,1.201801
-451.446533,751.464844,469.573975,1.202553
-452.087402,742.218018,467.468262,1.203294
-448.974609,743.682861,489.624023,1.204037
-441.741943,745.697021,471.313477,1.204779
-452.087402,744.964600,465.454102,1.205453
-440.734863,749.084473,471.405029,1.206195
-440.460205,745.605469,469.207764,1.206937
-440.460205,750.640869,471.771240,1.207679
-440.277100,751.831055,466.552734,1.208507
-444.946289,751.922607,472.229004,1.209251
-443.389893,742.401123,471.771240,1.209993
-437.622070,742.492676,469.757080,1.210735
-437.255859,748.535156,471.588135,1.211489
-440.185547,746.520996,468.566895,1.212231
-434.234619,756.683350,468.750000,1.212973
-437.072754,750.366211,469.757080,1.213715
-440.734863,753.753662,468.200684,1.214468
-442.565918,751.098633,465.728760,1.215260
-444.396973,750.457764,469.848633,1.216142
-438.903809,746.429443,467.102051,1.216887
-443.298340,750.549316,470.306396,1.217629
-446.136475,750.823975,470.306396,1.218371
-449.432373,746.978760,471.954346,1.219114
-448.150635,753.387451,470.031738,1.219856
-453.002930,755.310059,470.397949,1.220598
-450.531006,756.683350,472.229004,1.221341
-440.734863,758.148193,474.334717,1.222083
-445.037842,755.767822,474.975586,1.222826
-449.249268,766.204834,474.334717,1.223567
-447.875977,761.901855,470.855713,1.224309
-445.770264,753.753662,473.602295,1.225052
-443.023682,756.042480,475.891113,1.225794
-438.812256,752.380371,445.404053,1.226536
-449.340820,757.324219,476.989746,1.227278
-448.699951,760.253906,474.243164,1.228020
-447.692871,756.408691,481.750488,1.228762
-425.170898,758.514404,481.842041,1.229518
-447.326660,765.106201,483.032227,1.230260
-450.164795,757.781982,474.334717,1.231002
-448.242188,755.676270,472.961426,1.231744
-445.220947,758.514404,466.278076,1.232497
-449.066162,754.302979,476.348877,1.233239
-447.692871,758.239746,474.426270,1.233982
-445.678711,757.598877,476.440430,1.234725
-447.418213,757.232666,474.060059,1.235514
-448.150635,759.063721,472.961426,1.236256
-448.883057,758.056641,473.419189,1.236997
-448.883057,762.084961,471.862793,1.237772
-450.073242,757.690430,480.926514,1.238556
-444.305420,757.965088,479.827881,1.239304
-448.791504,764.648438,473.510742,1.240046
-450.988770,764.923096,468.566895,1.240804
-449.340820,758.697510,474.517822,1.241547
-449.523926,755.767822,470.306396,1.242289
-445.220947,752.929688,470.947266,1.243031
-439.819336,753.204346,469.024658,1.243773
-468.292236,747.802734,474.334717,1.244593
-447.143555,762.451172,473.236084,1.245348
-448.150635,757.965088,474.975586,1.246096
-450.256348,756.774902,474.151611,1.246889
-443.481445,760.253906,478.179932,1.247632
-446.960449,756.225586,475.982666,1.248375
-447.601318,759.521484,476.715088,1.249117
-446.411133,755.859375,466.735840,1.249869
-442.840576,760.345459,467.742920,1.250616
-446.960449,754.302979,471.221924,1.251418
-448.791504,748.626709,471.130371,1.252196
-438.720703,754.943848,463.439941,1.253000
-448.608398,747.985840,472.229004,1.253760
-449.981689,751.098633,478.546143,1.254544
-446.868896,748.260498,473.602295,1.255305
-446.685791,747.436523,474.151611,1.256078
-444.946289,751.007080,475.524902,1.256832
-440.185547,751.464844,475.799561,1.257616
-449.249268,738.830566,464.263916,1.258406
-446.411133,750.274658,469.116211,1.259165
-445.495605,744.140625,466.644287,1.259916
-450.439453,745.422363,474.151611,1.260737
-444.763184,743.774414,468.750000,1.261492
-446.502686,740.112305,471.221924,1.262229
-447.326660,744.598389,472.503662,1.262980
-442.016602,739.196777,467.651367,1.263712
-444.580078,744.415283,464.813232,1.264442
-441.650391,749.725342,466.918945,1.265171
-439.178467,747.619629,465.087891,1.265921
-439.361572,750.457764,464.263916,1.266654
-444.854736,741.577148,467.285156,1.267384
-445.129395,745.513916,469.757080,1.268114
-442.932129,738.464355,468.566895,1.268862
-436.798096,741.668701,468.475342,1.269593
-443.389893,739.471436,468.841553,1.270323
-440.002441,733.795166,472.503662,1.271053
-439.636230,746.063232,474.426270,1.271794
-441.467285,741.760254,460.510254,1.272524
-446.868896,741.485596,485.229492,1.273254
-435.424805,745.056152,470.214844,1.273985
-437.530518,744.232178,468.750000,1.274735
-440.643311,743.408203,462.615967,1.275467
-438.812256,735.351562,469.024658,1.276197
-433.319092,744.323730,466.369629,1.276928
-439.819336,747.253418,470.397949,1.277670
-431.762695,744.140625,472.961426,1.278401
-433.044434,744.506836,477.172852,1.279131
-435.241699,748.443604,473.419189,1.279861
-433.319092,755.767822,464.904785,1.280602
-438.812256,750.640869,465.820312,1.281332
-438.720703,748.260498,463.623047,1.282062
-435.882568,753.662109,467.559814,1.282792
-440.460205,749.633789,473.510742,1.283538
-444.763184,753.204346,467.102051,1.284268
-439.178467,752.014160,469.207764,1.285009
-433.502197,751.190186,461.791992,1.285743
-434.783936,748.626709,467.834473,1.286492
-437.347412,758.239746,467.193604,1.287223
-430.847168,754.669189,476.531982,1.288040
-438.262939,758.697510,490.722656,1.288771
-436.431885,756.225586,477.355957,1.289515
-438.903809,757.690430,470.672607,1.290248
-436.889648,750.732422,467.651367,1.290978
-439.361572,756.774902,474.884033,1.291709
-435.058594,754.028320,474.151611,1.292466
-434.051514,754.119873,472.320557,1.293206
-437.438965,754.211426,473.785400,1.293945
-436.523438,764.465332,471.588135,1.294684
-444.580078,754.943848,479.278564,1.295433
-438.446045,755.676270,482.025146,1.296172
-434.875488,755.035400,480.651855,1.296911
-443.664551,758.148193,473.052979,1.297649
-438.537598,757.141113,473.693848,1.298399
-443.572998,757.141113,475.341797,1.299137
-447.875977,750.183105,478.912354,1.299876
-445.220947,742.767334,477.722168,1.300614
-447.418213,748.168945,475.067139,1.301363
-441.375732,746.520996,491.638184,1.302102
-449.981689,753.112793,466.369629,1.302841
-439.636230,772.338867,471.771240,1.303580
-448.150635,749.725342,480.743408,1.304329
-443.389893,746.612549,472.137451,1.305067
-447.784424,758.514404,472.503662,1.305806
-445.953369,752.929688,470.031738,1.306545
-466.827393,745.422363,474.609375,1.307314
-453.918457,743.316650,469.757080,1.308059
-444.030762,745.239258,473.785400,1.308807
-445.037842,747.161865,474.792480,1.309549
-448.974609,751.007080,478.546143,1.310310
-448.425293,744.506836,476.898193,1.311050
-445.861816,753.845215,477.905273,1.311789
-441.925049,744.689941,475.433350,1.312597
-425.445557,746.612549,471.679688,1.313387
-439.178467,750.091553,477.722168,1.314134
-442.657471,745.697021,475.341797,1.314875
-446.685791,742.034912,473.236084,1.315638
-446.319580,741.302490,468.933105,1.316379
-445.587158,733.886719,475.158691,1.317121
-443.298340,734.527588,469.848633,1.317861
-441.650391,740.203857,474.060059,1.318614
-440.551758,738.372803,476.257324,1.319354
-448.150635,746.154785,473.052979,1.320094
-445.861816,737.823486,476.257324,1.320834
-441.833496,731.597900,467.193604,1.321584
-444.030762,739.654541,471.954346,1.322324
-448.791504,736.633301,480.468750,1.323064
-445.953369,737.274170,478.363037,1.323804
-444.213867,736.450195,475.982666,1.324557
-441.375732,743.041992,473.327637,1.325300
-439.453125,740.020752,482.849121,1.326040
-439.086914,745.697021,478.637695,1.326780
-440.002441,743.225098,484.588623,1.327531
-445.495605,741.577148,480.926514,1.328271
-441.467285,736.999512,473.876953,1.329011
-434.417725,739.471436,478.179932,1.329752
-442.932129,723.724365,479.003906,1.330503
-436.248779,728.942871,478.088379,1.331243
-441.925049,729.858398,481.201172,1.331984
-445.037842,735.260010,473.144531,1.332724
-442.840576,728.851318,471.496582,1.333475
-439.086914,732.238770,474.426270,1.334215
-442.749023,734.069824,470.855713,1.334956
-440.643311,733.886719,476.715088,1.335696
-440.460205,728.027344,470.947266,1.336446
-437.896729,726.379395,469.390869,1.337187
-440.277100,734.436035,470.672607,1.337927
-435.333252,735.076904,458.587646,1.338667
-435.699463,730.499268,470.031738,1.339416
-437.622070,729.492188,471.496582,1.340157
-436.340332,748.260498,468.475342,1.340897
-440.734863,734.161377,474.243164,1.341637
-443.298340,729.034424,474.334717,1.342378
-441.375732,735.717773,479.644775,1.343108
-438.354492,738.372803,481.018066,1.343839
-437.713623,730.133057,475.982666,1.344569
-444.122314,732.147217,475.067139,1.345319
-442.199707,737.182617,480.377197,1.346059
-438.903809,745.605469,474.151611,1.346798
-436.798096,734.893799,477.081299,1.347537
-445.312500,740.753174,477.447510,1.348285
-445.129395,735.717773,480.834961,1.349024
-453.369141,743.041992,482.391357,1.349763
-452.636719,741.577148,484.771729,1.350501
-449.066162,745.239258,483.398438,1.351252
-451.721191,744.964600,475.341797,1.351992
-449.798584,751.831055,484.863281,1.352730
-451.446533,734.252930,484.588623,1.353469
-437.164307,738.647461,483.306885,1.354214
-443.206787,740.478516,482.757568,1.354953
-436.431885,742.309570,487.609863,1.355692
-449.707031,745.697021,483.398438,1.356430
-453.552246,742.034912,482.849121,1.357179
-453.918457,745.788574,478.363037,1.357917
-462.524414,735.992432,475.616455,1.358744
-461.334229,743.774414,471.496582,1.359484
-461.791992,728.118896,477.264404,1.360238
-452.545166,757.507324,478.729248,1.360977
-454.010010,748.992920,479.827881,1.361718
-450.073242,744.415283,474.517822,1.362456
-439.270020,747.344971,470.764160,1.363205
-434.967041,757.781982,477.447510,1.363944
-438.537598,767.944336,487.243652,1.364683
-435.150146,761.444092,477.539062,1.365421
-431.030273,757.232666,481.842041,1.366170
-424.987793,750.457764,476.989746,1.366909
-434.143066,747.161865,476.715088,1.367647
-437.164307,752.380371,477.996826,1.368386
-455.108643,749.725342,477.172852,1.369134
-442.932129,752.014160,472.045898,1.369873
-453.369141,757.873535,470.123291,1.370611
-451.721191,750.640869,474.334717,1.371350
-445.678711,752.014160,477.630615,1.372098
-449.615479,744.506836,487.060547,1.372837
-445.587158,769.500732,478.088379,1.373576
-435.974121,745.788574,479.644775,1.374318
-444.305420,747.070312,481.475830,1.375075
-446.136475,743.957520,481.018066,1.375815
-454.101562,738.647461,490.905762,1.376554
-453.826904,735.626221,484.130859,1.377293
-448.883057,732.513428,478.637695,1.378042
-453.735352,738.922119,481.475830,1.378780
-456.481934,737.091064,476.989746,1.379518
-461.151123,729.858398,481.567383,1.380262
-462.890625,727.661133,475.524902,1.381029
-459.320068,727.661133,474.060059,1.381778
-451.629639,716.857910,475.524902,1.382522
-455.749512,718.688965,472.686768,1.383262
-449.615479,714.660645,472.595215,1.384021
-444.580078,714.935303,467.559814,1.384761
-451.263428,709.259033,476.257324,1.385499
-457.946777,700.653076,476.348877,1.386238
-462.432861,703.216553,477.630615,1.386994
-492.004395,699.645996,479.461670,1.387728
-468.017578,696.624756,479.736328,1.388458
-462.524414,704.681396,483.581543,1.389203
-467.468262,705.413818,474.884033,1.389981
-456.024170,698.181152,489.440918,1.390752
-460.601807,696.716309,501.342773,1.391498
-461.975098,693.237305,502.441406,1.392229
-463.073730,682.067871,500.610352,1.392959
-478.454590,682.159424,506.378174,1.393690
-476.989746,690.307617,501.342773,1.394422
-480.102539,691.040039,500.152588,1.395160
-487.518311,685.363770,503.082275,1.395892
-476.257324,682.800293,494.659424,1.396623
-488.983154,679.138184,490.631104,1.397356
-482.116699,680.786133,477.722168,1.398099
-482.757568,682.708740,472.320557,1.398839
-486.053467,684.082031,471.496582,1.399579
-484.680176,693.511963,466.827393,1.400320
-486.968994,693.237305,473.968506,1.401060
-482.025146,696.624756,493.377686,1.401800
-483.581543,710.632324,513.702393,1.402541
-496.490479,714.477539,519.195557,1.403282
-497.314453,718.505859,526.519775,1.404022
-501.525879,728.027344,533.660889,1.404763
-495.483398,731.689453,542.175293,1.405504
-491.088867,733.062744,555.541992,1.406246
-489.715576,727.752686,552.429199,1.406987
-494.201660,729.949951,541.351318,1.407728
-497.222900,729.858398,530.914307,1.408468
-488.067627,722.259521,540.435791,1.409208
-488.433838,712.554932,518.646240,1.409967
-484.954834,711.547852,520.751953,1.410708
-487.701416,701.110840,508.941650,1.411448
-499.603271,720.703125,505.920410,1.412202
-497.772217,698.364258,500.152588,1.412945
-492.279053,709.625244,486.694336,1.413685
-496.765137,709.167480,486.877441,1.414426
-495.117188,717.407227,487.792969,1.415177
-491.912842,720.153809,494.018555,1.415918
-479.370117,723.999023,504.638672,1.416660
-477.630615,727.478027,510.772705,1.417400
-480.285645,726.745605,515.625000,1.418154
-480.194092,739.837646,516.723633,1.418896
-475.982666,748.443604,528.625488,1.419636
-481.201172,747.344971,532.012939,1.420377
-482.391357,760.894775,530.273438,1.421126
-475.708008,756.408691,523.132324,1.421867
-476.898193,771.423340,523.864746,1.422608
-478.820801,774.627686,517.456055,1.423348
-476.806641,773.071289,519.012451,1.424089
-483.489990,771.514893,523.498535,1.424839
-483.489990,775.909424,524.597168,1.425580
-474.884033,784.423828,533.660889,1.426321
-471.221924,793.395996,526.794434,1.427061
-462.982178,802.368164,528.717041,1.427815
-474.700928,809.967041,538.787842,1.428557
-467.834473,801.635742,547.943115,1.429387
-467.559814,806.030273,546.203613,1.430129
-456.939697,813.812256,547.393799,1.430869
-455.749512,815.002441,544.097900,1.431609
-458.679199,821.960449,551.788330,1.432349
-457.672119,814.910889,540.435791,1.433089
-458.038330,816.558838,535.949707,1.433829
-459.960938,819.030762,541.076660,1.434569
-452.819824,820.770264,538.513184,1.435309
-453.460693,815.277100,532.653809,1.436069
-454.833984,814.910889,540.893555,1.436810
-464.721680,825.622559,531.829834,1.437550
-463.073730,827.545166,536.132812,1.438291
-464.813232,831.115723,542.633057,1.439031
-468.933105,833.312988,557.830811,1.439772
-468.109131,842.651367,571.197510,1.440514
-466.735840,848.785400,575.134277,1.441256
-466.552734,847.595215,573.120117,1.442010
-466.735840,847.869873,583.190918,1.442750
-473.693848,849.884033,592.346191,1.443491
-466.461182,846.771240,593.444824,1.444231
-467.010498,850.799561,590.606689,1.444977
-451.171875,852.172852,594.818115,1.445717
-450.164795,817.474365,602.966309,1.446457
-393.859863,850.524902,579.711914,1.447197
-376.007080,864.349365,563.964844,1.447947
-335.815430,856.933594,568.725586,1.448688
-373.352051,848.602295,576.507568,1.449428
-412.719727,836.425781,571.289062,1.450168
-473.602295,821.411133,564.880371,1.450932
-511.962891,809.417725,569.641113,1.451687
-513.244629,815.551758,590.789795,1.452436
-522.216797,832.946777,592.163086,1.453182
-511.413574,836.242676,603.790283,1.453923
-521.026611,829.742432,641.784668,1.454663
-500.061035,828.552246,650.756836,1.455403
-476.165771,816.101074,657.897949,1.456144
-436.157227,822.326660,645.446777,1.456886
-391.845703,820.587158,634.826660,1.457653
-337.463379,840.179443,620.178223,1.458404
-347.717285,843.292236,598.571777,1.459152
-345.336914,829.925537,575.408936,1.459897
-400.909424,820.861816,555.450439,1.460637
-411.254883,812.438965,550.598145,1.461376
-465.820312,809.783936,557.556152,1.462116
-480.102539,818.481445,594.360352,1.462856
-491.546631,810.974121,614.868164,1.463600
-473.510742,837.799072,654.144287,1.464340
-461.425781,837.982178,669.433594,1.465079
-424.072266,842.468262,676.025391,1.465837
-415.557861,847.137451,695.251465,1.466580
-376.007080,843.292236,690.307617,1.467320
-362.182617,847.595215,700.103760,1.468060
-342.590332,843.292236,709.808350,1.468800
-348.632812,822.784424,720.977783,1.469540
-358.978271,809.051514,727.020264,1.470279
-373.992920,806.030273,719.512939,1.471018
-399.444580,821.411133,695.526123,1.471759
-405.303955,833.496094,673.370361,1.472498
-429.656982,827.636719,655.334473,1.473237
-440.551758,813.720703,632.171631,1.473976
-454.284668,807.952881,606.079102,1.474716
-462.066650,802.368164,605.621338,1.475455
-442.657471,802.001953,613.128662,1.476194
-420.318604,797.149658,607.543945,1.476933
-386.535645,799.896240,628.875732,1.477673
-370.971680,801.635742,619.903564,1.478416
-345.794678,784.149170,613.403320,1.479156
-308.807373,790.008545,599.853516,1.479895
-324.554443,799.530029,598.937988,1.480670
-337.921143,800.354004,580.627441,1.481410
-338.378906,795.501709,570.007324,1.482149
-366.394043,792.846680,574.584961,1.482888
-381.317139,810.882568,575.592041,1.483627
-404.571533,849.700928,591.064453,1.484366
-350.921631,874.603271,605.621338,1.485106
-396.972656,852.081299,652.862549,1.485847
-412.811279,791.381836,670.440674,1.486599
-412.078857,834.320068,683.441162,1.487338
-370.239258,872.039795,683.258057,1.488077
-355.041504,888.153076,682.891846,1.488816
-308.441162,894.927979,683.990479,1.489564
-316.131592,895.019531,691.406250,1.490303
-222.564697,921.569824,720.245361,1.491042
-238.037109,914.428711,781.036377,1.491781
-464.904785,884.307861,815.002441,1.492521
-256.805420,903.259277,818.298340,1.493259
-222.198486,900.512695,797.790527,1.493998
-396.148682,905.090332,817.474365,1.494737
-390.197754,929.351807,804.290771,1.495477
-259.918213,944.732666,806.304932,1.496216
-311.370850,960.388184,816.650391,1.496954
-296.173096,975.402832,843.750000,1.497693
-245.544434,963.500977,861.328125,1.498442
-249.664307,955.993652,890.808105,1.499181
-266.235352,962.310791,913.238525,1.500011
-246.185303,979.248047,902.801514,1.500752
-222.198486,983.367920,913.970947,1.501491
-124.420166,841.644287,899.414062,1.502230
-67.932129,1038.848877,783.142090,1.502970
-11.627197,1037.292480,735.260010,1.503709
-7.873535,1043.884277,756.774902,1.504448
-139.160156,1029.602051,828.826904,1.505187
-149.597168,1000.579834,848.510742,1.505927
-206.909180,916.534424,837.890625,1.506666
-246.459961,873.413086,797.058105,1.507418
-105.377197,894.653320,772.155762,1.508158
250.213623,1036.468506,730.957031,1.508897
353.668213,1086.456299,719.696045,1.509636
436.157227,1093.597412,721.435547,1.510383
444.580078,1050.933838,685.821533,1.511123
521.301270,1073.272705,653.869629,1.511862
-108.215332,715.301514,705.230713,1.512602
-674.194336,923.034668,774.353027,1.513341
-468.383789,866.821289,740.478516,1.514080
-468.383789,888.061523,772.888184,1.514819
-698.272705,961.761475,799.072266,1.515558
-2960.266113,946.746826,763.824463,1.516297
-2842.437744,1088.104248,885.864258,1.517036
359.069824,681.060791,843.109131,1.517775
521.392822,1021.362305,686.645508,1.518514
-746.612549,848.968506,686.553955,1.519255
-827.087402,885.498047,775.177002,1.519995
-181.274414,869.934082,667.053223,1.520735
-741.851807,898.956299,600.769043,1.521475
-624.298096,887.786865,592.803955,1.522216
-356.048584,902.435303,570.281982,1.522965
-864.074707,880.920410,557.006836,1.523709
-561.950684,888.244629,557.739258,1.524465
-395.690918,884.399414,551.239014,1.525233
-801.269531,870.117188,531.829834,1.525973
-785.156250,860.229492,543.548584,1.526713
-472.229004,867.919922,551.605225,1.527481
-703.216553,867.919922,550.048828,1.528228
-555.267334,874.694824,595.642090,1.528993
-475.250244,876.159668,610.290527,1.529740
-603.057861,880.828857,600.677490,1.530479
-563.781738,868.469238,579.162598,1.531219
-429.565430,874.786377,565.795898,1.531962
-524.963379,849.243164,561.676025,1.532707
-508.575439,834.503174,548.217773,1.533447
-429.473877,812.622070,546.936035,1.534186
-444.488525,801.910400,542.907715,1.534925
-460.144043,794.952393,540.344238,1.535664
-434.234619,773.071289,558.197021,1.536403
-450.988770,758.056641,567.718506,1.537144
-460.876465,757.232666,573.852539,1.537884
-451.263428,753.112793,586.303711,1.538624
-464.904785,742.675781,599.945068,1.539363
-462.615967,739.562988,622.375488,1.540126
-468.292236,734.252930,646.270752,1.540868
-484.313965,736.083984,658.996582,1.541610
-466.461182,730.773926,684.356689,1.542358
-483.581543,721.252441,730.499268,1.543101
-468.017578,715.026855,738.098145,1.543842
-470.031738,700.469971,731.781006,1.544598
-461.242676,681.060791,755.310059,1.545344
-467.834473,686.828613,779.205322,1.546129
-433.044434,705.596924,764.007568,1.546872
-438.262939,704.132080,780.029297,1.547611
-453.460693,686.370850,778.106689,1.548350
-427.276611,688.385010,750.823975,1.549099
-436.157227,671.447754,735.809326,1.549838
-436.798096,663.574219,715.026855,1.550577
-429.290771,660.278320,714.477539,1.551316
-451.538086,630.157471,716.033936,1.552055
-454.742432,623.382568,719.879150,1.552794
-432.952881,634.735107,723.907471,1.553533
-458.587646,620.635986,730.865479,1.554273
-444.854736,613.952637,722.442627,1.555016
-447.143555,605.529785,730.316162,1.555771
-456.665039,565.795898,734.985352,1.556508
-498.504639,566.802979,737.274170,1.557238
-477.630615,553.344727,742.858887,1.557971
-481.018066,554.992676,746.154785,1.558702
-489.715576,559.204102,741.394043,1.559432
-492.553711,550.323486,735.900879,1.560162
-444.580078,549.957275,733.154297,1.560893
-438.903809,540.435791,717.956543,1.561623
-450.073242,533.660889,714.111328,1.562354
-407.592773,523.406982,694.244385,1.563083
-390.014648,523.040771,692.138672,1.563816
-402.374268,501.617432,683.074951,1.564554
-404.113770,486.419678,678.680420,1.565291
-394.134521,494.293213,677.856445,1.566029
-375.091553,497.314453,669.616699,1.566783
-381.683350,485.229492,666.961670,1.567516
-390.106201,485.321045,668.792725,1.568246
-366.394043,468.933105,674.377441,1.568977
-367.218018,464.263916,660.003662,1.569719
-372.711182,459.686279,654.693604,1.570459
-346.435547,446.319580,660.003662,1.571287
-336.547852,443.939209,635.009766,1.572027
-310.180664,444.030762,639.404297,1.572779
-325.286865,425.354004,618.438721,1.573518
-321.807861,417.846680,613.128662,1.574257
-295.166016,411.621094,594.360352,1.574996
-302.124023,410.797119,578.887939,1.575746
-297.363281,420.227051,570.465088,1.576486
-292.877197,407.135010,544.464111,1.577224
-297.546387,406.585693,547.302246,1.577963
-296.081543,379.943848,540.710449,1.578702
-290.405273,362.091064,543.365479,1.579441
-293.334961,339.019775,532.104492,1.580180
-324.188232,325.286865,516.815186,1.580919
-321.624756,313.385010,508.483887,1.581661
-288.757324,331.420898,493.377686,1.582407
-274.383545,336.456299,482.025146,1.583145
-289.581299,369.506836,466.827393,1.583884
-305.328369,377.105713,445.312500,1.584637
-302.215576,386.810303,425.445557,1.585377
-294.433594,399.810791,409.606934,1.586116
-295.623779,421.875000,352.203369,1.586855
98.052979,508.666992,115.081787,1.587603
-774.353027,560.394287,-236.846924,1.588343
-1094.055176,784.515381,207.641602,1.589082
-350.006104,334.259033,229.339600,1.589822
199.127197,466.735840,274.108887,1.590561
-342.681885,395.233154,249.572754,1.591300
-583.282471,459.960938,114.074707,1.592039
-278.411865,503.173828,200.500488,1.592783
-200.317383,410.064697,235.198975,1.593529
-439.270020,404.754639,221.740723,1.594279
-355.224609,420.410156,179.626465,1.595022
-239.501953,443.572998,186.126709,1.595761
-293.151855,428.375244,213.775635,1.596519
-343.048096,421.051025,202.331543,1.597259
-288.757324,437.896729,201.507568,1.597997
-287.475586,448.425293,238.769531,1.598736
-315.490723,491.271973,264.404297,1.599475
-219.451904,538.696289,359.985352,1.600215
-208.648682,561.950684,467.193604,1.600983
-165.710449,613.494873,503.540039,1.601740
-161.590576,642.883301,563.140869,1.602483
-166.900635,646.362305,585.479736,1.603223
-198.669434,670.715332,618.164062,1.603962
-206.176758,673.919678,652.862549,1.604702
-191.345215,717.773438,670.166016,1.605440
-228.332520,727.111816,696.075439,1.606178
-214.050293,737.823486,709.259033,1.606915
-219.909668,762.451172,735.900879,1.607651
-235.931396,779.937744,758.514404,1.608441
-246.917725,779.296875,784.606934,1.609186
-268.066406,779.571533,805.755615,1.609928
-287.933350,789.276123,825.073242,1.610670
-294.250488,796.051025,844.665527,1.611411
-297.180176,803.649902,869.659424,1.612151
-305.419922,813.995361,894.195557,1.612892
-322.540283,822.418213,913.421631,1.613632
-319.610596,833.587646,951.141357,1.614373
-303.588867,838.439941,964.691162,1.615113
-318.420410,820.220947,983.551025,1.615854
-315.856934,809.783936,994.171143,1.616594
-296.722412,816.375732,1006.622314,1.617335
-267.242432,803.192139,1017.974854,1.618075
-262.390137,796.417236,1016.235352,1.618816
-248.931885,764.831543,1027.954102,1.619557
-239.135742,733.612061,1023.010254,1.620315
-210.205078,726.837158,1018.615723,1.621056
-203.521729,700.286865,1031.616211,1.621797
-195.007324,693.328857,1033.721924,1.622537
-175.781250,697.631836,1029.235840,1.623287
-176.971436,688.934326,1035.186768,1.624028
-167.907715,679.595947,1022.460938,1.624769
-192.993164,634.460449,1005.249023,1.625510
-207.458496,572.753906,967.987061,1.626259
-194.549561,573.120117,939.880371,1.627000
-221.374512,536.499023,875.335693,1.627740
-240.783691,520.660400,814.453125,1.628480
-248.657227,489.898682,785.614014,1.629222
-226.593018,456.939697,744.232178,1.629962
-180.908203,433.685303,729.858398,1.630702
-204.803467,387.451172,706.787109,1.631443
-203.521729,376.190186,703.491211,1.632183
-163.421631,340.850830,720.977783,1.632923
-148.406982,313.659668,744.415283,1.633664
-107.025146,308.074951,752.838135,1.634404
-61.340332,298.187256,772.247314,1.635144
-41.656494,301.940918,782.135010,1.635884
0.915527,291.137695,772.613525,1.636625
-2.929688,282.714844,749.633789,1.637366
-46.875000,276.489258,736.907959,1.638116
-27.191162,274.841309,698.181152,1.638856
-27.740479,247.833252,666.503906,1.639596
-58.959961,235.198975,644.714355,1.640336
-76.354980,207.092285,617.156982,1.641085
-52.734375,213.226318,564.605713,1.641911
-38.360596,214.965820,549.957275,1.642653
-24.719238,199.401855,511.230469,1.643393
-27.099609,196.838379,493.377686,1.644133
-33.142090,211.395264,465.637207,1.644875
-63.171387,132.202148,422.149658,1.645619
54.656982,153.350830,404.205322,1.646362
228.698730,165.893555,357.696533,1.647102
128.265381,186.950684,323.913574,1.647843
23.986816,186.584473,286.285400,1.648583
69.763184,186.859131,237.945557,1.649323
96.405029,188.964844,245.361328,1.650065
39.001465,173.217773,242.065430,1.650805
65.643311,184.020996,233.642578,1.651545
163.421631,180.816650,230.163574,1.652285
105.468750,182.281494,214.233398,1.653027
67.840576,186.035156,209.930420,1.653768
56.945801,204.528809,197.113037,1.654508
82.122803,213.500977,192.443848,1.655248
91.644287,224.487305,187.133789,1.655989
72.784424,243.164062,176.879883,1.656729
70.220947,251.678467,163.604736,1.657469
64.270020,248.565674,146.850586,1.658209
83.129883,260.101318,139.434814,1.658950
99.975586,255.615234,139.068604,1.659690
67.108154,272.277832,131.195068,1.660430
52.368164,272.918701,119.476318,1.661170
71.044922,291.412354,115.997314,1.661919
77.453613,290.039062,107.391357,1.662649
91.461182,300.292969,96.405029,1.663380
88.531494,322.998047,86.151123,1.664113
92.742920,331.329346,75.531006,1.664854
102.264404,340.484619,86.608887,1.665604
100.250244,344.329834,94.207764,1.666350
91.552734,355.041504,94.940186,1.667090
95.306396,397.979736,95.031738,1.667845
96.771240,447.875977,116.088867,1.668587
111.236572,457.305908,133.117676,1.669357
81.298828,484.863281,173.400879,1.670106
53.192139,515.991211,216.613770,1.670853
40.740967,532.562256,238.311768,1.671596
14.007568,542.266846,270.538330,1.672336
-9.246826,544.738770,319.061279,1.673077
2.929688,581.451416,321.350098,1.673816
-28.381348,590.515137,361.907959,1.674557
-69.213867,627.136230,399.444580,1.675297
-73.608398,600.128174,431.854248,1.676037
-95.306396,605.987549,624.114990,1.676799
-59.326172,678.131104,665.039062,1.677540
-63.262939,694.793701,671.539307,1.678280
-113.708496,709.808350,686.553955,1.679021
-171.752930,723.632812,751.373291,1.679763
-126.068115,771.972656,762.084961,1.680503
-142.547607,773.254395,778.289795,1.681243
-228.057861,764.923096,821.228027,1.681984
-206.268311,759.338379,829.467773,1.682736
-222.106934,735.168457,834.503174,1.683477
-260.742188,737.274170,846.862793,1.684218
-258.178711,738.372803,848.236084,1.684959
-261.840820,739.654541,851.623535,1.685708
-280.426025,730.957031,835.052490,1.686450
-300.018311,731.414795,822.052002,1.687190
-308.624268,740.753174,809.600830,1.687931
-332.336426,737.274170,795.959473,1.688680
-328.491211,749.359131,776.824951,1.689421
-290.863037,737.091064,719.329834,1.690161
-450.805664,739.929199,697.631836,1.690901
-612.487793,723.632812,643.707275,1.691650
-578.247070,693.054199,651.397705,1.692391
-530.181885,681.976318,646.545410,1.693131
-553.161621,686.370850,641.235352,1.693872
-538.055420,687.011719,626.678467,1.694613
-549.774170,670.898438,648.834229,1.695354
-549.499512,687.652588,644.805908,1.696095
-535.125732,656.066895,632.812500,1.696836
-538.787842,639.129639,634.094238,1.697577
-535.675049,634.735107,638.397217,1.698318
-517.089844,635.192871,622.375488,1.699057
-533.386230,640.594482,600.402832,1.699798
-528.625488,627.868652,597.015381,1.700538
-507.476807,616.241455,575.317383,1.701278
-494.659424,611.022949,566.162109,1.702019
-481.475830,605.438232,546.936035,1.702760
-460.052490,586.944580,541.351318,1.703515
-423.431396,603.790283,534.576416,1.704256
-376.373291,610.656738,528.808594,1.704997
-344.879150,614.227295,556.457520,1.705737
-289.672852,610.656738,532.287598,1.706479
-277.313232,612.579346,516.357422,1.707219
-260.375977,621.734619,509.399414,1.707959
-246.368408,610.473633,485.870361,1.708699
-253.692627,596.923828,457.489014,1.709451
-267.700195,588.043213,436.706543,1.710192
-266.052246,581.817627,407.958984,1.710932
-286.834717,574.493408,388.275146,1.711673
-289.306641,574.401855,382.141113,1.712413
-279.785156,569.366455,380.493164,1.713154
-262.390137,572.570801,385.437012,1.713980
-224.945068,580.352783,406.036377,1.714721
-209.381104,594.451904,413.177490,1.715475
-177.520752,589.965820,420.867920,1.716216
-142.913818,592.987061,427.917480,1.716956
-148.040771,601.135254,429.931641,1.717697
-133.117676,589.965820,434.051514,1.718445
-133.758545,603.240967,426.544189,1.719186
-130.371094,599.395752,425.170898,1.719926
-124.877930,600.952148,406.677246,1.720667
-129.180908,612.030029,381.683350,1.721417
-137.786865,610.748291,361.633301,1.722157
-121.490479,611.022949,325.653076,1.722897
-93.383789,613.677979,305.969238,1.723637
-87.707520,609.375000,268.341064,1.724378
-73.791504,617.065430,243.530273,1.725118
-57.220459,634.735107,240.325928,1.725858
-59.417725,636.657715,234.283447,1.726599
-42.480469,652.954102,243.804932,1.727339
-30.212402,664.855957,248.565674,1.728079
-28.930664,700.744629,280.700684,1.728820
-44.036865,715.118408,303.131104,1.729560
-51.177979,736.541748,341.583252,1.730301
-91.644287,754.302979,398.620605,1.731041
-131.378174,768.402100,423.889160,1.731782
-148.681641,786.163330,453.918457,1.732522
-168.182373,808.502197,462.524414,1.733266
-199.127197,837.890625,493.560791,1.733997
-204.345703,845.031738,500.518799,1.734729
-210.754395,858.581543,513.885498,1.735466
-220.184326,868.560791,522.399902,1.736213
-230.804443,867.279053,526.336670,1.736961
-230.072021,882.385254,544.372559,1.737701
-238.769531,906.005859,543.823242,1.738440
-244.171143,893.188477,540.161133,1.739191
-248.931885,900.604248,539.154053,1.739930
-249.023438,902.709961,529.724121,1.740669
-258.270264,911.865234,538.055420,1.741409
-260.192871,907.196045,536.590576,1.742148
-267.700195,898.590088,527.709961,1.742888
-274.291992,907.379150,523.315430,1.743627
-278.228760,905.731201,523.315430,1.744375
-288.665771,905.273438,518.829346,1.745160
-296.997070,898.040771,502.624512,1.745925
-300.842285,906.372070,510.040283,1.746673
-292.510986,907.012939,500.427246,1.747413
-292.785645,907.653809,486.877441,1.748174
-293.334961,908.020020,496.124268,1.748914
-292.968750,915.344238,491.088867,1.749653
-291.503906,917.449951,503.356934,1.750393
-280.517578,916.076660,500.701904,1.751149
-276.763916,922.668457,512.145996,1.751891
-272.186279,927.703857,519.653320,1.752631
-276.855469,925.689697,518.371582,1.753371
-274.749756,926.147461,518.463135,1.754121
-270.629883,916.076660,518.005371,1.754861
-264.495850,909.393311,515.991211,1.755600
-265.869141,914.245605,513.244629,1.756339
-266.510010,907.562256,514.343262,1.757088
-259.643555,902.801514,506.927490,1.757827
-263.214111,897.857666,504.180908,1.758567
-259.277344,886.230469,505.096436,1.759306
-249.938965,881.011963,505.279541,1.760054
-240.234375,878.997803,505.554199,1.760793
-234.375000,874.053955,497.131348,1.761532
-227.783203,866.180420,486.328125,1.762272
-232.269287,852.722168,487.152100,1.763020
-226.318359,853.912354,486.053467,1.763759
-225.402832,851.806641,476.989746,1.764498
-228.881836,859.497070,470.672607,1.765238
-225.860596,843.292236,466.461182,1.765986
-223.571777,848.144531,455.108643,1.766725
-227.050781,843.383789,448.150635,1.767464
-227.050781,847.229004,440.368652,1.768204
-217.987061,852.813721,436.248779,1.768959
-187.591553,866.363525,435.241699,1.769699
-201.049805,868.011475,432.312012,1.770438
-185.485840,888.519287,441.375732,1.771177
-177.429199,885.131836,448.425293,1.771926
-168.273926,893.371582,450.164795,1.772665
-159.759521,898.864746,459.320068,1.773405
-144.653320,902.252197,491.363525,1.774144
-147.583008,907.012939,477.264404,1.774883
-145.385742,919.555664,487.243652,1.775640
-129.455566,925.506592,490.264893,1.776379
-128.265381,927.703857,484.222412,1.777118
-128.082275,925.048828,485.778809,1.777857
-115.722656,936.035156,488.891602,1.778596
-121.948242,938.049316,491.912842,1.779335
-101.074219,939.971924,489.715576,1.780074
-104.095459,932.189941,476.531982,1.780813
-97.503662,932.647705,486.877441,1.781552
-76.171875,940.704346,488.800049,1.782291
-47.607422,955.261230,484.588623,1.783030
-72.784424,953.796387,480.010986,1.783780
-60.516357,966.339111,485.595703,1.784521
-50.537109,958.099365,485.412598,1.785346
-56.488037,957.183838,493.011475,1.786087
-25.543213,970.092773,505.187988,1.786841
-33.233643,965.972900,513.061523,1.787582
-42.114258,982.635498,524.597168,1.788322
-10.162354,1001.037598,531.188965,1.789061
-18.676758,1005.889893,521.484375,1.789811
-20.233154,1012.756348,519.195557,1.790551
-1.922607,1003.875732,519.836426,1.791291
0.549316,998.748779,523.315430,1.792030
5.950928,1008.636475,520.019531,1.792780
17.120361,1013.397217,521.667480,1.793519
10.803223,1018.157959,523.773193,1.794259
5.584717,1009.643555,516.906738,1.794998
16.021729,1005.157471,518.005371,1.795747
12.725830,1007.537842,514.801025,1.796487
7.324219,1031.158447,514.984131,1.797226
16.113281,1014.770508,507.843018,1.797966
16.204834,1011.291504,503.906250,1.798715
5.035400,1009.826660,500.885010,1.799455
12.725830,1003.234863,490.722656,1.800195
-5.035400,1008.819580,483.306885,1.800934
-20.416260,989.227295,475.433350,1.801683
-26.824951,991.607666,465.545654,1.802423
-38.909912,992.248535,457.397461,1.803162
-50.903320,988.403320,459.777832,1.803902
-49.987793,997.375488,452.545166,1.804652
-56.854248,983.367920,450.439453,1.805392
-58.502197,992.431641,453.369141,1.806132
-62.988281,1002.685547,470.214844,1.806875
-52.642822,997.924805,480.560303,1.807640
-48.156738,994.171143,501.617432,1.808421
-40.283203,993.255615,513.336182,1.809166
-45.776367,998.748779,520.477295,1.809906
-2.471924,1002.410889,519.287109,1.810665
-23.162842,986.663818,515.167236,1.811405
-23.437500,982.086182,509.216309,1.812146
-25.360107,947.753906,480.102539,1.812900
-36.895752,952.972412,464.172363,1.813681
-30.944824,967.895508,439.910889,1.814430
-30.120850,958.190918,412.353516,1.815171
-72.601318,949.584961,420.593262,1.815911
-48.339844,954.803467,413.269043,1.816671
-66.467285,934.478760,416.015625,1.817411
-88.806152,938.507080,428.100586,1.818151
-72.143555,950.500488,432.952881,1.818891
-94.390869,946.105957,454.742432,1.819641
-73.516846,961.761475,467.285156,1.820381
-65.002441,973.846436,490.814209,1.821123
-76.904297,966.979980,502.624512,1.821866
-36.346436,978.515625,529.174805,1.822630
-38.635254,970.825195,493.560791,1.823372
-48.706055,959.930420,514.343262,1.824111
-33.966064,953.338623,515.533447,1.824850
-29.388428,929.534912,502.716064,1.825599
-33.782959,906.555176,471.679688,1.826339
-27.923584,903.900146,427.642822,1.827079
-32.684326,915.435791,426.544189,1.827818
-45.410156,911.773682,401.367188,1.828569
-49.438477,899.047852,403.656006,1.829310
-78.277588,884.674072,411.895752,1.830049
-84.136963,881.378174,418.395996,1.830789
-92.285156,872.772217,429.199219,1.831538
-102.172852,870.758057,430.572510,1.832278
-97.869873,863.891602,424.713135,1.833018
-100.158691,866.546631,420.867920,1.833758
-90.545654,862.976074,429.748535,1.834507
-75.622559,853.546143,417.663574,1.835247
-57.495117,841.186523,416.931152,1.835987
-54.016113,844.390869,414.733887,1.836726
-50.994873,832.397461,398.162842,1.837473
-56.121826,815.551758,394.775391,1.838210
-45.501709,802.734375,404.937744,1.838947
-48.797607,782.135010,385.437012,1.839695
-53.558350,751.739502,372.253418,1.840448
-43.121338,750.000000,368.408203,1.841189
-64.361572,757.507324,368.865967,1.841930
-60.424805,756.683350,375.000000,1.842671
-57.037354,743.591309,362.182617,1.843421
-52.551270,713.195801,361.175537,1.844162
-62.347412,718.231201,355.041504,1.844903
-59.326172,696.166992,325.286865,1.845644
-56.945801,681.884766,313.842773,1.846393
-35.339355,665.771484,286.743164,1.847135
-35.980225,660.278320,249.847412,1.847875
-30.578613,646.911621,234.558105,1.848617
-32.409668,632.263184,217.803955,1.849371
-27.832031,628.601074,202.423096,1.850113
-23.162842,634.002686,204.528809,1.850853
-22.613525,625.854492,195.831299,1.851611
-30.670166,611.480713,193.267822,1.852364
-34.149170,612.670898,184.570312,1.853105
-33.782959,638.031006,166.809082,1.853846
-42.480469,617.889404,158.569336,1.854587
-22.064209,635.742188,152.069092,1.855345
-23.712158,663.299561,127.807617,1.856086
-70.312500,630.798340,128.265381,1.856827
-35.522461,616.973877,135.040283,1.857649
-5.493164,572.479248,108.032227,1.858405
-0.915527,585.113525,94.665527,1.859146
33.782959,739.105225,59.051514,1.859887
-59.326172,955.627441,45.410156,1.860628
-109.130859,-209.289551,375.732422,1.861381
-80.200195,257.537842,239.959717,1.862122
286.743164,428.009033,58.135986,1.862863
18.218994,268.249512,139.251709,1.863603
-31.951904,282.623291,58.410645,1.864352
67.565918,436.798096,18.310547,1.865093
-152.984619,177.429199,154.998779,1.865834
2.105713,299.743652,134.582520,1.866575
-105.102539,369.598389,-40.466309,1.867328
-113.250732,354.125977,86.425781,1.868069
171.569824,350.006104,166.168213,1.868810
213.958740,382.507324,27.191162,1.869551
106.384277,405.212402,21.789551,1.870297
53.283691,405.578613,47.241211,1.871038
-47.332764,375.457764,-85.601807,1.871778
-94.573975,345.611572,-37.811279,1.872519
-9.338379,444.122314,-17.852783,1.873270
-91.827393,500.244141,-266.143799,1.874010
-149.688721,702.301025,-331.146240,1.874751
-55.938721,907.653809,-342.132568,1.875492
-115.905762,955.444336,-384.613037,1.876242
-103.546143,973.388672,-382.965088,1.876983
4.302979,988.128662,-294.891357,1.877724
-12.268066,757.690430,-364.562988,1.878469
210.296631,910.583496,-358.795166,1.879234
210.754395,1026.214600,-278.869629,1.879985
108.306885,944.458008,-419.586182,1.880735
25.726318,1095.703125,-416.931152,1.881476
-30.303955,1122.070312,-412.536621,1.882236
-17.211914,1084.533691,-353.302002,1.882984
29.022217,1171.051025,-303.222656,1.883743
139.251709,1259.490967,-378.112793,1.884491
142.547607,1322.753906,-419.677734,1.885263
175.506592,1342.895508,-395.507812,1.886006
150.421143,1365.692139,-407.501221,1.886749
137.054443,1415.588379,-402.008057,1.887491
316.955566,1458.984375,-373.718262,1.888243
-757.965088,1007.812500,-284.637451,1.888984
-2321.228027,1499.176025,-199.035645,1.889725
655.059814,1567.474365,-438.079834,1.890466
564.880371,1808.715820,-192.077637,1.891218
-966.705322,1487.731934,-3.753662,1.891959
55.297852,1550.628662,-95.855713,1.892700
1028.503418,1712.402344,-82.672119,1.893441
-293.792725,1644.927979,65.826416,1.894192
-498.962402,1825.103760,324.829102,1.894934
-171.569824,1750.762939,389.373779,1.895676
-114.074707,1727.508545,404.846191,1.896417
-156.372070,1933.593750,511.596680,1.897168
214.233398,2046.203613,527.801514,1.897909
-750.091553,1658.111572,684.173584,1.898649
-1537.078857,1785.278320,797.424316,1.899391
174.774170,1772.186279,808.502197,1.900142
-152.343750,1712.127686,917.083740,1.900883
-325.561523,1771.728516,972.473145,1.901624
-124.877930,1686.767578,1037.384033,1.902365
-458.587646,1619.476318,1118.682861,1.903118
-462.615967,1533.416748,1128.295898,1.903860
-84.136963,1636.138916,1132.324219,1.904602
-140.258789,1670.562744,1159.057617,1.905343
-203.979492,1535.797119,1149.169922,1.906094
-456.207275,1480.316162,1126.922607,1.906836
-296.356201,1428.131104,1084.259033,1.907577
-64.544678,1399.841309,1022.918701,1.908318
-140.350342,974.395752,1007.995605,1.909068
494.384766,1057.067871,1054.504395,1.909809
-300.292969,1137.176514,1063.934326,1.910550
-310.821533,1163.360596,967.254639,1.911290
392.395020,1189.086914,903.259277,1.912041
-93.566895,1192.932129,806.488037,1.912788
79.284668,1232.025146,744.232178,1.913534
194.824219,1338.317871,626.495361,1.914276
-220.367432,1343.353271,521.392822,1.915033
284.912109,1416.412354,466.827393,1.915775
-35.980225,1454.772949,371.887207,1.916516
-160.583496,1343.994141,301.574707,1.917257
178.527832,1399.108887,250.671387,1.918007
86.334229,1315.246582,192.993164,1.918748
-106.933594,1279.449463,176.147461,1.919489
26.733398,1245.941162,144.653320,1.920230
-66.284180,1203.369141,124.145508,1.920981
-85.510254,1202.545166,115.722656,1.921722
-21.606445,1173.431396,94.390869,1.922463
-111.328125,1133.422852,91.461182,1.923205
-81.298828,1110.351562,76.263428,1.923961
-59.326172,1062.652588,97.686768,1.924702
-72.601318,1017.425537,104.461670,1.925443
-34.423828,939.605713,90.270996,1.926186
-19.500732,890.899658,55.206299,1.926940
-46.142578,815.093994,49.255371,1.927681
9.155273,755.584717,8.056641,1.928506
-18.859863,724.822998,-33.233643,1.929248
23.071289,710.083008,-60.516357,1.930000
16.937256,657.257080,-128.082275,1.930740
-13.366699,639.129639,-175.781250,1.931481
-4.852295,643.432617,-265.869141,1.932222
-46.691895,636.840820,-357.696533,1.932971
-34.606934,694.976807,-415.008545,1.933712
-31.585693,819.305420,-513.336182,1.934453
29.937744,857.391357,-563.964844,1.935194
28.106689,926.422119,-621.185303,1.935943
18.859863,1002.868652,-647.735596,1.936684
24.993896,989.135742,-654.785156,1.937425
21.606445,1011.474609,-641.601562,1.938166
-13.092041,1008.361816,-600.219727,1.938919
5.310059,982.635498,-588.226318,1.939660
-23.162842,1009.002686,-520.477295,1.940400
-410.888672,447.692871,-54.199219,1.941141
-588.317871,834.869385,393.493652,1.941891
737.182617,696.441650,118.377686,1.942631
-325.653076,1095.611572,435.241699,1.943371
-1497.070312,1208.038330,618.255615,1.944112
-545.013428,1454.223633,374.725342,1.944862
-172.943115,1244.201660,383.056641,1.945603
337.463379,1442.413330,527.160645,1.946344
2999.908447,1683.929443,633.911133,1.947084
1804.595947,1332.183838,490.447998,1.947834
-693.420410,1273.406982,512.512207,1.948575
-1418.792725,1288.696289,539.703369,1.949316
-1437.194824,1307.006836,431.854248,1.950058
-991.333008,1172.058105,411.712646,1.950814
1123.718262,1381.256104,318.145752,1.951561
1637.969971,1430.877686,344.787598,1.952313
471.862793,1385.009766,379.852295,1.953059
-1247.863770,1281.646729,391.662598,1.953825
-1217.285156,1263.427734,302.947998,1.954567
-69.396973,1325.134277,239.593506,1.955307
501.525879,1343.444824,185.577393,1.956048
440.734863,1352.966309,161.224365,1.956798
-369.232178,1241.912842,100.158691,1.957539
-593.719482,1197.418213,7.232666,1.958290
-587.127686,1128.936768,-34.881592,1.959045
-316.314697,1151.184082,-62.530518,1.959822
-194.274902,1176.361084,-51.544189,1.960572
-68.847656,1213.256836,-70.587158,1.961321
-89.813232,1158.416748,-141.082764,1.962062
-196.289062,1134.704590,-187.133789,1.962816
-376.098633,1098.175049,-265.960693,1.963557
-577.880859,1109.161377,-235.382080,1.964299
-1084.991455,1138.000488,-140.441895,1.965040
346.710205,1202.636719,195.465088,1.965793
510.406494,1297.760010,303.863525,1.966535
-52.276611,1375.030518,281.890869,1.967276
-277.954102,1345.367432,168.548584,1.968018
-140.625000,1332.641602,102.539062,1.968770
297.912598,1317.260742,-49.072266,1.969513
280.975342,1315.612793,-149.780273,1.970254
-208.648682,1191.375732,-166.168213,1.970995
-554.351807,1086.639404,-155.548096,1.971750
-446.502686,1136.444092,-177.703857,1.972491
5.218506,1293.090820,-264.770508,1.973232
235.198975,1336.303711,-341.491699,1.973973
120.025635,1329.345703,-403.015137,1.974726
-123.962402,1260.681152,-528.625488,1.975467
-364.471436,1289.520264,-290.863037,1.976208
401.641846,1152.374268,-15.930176,1.976949
271.362305,1271.301270,144.012451,1.977699
-613.220215,1320.831299,142.822266,1.978440
14.739990,1400.390625,-2.197266,1.979181
461.608887,1410.461426,-97.595215,1.979922
519.836426,1440.124512,-130.645752,1.980672
-231.170654,1376.770020,-126.892090,1.981413
-456.848145,1341.796875,-148.773193,1.982154
-68.572998,1330.444336,-212.036133,1.982895
256.713867,1351.867676,-277.313232,1.983645
467.742920,1348.480225,-296.905518,1.984387
191.070557,1248.321533,-336.364746,1.985128
67.565918,1162.902832,-459.320068,1.985869
-639.862061,1145.965576,-431.671143,1.986620
-1572.052002,1009.552002,-1.922607,1.987362
-1187.347412,1075.195312,171.386719,1.988102
1235.687256,1424.194336,192.169189,1.988843
1548.065186,1519.500732,201.599121,1.989594
-61.706543,1418.243408,220.916748,1.990334
-1379.058838,1301.971436,234.558105,1.991075
-1021.545410,1305.725098,195.739746,1.991816
562.133789,1386.749268,64.636230,1.992565
881.744385,1366.882324,-84.136963,1.993306
184.570312,1288.238525,-118.103027,1.994047
-807.037354,1180.938721,-184.753418,1.994788
-784.149170,1186.431885,-117.645264,1.995538
671.813965,1226.715088,-19.958496,1.996279
1255.004883,1160.064697,137.145996,1.997020
347.808838,1137.084961,128.723145,1.997761
-555.908203,1251.983643,161.041260,1.998597
-1028.503418,1256.561279,367.218018,1.999339
-1632.202148,1245.941162,389.648438,2.000081
-1508.605957,1225.891113,263.580322,2.000834
-925.140381,1090.118408,81.756592,2.001576
1898.437500,1350.677490,-3.845215,2.002318
1787.841797,1257.110596,-91.369629,2.003058
550.231934,1133.880615,-113.616943,2.003808
-1156.219482,1052.032471,-144.836426,2.004572
-1240.905762,1043.518066,-209.747314,2.005354
209.381104,1056.610107,-299.011230,2.006123
604.705811,1036.193848,-373.718262,2.006912
661.468506,1299.682617,989.501953,2.007701
1519.226074,1722.015381,2804.443359,2.008468
1958.496094,1638.610840,819.488525,2.009270
-150.421143,1228.179932,-1852.844238,2.010038
-701.568604,910.766602,-2246.337891,2.010790
11.993408,434.051514,-255.249023,2.011580
-502.075195,797.332764,555.084229,2.012377
35.430908,1151.184082,-143.280029,2.013175
118.652344,953.887939,-112.884521,2.013937
164.886475,897.033691,-103.088379,2.014691
187.042236,901.702881,-203.338623,2.015434
62.713623,877.349854,-147.216797,2.016175
-24.627686,887.054443,-166.625977,2.016916
-254.241943,919.464111,-170.654297,2.017657
-145.385742,885.223389,-126.617432,2.018398
-68.939209,893.096924,-153.900146,2.019138
-10.620117,836.791992,-250.488281,2.019879
75.073242,855.651855,-265.319824,2.020628
63.079834,904.632568,-273.101807,2.021374
-51.544189,982.452393,-177.154541,2.022124
-69.030762,1005.249023,-116.088867,2.022870
-30.578613,1037.567139,-130.279541,2.023611
-28.564453,1002.319336,-264.587402,2.024353
-88.073730,954.711914,-303.680420,2.025171
-29.754639,916.992188,-293.334961,2.025924
79.376221,946.746826,-223.571777,2.026710
111.877441,952.514648,-225.952148,2.027457
134.307861,951.416016,-257.720947,2.028198
355.041504,944.641113,-390.014648,2.028939
371.429443,926.788330,-421.783447,2.029692
335.632324,911.773682,-349.182129,2.030433
264.404297,941.528320,-290.496826,2.031174
218.353271,946.563721,-266.052246,2.031914
188.690186,960.388184,-219.818115,2.032667
153.350830,945.373535,-253.417969,2.033408
78.369141,923.675537,-274.841309,2.034149
41.564941,937.774658,-270.629883,2.034892
4.028320,941.253662,-277.862549,2.035646
-148.315430,946.380615,-249.847412,2.036388
-255.065918,984.191895,-174.774170,2.037129
-360.260010,1011.749268,-169.006348,2.037869
-319.335938,1028.594971,-191.162109,2.038621
-255.706787,1018.157959,-248.382568,2.039375
-112.243652,992.889404,-256.530762,2.040137
41.107178,980.072021,-274.108887,2.040878
53.924561,988.494873,-285.003662,2.041622
69.671631,989.044189,-314.941406,2.042353
78.186035,1015.502930,-271.636963,2.043084
75.164795,1027.679443,-254.516602,2.043814
76.629639,1021.545410,-298.553467,2.044571
92.742920,995.727539,-328.491211,2.045311
87.249756,990.600586,-343.872070,2.046051
67.840576,1028.320312,-284.637451,2.046790
33.599854,1063.751221,-229.797363,2.047541
-20.324707,1078.582764,-157.012939,2.048281
-65.551758,1046.997070,-182.281494,2.049021
-103.088379,993.072510,-197.296143,2.049760
-68.664551,994.537354,-234.100342,2.050510
-24.169922,1004.241943,-240.051270,2.051248
65.093994,1035.369873,-213.958740,2.051984
98.327637,1052.215576,-198.120117,2.052722
148.315430,1095.336914,-218.170166,2.053478
154.907227,1105.133057,-245.544434,2.054221
161.773682,1112.548828,-236.938477,2.054962
137.878418,1126.281738,-232.543945,2.055702
33.416748,1145.965576,-202.606201,2.056454
-42.480469,1173.065186,-168.182373,2.057195
-154.724121,1212.066650,-168.731689,2.057936
-183.929443,1217.468262,-146.026611,2.058678
-190.246582,1224.243164,-126.251221,2.059430
-122.589111,1229.644775,-132.385254,2.060172
-82.122803,1219.573975,-162.963867,2.060913
-55.938721,1198.974609,-187.133789,2.061654
-82.397461,1203.643799,-199.127197,2.062404
-85.510254,1212.432861,-187.408447,2.063145
-119.110107,1224.060059,-167.816162,2.063886
-129.180908,1229.553223,-178.161621,2.064627
-159.576416,1242.095947,-183.288574,2.065378
-148.406982,1237.701416,-176.971436,2.066119
-143.646240,1235.137939,-183.013916,2.066860
-131.652832,1223.510742,-185.943604,2.067601
-129.089355,1210.052490,-198.120117,2.068352
-133.209229,1193.115234,-216.613770,2.069224
-126.159668,1178.833008,-222.290039,2.069969
-122.406006,1177.551270,-218.444824,2.070710
-99.609375,1173.797607,-210.845947,2.071465
-89.447021,1172.973633,-222.106934,2.072206
-86.334229,1163.818359,-234.558105,2.072946
-65.826416,1157.226562,-244.354248,2.073687
-46.234131,1149.902344,-233.459473,2.074437
-45.593262,1136.901855,-237.762451,2.075178
-48.248291,1135.070801,-252.227783,2.075919
-40.100098,1120.239258,-244.537354,2.076660
-47.424316,1116.943359,-251.220703,2.077412
-43.121338,1120.056152,-244.812012,2.078153
-35.156250,1126.190186,-238.494873,2.078893
-28.472900,1132.049561,-242.248535,2.079634
-32.409668,1130.676270,-241.607666,2.080385
-34.973145,1124.908447,-249.389648,2.081126
-35.614014,1121.887207,-241.973877,2.081866
-43.579102,1122.528076,-235.748291,2.082607
-35.797119,1117.309570,-234.558105,2.083358
-33.142090,1122.802734,-237.579346,2.084099
-41.107178,1125.274658,-240.783691,2.084840
-45.501709,1121.246338,-247.833252,2.085580
-50.079346,1125.000000,-243.988037,2.086330
-55.023193,1124.176025,-241.516113,2.087071
-66.558838,1116.851807,-251.220703,2.087812
-61.431885,1110.260010,-255.615234,2.088553
