ACC_X,ACC_Y,ACC_Z,Time
-185.028076,661.926270,719.238281,0.000139
-182.647705,666.870117,721.160889,0.000894
-194.091797,660.736084,716.491699,0.001654
-190.521240,660.644531,721.893311,0.002396
-178.710938,662.292480,724.639893,0.003139
-179.260254,660.369873,703.216553,0.003881
-185.211182,666.595459,731.506348,0.004634
-189.788818,662.475586,729.766846,0.005376
-190.704346,663.024902,730.773926,0.006117
-199.859619,665.771484,721.893311,0.006859
-200.317383,671.630859,732.971191,0.007602
-194.183350,671.813965,732.055664,0.008334
-192.993164,673.278809,733.886719,0.009065
-188.507080,676.849365,728.759766,0.009796
-196.197510,675.109863,732.604980,0.010555
-201.141357,673.828125,732.696533,0.011296
-197.296143,681.335449,724.731445,0.012038
-194.183350,680.786133,727.752686,0.012778
-193.359375,674.011230,747.161865,0.013530
-201.416016,686.004639,727.020264,0.014272
-195.831299,680.877686,731.597900,0.015013
-203.430176,679.412842,728.210449,0.015754
-204.803467,678.314209,729.949951,0.016505
-202.331543,678.039551,721.252441,0.017247
-202.331543,668.701172,718.048096,0.017988
-199.310303,680.969238,726.196289,0.018729
-194.183350,671.447754,721.069336,0.019471
-197.845459,676.483154,726.745605,0.020203
-195.648193,673.461914,717.315674,0.020934
-197.021484,670.349121,719.146729,0.021666
-198.760986,662.750244,721.160889,0.022455
-198.394775,666.503906,720.153809,0.023217
-194.000244,652.587891,721.801758,0.023981
-195.831299,654.510498,708.160400,0.024740
-199.768066,657.440186,715.576172,0.025525
-195.098877,654.418945,724.731445,0.026285
-191.894531,653.411865,717.864990,0.027048
-198.028564,647.277832,711.914062,0.027805
-194.000244,646.636963,717.407227,0.028609
-193.359375,640.136719,716.308594,0.029371
-197.204590,645.355225,716.674805,0.030127
-192.352295,641.052246,711.364746,0.030879
-201.507568,643.890381,716.949463,0.031668
-191.986084,638.580322,713.012695,0.032430
-197.204590,634.185791,707.885742,0.033182
-198.120117,633.087158,708.251953,0.033962
-200.317383,632.171631,709.625244,0.034725
-210.296631,625.213623,709.716797,0.035470
-194.915771,633.728027,713.653564,0.036211
-191.802979,634.826660,706.604004,0.036953
-189.971924,634.185791,703.216553,0.037694
-192.901611,638.397217,711.639404,0.038435
-191.162109,634.002686,715.393066,0.039175
-188.415527,623.474121,714.660645,0.039911
-189.788818,630.706787,713.745117,0.040641
-186.126709,635.009766,717.315674,0.041372
-189.056396,634.002686,714.294434,0.042103
-183.197021,637.756348,716.766357,0.042845
-192.626953,642.150879,718.963623,0.043587
-188.415527,640.960693,715.850830,0.044358
-193.267822,649.017334,725.006104,0.045099
-189.605713,640.045166,727.661133,0.045851
-186.218262,648.101807,726.928711,0.046593
-179.626465,646.636963,730.590820,0.047333
-185.852051,654.968262,727.478027,0.048074
-188.690186,648.468018,724.914551,0.048827
-185.028076,643.249512,725.097656,0.049567
-180.450439,645.629883,721.069336,0.050309
-178.985596,660.552979,726.470947,0.051070
-178.619385,633.453369,726.562500,0.051827
-184.570312,644.073486,721.252441,0.052569
-183.746338,647.003174,721.252441,0.053310
-185.119629,641.967773,720.153809,0.054051
-182.373047,655.792236,717.590332,0.054803
-184.478760,647.094727,718.231201,0.055544
-188.049316,646.087646,721.618652,0.056284
-188.598633,640.594482,723.449707,0.057025
-183.746338,640.686035,727.020264,0.057766
-183.837891,652.221680,727.661133,0.058498
-189.147949,644.622803,722.076416,0.059245
-184.570312,648.101807,720.886230,0.059987
-182.373047,641.693115,716.766357,0.060812
-191.070557,634.094238,719.421387,0.061574
-186.035156,636.566162,713.653564,0.062333
-180.084229,644.073486,716.583252,0.063098
-185.485840,639.770508,716.949463,0.063901
-182.647705,641.510010,714.752197,0.064703
-192.718506,632.629395,715.301514,0.065476
-187.591553,629.882812,717.041016,0.066248
-191.070557,628.509521,712.097168,0.067017
-192.993164,633.544922,716.674805,0.067792
-194.549561,628.326416,716.400146,0.068552
-199.401855,626.495361,715.850830,0.069302
-190.338135,625.762939,712.097168,0.070048
-190.979004,633.728027,708.435059,0.070813
-195.922852,622.833252,716.766357,0.071667
-193.634033,633.178711,716.766357,0.072408
-194.366455,622.375488,711.547852,0.073149
-191.528320,629.333496,709.808350,0.073903
-193.267822,627.319336,715.759277,0.074644
-193.634033,624.389648,713.470459,0.075385
-185.668945,631.530762,718.231201,0.076136
-186.126709,625.305176,712.097168,0.076912
-188.049316,620.544434,706.787109,0.077655
-190.063477,619.354248,710.266113,0.078395
-186.584473,627.593994,719.421387,0.079136
-190.063477,629.241943,720.520020,0.079880
-185.394287,635.009766,718.231201,0.080611
-186.218262,638.488770,722.625732,0.081342
-183.471680,632.995605,725.097656,0.082073
-183.929443,634.185791,724.365234,0.082836
-193.084717,635.650635,722.259521,0.083576
-183.746338,635.742188,717.041016,0.084315
-183.563232,630.615234,718.780518,0.085055
-183.197021,633.544922,717.041016,0.085807
-191.162109,637.390137,721.527100,0.086547
-187.316895,634.277344,720.245361,0.087287
-187.774658,630.432129,713.745117,0.088027
-186.309814,626.953125,713.012695,0.088776
-183.563232,625.579834,716.583252,0.089516
-180.084229,628.234863,712.829590,0.090256
-180.175781,630.249023,704.681396,0.090995
-179.901123,629.882812,710.266113,0.091745
-182.556152,628.692627,713.195801,0.092484
-177.062988,636.016846,714.202881,0.093223
-179.260254,625.396729,720.336914,0.093963
-175.689697,626.770020,722.442627,0.094713
-170.471191,636.566162,724.822998,0.095453
-182.281494,630.706787,723.175049,0.096192
-181.549072,629.791260,717.590332,0.096930
-177.062988,626.403809,718.872070,0.097685
-179.168701,631.164551,721.984863,0.098425
-177.520752,634.460449,724.731445,0.099165
-177.154541,641.693115,713.287354,0.099904
-173.583984,643.432617,721.984863,0.100654
-174.224854,641.326904,721.252441,0.101394
-173.767090,641.052246,722.167969,0.102135
-182.189941,627.136230,714.385986,0.102874
-179.168701,636.199951,721.252441,0.103629
-175.231934,641.235352,722.076416,0.104370
-178.894043,638.580322,721.710205,0.105110
-182.647705,640.686035,722.259521,0.105850
-183.197021,645.446777,722.900391,0.106600
-177.062988,643.798828,729.034424,0.107339
-177.703857,645.263672,724.273682,0.108079
-183.563232,650.299072,726.745605,0.108820
-185.760498,647.277832,725.646973,0.109573
-178.710938,651.672363,726.470947,0.110314
-184.112549,646.728516,727.935791,0.111053
-186.492920,645.721436,734.985352,0.111793
-193.634033,649.291992,708.343506,0.112546
-188.507080,647.094727,726.745605,0.113286
-189.605713,645.080566,715.484619,0.114026
-186.492920,649.932861,719.055176,0.114766
-187.500000,651.306152,721.252441,0.115519
-189.147949,651.580811,723.724365,0.116259
-195.373535,654.418945,725.738525,0.116999
-198.577881,651.031494,720.886230,0.117738
-191.619873,651.947021,722.717285,0.118489
-196.380615,656.524658,723.083496,0.119229
-194.732666,636.291504,723.266602,0.119969
-197.937012,652.587891,725.555420,0.120709
-196.472168,653.686523,725.006104,0.121460
-200.683594,648.284912,722.991943,0.122200
-197.845459,650.115967,725.280762,0.122940
-199.768066,647.827148,728.668213,0.123679
-202.880859,653.778076,723.083496,0.124432
-198.211670,643.341064,719.787598,0.125172
-197.479248,649.749756,722.351074,0.125912
-200.317383,647.827148,710.083008,0.126652
-202.606201,646.636963,724.456787,0.127402
-203.063965,643.066406,718.505859,0.128142
-200.134277,637.939453,715.301514,0.128881
-195.465088,641.235352,717.132568,0.129621
-188.781738,642.242432,721.069336,0.130371
-198.944092,640.319824,710.723877,0.131110
-200.775146,636.840820,715.484619,0.131850
-203.338623,636.932373,717.132568,0.132590
-200.317383,632.904053,711.822510,0.133362
-201.416016,626.129150,714.477539,0.134105
-198.028564,632.995605,719.421387,0.134846
-201.507568,632.263184,723.999023,0.135586
-202.148438,637.847900,715.759277,0.136338
-200.408936,635.009766,718.231201,0.137078
-199.493408,640.960693,720.062256,0.137817
-195.098877,636.016846,715.759277,0.138556
-197.204590,633.270264,721.252441,0.139306
-200.408936,640.502930,713.653564,0.140045
-201.232910,645.629883,712.646484,0.140784
-196.197510,645.996094,714.660645,0.141523
-194.458008,651.306152,728.210449,0.142349
-199.859619,653.686523,721.343994,0.143081
-205.169678,642.883301,718.139648,0.143837
-195.739746,645.629883,726.928711,0.144589
-200.134277,648.468018,736.633301,0.145347
-201.782227,653.411865,725.280762,0.146088
-195.465088,651.306152,725.738525,0.146828
-199.127197,659.088135,726.837158,0.147569
-196.746826,658.538818,727.844238,0.148320
-199.676514,650.939941,726.104736,0.149061
-198.577881,650.482178,727.844238,0.149801
-198.211670,649.108887,723.175049,0.150541
-192.993164,649.932861,721.618652,0.151284
-191.253662,650.207520,720.153809,0.152015
-196.380615,655.334473,719.512939,0.152746
-196.472168,644.348145,712.280273,0.153477
-197.021484,643.615723,718.231201,0.154243
-198.577881,652.038574,712.280273,0.154985
-190.887451,650.756836,720.886230,0.155725
-193.450928,642.974854,717.224121,0.156466
-196.105957,646.545410,714.294434,0.157217
-186.767578,651.855469,720.520020,0.157958
-198.120117,642.150879,713.195801,0.158699
-196.289062,644.989014,715.759277,0.159440
-189.971924,641.418457,716.674805,0.160190
-190.338135,635.833740,714.843750,0.160936
-193.725586,641.784668,714.202881,0.161676
-194.091797,637.573242,711.273193,0.162417
-193.176270,631.347656,718.414307,0.163157
-188.598633,638.031006,713.012695,0.163888
-187.042236,634.094238,714.752197,0.164637
-182.006836,640.686035,713.195801,0.165373
-184.112549,634.368896,722.991943,0.166166
-180.267334,629.608154,713.562012,0.166916
-179.077148,629.974365,722.167969,0.167656
-181.091309,632.354736,719.696045,0.168414
-182.647705,633.453369,725.280762,0.169155
-183.013916,613.769531,719.970703,0.169895
-180.450439,633.636475,721.435547,0.170636
-181.274414,626.037598,725.463867,0.171386
-181.091309,634.185791,719.421387,0.172176
-178.436279,637.939453,716.674805,0.172929
-177.795410,639.129639,725.280762,0.173692
-173.492432,645.263672,714.569092,0.174466
-181.732178,639.678955,720.611572,0.175207
-175.781250,646.087646,722.534180,0.175948
-181.274414,648.376465,735.168457,0.176689
-185.852051,650.024414,746.612549,0.177441
-178.985596,661.468506,733.245850,0.178182
-184.844971,664.581299,730.682373,0.178925
-181.823730,667.968750,729.949951,0.179666
-184.570312,667.236328,738.739014,0.180410
-182.556152,672.454834,741.027832,0.181142
-186.584473,674.102783,742.126465,0.181872
-187.408447,669.891357,743.133545,0.182602
-193.908691,676.849365,734.893799,0.183359
-185.394287,674.285889,745.880127,0.184100
-190.521240,682.617188,733.062744,0.184839
-194.091797,679.687500,736.816406,0.185579
-197.387695,675.842285,743.041992,0.186329
-194.732666,678.039551,739.654541,0.187070
-202.972412,675.018311,740.295410,0.187810
-201.049805,683.074951,734.802246,0.188573
-196.563721,678.680420,736.267090,0.189359
-197.937012,676.483154,732.421875,0.190107
-200.683594,675.659180,730.682373,0.190865
-196.563721,672.637939,726.654053,0.191609
-196.929932,665.222168,720.794678,0.192369
-203.247070,671.173096,730.316162,0.193110
-199.768066,664.398193,730.590820,0.193851
-201.416016,664.764404,724.090576,0.194613
-205.352783,665.313721,720.245361,0.195387
-195.648193,670.074463,725.006104,0.196137
-194.824219,661.926270,721.801758,0.196901
-189.514160,654.144287,723.815918,0.197649
-189.056396,660.919189,723.175049,0.198407
-195.007324,653.961182,716.583252,0.199169
-197.753906,650.573730,719.879150,0.199915
-189.880371,648.925781,717.041016,0.200672
-188.140869,646.087646,716.674805,0.201413
-194.274902,644.439697,718.688965,0.202153
-195.190430,641.601562,704.040527,0.202894
-190.887451,649.841309,725.555420,0.203646
-187.042236,648.742676,727.294922,0.204387
-187.866211,651.123047,727.386475,0.205127
-184.936523,647.644043,724.822998,0.205867
-183.563232,653.228760,749.267578,0.206616
-186.401367,652.954102,730.133057,0.207361
-164.611816,650.665283,727.661133,0.208117
-185.302734,643.890381,729.034424,0.208867
-183.929443,654.052734,728.576660,0.209628
-182.739258,663.299561,730.316162,0.210376
-189.422607,659.271240,729.217529,0.211117
-183.288574,660.644531,729.125977,0.211856
-179.626465,668.792725,731.414795,0.212592
-189.788818,666.412354,735.076904,0.213323
-188.598633,670.440674,730.865479,0.214139
-191.436768,671.722412,742.126465,0.214870
-192.077637,679.229736,738.830566,0.215654
-189.514160,681.060791,739.746094,0.216413
-182.830811,669.799805,741.577148,0.217160
-180.999756,674.377441,738.739014,0.217920
-182.830811,675.476074,737.182617,0.218685
-187.500000,675.109863,736.541748,0.219427
-195.739746,666.961670,737.731934,0.220167
-190.979004,673.828125,742.309570,0.220907
-189.514160,676.666260,735.534668,0.221659
-182.189941,663.299561,740.661621,0.222399
-165.893555,662.017822,738.739014,0.223139
-185.394287,662.384033,733.245850,0.223880
-180.450439,666.961670,731.323242,0.224622
-182.830811,667.785645,731.872559,0.225353
-181.823730,655.059814,727.478027,0.226084
-186.126709,656.066895,729.858398,0.226815
-186.218262,661.193848,738.006592,0.227568
-186.126709,655.242920,720.428467,0.228309
-185.760498,651.123047,728.576660,0.229049
-185.668945,651.397705,729.949951,0.229789
-182.281494,650.756836,728.393555,0.230538
-179.901123,657.440186,729.583740,0.231298
-184.570312,657.165527,722.717285,0.232040
-177.246094,650.024414,724.822998,0.232780
-185.211182,647.644043,724.731445,0.233532
-179.992676,648.376465,723.449707,0.234275
-182.922363,644.256592,727.569580,0.235023
-180.358887,647.552490,703.491211,0.235773
-181.732178,646.820068,725.738525,0.236548
-181.274414,652.221680,730.224609,0.237289
-184.570312,651.397705,723.999023,0.238030
-181.549072,645.904541,729.858398,0.238770
-179.534912,648.651123,728.485107,0.239541
-181.091309,650.573730,703.765869,0.240329
-181.182861,649.383545,722.900391,0.241071
-174.316406,643.157959,732.971191,0.241811
-174.682617,642.517090,734.985352,0.242558
-170.471191,639.404297,747.802734,0.243340
-177.795410,646.728516,732.055664,0.244072
-172.027588,645.172119,732.238770,0.244810
-175.781250,655.334473,730.499268,0.245551
-176.788330,648.651123,735.809326,0.246292
-173.675537,647.918701,733.520508,0.247059
-173.400879,649.291992,735.076904,0.247811
-172.210693,658.172607,744.873047,0.248572
-174.499512,653.228760,732.604980,0.249323
-169.921875,653.961182,728.027344,0.250063
-174.224854,659.912109,728.118896,0.250825
-175.872803,636.383057,733.062744,0.251568
-172.210693,661.376953,741.577148,0.252308
-177.062988,658.264160,732.513428,0.253048
-169.097900,660.278320,735.900879,0.253799
-172.027588,659.362793,733.886719,0.254539
-173.858643,661.926270,731.506348,0.255279
-181.457520,666.870117,737.365723,0.256020
-174.957275,664.947510,734.069824,0.256765
-169.647217,669.433594,734.527588,0.257496
-179.626465,668.243408,735.717773,0.258226
-175.506592,668.334961,734.893799,0.258957
-179.809570,653.320312,728.576660,0.259713
-178.344727,662.200928,735.717773,0.260453
-182.647705,652.862549,731.781006,0.261194
-184.478760,660.278320,735.168457,0.261934
-165.161133,661.926270,733.337402,0.262683
-179.351807,663.940430,736.907959,0.263424
-182.739258,662.841797,731.506348,0.264164
-178.894043,660.827637,730.773926,0.264904
-184.753418,656.616211,731.506348,0.265653
-183.197021,650.299072,719.879150,0.266394
-182.830811,653.320312,747.161865,0.267134
-186.401367,645.904541,728.210449,0.267874
-187.591553,645.904541,723.999023,0.268615
-187.225342,658.355713,722.442627,0.269346
-188.323975,654.144287,719.787598,0.270076
-188.873291,645.721436,712.646484,0.270807
-191.619873,653.594971,721.527100,0.271549
-190.521240,646.362305,723.541260,0.272298
-188.507080,650.756836,708.251953,0.273041
-193.267822,645.904541,727.203369,0.273782
-191.802979,638.763428,724.090576,0.274524
-187.133789,636.199951,728.851318,0.275255
-181.365967,647.552490,720.611572,0.275986
-179.901123,645.263672,705.963135,0.276716
-172.393799,643.432617,725.646973,0.277468
-181.732178,644.348145,712.188721,0.278225
-179.901123,641.235352,716.766357,0.278967
-190.887451,637.664795,717.315674,0.279707
-185.394287,637.573242,714.660645,0.280458
-187.500000,643.981934,719.421387,0.281199
-187.957764,644.989014,722.167969,0.281939
-198.760986,643.524170,725.189209,0.282680
-190.612793,642.150879,729.949951,0.283429
-195.556641,644.256592,734.985352,0.284169
-189.422607,655.700684,735.168457,0.284994
-192.077637,654.968262,733.062744,0.285735
-194.549561,664.947510,736.541748,0.286477
-178.985596,666.320801,739.471436,0.287208
-185.668945,667.236328,730.957031,0.287938
-184.204102,664.581299,731.597900,0.288668
-187.500000,678.955078,738.372803,0.289423
-188.049316,675.292969,730.041504,0.290164
-190.338135,666.870117,732.238770,0.290904
-193.450928,670.989990,730.682373,0.291644
-187.225342,670.349121,730.224609,0.292397
-194.183350,675.933838,727.752686,0.293135
-203.430176,677.673340,736.999512,0.293891
-194.824219,675.292969,735.992432,0.294640
-198.028564,677.215576,736.541748,0.295394
-192.077637,675.201416,734.344482,0.296135
-191.162109,680.511475,737.365723,0.296876
-188.507080,678.588867,732.513428,0.297617
-186.218262,677.764893,728.302002,0.298369
-184.478760,677.124023,730.407715,0.299110
-188.323975,672.821045,719.787598,0.299850
-185.577393,678.039551,721.527100,0.300590
-177.886963,682.525635,724.365234,0.301332
-191.619873,678.039551,721.618652,0.302063
-202.697754,676.025391,720.977783,0.302793
-206.085205,672.363281,720.062256,0.303524
-211.578369,672.637939,724.639893,0.304278
-209.381104,670.440674,725.921631,0.305018
-210.662842,673.919678,738.372803,0.305759
-202.789307,700.195312,729.766846,0.306508
-204.162598,673.370361,731.689453,0.307278
-204.528809,669.342041,736.907959,0.308039
-203.430176,664.031982,727.386475,0.308786
-192.077637,670.715332,728.485107,0.309526
-191.528320,661.651611,722.808838,0.310285
-193.542480,661.834717,726.013184,0.311026
-195.373535,662.109375,722.076416,0.311789
-197.296143,665.222168,728.210449,0.312545
-200.134277,661.743164,723.083496,0.313334
-203.155518,658.538818,720.245361,0.314120
-208.740234,657.348633,723.541260,0.314896
-202.972412,661.743164,738.006592,0.315700
-201.324463,657.806396,732.971191,0.316487
-202.972412,660.919189,738.922119,0.317253
-204.254150,667.785645,740.020752,0.318016
-196.105957,655.883789,732.971191,0.318799
-202.880859,656.707764,733.520508,0.319542
-207.183838,656.433105,722.351074,0.320283
-202.239990,652.587891,721.618652,0.321023
-201.690674,652.679443,722.991943,0.321778
-200.500488,647.918701,714.660645,0.322520
-203.247070,641.235352,712.646484,0.323261
-199.584961,643.432617,715.576172,0.324001
-200.317383,645.721436,713.470459,0.324742
-202.606201,649.383545,721.710205,0.325473
-202.239990,644.897461,723.358154,0.326203
-200.134277,652.770996,726.562500,0.326933
-198.120117,649.383545,726.104736,0.327691
-203.063965,648.468018,726.287842,0.328431
-203.796387,648.010254,730.957031,0.329171
-200.958252,648.834229,729.949951,0.329912
-199.035645,648.742676,724.548340,0.330661
-200.500488,639.312744,726.104736,0.331402
-202.331543,645.812988,721.527100,0.332142
-200.775146,646.087646,721.160889,0.332882
-202.606201,639.862061,721.893311,0.333635
-199.859619,637.756348,717.773438,0.334376
-199.035645,640.777588,721.984863,0.335116
-193.084717,640.594482,713.378906,0.335856
-201.873779,638.946533,716.766357,0.336597
-202.789307,637.390137,715.026855,0.337328
-203.979492,642.059326,718.688965,0.338059
-207.275391,641.876221,731.597900,0.338789
-198.120117,640.777588,723.083496,0.339543
-203.704834,644.989014,724.731445,0.340284
-203.521729,641.876221,726.837158,0.341024
-204.620361,642.974854,725.555420,0.341765
-209.564209,638.763428,722.900391,0.342506
-209.106445,638.031006,724.914551,0.343237
-202.514648,641.784668,715.759277,0.343968
-206.085205,644.989014,718.322754,0.344699
-199.859619,641.235352,716.217041,0.345450
-207.733154,643.981934,715.759277,0.346190
-209.655762,639.404297,711.914062,0.346930
-208.465576,637.207031,724.273682,0.347670
-202.789307,633.178711,716.583252,0.348418
-204.528809,635.650635,718.780518,0.349158
-205.718994,640.686035,717.773438,0.349898
-209.655762,634.552002,715.301514,0.350638
-206.726074,633.911133,721.801758,0.351387
-198.944092,634.002686,717.132568,0.352128
-202.056885,641.235352,717.681885,0.352867
-200.592041,641.693115,714.294434,0.353607
-203.521729,636.383057,722.351074,0.354356
-205.169678,633.728027,709.808350,0.355097
-205.352783,636.566162,712.188721,0.355922
-205.078125,630.798340,711.914062,0.356662
-201.873779,638.580322,715.942383,0.357412
-198.028564,638.031006,719.238281,0.358153
-192.626953,642.974854,719.604492,0.358892
-201.141357,634.552002,724.090576,0.359632
-191.528320,634.735107,721.343994,0.360383
-195.281982,643.798828,724.731445,0.361122
-196.380615,643.981934,746.337891,0.361862
-198.120117,636.657715,724.639893,0.362601
-195.922852,641.326904,724.273682,0.363348
-195.007324,646.270752,726.196289,0.364115
-192.535400,642.974854,722.534180,0.364857
-195.556641,650.939941,726.013184,0.365598
-194.000244,647.277832,744.964600,0.366349
-196.472168,649.383545,726.104736,0.367090
-193.176270,652.221680,724.365234,0.367831
-196.472168,653.961182,728.485107,0.368572
-195.373535,656.982422,722.625732,0.369321
-197.937012,664.031982,728.027344,0.370061
-194.641113,657.165527,726.745605,0.370802
-188.507080,663.482666,724.731445,0.371542
-192.169189,668.701172,730.316162,0.372283
-195.281982,659.729004,723.999023,0.373014
-192.718506,658.813477,728.118896,0.373744
-198.669434,668.609619,720.611572,0.374475
-198.760986,662.292480,726.287842,0.375230
-201.507568,662.750244,725.921631,0.375970
-196.746826,668.060303,730.133057,0.376711
-197.204590,659.362793,728.485107,0.377453
-197.387695,661.376953,727.294922,0.378222
-198.211670,659.729004,728.027344,0.378972
-204.711914,656.982422,728.210449,0.379718
-195.739746,660.552979,730.499268,0.380459
-196.746826,653.137207,727.752686,0.381231
-194.824219,651.489258,724.273682,0.381972
-194.824219,652.679443,719.512939,0.382712
-197.296143,652.404785,718.505859,0.383453
-199.584961,650.390625,725.372314,0.384202
-193.176270,646.545410,722.991943,0.384943
-189.056396,659.088135,719.879150,0.385683
-191.802979,642.791748,717.224121,0.386423
-185.211182,644.165039,718.414307,0.387163
-189.422607,640.594482,718.414307,0.387941
-193.267822,638.488770,712.005615,0.388704
-190.429688,639.312744,718.231201,0.389454
-188.690186,649.749756,709.075928,0.390218
-186.950684,642.150879,713.928223,0.390959
-182.098389,634.368896,712.371826,0.391700
-186.676025,639.129639,713.653564,0.392441
-182.464600,636.840820,717.498779,0.393196
-181.915283,638.397217,716.674805,0.393938
-184.661865,638.122559,713.745117,0.394678
-183.837891,632.446289,715.850830,0.395419
-178.802490,637.023926,718.597412,0.396160
-184.020996,644.531250,719.696045,0.396890
-179.718018,645.172119,714.385986,0.397651
-185.760498,634.277344,719.604492,0.398395
-185.760498,641.143799,717.498779,0.399136
-183.837891,640.502930,727.294922,0.399894
-182.189941,643.890381,720.428467,0.400636
-178.253174,637.664795,719.329834,0.401377
-183.471680,641.967773,725.738525,0.402117
-177.520752,637.023926,727.569580,0.402858
-181.915283,644.989014,722.900391,0.403598
-181.915283,650.207520,726.745605,0.404338
-177.612305,648.834229,727.569580,0.405079
-177.703857,642.242432,723.541260,0.405837
-180.175781,637.664795,720.428467,0.406579
-175.872803,641.326904,717.864990,0.407337
-171.020508,642.700195,718.048096,0.408077
-166.625977,650.573730,722.351074,0.408818
-172.668457,644.439697,718.688965,0.409559
-171.569824,644.073486,720.153809,0.410299
-171.569824,649.017334,727.661133,0.411040
-166.351318,645.172119,724.365234,0.411781
-171.569824,652.130127,726.104736,0.412521
-174.774170,649.658203,723.632812,0.413269
-170.928955,649.841309,723.083496,0.414026
-178.527832,645.080566,725.006104,0.414767
-171.478271,652.038574,722.808838,0.415508
-175.598145,649.291992,729.583740,0.416240
-175.689697,645.080566,731.231689,0.416971
-175.415039,645.904541,718.688965,0.417701
-179.809570,647.003174,726.104736,0.418432
-173.309326,646.362305,726.837158,0.419172
-177.429199,640.960693,732.604980,0.419913
-177.795410,648.284912,730.224609,0.420653
-174.774170,653.961182,733.154297,0.421393
-172.210693,656.524658,725.280762,0.422126
-174.774170,650.024414,723.815918,0.422857
-172.760010,650.115967,726.470947,0.423587
-176.513672,660.003662,726.196289,0.424318
-174.957275,653.320312,728.576660,0.425057
-177.520752,650.848389,727.478027,0.425797
-181.640625,656.982422,728.485107,0.426538
-174.133301,663.208008,733.886719,0.427379
-179.260254,665.405273,735.443115,0.428130
-179.718018,666.778564,734.710693,0.428870
-174.774170,667.510986,733.337402,0.429611
-167.541504,668.426514,730.773926,0.430351
-174.682617,673.370361,729.949951,0.431101
-169.555664,665.679932,731.597900,0.431842
-175.415039,663.391113,708.435059,0.432582
-178.436279,668.609619,736.267090,0.433322
-183.471680,663.848877,731.597900,0.434063
-180.267334,663.299561,727.844238,0.434794
-177.154541,663.665771,731.781006,0.435524
-177.612305,666.046143,728.942871,0.436254
-177.337646,662.109375,731.414795,0.437008
-180.816650,664.215088,731.689453,0.437749
-176.147461,662.933350,739.013672,0.438489
-175.598145,664.947510,728.851318,0.439229
-172.485352,661.102295,732.788086,0.439991
-174.133301,659.637451,732.330322,0.440741
-178.436279,657.348633,722.534180,0.441481
-178.710938,653.594971,728.210449,0.442221
-175.048828,652.130127,724.914551,0.442974
-183.197021,651.214600,717.590332,0.443715
-176.696777,654.968262,726.654053,0.444455
-179.260254,657.348633,726.104736,0.445195
-178.894043,675.750732,724.914551,0.445946
-183.746338,654.602051,721.160889,0.446686
-178.253174,660.552979,726.470947,0.447426
-179.443359,667.510986,739.837646,0.448168
-175.506592,661.743164,731.781006,0.448928
-177.795410,654.052734,732.421875,0.449668
-179.626465,654.052734,736.907959,0.450422
-177.062988,660.552979,741.668701,0.451164
-175.598145,651.763916,733.520508,0.451921
-170.837402,656.707764,732.604980,0.452662
-171.478271,656.616211,728.393555,0.453402
-175.231934,661.651611,723.449707,0.454143
-173.309326,660.095215,732.879639,0.454892
-173.675537,654.327393,724.182129,0.455633
-180.725098,654.785156,723.907471,0.456374
-174.957275,658.264160,723.449707,0.457114
-175.872803,660.369873,730.682373,0.457854
-174.682617,667.419434,734.161377,0.458585
-170.654297,661.651611,728.759766,0.459315
-176.971436,665.039062,724.182129,0.460046
-173.400879,666.229248,727.844238,0.460837
-176.696777,673.004150,726.654053,0.461616
-172.576904,663.391113,730.316162,0.462366
-175.140381,659.271240,729.400635,0.463106
-177.429199,673.095703,738.281250,0.463871
-179.992676,674.652100,738.006592,0.464642
-169.372559,683.349609,743.041992,0.465382
-177.337646,673.278809,735.900879,0.466122
-179.626465,668.884277,726.104736,0.466873
-173.675537,671.630859,734.436035,0.467612
-181.365967,668.426514,728.118896,0.468351
-181.274414,666.687012,730.590820,0.469090
-172.393799,668.609619,730.316162,0.469833
-175.964355,667.510986,722.900391,0.470564
-173.309326,666.320801,724.731445,0.471312
-181.640625,663.848877,724.182129,0.472043
-182.922363,671.813965,725.463867,0.472798
-179.077148,668.975830,723.266602,0.473539
-186.218262,663.024902,723.449707,0.474279
-187.774658,664.947510,723.999023,0.475020
-180.908203,672.729492,726.470947,0.475770
-182.189941,669.433594,731.781006,0.476510
-186.950684,672.912598,725.006104,0.477251
-207.275391,674.377441,734.802246,0.477991
-191.619873,694.885254,734.985352,0.478760
-187.683105,682.067871,732.330322,0.479502
-186.126709,675.018311,727.478027,0.480243
-183.288574,681.884766,731.048584,0.480983
-189.788818,676.757812,735.626221,0.481724
-192.810059,681.976318,737.274170,0.482464
-192.718506,675.476074,726.654053,0.483205
-200.134277,678.131104,721.893311,0.483945
-191.894531,680.236816,726.287842,0.484686
-186.401367,677.947998,719.970703,0.485426
-193.542480,666.595459,730.682373,0.486167
-192.535400,672.912598,730.590820,0.486908
-186.950684,669.342041,730.133057,0.487639
-183.563232,667.785645,723.724365,0.488369
-189.514160,667.510986,721.893311,0.489100
-189.880371,661.926270,716.583252,0.489856
-184.295654,651.947021,718.780518,0.490588
-185.485840,661.468506,718.505859,0.491319
-182.006836,669.616699,715.209961,0.492050
-186.950684,658.996582,718.963623,0.492783
-186.492920,656.341553,717.864990,0.493527
-187.316895,651.031494,723.266602,0.494267
-186.401367,654.235840,721.069336,0.495008
-180.267334,656.707764,720.611572,0.495748
-183.746338,653.045654,718.780518,0.496479
-180.358887,651.489258,727.844238,0.497210
-181.365967,653.594971,722.900391,0.498023
-184.204102,655.151367,726.745605,0.498771
-183.929443,658.721924,724.548340,0.499513
-184.936523,656.890869,721.160889,0.500253
-175.323486,651.855469,723.999023,0.500993
-184.661865,652.954102,730.957031,0.501733
-181.091309,649.108887,724.365234,0.502473
-176.605225,646.636963,729.675293,0.503213
-182.556152,652.313232,728.942871,0.503953
-182.830811,651.397705,725.189209,0.504694
-181.091309,650.390625,725.280762,0.505434
-177.795410,651.855469,723.175049,0.506174
-180.816650,658.172607,727.935791,0.506915
-178.070068,653.228760,725.646973,0.507656
-179.718018,646.179199,726.196289,0.508387
-181.182861,645.721436,728.485107,0.509118
-189.056396,651.489258,723.815918,0.509848
-188.598633,650.665283,727.203369,0.510578
-181.274414,642.242432,728.393555,0.511331
-189.331055,644.256592,731.872559,0.512071
-189.239502,650.848389,727.294922,0.512810
-190.246582,646.728516,729.492188,0.513550
-192.626953,639.587402,726.745605,0.514298
-187.408447,646.179199,728.118896,0.515038
-188.415527,649.017334,722.167969,0.515777
-189.422607,654.144287,722.076416,0.516516
-192.810059,651.672363,748.626709,0.517265
-194.183350,643.981934,728.118896,0.518005
-197.753906,644.805908,722.076416,0.518743
-195.098877,638.031006,720.153809,0.519483
-196.105957,640.869141,726.104736,0.520246
-201.232910,645.996094,729.492188,0.520994
-195.739746,634.277344,725.280762,0.521783
-199.951172,632.629395,727.935791,0.522551
-197.662354,627.960205,717.956543,0.523291
-193.176270,631.164551,726.104736,0.524032
-197.937012,623.931885,715.026855,0.524772
-195.007324,627.777100,721.343994,0.525513
-194.915771,624.114990,715.209961,0.526253
-192.626953,620.635986,711.547852,0.526993
-193.450928,623.565674,724.365234,0.527733
-188.049316,621.185303,708.801270,0.528478
-196.105957,619.171143,717.041016,0.529209
-197.113037,614.776611,704.864502,0.529939
-189.605713,621.368408,715.576172,0.530670
-186.126709,619.171143,718.414307,0.531423
-186.676025,620.544434,723.083496,0.532183
-190.521240,618.255615,723.358154,0.532932
-190.795898,620.910645,718.505859,0.533703
-190.979004,618.804932,713.470459,0.534475
-182.464600,613.037109,714.569092,0.535217
-184.753418,614.410400,717.132568,0.535958
-188.140869,620.727539,717.407227,0.536698
-184.387207,622.100830,714.477539,0.537451
-186.401367,626.953125,720.611572,0.538191
-184.204102,617.889404,716.583252,0.538931
-182.464600,622.375488,712.188721,0.539672
-180.633545,623.016357,714.843750,0.540412
-183.288574,617.248535,719.696045,0.541143
-184.387207,622.650146,718.139648,0.541874
-177.703857,623.107910,720.062256,0.542605
-186.584473,614.776611,714.569092,0.543360
-176.147461,614.044189,723.266602,0.544101
-183.746338,628.875732,722.259521,0.544842
-188.323975,631.988525,722.442627,0.545582
-188.690186,632.995605,720.336914,0.546331
-181.549072,636.291504,717.132568,0.547072
-176.605225,641.418457,716.766357,0.547816
-186.676025,633.636475,721.893311,0.548556
-187.957764,645.263672,719.604492,0.549306
-196.014404,638.580322,718.597412,0.550047
-199.035645,638.305664,732.879639,0.550787
-194.366455,637.023926,725.830078,0.551527
-193.267822,645.263672,729.858398,0.552267
-190.429688,640.136719,728.393555,0.552998
-194.091797,640.777588,722.625732,0.553728
-198.486328,647.552490,729.034424,0.554459
-193.084717,656.799316,733.337402,0.555229
-197.479248,651.123047,732.604980,0.555972
-198.120117,653.686523,729.766846,0.556713
-200.134277,660.003662,733.886719,0.557453
-196.838379,660.278320,735.626221,0.558203
-194.641113,658.721924,730.133057,0.558944
-199.401855,677.398682,729.400635,0.559684
-189.880371,664.398193,730.133057,0.560424
-201.873779,660.552979,726.196289,0.561165
-205.444336,666.229248,725.921631,0.561896
-203.704834,670.989990,732.604980,0.562626
-206.359863,663.940430,727.386475,0.563357
-204.711914,670.623779,728.759766,0.564098
-204.895020,665.588379,729.400635,0.564829
-203.979492,668.518066,734.161377,0.565559
-205.627441,670.989990,735.809326,0.566290
-197.479248,670.440674,728.118896,0.567044
-201.782227,661.651611,726.470947,0.567785
-202.423096,660.369873,735.443115,0.568607
-197.479248,660.095215,729.766846,0.569347
-207.000732,657.257080,724.548340,0.570102
-205.993652,657.623291,724.548340,0.570843
-203.247070,658.905029,705.688477,0.571583
-211.761475,663.116455,720.062256,0.572323
-214.874268,654.327393,723.083496,0.573073
-212.310791,654.602051,717.132568,0.573813
-210.754395,650.573730,731.140137,0.574554
-215.972900,650.299072,719.787598,0.575312
-212.951660,639.495850,714.569092,0.576063
-213.867188,645.904541,718.963623,0.576804
-212.677002,653.778076,722.717285,0.577544
-210.937500,652.770996,719.787598,0.578285
-206.542969,651.214600,719.970703,0.579034
-210.845947,655.883789,721.252441,0.579775
-212.677002,647.644043,723.449707,0.580516
-218.261719,650.573730,716.308594,0.581262
-215.057373,657.165527,728.851318,0.582025
-221.008301,650.299072,729.492188,0.582760
-222.564697,660.736084,728.302002,0.583494
-217.987061,660.644531,729.858398,0.584224
-219.085693,656.341553,723.632812,0.584984
-223.022461,657.989502,724.182129,0.585724
-215.332031,661.834717,726.196289,0.586463
-209.930420,663.391113,731.140137,0.587202
-213.500977,668.426514,726.379395,0.587963
-212.493896,660.736084,727.294922,0.588707
-215.332031,659.637451,721.069336,0.589448
-217.529297,661.468506,721.893311,0.590189
-215.057373,663.665771,718.322754,0.590961
-212.860107,663.757324,726.837158,0.591711
-218.261719,664.947510,721.984863,0.592469
-208.557129,666.137695,724.639893,0.593212
-213.409424,663.391113,724.639893,0.593998
-214.508057,666.503906,729.949951,0.594741
-210.937500,669.616699,728.210449,0.595482
-210.937500,672.271729,724.273682,0.596223
-219.268799,660.369873,725.646973,0.596963
-209.930420,669.525146,724.273682,0.597703
-214.416504,667.236328,727.752686,0.598453
-206.817627,657.531738,724.914551,0.599246
-212.402344,654.510498,721.343994,0.599996
-215.148926,652.404785,729.125977,0.600754
-212.036133,652.587891,730.224609,0.601497
-204.437256,651.214600,718.414307,0.602255
-211.486816,651.855469,724.639893,0.602996
-205.261230,649.749756,722.625732,0.603736
-206.909180,649.383545,721.618652,0.604477
-204.711914,651.123047,720.794678,0.605220
-207.550049,645.080566,721.710205,0.605961
-201.965332,647.735596,715.667725,0.606702
-205.993652,645.996094,720.153809,0.607442
-201.416016,649.932861,713.928223,0.608185
-204.254150,637.847900,715.118408,0.608917
-200.866699,630.340576,717.590332,0.609648
-194.000244,654.327393,721.984863,0.610378
-189.422607,633.819580,718.780518,0.611118
-195.190430,634.735107,714.569092,0.611858
-189.788818,632.720947,716.857910,0.612599
-194.091797,633.728027,724.182129,0.613339
-193.084717,642.608643,717.864990,0.614080
-202.514648,647.094727,720.428467,0.614820
-189.422607,642.059326,721.984863,0.615560
-183.197021,641.052246,719.329834,0.616300
-192.993164,651.214600,717.498779,0.617050
-195.373535,648.559570,731.781006,0.617791
-186.401367,652.770996,732.147217,0.618531
-192.077637,650.573730,730.041504,0.619271
-188.049316,649.108887,738.189697,0.620014
-194.000244,649.475098,738.555908,0.620745
-210.845947,655.426025,736.999512,0.621475
-192.535400,661.468506,738.189697,0.622206
-183.380127,657.714844,742.675781,0.622948
-184.204102,679.412842,736.633301,0.623690
-185.394287,662.933350,740.020752,0.624431
-207.458496,660.736084,734.527588,0.625171
-182.647705,668.884277,732.788086,0.625907
-184.753418,666.595459,734.252930,0.626638
-181.365967,667.144775,732.696533,0.627368
-178.802490,670.532227,731.414795,0.628099
-184.570312,669.891357,738.647461,0.628834
-183.929443,656.616211,732.696533,0.629575
-189.697266,665.954590,739.746094,0.630315
-189.880371,669.067383,733.520508,0.631056
-188.781738,666.503906,735.260010,0.631823
-187.957764,665.863037,733.978271,0.632566
-187.866211,671.997070,733.337402,0.633307
-186.126709,667.144775,730.133057,0.634047
-179.260254,668.701172,733.154297,0.634788
-186.309814,671.630859,734.161377,0.635528
-186.492920,673.370361,734.985352,0.636269
-180.816650,675.109863,726.470947,0.637009
-187.774658,680.419922,726.654053,0.637744
-183.654785,674.102783,734.069824,0.638475
-184.112549,668.975830,730.957031,0.639297
-184.936523,671.081543,736.175537,0.640040
-189.697266,674.926758,734.161377,0.640796
-189.239502,675.109863,733.612061,0.641536
-183.288574,671.813965,739.379883,0.642277
-183.563232,666.046143,730.682373,0.643017
-181.274414,665.771484,724.365234,0.643767
-188.964844,669.067383,729.217529,0.644507
-186.035156,674.102783,725.097656,0.645248
-191.802979,665.496826,730.407715,0.645989
-192.077637,661.468506,733.428955,0.646733
-196.929932,660.552979,723.815918,0.647464
-192.535400,671.447754,713.378906,0.648195
-167.816162,667.877197,728.668213,0.648925
-187.866211,672.821045,733.795166,0.649667
-193.908691,660.552979,724.182129,0.650407
-190.246582,666.412354,733.612061,0.651147
-194.000244,668.426514,731.689453,0.651888
-199.951172,666.778564,733.428955,0.652628
-198.028564,668.701172,732.604980,0.653368
-196.563721,668.151855,730.133057,0.654109
-193.450928,663.482666,727.386475,0.654849
-192.077637,663.116455,732.330322,0.655589
-192.169189,672.180176,732.696533,0.656347
-190.155029,671.722412,728.027344,0.657088
-191.619873,678.771973,731.140137,0.657836
-192.993164,671.722412,732.238770,0.658588
-190.612793,670.715332,727.935791,0.659329
-191.162109,666.503906,730.316162,0.660069
-184.844971,667.968750,727.661133,0.660831
-191.711426,668.609619,732.330322,0.661605
-185.852051,667.510986,727.294922,0.662355
-196.655273,671.813965,728.302002,0.663103
-189.147949,676.757812,736.816406,0.663843
-193.908691,671.264648,732.421875,0.664603
-190.521240,671.722412,729.949951,0.665344
-187.866211,673.919678,746.978760,0.666084
-185.394287,677.581787,737.731934,0.666825
-191.986084,675.933838,730.773926,0.667575
-186.950684,674.102783,735.900879,0.668313
-183.746338,673.645020,736.816406,0.669092
-192.901611,676.574707,738.555908,0.669853
-193.634033,673.919678,733.886719,0.670641
-190.979004,675.476074,732.238770,0.671390
-183.563232,669.708252,732.513428,0.672130
-194.824219,672.546387,740.386963,0.672871
-194.549561,669.708252,740.661621,0.673611
-177.337646,680.328369,729.949951,0.674351
-184.936523,681.976318,734.252930,0.675092
-188.415527,680.786133,736.633301,0.675834
-185.852051,672.546387,722.808838,0.676578
-182.464600,669.525146,730.590820,0.677342
-181.915283,673.736572,722.900391,0.678088
-183.013916,669.799805,725.006104,0.678842
-184.204102,666.961670,722.991943,0.679572
-187.866211,664.581299,724.914551,0.680303
-191.894531,660.736084,723.541260,0.681033
-183.837891,669.067383,723.541260,0.681774
-184.112549,663.665771,732.055664,0.682534
-181.823730,637.207031,722.534180,0.683276
-175.140381,662.933350,725.463867,0.684017
-181.549072,673.095703,719.604492,0.684758
-181.365967,665.405273,721.618652,0.685498
-181.823730,655.609131,723.632812,0.686239
-176.879883,663.299561,721.618652,0.686980
-180.816650,661.102295,729.217529,0.687734
-182.189941,657.531738,723.175049,0.688475
-177.520752,652.038574,721.343994,0.689215
-186.584473,657.714844,723.632812,0.689955
-180.175781,666.595459,733.062744,0.690697
-174.407959,664.581299,728.576660,0.691428
-179.260254,656.433105,725.646973,0.692158
-176.788330,662.292480,728.942871,0.692889
-177.612305,660.644531,723.083496,0.693641
-177.246094,659.088135,727.203369,0.694381
-184.570312,658.905029,729.125977,0.695122
-177.886963,658.447266,730.590820,0.695862
-181.457520,656.433105,727.478027,0.696605
-178.344727,661.651611,727.203369,0.697336
-180.084229,657.897949,723.999023,0.698066
-182.006836,661.926270,723.175049,0.698797
-178.253174,653.961182,723.358154,0.699536
-176.788330,668.243408,728.118896,0.700277
-184.478760,657.440186,722.076416,0.701018
-181.365967,659.820557,729.766846,0.701758
-180.175781,656.524658,725.280762,0.702494
-182.098389,664.306641,734.619141,0.703225
-178.619385,660.827637,728.576660,0.703956
-184.204102,660.186768,717.407227,0.704686
-189.422607,665.313721,734.710693,0.705434
-188.049316,666.687012,726.745605,0.706180
-191.436768,670.257568,728.393555,0.706921
-191.711426,674.743652,727.111816,0.707662
-191.436768,670.989990,748.352051,0.708403
-192.626953,677.398682,734.252930,0.709143
-187.591553,676.483154,738.006592,0.709884
-187.042236,674.011230,734.802246,0.710711
-196.838379,676.940918,739.654541,0.711453
-194.366455,678.588867,735.351562,0.712194
-188.964844,678.863525,732.238770,0.712934
-192.169189,681.793213,740.753174,0.713674
-189.971924,688.476562,736.907959,0.714418
-197.113037,682.983398,730.773926,0.715150
-191.711426,683.807373,730.682373,0.715892
-189.331055,683.258057,730.773926,0.716638
-194.549561,674.743652,726.654053,0.717379
-190.795898,686.279297,726.196289,0.718119
-188.690186,684.814453,733.795166,0.718860
-192.993164,679.687500,736.999512,0.719601
-192.260742,674.652100,731.414795,0.720342
-184.295654,677.398682,736.999512,0.721082
-189.880371,668.975830,738.281250,0.721823
-187.316895,666.870117,737.274170,0.722563
-208.099365,665.954590,730.041504,0.723297
-182.739258,666.320801,733.795166,0.724028
-186.035156,662.475586,735.168457,0.724759
-188.781738,661.102295,733.245850,0.725490
-184.844971,664.306641,733.428955,0.726230
-188.507080,660.552979,734.436035,0.726971
-186.035156,656.158447,730.407715,0.727711
-188.049316,664.581299,729.034424,0.728452
-188.598633,657.714844,733.520508,0.729192
-185.485840,656.066895,741.394043,0.729933
-192.901611,661.560059,738.189697,0.730673
-191.253662,661.193848,731.140137,0.731418
-182.556152,667.327881,735.076904,0.732169
-183.105469,661.102295,736.816406,0.732914
-181.823730,664.764404,735.534668,0.733668
-188.964844,660.095215,730.957031,0.734410
-191.894531,663.940430,731.231689,0.735188
-189.147949,657.806396,729.125977,0.735932
-192.077637,659.271240,728.759766,0.736674
-185.394287,655.426025,724.182129,0.737414
-183.563232,658.721924,725.463867,0.738166
-179.260254,658.264160,724.365234,0.738906
-189.239502,677.032471,725.280762,0.739646
-185.577393,656.707764,730.590820,0.740387
-185.668945,652.770996,725.463867,0.741128
-180.175781,652.496338,722.991943,0.741934
-178.710938,658.447266,728.393555,0.742688
-180.908203,654.052734,749.725342,0.743440
-179.809570,657.806396,730.316162,0.744213
-181.732178,648.742676,726.104736,0.744954
-170.104980,656.341553,728.759766,0.745694
-173.767090,648.101807,727.111816,0.746435
-171.295166,651.580811,719.879150,0.747186
-172.027588,650.573730,717.590332,0.747930
-173.675537,645.721436,726.104736,0.748670
-177.886963,640.411377,721.984863,0.749411
-173.858643,647.827148,728.942871,0.750154
-176.605225,646.179199,731.781006,0.750885
-170.013428,650.848389,728.485107,0.751616
-174.407959,647.644043,729.583740,0.752346
-177.062988,643.707275,748.901367,0.753103
-177.154541,645.080566,726.928711,0.753844
-177.703857,650.665283,726.196289,0.754584
-180.725098,643.249512,727.386475,0.755324
-176.422119,641.876221,728.027344,0.756073
-176.879883,639.495850,721.252441,0.756814
-171.752930,635.650635,716.949463,0.757554
-175.231934,628.784180,719.055176,0.758295
-168.182373,629.608154,716.400146,0.759045
-167.449951,633.361816,719.238281,0.759785
-171.386719,637.939453,718.780518,0.760525
-168.273926,634.735107,715.667725,0.761265
-177.246094,637.573242,718.414307,0.762005
-172.485352,643.524170,716.949463,0.762737
-175.415039,646.362305,718.780518,0.763467
-170.288086,642.700195,724.548340,0.764197
-174.041748,641.418457,726.562500,0.764950
-174.407959,646.270752,724.090576,0.765690
-179.534912,646.545410,705.596924,0.766430
-172.851562,641.967773,727.203369,0.767170
-175.689697,641.052246,727.294922,0.767921
-178.161621,638.122559,723.999023,0.768662
-182.464600,642.700195,723.358154,0.769402
-183.563232,649.932861,704.315186,0.770143
-177.062988,644.805908,718.414307,0.770883
-178.802490,644.622803,719.421387,0.771618
-172.943115,641.693115,721.893311,0.772363
-177.062988,634.002686,720.062256,0.773109
-172.851562,641.235352,719.329834,0.773913
-168.548584,642.150879,716.400146,0.774692
-169.006348,648.925781,723.449707,0.775448
-172.485352,640.869141,719.329834,0.776248
-175.964355,644.531250,710.906982,0.777012
-179.443359,651.306152,720.153809,0.777780
-171.661377,640.502930,720.977783,0.778558
-165.985107,652.587891,722.351074,0.779370
-166.168213,655.975342,720.428467,0.780127
-171.020508,659.271240,749.176025,0.780907
-172.485352,662.292480,721.801758,0.781761
-173.400879,651.672363,722.534180,0.782540
-168.548584,651.672363,731.506348,0.783313
-170.196533,653.961182,727.478027,0.784073
-171.844482,656.707764,734.802246,0.784816
-179.168701,659.088135,727.203369,0.785582
-177.246094,660.552979,725.189209,0.786323
-175.506592,655.059814,736.267090,0.787063
-175.598145,657.440186,738.372803,0.787803
-176.879883,657.714844,740.295410,0.788575
-177.520752,668.060303,732.696533,0.789352
-175.231934,667.877197,735.076904,0.790094
-180.267334,670.532227,731.048584,0.790848
-177.062988,678.405762,740.386963,0.791589
-177.246094,657.257080,723.266602,0.792329
-181.274414,662.200928,730.316162,0.793070
-185.577393,655.426025,725.921631,0.793835
-186.767578,657.073975,728.393555,0.794576
-192.443848,650.482178,727.478027,0.795317
-191.986084,660.095215,719.055176,0.796057
-186.767578,662.567139,723.907471,0.796807
-185.668945,651.214600,708.618164,0.797547
-188.140869,644.256592,730.682373,0.798288
-192.169189,648.651123,722.259521,0.799028
-193.359375,642.059326,725.006104,0.799770
-189.514160,635.009766,717.224121,0.800500
-189.331055,634.460449,716.949463,0.801231
-199.951172,630.340576,716.033936,0.801962
-192.077637,629.241943,717.773438,0.802706
-199.951172,634.552002,720.794678,0.803445
-191.345215,628.143311,712.738037,0.804187
-184.204102,627.593994,709.259033,0.804935
-192.352295,614.501953,715.118408,0.805702
-195.098877,618.438721,719.879150,0.806447
-202.148438,616.516113,710.998535,0.807192
-194.183350,619.262695,716.217041,0.807952
-193.359375,626.678467,720.977783,0.808712
-195.281982,620.819092,718.231201,0.809452
-189.056396,619.079590,709.533691,0.810193
-191.802979,614.135742,718.139648,0.810936
-198.852539,616.058350,715.667725,0.811686
-199.310303,612.396240,722.167969,0.812444
-189.605713,612.945557,718.872070,0.813207
-194.091797,616.882324,727.020264,0.813991
-201.141357,617.706299,719.421387,0.814759
-187.866211,617.523193,714.935303,0.815506
-210.388184,611.572266,717.773438,0.816247
-192.169189,609.832764,722.259521,0.817009
-184.204102,617.797852,720.336914,0.817751
-190.521240,610.290527,711.639404,0.818491
-189.971924,616.973877,721.160889,0.819234
-189.697266,625.762939,708.068848,0.819976
-195.190430,621.459961,714.660645,0.820717
-189.788818,623.199463,721.252441,0.821457
-185.485840,626.129150,717.773438,0.822198
-183.105469,626.220703,716.491699,0.822936
-184.753418,627.593994,719.879150,0.823667
-179.718018,632.720947,722.625732,0.824397
-188.690186,623.382568,724.548340,0.825128
-183.746338,623.474121,720.336914,0.825862
-182.647705,625.305176,720.245361,0.826604
-189.605713,629.791260,714.202881,0.827345
-184.753418,626.495361,719.512939,0.828086
-185.028076,616.516113,721.984863,0.828827
-181.457520,623.657227,717.224121,0.829567
-179.626465,619.720459,716.033936,0.830308
-177.978516,618.530273,722.167969,0.831049
-183.288574,625.946045,718.963623,0.831790
-180.450439,623.291016,717.041016,0.832531
-175.231934,620.727539,714.935303,0.833272
-175.506592,621.551514,716.583252,0.834012
-183.471680,629.608154,720.153809,0.834761
-184.478760,625.671387,721.160889,0.835492
-180.908203,634.460449,720.794678,0.836222
-173.034668,625.762939,716.033936,0.836952
-179.626465,627.227783,722.076416,0.837710
-176.055908,627.593994,718.231201,0.838442
-172.485352,625.305176,713.195801,0.839173
-182.189941,625.854492,712.188721,0.839903
-175.872803,627.319336,718.597412,0.840634
-177.337646,620.727539,713.745117,0.841365
-171.844482,627.502441,710.449219,0.842096
-183.013916,620.910645,712.371826,0.842827
-183.929443,624.206543,712.371826,0.843557
-182.098389,627.960205,715.759277,0.844288
-178.710938,617.431641,711.181641,0.845018
-175.140381,631.072998,716.766357,0.845748
-174.407959,633.453369,718.872070,0.846479
-177.337646,630.706787,718.231201,0.847234
-170.104980,630.889893,709.899902,0.847974
-172.210693,633.728027,714.569092,0.848715
-172.668457,641.418457,721.160889,0.849456
-177.429199,644.989014,715.850830,0.850221
-176.605225,650.939941,725.006104,0.850962
-186.859131,649.658203,725.372314,0.851703
-185.394287,657.073975,730.407715,0.852527
-179.351807,657.165527,733.520508,0.853269
-188.598633,670.898438,733.703613,0.854010
-183.380127,673.095703,733.154297,0.854751
-181.732178,674.560547,732.147217,0.855504
-180.999756,665.222168,735.992432,0.856246
-187.866211,677.673340,733.886719,0.856986
-190.979004,673.370361,727.752686,0.857727
-184.112549,676.574707,727.752686,0.858515
-183.197021,671.997070,728.027344,0.859259
-188.323975,673.828125,719.970703,0.860000
-197.204590,672.180176,726.287842,0.860741
-197.937012,678.497314,719.787598,0.861492
-193.725586,680.053711,725.921631,0.862233
-200.134277,683.074951,721.252441,0.862974
-199.310303,674.835205,726.379395,0.863715
-205.993652,674.194336,732.513428,0.864455
-205.078125,677.581787,726.562500,0.865185
-204.254150,684.906006,705.047607,0.865916
-201.599121,677.856445,720.977783,0.866646
-202.789307,676.391602,718.688965,0.867387
-205.444336,677.398682,722.351074,0.868129
-198.944092,674.468994,714.385986,0.868869
-198.760986,683.807373,719.146729,0.869611
-206.451416,678.497314,720.977783,0.870351
-213.867188,673.370361,718.963623,0.871092
-218.353271,674.560547,716.491699,0.871833
-212.860107,674.926758,716.857910,0.872574
-212.493896,673.187256,716.674805,0.873315
-215.606689,675.933838,720.520020,0.874055
-218.811035,667.968750,723.999023,0.874801
-221.923828,664.489746,728.576660,0.875549
-217.437744,662.933350,722.534180,0.876329
-213.500977,668.792725,723.175049,0.877078
-218.994141,674.743652,725.372314,0.877819
-216.430664,664.855957,721.893311,0.878570
-230.529785,662.292480,725.372314,0.879326
-211.761475,662.933350,717.224121,0.880068
-215.972900,664.215088,715.484619,0.880813
-213.684082,658.355713,709.991455,0.881565
-226.318359,652.954102,705.871582,0.882322
-213.592529,652.038574,710.540771,0.883064
-212.677002,652.496338,715.118408,0.883805
-217.346191,653.778076,715.942383,0.884546
-204.071045,654.327393,715.576172,0.885298
-205.352783,657.440186,715.942383,0.886039
-206.359863,655.700684,720.153809,0.886780
-201.507568,653.503418,723.358154,0.887520
-200.775146,657.714844,722.167969,0.888262
-197.387695,655.334473,723.541260,0.888993
-198.760986,652.038574,727.020264,0.889725
-191.711426,648.651123,726.562500,0.890456
-196.014404,657.073975,730.682373,0.891215
-199.768066,653.778076,730.957031,0.891960
-190.429688,647.369385,727.294922,0.892716
-191.711426,645.996094,714.935303,0.893472
-185.852051,651.397705,723.266602,0.894242
-187.591553,643.981934,726.654053,0.895004
-177.612305,647.735596,720.153809,0.895749
-178.985596,654.510498,731.231689,0.896490
-181.365967,652.221680,729.309082,0.897252
-182.281494,653.778076,733.337402,0.897994
-185.119629,656.982422,735.626221,0.898735
-176.879883,649.932861,731.781006,0.899476
-173.583984,656.158447,732.147217,0.900226
-172.485352,661.285400,737.915039,0.900966
-177.062988,656.524658,739.929199,0.901708
-176.605225,672.821045,737.823486,0.903040
-166.076660,655.334473,728.118896,0.904502
-168.182373,648.010254,729.583740,0.906013
-173.217773,652.221680,728.118896,0.907496
-168.640137,653.045654,732.788086,0.908980
-160.949707,644.439697,741.119385,0.910463
-167.999268,654.418945,734.710693,0.911947
-166.534424,648.651123,740.203857,0.913429
-163.146973,661.743164,739.654541,0.914900
-165.893555,660.644531,738.830566,0.916362
-159.301758,663.391113,742.767334,0.917860
-158.020020,665.496826,743.957520,0.919343
-162.597656,658.996582,733.886719,0.920820
-162.048340,662.750244,747.528076,0.922283
-162.048340,659.362793,732.421875,0.923749
-159.210205,664.123535,734.802246,0.925231
-162.597656,660.369873,735.443115,0.926711
-161.041260,659.912109,745.605469,0.928203
-159.484863,655.975342,732.238770,0.929684
-155.181885,659.179688,734.161377,0.931182
-161.865234,656.524658,740.203857,0.932664
-159.027100,654.052734,738.006592,0.934163
-159.027100,659.912109,739.013672,0.935644
-155.181885,660.827637,734.161377,0.937143
-157.470703,653.778076,736.083984,0.938622
-158.294678,658.996582,732.696533,0.940122
-164.337158,663.482666,737.365723,0.941603
-166.625977,660.278320,742.126465,0.943152
-157.562256,665.039062,729.583740,0.944751
-165.893555,666.687012,737.915039,0.946269
-167.907715,669.616699,732.788086,0.947768
-166.625977,677.398682,744.689941,0.949294
-160.125732,678.680420,749.816895,0.950778
-168.914795,687.744141,752.380371,0.952279
-169.921875,684.722900,748.901367,0.953761
-170.379639,689.758301,746.429443,0.955242
-174.133301,691.589355,745.056152,0.956771
-183.471680,693.878174,739.471436,0.958305
-177.978516,693.603516,750.915527,0.959839
-185.760498,694.152832,748.260498,0.961333
-182.189941,689.849854,751.190186,0.962841
-187.316895,684.722900,741.302490,0.964325
-178.070068,688.293457,742.218018,0.965808
-183.380127,681.243896,740.112305,0.967291
-194.183350,679.046631,728.759766,0.968753
-190.704346,669.799805,732.604980,0.970267
-189.697266,669.433594,731.597900,0.971750
-198.394775,671.905518,726.470947,0.973244
-195.281982,666.137695,730.957031,0.974726
-194.549561,661.102295,737.731934,0.976226
-191.894531,665.679932,749.816895,0.977704
-188.781738,665.313721,722.717285,0.979187
-187.957764,660.461426,726.104736,0.980159
-193.359375,652.404785,730.041504,0.980891
-179.718018,661.102295,726.196289,0.981650
-186.126709,665.313721,731.597900,0.982394
-178.894043,660.278320,736.175537,0.983135
-176.788330,657.348633,729.583740,0.983876
-184.478760,661.743164,730.316162,0.984618
-179.901123,657.440186,732.604980,0.985349
-179.809570,654.327393,733.703613,0.986079
-179.901123,657.989502,731.506348,0.986810
-178.894043,664.306641,731.689453,0.987560
-181.640625,656.982422,738.555908,0.988300
-183.746338,664.764404,731.872559,0.989040
-176.147461,657.165527,731.506348,0.989780
-181.549072,655.883789,726.104736,0.990529
-181.274414,656.433105,734.069824,0.991269
-183.929443,677.398682,733.428955,0.992009
-175.781250,657.531738,731.140137,0.992767
-178.527832,659.271240,734.619141,0.993541
-175.781250,650.756836,732.147217,0.994286
-181.091309,652.313232,736.907959,0.995026
-173.492432,658.905029,732.238770,0.995767
-170.471191,658.172607,738.830566,0.996508
-171.661377,653.686523,738.647461,0.997248
-175.781250,654.418945,733.062744,0.997989
-174.774170,651.672363,735.626221,0.998730
-170.562744,654.876709,737.731934,0.999488
-172.576904,652.587891,726.104736,1.000229
-177.337646,656.341553,726.562500,1.000969
-178.527832,651.672363,734.161377,1.001710
-179.260254,650.115967,730.407715,1.002451
-173.034668,650.207520,730.865479,1.003192
-172.851562,651.489258,737.823486,1.003933
-173.858643,652.587891,738.189697,1.004675
-173.309326,653.228760,738.830566,1.005416
-170.837402,656.799316,732.604980,1.006157
-166.534424,658.081055,731.323242,1.006897
-175.872803,652.954102,733.154297,1.007645
-176.971436,643.432617,733.886719,1.008376
-181.823730,648.101807,735.443115,1.009106
-174.316406,644.989014,739.105225,1.009836
-175.598145,642.517090,741.210938,1.010582
-174.041748,648.925781,731.140137,1.011323
-172.760010,651.031494,733.703613,1.012063
-171.478271,649.291992,733.703613,1.012803
-170.104980,648.468018,736.999512,1.013552
-171.936035,640.228271,726.470947,1.014293
-168.914795,638.854980,725.097656,1.015033
-187.408447,642.883301,731.597900,1.015774
-168.914795,642.608643,719.879150,1.016523
-166.534424,640.228271,725.830078,1.017265
-166.259766,639.038086,732.513428,1.018006
-164.245605,640.045166,731.048584,1.018746
-169.097900,636.291504,727.935791,1.019494
-169.281006,643.249512,704.956055,1.020224
-164.703369,643.798828,722.808838,1.020955
-172.393799,644.714355,722.900391,1.021684
-170.471191,635.467529,720.703125,1.022428
-172.760010,639.221191,728.668213,1.023168
-172.119141,637.115479,725.280762,1.023908
-175.323486,636.108398,729.492188,1.024654
-181.274414,637.573242,728.759766,1.025396
-173.583984,641.143799,727.661133,1.026136
-173.583984,641.418457,734.344482,1.026875
-169.464111,637.573242,726.928711,1.027614
-171.752930,641.693115,718.597412,1.028364
-177.612305,639.953613,725.646973,1.029104
-172.668457,634.643555,703.399658,1.029844
-174.957275,632.446289,715.850830,1.030592
-175.598145,629.699707,724.456787,1.031332
-178.894043,636.474609,725.189209,1.032093
-172.119141,631.164551,730.316162,1.032836
-179.901123,627.227783,726.837158,1.033659
-175.872803,626.403809,720.153809,1.034417
-173.675537,633.453369,718.231201,1.035158
-178.802490,632.812500,715.301514,1.035899
-170.288086,624.572754,717.041016,1.036641
-175.415039,624.847412,726.745605,1.037386
-173.400879,631.530762,714.477539,1.038125
-173.675537,620.910645,719.787598,1.038877
-179.534912,634.552002,728.027344,1.039625
-180.541992,648.010254,724.548340,1.040389
-177.703857,636.749268,720.245361,1.041130
-182.373047,628.967285,722.351074,1.041871
-187.316895,633.728027,724.273682,1.042612
-184.204102,631.988525,731.414795,1.043364
-182.830811,641.143799,723.907471,1.044104
-187.774658,643.157959,724.182129,1.044845
-191.986084,641.967773,728.576660,1.045608
-190.063477,648.101807,719.329834,1.046365
-196.014404,645.538330,725.372314,1.047106
-195.556641,642.700195,731.231689,1.047847
-201.416016,645.904541,731.872559,1.048587
-200.225830,645.446777,728.302002,1.049338
-203.979492,652.130127,729.766846,1.050079
-197.113037,647.460938,724.456787,1.050819
-200.500488,642.517090,725.830078,1.051560
-207.183838,646.453857,720.336914,1.052300
-208.190918,647.918701,720.428467,1.053030
-199.859619,652.313232,715.942383,1.053760
-208.557129,655.517578,721.252441,1.054519
-208.374023,650.390625,726.745605,1.055271
-210.571289,657.348633,727.203369,1.056012
-202.514648,636.291504,724.182129,1.056752
-204.162598,646.087646,727.661133,1.057493
-204.254150,648.284912,722.259521,1.058252
-210.113525,642.974854,719.146729,1.059005
-203.338623,653.503418,728.942871,1.059753
-216.613770,647.186279,724.914551,1.060512
-209.838867,655.517578,731.140137,1.061285
-212.585449,649.108887,722.808838,1.062027
-210.388184,654.235840,723.632812,1.062767
-209.381104,652.862549,721.618652,1.063509
-207.641602,650.207520,727.294922,1.064256
-206.542969,649.108887,719.879150,1.064997
-202.697754,646.270752,722.625732,1.065738
-199.768066,648.742676,717.864990,1.066479
-199.768066,654.693604,720.977783,1.067219
-205.535889,648.651123,725.006104,1.067949
-209.472656,654.510498,725.555420,1.068680
-207.733154,653.503418,724.273682,1.069410
-207.824707,653.869629,718.963623,1.070166
-194.824219,651.763916,717.590332,1.070909
-207.916260,649.383545,722.900391,1.071650
-231.079102,655.517578,723.175049,1.072393
-209.655762,651.947021,724.090576,1.073150
-208.923340,652.862549,720.153809,1.073891
-201.416016,650.665283,718.597412,1.074631
-198.120117,649.749756,723.083496,1.075372
-205.535889,644.439697,715.301514,1.076122
-207.000732,649.108887,713.470459,1.076862
-203.247070,642.608643,718.139648,1.077603
-199.951172,632.812500,712.646484,1.078344
-209.472656,633.544922,717.773438,1.079085
-198.211670,643.066406,714.935303,1.079816
-196.472168,648.651123,715.209961,1.080546
-195.281982,639.221191,712.554932,1.081276
-194.732666,638.031006,713.012695,1.082031
-195.373535,641.235352,715.118408,1.082772
-194.824219,637.298584,716.217041,1.083512
-195.465088,633.911133,717.224121,1.084253
-190.887451,633.544922,714.843750,1.085003
-191.528320,639.221191,719.146729,1.085744
-194.366455,635.284424,711.914062,1.086484
-199.676514,641.510010,714.019775,1.087225
-195.281982,638.946533,707.977295,1.087965
-192.443848,637.573242,710.998535,1.088696
-192.810059,637.390137,709.991455,1.089426
-192.810059,640.869141,712.371826,1.090157
-194.183350,640.594482,710.906982,1.090897
-210.479736,636.474609,707.611084,1.091627
-189.697266,643.707275,711.364746,1.092358
-186.492920,633.544922,714.294434,1.093088
-184.936523,637.847900,713.378906,1.093842
-197.937012,632.171631,720.794678,1.094582
-194.824219,642.883301,721.160889,1.095322
-184.478760,643.890381,720.153809,1.096062
-188.049316,640.502930,721.618652,1.096811
-192.169189,641.601562,723.815918,1.097551
-187.133789,639.770508,719.055176,1.098291
-198.211670,636.108398,722.076416,1.099031
-188.415527,639.312744,716.217041,1.099804
-194.915771,635.925293,716.674805,1.100547
-192.993164,645.904541,723.175049,1.101288
-196.746826,634.094238,733.062744,1.102029
-198.486328,638.031006,731.140137,1.102783
-202.239990,635.925293,721.160889,1.103524
-194.366455,638.397217,727.844238,1.104352
-200.775146,639.862061,723.083496,1.105093
-197.570801,636.749268,725.006104,1.105834
-192.443848,646.728516,721.527100,1.106574
-187.683105,638.580322,717.407227,1.107315
-194.000244,652.313232,714.477539,1.108056
-197.479248,646.911621,716.308594,1.108787
-199.584961,643.798828,717.864990,1.109518
-194.641113,638.031006,717.041016,1.110249
-192.810059,633.087158,715.667725,1.110980
-195.739746,641.784668,717.041016,1.111740
-188.232422,638.854980,721.527100,1.112481
-165.985107,636.291504,714.752197,1.113222
-194.183350,630.340576,719.055176,1.113991
-195.190430,625.396729,713.195801,1.114732
-199.951172,628.784180,712.646484,1.115473
-190.887451,625.213623,718.963623,1.116214
-195.831299,615.692139,709.808350,1.116968
-193.359375,619.445801,718.963623,1.117709
-183.563232,616.333008,711.090088,1.118450
-178.436279,621.185303,717.956543,1.119190
-175.506592,616.790771,715.576172,1.119938
-176.239014,628.784180,717.864990,1.120669
-181.549072,617.340088,706.695557,1.121399
-173.217773,618.988037,709.899902,1.122130
-170.654297,621.734619,716.766357,1.122864
-171.295166,619.537354,722.625732,1.123604
-172.576904,622.741699,720.428467,1.124345
-171.936035,626.495361,716.033936,1.125085
-174.224854,630.798340,718.963623,1.125827
-180.725098,628.601074,720.336914,1.126577
-177.337646,625.030518,721.343994,1.127324
-177.978516,622.924805,724.731445,1.128084
-172.302246,626.037598,725.463867,1.128851
-176.055908,624.023438,728.851318,1.129593
-171.752930,618.988037,721.343994,1.130333
-168.640137,627.868652,726.470947,1.131074
-164.337158,624.298096,717.956543,1.131815
-161.682129,617.980957,721.801758,1.132556
-166.168213,622.650146,724.365234,1.133296
-166.534424,617.889404,720.153809,1.134037
-164.520264,613.494873,718.139648,1.134783
-173.767090,611.297607,717.681885,1.135514
-162.872314,620.178223,716.949463,1.136245
-160.400391,609.741211,708.984375,1.136975
-167.816162,610.931396,716.674805,1.137711
-163.421631,611.297607,716.583252,1.138451
-166.442871,616.149902,717.224121,1.139192
-158.020020,610.839844,714.935303,1.139933
-159.118652,613.220215,724.365234,1.140674
-161.499023,615.417480,726.928711,1.141417
-157.196045,614.044189,722.625732,1.142158
-149.871826,613.403320,721.710205,1.142898
-159.393311,607.635498,728.210449,1.143652
-157.928467,616.973877,721.069336,1.144396
-161.132812,618.164062,722.625732,1.145149
-155.639648,611.663818,722.534180,1.145896
-154.632568,611.755371,718.872070,1.146657
-150.878906,611.114502,718.872070,1.147405
-154.632568,605.621338,713.012695,1.148146
-150.970459,606.262207,721.527100,1.148887
-158.569336,607.818604,722.808838,1.149628
-160.217285,610.656738,724.731445,1.150369
-159.851074,603.332520,721.801758,1.151110
-156.372070,600.128174,727.020264,1.151850
-157.379150,603.332520,719.787598,1.152584
-154.815674,601.043701,716.949463,1.153315
-152.984619,590.332031,711.364746,1.154045
-150.787354,588.317871,705.230713,1.154775
-152.160645,584.930420,709.075928,1.155513
-155.639648,585.479736,713.470459,1.156254
-155.273438,579.162598,706.329346,1.156995
-149.414062,570.831299,699.737549,1.157736
-144.378662,575.683594,710.266113,1.158477
-147.308350,569.183350,709.533691,1.159217
-147.033691,561.218262,711.639404,1.159957
-144.378662,585.113525,706.237793,1.160697
-137.603760,563.049316,702.941895,1.161450
-142.913818,559.478760,700.195312,1.162191
-143.737793,543.914795,719.970703,1.162932
-141.357422,546.386719,704.864502,1.163672
-143.005371,551.513672,697.998047,1.164416
-142.913818,547.576904,701.385498,1.165148
-140.899658,542.449951,708.160400,1.165878
-132.659912,542.175293,697.906494,1.166609
-139.709473,544.189453,698.455811,1.167345
-135.864258,543.090820,692.230225,1.168086
-136.230469,540.802002,693.237305,1.168826
-144.195557,545.562744,704.315186,1.169567
-135.406494,548.034668,695.159912,1.170308
-133.209229,544.006348,694.885254,1.171049
-135.131836,550.048828,696.441650,1.171789
-134.399414,548.309326,695.709229,1.172530
-132.843018,560.211182,692.504883,1.173277
-131.378174,552.795410,697.723389,1.174007
-124.145508,558.380127,696.807861,1.174828
-115.356445,570.465088,697.814941,1.175559
-121.582031,567.443848,700.927734,1.176296
-119.934082,573.669434,697.265625,1.177036
-120.025635,582.183838,705.688477,1.177776
-123.962402,584.106445,715.942383,1.178516
-118.835449,587.219238,717.315674,1.179256
-115.722656,588.958740,725.921631,1.179996
-115.539551,589.416504,721.527100,1.180736
-140.441895,597.106934,724.914551,1.181477
-118.743896,595.184326,721.618652,1.182217
-124.786377,603.424072,721.160889,1.182956
-127.349854,600.769043,728.393555,1.183696
-125.427246,602.325439,721.893311,1.184436
-120.941162,603.698730,724.731445,1.185176
-124.694824,605.895996,721.618652,1.185915
-123.870850,604.705811,718.780518,1.186655
-127.441406,614.685059,725.189209,1.187394
-122.131348,616.973877,723.632812,1.188135
-126.159668,610.290527,725.463867,1.188876
-128.814697,609.191895,728.759766,1.189616
-124.786377,616.882324,726.745605,1.190355
-132.385254,616.149902,720.794678,1.191095
-137.237549,617.156982,718.688965,1.191835
-138.427734,616.333008,720.153809,1.192601
-134.857178,623.016357,711.822510,1.193343
-139.343262,618.621826,712.646484,1.194084
-139.068604,620.819092,721.343994,1.194825
-148.040771,623.840332,719.970703,1.195565
-153.717041,627.868652,724.914551,1.196306
-163.330078,627.777100,717.956543,1.197053
-159.210205,626.953125,723.724365,1.197801
-159.393311,634.918213,723.632812,1.198548
-168.273926,636.291504,729.858398,1.199296
-163.330078,636.749268,732.513428,1.200037
-164.703369,645.172119,743.499756,1.200778
-161.315918,640.960693,743.865967,1.201519
-160.858154,634.460449,737.731934,1.202259
-162.689209,641.052246,735.534668,1.203010
-153.350830,618.988037,735.626221,1.203765
-162.597656,625.762939,726.654053,1.204510
-158.020020,622.100830,731.323242,1.205269
-148.223877,611.663818,720.977783,1.206082
-152.069092,609.466553,719.787598,1.206822
-151.702881,636.383057,710.540771,1.207561
-146.392822,636.291504,718.231201,1.208301
-179.077148,619.628906,731.048584,1.209048
-147.857666,565.155029,772.155762,1.209785
-189.147949,600.402832,767.761230,1.210540
-205.902100,610.473633,753.295898,1.211283
-183.563232,633.636475,763.458252,1.212028
-167.633057,628.143311,751.373291,1.212760
-191.528320,613.220215,742.858887,1.213490
-157.745361,600.952148,737.915039,1.214221
-186.676025,602.325439,737.365723,1.214977
-175.598145,585.296631,722.900391,1.215718
-160.308838,578.338623,711.914062,1.216459
-186.492920,564.422607,698.638916,1.217200
-176.513672,563.140869,686.370850,1.217951
-150.421143,575.775146,681.701660,1.218692
-180.450439,562.866211,682.159424,1.219433
-169.830322,560.028076,675.384521,1.220174
-161.956787,565.612793,681.243896,1.220924
-185.485840,561.767578,682.525635,1.221665
-168.823242,551.605225,680.694580,1.222405
-167.633057,548.583984,682.525635,1.223146
-173.858643,552.429199,674.652100,1.223886
-167.907715,551.422119,670.898438,1.224617
-166.992188,538.055420,670.715332,1.225347
-166.076660,540.893555,672.637939,1.226078
-171.295166,538.146973,669.525146,1.226831
-167.266846,535.675049,673.736572,1.227632
-177.886963,532.562256,667.144775,1.228376
-170.928955,533.660889,665.588379,1.229117
-168.914795,527.984619,661.468506,1.229870
-160.400391,524.505615,659.820557,1.230611
-162.689209,527.984619,655.883789,1.231351
-157.470703,533.477783,645.629883,1.232092
-161.224365,517.272949,646.270752,1.232833
-166.534424,526.062012,639.587402,1.233564
-168.182373,524.047852,633.911133,1.234294
-166.992188,514.160156,633.728027,1.235025
-164.520264,520.477295,624.572754,1.235766
-171.386719,520.202637,626.861572,1.236497
-174.865723,525.421143,621.002197,1.237228
-165.344238,528.350830,623.565674,1.237958
-164.703369,526.245117,620.727539,1.238713
-166.717529,531.646729,612.945557,1.239454
-157.836914,533.935547,623.199463,1.240195
-163.879395,536.865234,632.263184,1.240935
-159.301758,534.667969,629.333496,1.241685
-161.041260,546.203613,647.735596,1.242427
-164.611816,553.619385,654.876709,1.243167
-162.414551,568.817139,660.919189,1.243906
-164.794922,570.098877,675.109863,1.244663
-171.752930,576.324463,681.976318,1.245512
-163.513184,586.761475,691.040039,1.246258
-170.837402,588.043213,688.385010,1.246999
-175.415039,591.247559,683.715820,1.247772
-178.619385,587.036133,688.201904,1.248515
-173.858643,599.212646,685.638428,1.249256
-174.499512,593.536377,683.624268,1.250017
-166.076660,591.888428,687.744141,1.250773
-167.449951,594.909668,683.807373,1.251533
-167.266846,596.923828,687.652588,1.252295
-160.491943,607.543945,689.758301,1.253055
-161.956787,603.515625,689.941406,1.253815
-156.280518,611.480713,689.117432,1.254577
-158.203125,613.128662,699.920654,1.255338
-164.978027,618.896484,692.504883,1.256119
-172.119141,628.417969,699.462891,1.256856
-168.731689,627.868652,696.075439,1.257587
-177.154541,642.883301,704.864502,1.258318
-169.006348,642.608643,711.273193,1.259059
-168.182373,640.502930,713.470459,1.259801
-164.978027,651.580811,713.012695,1.260542
-166.717529,658.721924,714.843750,1.261282
-162.963867,663.208008,716.583252,1.262023
-162.689209,658.630371,712.921143,1.262764
-165.069580,659.362793,719.879150,1.263505
-155.639648,666.412354,722.076416,1.264246
-164.611816,663.208008,745.788574,1.264988
-160.949707,666.870117,723.815918,1.265741
-168.823242,657.714844,725.189209,1.266484
-166.351318,663.482666,719.421387,1.267227
-168.823242,657.073975,716.857910,1.267974
-167.175293,656.158447,725.097656,1.268723
-165.161133,651.580811,713.104248,1.269472
-166.992188,649.749756,706.512451,1.270212
-165.893555,642.150879,696.624756,1.270989
-160.949707,640.960693,706.237793,1.271729
-152.984619,633.636475,705.322266,1.272470
-150.512695,635.925293,696.990967,1.273211
-149.414062,625.671387,699.188232,1.273961
-147.216797,619.537354,700.469971,1.274702
-143.280029,620.178223,700.561523,1.275443
-142.913818,608.276367,699.462891,1.276184
-138.427734,589.324951,702.667236,1.276924
-135.223389,605.255127,704.498291,1.277655
-137.054443,593.811035,706.970215,1.278386
-135.955811,588.775635,709.625244,1.279116
-122.131348,582.458496,695.892334,1.279899
-133.300781,571.380615,703.033447,1.280651
-127.075195,575.683594,692.596436,1.281398
-115.447998,551.696777,694.152832,1.282146
-116.363525,543.823242,683.349609,1.282907
-109.222412,545.104980,664.764404,1.283650
-109.771729,533.569336,673.645020,1.284390
-109.954834,523.681641,677.215576,1.285131
-102.264404,526.977539,670.349121,1.285901
-109.497070,516.265869,664.123535,1.286645
-107.025146,520.202637,662.017822,1.287386
-109.954834,515.991211,660.644531,1.288127
-106.384277,509.674072,661.376953,1.288880
-104.278564,537.963867,665.771484,1.289621
-104.187012,522.949219,663.940430,1.290361
-102.264404,519.836426,655.975342,1.291102
-102.264404,520.935059,661.926270,1.291853
-95.214844,527.252197,660.736084,1.292594
-102.813721,526.611328,654.327393,1.293334
-91.003418,528.167725,659.179688,1.294075
-89.996338,531.555176,658.630371,1.294815
-91.827393,536.315918,665.313721,1.295556
-102.447510,534.027100,660.003662,1.296298
-98.052979,551.879883,674.102783,1.297039
-109.771729,552.062988,682.983398,1.297791
-113.159180,564.605713,687.927246,1.298532
-107.116699,571.655273,696.075439,1.299273
-116.821289,570.739746,696.350098,1.300014
-128.631592,568.450928,706.878662,1.300764
-125.701904,572.662354,707.153320,1.301505
-124.053955,582.183838,707.702637,1.302246
-118.927002,606.445312,720.977783,1.302986
-115.539551,609.649658,714.843750,1.303727
-105.834961,615.417480,721.069336,1.304458
-106.842041,618.164062,717.773438,1.305189
-101.257324,604.156494,717.224121,1.305919
-104.461670,602.142334,713.562012,1.306664
-108.032227,598.663330,704.772949,1.307395
-118.286133,597.747803,676.025391,1.308126
-120.483398,613.586426,664.581299,1.308857
-127.807617,612.030029,657.897949,1.309608
-133.758545,609.008789,658.081055,1.310349
-151.062012,606.170654,676.757812,1.311089
-157.745361,613.037109,655.792236,1.311830
-165.893555,614.318848,666.320801,1.312579
-161.224365,623.748779,672.821045,1.313320
-161.132812,642.883301,684.082031,1.314062
-158.752441,650.939941,705.505371,1.314803
-152.343750,658.264160,712.188721,1.315543
-147.491455,674.468994,714.202881,1.316274
-142.822266,673.004150,747.985840,1.317088
-147.766113,680.786133,737.365723,1.317818
-145.751953,677.673340,730.590820,1.318574
-154.815674,679.779053,728.393555,1.319315
-156.463623,706.146240,728.851318,1.320056
-157.653809,673.370361,721.618652,1.320797
-201.873779,673.004150,738.830566,1.321561
-171.112061,677.398682,718.139648,1.322309
-219.726562,670.074463,723.175049,1.323075
-155.548096,682.617188,716.400146,1.323818
-205.078125,674.652100,699.737549,1.324572
-198.120117,681.060791,691.223145,1.325313
-153.167725,681.335449,674.102783,1.326053
-202.514648,671.997070,683.807373,1.326794
-164.703369,669.158936,676.757812,1.327545
-167.816162,657.440186,679.962158,1.328287
-188.507080,656.524658,681.976318,1.329029
-160.583496,674.468994,674.835205,1.329769
-213.592529,677.032471,691.589355,1.330513
-203.338623,674.377441,685.821533,1.331244
-200.134277,687.927246,696.350098,1.331974
-237.121582,662.567139,704.406738,1.332704
-213.592529,685.638428,717.041016,1.333460
-236.663818,676.666260,724.090576,1.334201
-234.191895,676.940918,721.618652,1.334942
-197.753906,677.124023,715.850830,1.335683
-204.986572,674.285889,712.554932,1.336434
-199.584961,684.997559,708.892822,1.337175
-181.457520,689.117432,707.611084,1.337916
-197.570801,681.884766,700.561523,1.338659
-186.401367,681.884766,699.554443,1.339425
-188.598633,665.588379,692.413330,1.340175
-195.831299,656.890869,700.378418,1.340923
-198.486328,655.517578,696.899414,1.341663
-228.240967,647.552490,699.554443,1.342424
-210.754395,644.989014,700.012207,1.343165
-211.944580,641.693115,691.497803,1.343905
-212.493896,645.355225,703.308105,1.344655
-198.486328,629.516602,703.582764,1.345396
-187.408447,617.340088,695.617676,1.346137
-189.056396,610.198975,699.371338,1.346877
-165.893555,619.720459,688.018799,1.347626
-165.893555,622.558594,680.328369,1.348369
-158.935547,614.318848,675.018311,1.349122
-151.153564,616.058350,671.905518,1.349868
-158.111572,616.241455,663.024902,1.350646
-150.970459,623.748779,672.363281,1.351397
-169.281006,613.952637,672.546387,1.352138
-169.647217,623.016357,672.546387,1.352879
-162.872314,628.143311,697.723389,1.353620
-166.076660,627.044678,684.265137,1.354362
-171.478271,638.488770,690.399170,1.355103
-166.992188,645.904541,690.673828,1.355844
-170.928955,630.065918,700.286865,1.356578
-156.921387,626.129150,696.624756,1.357309
-153.808594,638.122559,691.314697,1.358039
-150.970459,636.749268,687.286377,1.358769
-125.335693,639.312744,686.004639,1.359509
-127.899170,631.072998,678.131104,1.360250
-124.786377,633.087158,673.187256,1.360990
-123.779297,627.410889,668.792725,1.361731
-126.251221,627.502441,664.398193,1.362471
-132.202148,632.263184,661.834717,1.363212
-128.082275,634.918213,657.257080,1.363953
-125.518799,642.974854,662.109375,1.364693
-120.391846,635.559082,657.989502,1.365434
-94.573975,647.003174,674.468994,1.366174
-118.103027,649.383545,668.975830,1.366915
-115.997314,661.560059,675.842285,1.367655
-121.948242,657.989502,682.891846,1.368401
-118.011475,664.031982,675.842285,1.369135
-114.166260,663.665771,668.151855,1.369865
-110.961914,670.349121,669.708252,1.370596
-111.053467,677.032471,657.989502,1.371334
-121.582031,701.934814,651.855469,1.372075
-117.919922,682.434082,648.010254,1.372816
-118.103027,686.279297,645.996094,1.373556
-117.187500,684.906006,637.939453,1.374297
-132.476807,691.406250,635.284424,1.375038
-133.117676,695.068359,641.510010,1.375779
-139.068604,696.624756,633.361816,1.376519
-137.603760,707.244873,655.151367,1.377265
-145.568848,709.075928,649.475098,1.377996
-140.899658,714.569092,665.313721,1.378726
-135.681152,722.991943,662.658691,1.379456
-136.230469,736.907959,664.581299,1.380199
-139.251709,738.739014,674.926758,1.380939
-138.244629,737.457275,680.328369,1.381678
-148.956299,738.098145,684.722900,1.382418
-177.612305,724.914551,680.145264,1.383167
-179.443359,733.520508,677.032471,1.383907
-160.583496,770.324707,667.510986,1.384646
-155.914307,814.544678,651.489258,1.385386
-151.062012,810.974121,649.383545,1.386126
-150.695801,785.522461,674.377441,1.386866
-176.422119,766.479492,675.476074,1.387686
-201.507568,754.852295,675.201416,1.388426
-198.852539,766.296387,664.764404,1.389173
-204.986572,796.783447,654.510498,1.389940
-188.049316,787.078857,645.172119,1.390681
-191.711426,796.783447,636.932373,1.391422
-191.986084,806.762695,634.368896,1.392172
-198.852539,798.339844,633.819580,1.392913
-205.535889,790.557861,636.749268,1.393654
-225.311279,785.247803,640.502930,1.394394
-218.536377,804.656982,650.665283,1.395144
-227.966309,806.945801,655.334473,1.395885
-221.191406,831.573486,662.109375,1.396625
-221.191406,836.242676,678.680420,1.397366
-224.121094,835.144043,699.462891,1.398107
-222.106934,842.926025,679.321289,1.398837
-224.853516,837.890625,689.758301,1.399568
-222.106934,831.298828,688.293457,1.400298
-227.142334,833.679199,678.955078,1.401066
-223.114014,828.277588,675.750732,1.401807
-228.057861,835.968018,671.539307,1.402547
-227.233887,835.693359,662.658691,1.403287
-228.424072,833.129883,663.757324,1.404037
-226.409912,830.932617,660.552979,1.404778
-229.614258,823.242188,659.179688,1.405519
-234.649658,827.911377,656.524658,1.406259
-230.072021,818.023682,655.609131,1.407000
-231.811523,821.136475,679.138184,1.407730
-230.255127,830.657959,657.989502,1.408461
-229.980469,826.904297,668.975830,1.409191
-231.445312,828.552246,667.968750,1.409945
-216.888428,825.622559,674.560547,1.410709
-214.965820,828.002930,678.680420,1.411453
-221.374512,821.594238,680.145264,1.412193
-212.310791,825.256348,667.602539,1.412951
-209.472656,829.833984,670.532227,1.413710
-215.789795,830.017090,668.243408,1.414452
-206.817627,833.038330,665.313721,1.415193
-207.824707,835.327148,667.877197,1.415944
-206.909180,818.298340,668.334961,1.416685
-206.726074,815.917969,673.828125,1.417426
-208.923340,815.368652,671.173096,1.418167
-202.423096,802.001953,673.187256,1.418917
-200.317383,812.438965,678.222656,1.419658
-184.387207,805.480957,677.398682,1.420398
-169.830322,804.382324,683.166504,1.421139
-168.640137,800.720215,676.666260,1.421905
-159.576416,800.811768,675.292969,1.422667
-152.893066,788.085938,676.483154,1.423415
-155.548096,769.226074,672.363281,1.424157
-145.477295,765.563965,666.229248,1.424923
-142.364502,765.289307,661.376953,1.425664
-142.822266,766.387939,651.947021,1.426405
-137.695312,753.753662,647.735596,1.427146
-128.173828,752.746582,655.792236,1.427896
-134.124756,745.788574,650.573730,1.428657
-124.420166,748.718262,652.313232,1.429402
-119.934082,739.929199,643.524170,1.430143
-115.539551,745.147705,656.158447,1.430899
-111.419678,736.633301,646.453857,1.431640
-104.736328,736.907959,645.263672,1.432381
-94.390869,744.415283,649.749756,1.433121
-90.454102,733.886719,640.777588,1.433871
-97.137451,733.062744,638.122559,1.434612
-84.777832,731.597900,640.594482,1.435352
-80.749512,728.485107,635.284424,1.436092
-87.432861,729.949951,629.058838,1.436837
-77.636719,718.139648,629.791260,1.437567
-75.347900,720.794678,633.636475,1.438309
-74.615479,710.266113,624.481201,1.439050
-75.439453,716.033936,630.249023,1.439801
-67.474365,714.569092,627.319336,1.440541
-59.417725,708.801270,627.960205,1.441282
-61.065674,709.167480,622.558594,1.442022
-57.769775,711.639404,623.748779,1.442771
-58.410645,707.977295,622.467041,1.443512
-62.622070,712.829590,615.600586,1.444251
-73.516846,707.977295,618.164062,1.444993
-74.798584,715.209961,605.255127,1.445732
-79.742432,708.435059,590.148926,1.446462
-72.601318,709.991455,587.860107,1.447193
-73.699951,715.484619,574.127197,1.447922
-80.017090,712.554932,577.606201,1.448667
-77.178955,715.942383,573.944092,1.449397
-77.270508,713.378906,571.289062,1.450127
-91.918945,717.315674,576.324463,1.450857
-83.679199,730.316162,581.268311,1.451607
-83.679199,741.943359,577.972412,1.452348
-86.791992,740.753174,584.381104,1.453088
-84.960938,753.112793,594.451904,1.453828
-96.862793,762.817383,598.388672,1.454578
-96.954346,772.155762,615.051270,1.455319
-98.144531,776.641846,617.797852,1.456059
-101.074219,789.642334,613.586426,1.456799
-110.778809,791.015625,620.910645,1.457539
-115.722656,804.473877,621.734619,1.458269
-115.722656,815.460205,626.953125,1.459096
-121.582031,815.002441,630.706787,1.459827
-117.462158,822.784424,627.685547,1.460581
-126.342773,830.017090,621.551514,1.461321
-125.793457,832.763672,622.283936,1.462061
-111.877441,835.968018,622.741699,1.462800
-119.476318,833.770752,615.509033,1.463550
-118.652344,848.968506,618.164062,1.464289
-113.891602,847.595215,620.361328,1.465029
-114.166260,853.729248,621.917725,1.465768
-110.504150,857.116699,614.135742,1.466540
-121.124268,854.095459,617.523193,1.467280
-123.504639,860.137939,620.178223,1.468020
-125.244141,858.215332,615.417480,1.468760
-127.441406,862.426758,620.819092,1.469499
-122.680664,864.990234,627.777100,1.470239
-123.962402,873.779297,628.509521,1.470978
-121.673584,869.110107,627.410889,1.471718
-115.081787,872.497559,624.664307,1.472458
-140.533447,879.089355,627.227783,1.473198
-115.997314,878.265381,631.256104,1.473937
-114.898682,869.018555,623.291016,1.474676
-108.764648,874.053955,627.227783,1.475407
-105.010986,871.032715,623.657227,1.476154
-109.771729,868.835449,619.995117,1.476888
-117.187500,866.363525,625.488281,1.477623
-96.405029,876.525879,625.762939,1.478365
-109.405518,862.335205,617.797852,1.479106
-115.539551,866.821289,623.016357,1.479848
-107.299805,866.363525,622.100830,1.480598
-113.800049,855.560303,628.509521,1.481352
-104.827881,863.800049,628.875732,1.482101
-110.961914,852.539062,604.980469,1.482842
-111.236572,851.440430,612.213135,1.483603
-100.433350,850.799561,610.290527,1.484344
-102.539062,844.207764,597.930908,1.485086
-93.841553,843.750000,598.663330,1.485827
-91.461182,847.412109,611.297607,1.486568
-91.827393,840.820312,609.649658,1.487332
-91.918945,834.777832,610.107422,1.488085
-88.073730,834.320068,612.121582,1.488833
-82.122803,842.559814,607.269287,1.489620
-82.031250,845.489502,611.389160,1.490363
-78.460693,835.784912,613.128662,1.491103
-72.418213,850.341797,625.579834,1.491844
-72.418213,858.947754,635.284424,1.492594
-75.988770,853.179932,630.706787,1.493335
-75.073242,861.053467,632.904053,1.494076
-73.608398,861.785889,626.953125,1.494816
-70.312500,869.110107,635.284424,1.495557
-65.093994,866.546631,640.686035,1.496290
-57.037354,859.222412,643.066406,1.497020
-58.319092,855.194092,648.834229,1.497751
-45.684814,859.130859,643.890381,1.498511
-45.410156,849.884033,640.502930,1.499252
-40.466309,855.377197,634.918213,1.499993
-39.733887,853.546143,627.685547,1.500734
-35.064697,843.109131,629.608154,1.501484
-31.494141,836.700439,628.051758,1.502225
-30.395508,825.164795,615.692139,1.502965
-27.099609,824.157715,624.572754,1.503706
-28.198242,814.910889,612.487793,1.504456
-30.120850,812.072754,607.727051,1.505197
-26.000977,804.016113,589.874268,1.505937
-20.965576,811.798096,604.431152,1.506678
-18.310547,796.600342,601.226807,1.507417
-16.113281,797.698975,601.135254,1.508148
-17.852783,790.374756,599.029541,1.508878
-12.542725,795.043945,596.740723,1.509637
-21.423340,792.846680,595.550537,1.510412
-13.366699,784.423828,588.867188,1.511155
-14.648438,789.459229,596.466064,1.511895
-17.578125,787.811279,590.057373,1.512636
-8.789062,783.050537,590.332031,1.513391
-5.035400,789.184570,585.571289,1.514132
-14.282227,781.494141,586.853027,1.514872
-6.042480,778.472900,587.860107,1.515613
-3.570557,782.592773,585.296631,1.516352
-6.774902,775.268555,583.099365,1.517083
1.098633,775.177002,575.958252,1.517813
-2.288818,769.592285,576.873779,1.518543
3.662109,768.493652,571.838379,1.519282
6.774902,761.901855,566.894531,1.520013
0.000000,769.317627,567.169189,1.520743
3.753662,762.542725,562.683105,1.521473
3.845215,760.986328,565.887451,1.522228
5.493164,754.302979,557.830811,1.522969
-3.936768,752.380371,554.443359,1.523709
-3.021240,743.957520,547.576904,1.524453
-1.831055,731.872559,546.020508,1.525236
-1.098633,744.781494,547.668457,1.525992
-0.274658,735.534668,535.491943,1.526769
-3.845215,727.020264,527.893066,1.527538
-9.887695,720.245361,532.653809,1.528318
-13.458252,726.104736,531.921387,1.529085
-16.571045,726.013184,523.498535,1.529842
-15.563965,731.689453,528.442383,1.530616
-10.803223,728.302002,516.906738,1.531493
-17.944336,730.773926,513.610840,1.532252
-18.859863,732.513428,515.441895,1.533037
-22.888184,735.809326,506.469727,1.533817
-25.177002,734.252930,510.223389,1.534577
-32.592773,736.083984,517.089844,1.535347
-40.649414,753.021240,513.885498,1.536120
-50.994873,772.247314,517.913818,1.536894
-51.544189,795.959473,526.885986,1.537641
-42.022705,782.043457,522.308350,1.538382
-91.735840,791.564941,539.245605,1.539141
-74.523926,793.762207,552.520752,1.539896
-118.286133,788.818359,572.479248,1.540653
-110.046387,788.818359,587.860107,1.541393
-117.095947,791.015625,575.134277,1.542133
-140.075684,793.029785,578.338623,1.542874
-131.011963,804.748535,564.697266,1.543614
-125.335693,818.572998,553.436279,1.544354
-152.801514,813.262939,540.435791,1.545094
-124.877930,833.404541,548.126221,1.545835
-134.033203,841.644287,550.415039,1.546576
-156.555176,851.806641,548.126221,1.547316
-149.047852,855.560303,554.534912,1.548054
-163.330078,867.095947,557.556152,1.548785
-143.463135,877.716064,553.985596,1.549515
-155.731201,894.287109,567.810059,1.550245
-155.914307,930.450439,560.028076,1.550977
-158.935547,952.514648,559.844971,1.551720
-176.330566,947.204590,568.450928,1.552463
-216.522217,952.331543,584.838867,1.553211
-181.915283,950.866699,585.388184,1.553952
-232.086182,965.789795,588.317871,1.554693
-180.084229,980.346680,581.909180,1.555434
-186.767578,980.438232,578.338623,1.556174
-165.252686,984.558105,556.457520,1.556927
-161.315918,1000.579834,555.816650,1.557667
-131.469727,1004.425049,560.028076,1.558408
-122.955322,992.614746,564.971924,1.559149
-103.546143,983.551025,575.042725,1.559897
-88.897705,974.853516,582.000732,1.560628
-91.735840,965.789795,588.500977,1.561358
-73.608398,962.310791,589.141846,1.562089
-67.474365,975.494385,596.649170,1.562824
-71.685791,979.431152,591.796875,1.563569
-91.278076,963.134766,586.669922,1.564325
-114.807129,948.394775,598.846436,1.565091
-134.674072,947.387695,584.106445,1.565843
-161.407471,946.380615,582.366943,1.566583
-189.147949,937.225342,578.338623,1.567324
-191.070557,934.204102,585.937500,1.568067
-194.091797,931.091309,585.937500,1.568826
-177.886963,918.273926,589.874268,1.569567
-170.928955,912.689209,576.507568,1.570308
-140.441895,902.893066,583.557129,1.571048
-127.899170,895.660400,580.169678,1.571782
-81.665039,891.448975,571.105957,1.572512
-66.650391,873.229980,551.605225,1.573242
-44.586182,865.631104,548.400879,1.573973
-39.459229,844.024658,540.344238,1.574712
-37.811279,825.347900,538.238525,1.575453
-12.451172,823.608398,540.527344,1.576193
-16.296387,806.213379,531.005859,1.576934
-16.845703,805.755615,523.040771,1.577675
-14.099121,795.318604,524.322510,1.578416
-13.366699,769.500732,526.611328,1.579157
-36.712646,759.155273,518.280029,1.579897
-21.331787,745.056152,517.181396,1.580650
-30.120850,741.851807,523.040771,1.581390
-16.754150,737.182617,530.456543,1.582153
-15.930176,703.033447,527.893066,1.582896
-2.838135,697.540283,527.069092,1.583637
-1.281738,680.786133,525.604248,1.584396
-0.091553,652.679443,528.625488,1.585138
-5.126953,631.530762,529.083252,1.585879
-5.035400,623.107910,528.442383,1.586635
4.669189,610.473633,530.090332,1.587376
-0.549316,602.783203,527.984619,1.588116
7.965088,589.416504,532.470703,1.588856
7.507324,579.803467,530.914307,1.589610
15.655518,586.669922,516.540527,1.590350
10.437012,585.845947,515.716553,1.591091
14.648438,612.670898,510.223389,1.591831
5.584717,636.657715,496.765137,1.592571
0.091553,728.759766,464.813232,1.593302
-5.950928,710.723877,458.404541,1.594031
-10.070801,634.277344,448.516846,1.594761
31.219482,608.734131,387.634277,1.595517
-18.585205,605.804443,383.331299,1.596258
-35.430908,637.664795,358.795166,1.596998
-40.100098,630.340576,342.041016,1.597739
20.690918,609.100342,342.773438,1.598490
35.888672,608.825684,347.259521,1.599231
1.281738,637.023926,334.259033,1.599972
-5.859375,719.055176,293.518066,1.600730
-1.739502,749.084473,298.004150,1.601484
-3.112793,761.627197,307.159424,1.602238
14.556885,789.550781,303.863525,1.602980
18.310547,826.263428,309.722900,1.603721
-0.183105,851.715088,307.891846,1.604561
30.395508,857.116699,307.250977,1.605303
31.494141,897.857666,299.835205,1.606043
31.127930,909.576416,290.222168,1.606784
26.458740,928.070068,293.151855,1.607534
48.065186,941.894531,298.187256,1.608274
36.346436,941.619873,310.546875,1.609014
27.832031,956.817627,344.512939,1.609755
42.114258,959.655762,374.816895,1.610494
61.981201,976.318359,385.803223,1.611225
50.720215,993.164062,439.270020,1.611955
54.382324,994.079590,457.855225,1.612685
78.918457,1008.453369,492.370605,1.613440
80.657959,1007.995605,529.998779,1.614181
84.136963,1018.524170,547.943115,1.614922
123.229980,1087.921143,580.810547,1.615662
121.398926,1140.106201,585.296631,1.616413
118.286133,1205.657959,625.213623,1.617154
132.476807,1241.455078,672.912598,1.617896
138.519287,1235.412598,698.730469,1.618637
141.632080,1248.229980,744.323730,1.619394
149.688721,1223.785400,835.601807,1.620135
99.060059,1260.223389,948.760986,1.620876
-7.598877,1212.615967,1071.807861,1.621618
15.747070,1225.616455,1051.849365,1.622359
-24.719238,1259.124756,1037.933350,1.623090
-43.212891,1237.152100,1028.594971,1.623830
-8.239746,1188.903809,1001.678467,1.624579
-42.022705,1127.838135,921.661377,1.625372
-66.558838,1075.286865,770.233154,1.626119
-101.898193,1060.821533,679.870605,1.626860
-132.843018,1006.439209,563.507080,1.627600
-94.299316,970.825195,506.195068,1.628354
48.156738,955.169678,453.277588,1.629095
10.711670,915.069580,471.405029,1.629835
-15.563965,892.730713,477.447510,1.630575
10.253906,872.314453,465.911865,1.631326
-21.697998,862.152100,450.256348,1.632096
-6.134033,854.553223,458.862305,1.632847
22.064209,822.418213,446.777344,1.633593
0.732422,815.002441,445.495605,1.634341
-18.218994,811.706543,439.086914,1.635083
20.965576,748.809814,463.897705,1.635824
-28.198242,711.822510,473.602295,1.636564
22.979736,685.638428,474.243164,1.637305
-20.690918,697.814941,446.502686,1.638052
-5.401611,707.336426,408.966064,1.638804
10.986328,709.167480,407.775879,1.639558
16.845703,716.217041,401.733398,1.640289
10.803223,706.970215,375.640869,1.641020
15.930176,709.991455,384.521484,1.641751
12.084961,681.335449,386.901855,1.642491
4.302979,650.756836,414.459229,1.643233
39.459229,650.115967,421.142578,1.643974
32.135010,669.616699,380.859375,1.644715
-19.683838,653.228760,390.106201,1.645450
34.149170,561.035156,467.651367,1.646180
67.199707,537.048340,477.355957,1.646911
0.457764,528.167725,444.580078,1.647641
-2.471924,527.801514,414.001465,1.648378
17.395020,488.983154,438.262939,1.649118
36.804199,432.586670,488.983154,1.649858
30.761719,429.290771,486.236572,1.650599
-8.331299,406.768799,428.924561,1.651340
121.673584,392.303467,439.636230,1.652080
295.349121,353.027344,434.051514,1.652820
37.261963,328.582764,424.072266,1.653560
-8.331299,322.723389,401.367188,1.654310
122.222900,359.619141,398.529053,1.655051
194.183350,410.430908,368.499756,1.655791
87.707520,416.748047,358.337402,1.656532
-20.416260,417.755127,372.711182,1.657277
47.698975,410.064697,386.535645,1.658007
109.405518,457.580566,376.556396,1.658738
40.557861,516.082764,307.983398,1.659468
-39.459229,566.802979,273.284912,1.660212
69.030762,537.414551,226.593018,1.660942
280.334473,428.375244,274.749756,1.661672
372.985840,469.390869,291.961670,1.662403
-69.122314,378.387451,202.697754,1.663136
-165.893555,448.883057,182.281494,1.663876
370.239258,485.961914,220.001221,1.664617
303.314209,494.934082,204.254150,1.665358
-151.794434,469.024658,179.992676,1.666098
261.840820,408.691406,162.872314,1.666839
530.181885,479.461670,181.549072,1.667580
434.234619,541.900635,156.280518,1.668321
141.357422,443.389893,175.415039,1.669075
-1343.444824,123.046875,313.018799,1.669817
108.215332,267.425537,341.583252,1.670558
1181.121826,608.917236,152.526855,1.671299
703.857422,770.507812,64.910889,1.672049
19.500732,551.879883,25.909424,1.672791
473.693848,647.918701,168.182373,1.673531
957.824707,720.062256,194.824219,1.674272
531.188965,651.855469,141.632080,1.675021
608.276367,653.228760,158.843994,1.675762
1184.051514,718.688965,87.524414,1.676503
809.417725,729.766846,90.362549,1.677328
530.364990,627.502441,63.629150,1.678069
559.844971,618.713379,58.135986,1.678810
599.761963,648.010254,32.501221,1.679551
634.552002,634.460449,16.296387,1.680291
540.527344,609.100342,44.494629,1.681058
561.126709,625.488281,-41.381836,1.681800
418.853760,744.323730,-67.565918,1.682549
1006.439209,821.044922,-146.392822,1.683290
1148.529053,845.947266,-121.673584,1.684032
762.908936,780.853271,-128.265381,1.684772
645.812988,784.790039,-163.055420,1.685513
734.161377,826.171875,-162.689209,1.686254
571.563721,828.369141,-165.161133,1.686995
487.426758,831.024170,-144.653320,1.687735
531.372070,853.637695,-126.617432,1.688476
465.637207,896.575928,-151.336670,1.689217
406.768799,978.424072,-203.430176,1.689949
336.456299,1036.102295,-269.897461,1.690707
345.245361,1040.954590,-254.425049,1.691449
298.370361,1048.187256,-259.460449,1.692189
296.081543,1020.446777,-238.403320,1.692942
280.975342,1010.742188,-236.663818,1.693682
243.896484,1024.108887,-244.628906,1.694423
232.269287,1134.063721,-283.081055,1.695163
232.818604,1161.895752,-310.821533,1.695913
256.713867,1283.660889,-408.233643,1.696654
247.558594,1316.070557,-498.413086,1.697405
255.340576,1338.134766,-535.949707,1.698152
225.311279,1348.022461,-627.410889,1.698934
185.577393,1299.499512,-648.834229,1.699677
177.062988,1302.429199,-654.418945,1.700418
196.746826,1454.589844,-695.068359,1.701158
228.698730,1484.252930,-760.253906,1.701911
345.153809,1342.803955,-722.167969,1.702664
547.668457,1711.944580,-623.565674,1.703412
394.134521,1497.161865,-707.702637,1.704172
56.030273,1549.530029,-750.823975,1.704941
-1727.600098,1167.938232,-677.673340,1.705682
-2034.851074,1953.094482,-548.950195,1.706423
-35.339355,1768.981934,-528.533936,1.707164
866.912842,1767.517090,-428.558350,1.707913
363.098145,1937.347412,-362.548828,1.708654
-1722.839355,1895.141602,-143.737793,1.709395
-1473.175049,1721.466064,-1.373291,1.710135
594.818115,1891.113281,20.233154,1.710875
-547.027588,1824.096680,277.770996,1.711606
-1095.886230,1771.820068,368.408203,1.712337
-312.194824,1697.296143,407.135010,1.713068
-72.967529,1893.493652,573.028564,1.713825
-555.358887,1783.081055,645.263672,1.714569
-632.080078,1761.749268,742.492676,1.715310
-519.470215,1807.525635,803.833008,1.716051
-216.705322,1687.957764,825.805664,1.716804
-232.360840,1771.728516,932.739258,1.717545
-638.580322,1744.537354,990.600586,1.718286
-16.387939,1592.742920,1146.240234,1.719026
-363.006592,1834.259033,1320.190430,1.719777
-691.497803,1362.213135,1352.233887,1.720518
-389.373779,1773.284912,1368.713379,1.721259
-602.050781,1677.062988,1393.249512,1.722000
-606.994629,1763.580322,1370.910645,1.722740
-303.955078,1589.813232,1315.246582,1.723471
-645.538330,1473.175049,1299.682617,1.724202
-337.280273,1609.405518,1229.827881,1.724933
-548.767090,1605.560303,1215.270996,1.725705
-649.566650,1649.780273,1188.995361,1.726449
-602.600098,1652.893066,1150.360107,1.727190
-705.688477,1605.194092,1141.204834,1.727930
-601.776123,1642.089844,1132.141113,1.728680
-632.629395,1635.040283,1130.310059,1.729421
-658.264160,1594.299316,1130.950928,1.730162
-656.982422,1537.536621,1149.444580,1.730902
-651.123047,1518.859863,1171.417236,1.731643
-688.018799,1492.492676,1186.523438,1.732375
-686.462402,1436.370850,1192.749023,1.733106
-614.410400,1395.080566,1190.002441,1.733836
-476.531982,1376.129150,1168.395996,1.734592
-391.754150,1381.439209,1125.640869,1.735334
-188.415527,1381.347656,1104.675293,1.736074
-229.431152,1376.403809,1053.314209,1.736815
-197.296143,1369.903564,994.354248,1.737565
-158.020020,1363.769531,945.556641,1.738306
-173.583984,1331.451416,874.053955,1.739046
-157.196045,1319.549561,845.031738,1.739787
-176.239014,1273.773193,761.627197,1.740537
-161.041260,1268.280029,677.124023,1.741278
-200.958252,1238.800049,626.770020,1.742018
-212.127686,1183.959961,533.294678,1.742759
-209.197998,1177.368164,484.954834,1.743499
-225.128174,1146.606445,381.591797,1.744230
-286.468506,1104.766846,297.271729,1.744981
-265.136719,1100.738525,250.671387,1.745741
-288.940430,1051.666260,184.020996,1.746586
-258.544922,1046.722412,114.257812,1.747327
-276.214600,1029.876709,83.038330,1.748068
-281.616211,1020.172119,37.445068,1.748818
-241.607666,1014.862061,-17.028809,1.749559
-221.740723,1024.200439,-36.712646,1.750300
-282.440186,1048.004150,-89.172363,1.751041
-251.037598,1045.898438,-132.568359,1.751790
-200.683594,1094.879150,-132.659912,1.752522
-198.028564,1083.709717,-144.653320,1.753252
-196.746826,1068.054199,-141.174316,1.753982
-209.655762,1041.137695,-114.257812,1.754712
-237.030029,948.852539,-51.361084,1.755467
-208.557129,1016.876221,-15.014648,1.756208
-131.469727,1054.779053,11.077881,1.756948
-135.131836,1055.969238,23.620605,1.757688
98.693848,1162.170410,52.001953,1.758439
68.389893,1154.663086,105.194092,1.759180
147.216797,1202.178955,128.448486,1.759920
196.746826,1211.242676,149.688721,1.760661
79.467773,1190.551758,160.766602,1.761411
23.254395,1140.014648,166.351318,1.762152
105.743408,1132.141113,149.322510,1.762893
33.416748,1161.804199,149.139404,1.763634
207.458496,1135.986328,121.398926,1.764373
244.812012,1134.246826,112.976074,1.765104
258.361816,1076.293945,103.088379,1.765835
297.546387,1107.330322,67.016602,1.766565
235.107422,1124.267578,44.311523,1.767319
365.936279,1110.168457,-11.077881,1.768060
390.106201,1122.985840,-27.465820,1.768800
287.841797,1101.745605,-67.565918,1.769542
366.119385,1087.371826,-77.728271,1.770307
374.084473,1091.308594,-73.333740,1.771057
339.843750,1057.983398,-80.749512,1.771824
384.155273,1041.595459,-75.714111,1.772585
369.598389,1024.017334,-111.968994,1.773326
336.090088,1003.967285,-104.003906,1.774066
342.864990,1039.215088,-130.645752,1.774807
309.173584,1019.348145,-146.942139,1.775549
406.402588,1060.363770,-181.182861,1.776289
333.160400,1056.884766,-204.528809,1.777030
362.182617,1033.905029,-220.733643,1.777770
373.992920,1013.214111,-247.558594,1.778522
263.854980,1045.166016,-245.544434,1.779253
319.152832,996.185303,-259.643555,1.779983
237.854004,954.162598,-259.002686,1.780713
116.271973,967.346191,-262.115479,1.781456
100.616455,918.823242,-258.819580,1.782198
-53.741455,923.309326,-252.868652,1.782938
-71.044922,955.627441,-243.255615,1.783680
-25.543213,960.479736,-239.410400,1.784423
-99.517822,990.142822,-229.888916,1.785164
24.902344,1033.172607,-229.614258,1.785904
54.290771,1011.108398,-225.036621,1.786644
62.805176,1008.270264,-225.494385,1.787384
103.546143,1029.968262,-203.521729,1.788135
127.624512,1026.489258,-188.232422,1.788876
80.291748,996.093750,-166.442871,1.789616
74.523926,994.812012,-136.413574,1.790357
35.522461,995.727539,-135.772705,1.791097
17.395020,976.684570,-134.674072,1.791828
-4.119873,975.219727,-134.490967,1.792558
-18.218994,970.367432,-120.758057,1.793288
-21.423340,971.740723,-77.819824,1.794041
-208.190918,874.420166,229.888916,1.794782
541.900635,957.275391,17.211914,1.795541
47.698975,1051.116943,-178.802490,1.796320
63.354492,1050.018311,-12.542725,1.797069
573.577881,1088.562012,297.821045,1.797828
303.863525,1177.093506,477.722168,1.798573
-117.919922,1173.614502,606.628418,1.799314
192.077637,1232.391357,572.937012,1.800055
266.693115,1184.143066,463.806152,1.800796
34.790039,1113.555908,379.211426,1.801537
-52.185059,1142.944336,194.732666,1.802291
-53.466797,1116.210938,191.253662,1.803032
-60.974121,1070.983887,115.081787,1.803773
-159.301758,1045.623779,25.451660,1.804514
-125.061035,1009.552002,11.352539,1.805250
-98.693848,988.952637,-17.669678,1.805981
-132.934570,991.333008,-13.549805,1.806711
-40.191650,1001.037598,35.430908,1.807460
-57.403564,1006.988525,89.996338,1.808203
-208.465576,978.973389,79.559326,1.808945
-243.255615,971.466064,59.692383,1.809686
-208.374023,947.570801,32.043457,1.810426
-231.170654,964.691162,19.134521,1.811166
-126.983643,959.838867,-29.846191,1.811907
-149.597168,945.556641,-38.818359,1.812647
-172.943115,944.366455,-58.227539,1.813387
-216.064453,920.104980,-80.108643,1.814121
-423.614502,922.302246,-81.298828,1.814852
-549.499512,907.836914,-77.087402,1.815582
-371.246338,909.759521,74.340820,1.816340
1382.720947,1128.662109,119.750977,1.817181
2655.670166,1178.375244,355.773926,1.817923
1285.125732,999.664307,177.795410,1.818663
-868.835449,946.746826,250.305176,1.819404
-362.182617,906.005859,306.518555,1.820154
-14.099121,908.477783,220.367432,1.820895
391.479492,963.958740,191.619873,1.821635
373.168945,977.966309,134.490967,1.822376
240.234375,959.289551,111.419678,1.823120
85.784912,895.111084,39.733887,1.823850
1.190186,871.490479,-46.325684,1.824580
-78.460693,844.482422,-70.495605,1.825310
-85.235596,823.883057,-104.461670,1.826065
39.093018,821.228027,-117.919922,1.826806
128.082275,816.192627,-164.794922,1.827547
142.456055,800.262451,-195.556641,1.828288
99.151611,773.071289,-214.874268,1.829037
44.219971,734.985352,-245.727539,1.829778
1.281738,722.259521,-264.129639,1.830519
-39.093018,751.739502,-265.777588,1.831259
-136.230469,731.597900,-172.760010,1.832009
-223.571777,761.260986,-114.715576,1.832750
277.130127,806.396484,-52.825928,1.833490
563.232422,830.383301,-33.782959,1.834231
575.408936,826.538086,-46.508789,1.834971
377.105713,787.445068,-87.158203,1.835701
-0.915527,745.239258,-110.595703,1.836431
25.909424,708.160400,-189.239502,1.837162
133.026123,710.723877,-242.889404,1.837903
240.600586,715.942383,-274.475098,1.838643
231.262207,715.118408,-295.440674,1.839389
106.933594,701.202393,-310.638428,1.840134
42.114258,677.398682,-353.302002,1.840921
63.171387,667.053223,-373.535156,1.841668
90.911865,648.376465,-409.332275,1.842409
99.884033,626.129150,-481.567383,1.843150
128.265381,603.424072,-595.916748,1.843902
-265.502930,604.705811,-586.853027,1.844642
-786.895752,615.509033,-293.884277,1.845383
-185.943604,634.368896,-45.501709,1.846124
515.625000,793.121338,-6.774902,1.846863
567.443848,871.490479,-38.269043,1.847593
538.421631,874.969482,-84.136963,1.848323
401.641846,771.514893,-222.839355,1.849061
225.219727,700.286865,-329.315186,1.849838
-246.826172,691.864014,-364.105225,1.850589
-249.847412,738.922119,-427.917480,1.851347
19.866943,831.481934,-471.588135,1.852093
422.332764,844.482422,-516.723633,1.852854
276.123047,824.707031,-582.183838,1.853595
31.311035,798.065186,-717.041016,1.854336
-276.397705,791.839600,-790.924072,1.855078
201.141357,750.640869,-341.674805,1.855829
256.896973,735.717773,-153.717041,1.856570
-584.655762,861.053467,-82.397461,1.857311
-418.853760,1113.464355,-170.379639,1.858052
896.118164,1166.381836,-231.903076,1.858792
843.475342,1165.924072,-273.010254,1.859523
169.738770,1114.654541,-303.955078,1.860254
-638.214111,1063.385010,-317.596436,1.860985
-425.354004,1075.012207,-513.153076,1.861740
679.229736,1071.166992,-628.051758,1.862480
811.798096,1071.990967,-860.137939,1.863221
-148.590088,1013.946533,-432.312012,1.863963
-1390.869141,811.981201,-249.572754,1.864712
-1379.150391,956.634521,-137.878418,1.865453
123.504639,1091.583252,-157.379150,1.866194
1587.890625,1323.394775,-333.984375,1.866935
1313.690186,1249.053955,-357.879639,1.867685
-188.140869,1141.571045,-350.921631,1.868426
-39.916992,1223.510742,-290.222168,1.869167
923.034668,1038.024902,-98.876953,1.869908
694.335938,917.633057,-187.774658,1.870649
-655.059814,1003.875732,163.238525,1.871382
-1703.704834,1081.878662,155.639648,1.872113
-1104.766846,1094.146729,1.190186,1.872843
207.366943,1163.635254,-291.961670,1.873598
1988.250732,1376.312256,-385.894775,1.874339
1951.721191,1288.055420,-373.352051,1.875080
757.507324,1160.430908,-322.448730,1.875820
-335.906982,1040.222168,39.642334,1.876561
429.107666,1855.957031,1623.687744,1.877292
469.116211,2208.984375,1853.393555,1.878022
607.727051,2341.461182,2419.189453,1.878753
1239.898682,2521.728516,2131.713867,1.879503
1387.023926,2281.860352,1901.184082,1.880243
1807.708740,2261.535645,1756.530762,1.880982
2488.861084,2160.552979,1440.582275,1.881721
2165.405273,1695.922852,781.677246,1.882470
669.067383,1542.846680,408.691406,1.883211
-109.863281,1504.669189,-249.481201,1.883950
-399.444580,1352.142334,-758.239746,1.884690
-801.269531,914.245605,-870.574951,1.885439
-1695.373535,649.200439,-657.440186,1.886179
-2536.010742,537.963867,-272.644043,1.886918
-2950.836182,795.135498,127.166748,1.887741
-2403.717041,948.486328,335.723877,1.888491
-1850.830078,1053.588867,365.203857,1.889231
-551.788330,1225.524902,313.385010,1.889971
-244.445801,1242.553711,117.279053,1.890710
52.642822,1243.011475,10.528564,1.891458
322.357178,1144.592285,-253.967285,1.892198
331.512451,1062.103271,-401.733398,1.892937
243.988037,877.716064,-496.948242,1.893677
100.708008,642.517090,-750.183105,1.894425
-201.324463,554.626465,-870.391846,1.895165
-411.804199,494.018555,-1012.115479,1.895904
-501.251221,519.378662,-951.507568,1.896643
-532.836914,662.750244,-850.616455,1.897392
-452.728271,849.334717,-637.939453,1.898131
-181.549072,904.449463,-547.760010,1.898871
-5.676270,899.414062,-452.819824,1.899610
9.704590,904.541016,-478.179932,1.900362
-36.621094,894.744873,-488.159180,1.901102
-69.030762,919.189453,-440.917969,1.901841
-21.972656,918.823242,-366.577148,1.902581
94.024658,929.809570,-349.822998,1.903329
156.829834,947.204590,-375.640869,1.904069
284.454346,962.768555,-383.972168,1.904808
413.452148,966.339111,-340.576172,1.905547
442.382812,937.683105,-298.370361,1.906296
140.441895,955.627441,-191.802979,1.907036
-251.129150,944.641113,97.961426,1.907775
-544.555664,957.275391,157.196045,1.908514
-78.643799,1034.729004,115.905762,1.909263
196.105957,1070.983887,-51.818848,1.910006
386.444092,1075.836182,-152.984619,1.910787
146.667480,1048.736572,-258.087158,1.911533
13.183594,1011.566162,-278.869629,1.912303
-94.024658,1026.397705,-272.369385,1.913043
-144.470215,1020.904541,-260.009766,1.913782
-163.055420,1025.390625,-272.094727,1.914522
-154.541016,1044.525146,-285.461426,1.915270
-150.878906,971.649170,-381.134033,1.916010
-63.446045,943.084717,-430.114746,1.916749
112.518311,882.202148,-519.012451,1.917489
160.217285,838.165283,-615.509033,1.918229
343.688965,828.826904,-627.319336,1.918959
494.750977,836.425781,-637.756348,1.919708
501.159668,838.806152,-699.279785,1.920442
766.754150,878.540039,-653.869629,1.921202
891.082764,937.225342,-580.535889,1.921943
825.439453,936.767578,-606.903076,1.922684
120.300293,811.889648,-651.123047,1.923425
-351.104736,799.804688,-527.618408,1.924176
-1519.134521,795.318604,-266.693115,1.924919
-1602.905273,986.206055,123.687744,1.925660
-941.528320,1077.026367,189.331055,1.926401
971.740723,1472.900391,855.834961,1.927153
1593.109131,2001.525879,1791.229248,1.927894
1790.222168,2146.453857,1913.085938,1.928635
513.336182,2004.089355,1092.773438,1.929377
216.064453,1785.827637,299.194336,1.930120
404.479980,1412.109375,14.099121,1.930850
293.975830,1103.942871,-435.607910,1.931580
161.315918,1055.419922,-553.802490,1.932311
-187.225342,923.217773,-573.486328,1.933062
-54.016113,931.274414,-293.975830,1.933802
-359.527588,1031.799316,-330.413818,1.934542
-307.617188,1019.256592,-311.279297,1.935282
-94.207764,1026.580811,-308.441162,1.936032
-370.788574,979.888916,-503.906250,1.936773
-341.766357,946.563721,-476.623535,1.937512
-320.617676,972.839355,-536.865234,1.938252
-106.292725,980.346680,-519.653320,1.939001
67.749023,1048.004150,-396.972656,1.939741
23.437500,1090.667725,-375.000000,1.940481
156.463623,1125.915527,-343.139648,1.941221
56.671143,1123.809814,-367.309570,1.941969
99.517822,1095.886230,-450.164795,1.942708
-3.295898,1106.689453,-521.942139,1.943496
-71.044922,1098.083496,-460.601807,1.944272
-154.632568,1115.661621,-410.980225,1.945031
-298.370361,1158.233643,-436.706543,1.945790
-228.607178,1191.284180,-360.443115,1.946578
-311.737061,1198.425293,-375.457764,1.947340
-209.838867,1181.030273,-405.944824,1.948088
-108.673096,1172.973633,-392.303467,1.948837
-157.104492,1175.720215,-386.444092,1.949581
-137.512207,1194.305420,-359.985352,1.950314
-39.642334,1193.023682,-389.923096,1.951045
0.549316,1195.404053,-352.020264,1.951776
-40.557861,1230.468750,-307.617188,1.952507
-234.283447,1166.748047,-413.726807,1.953248
-171.478271,1154.022217,-396.240234,1.953990
-237.121582,1166.931152,-418.579102,1.954730
-6.225586,1167.388916,-393.035889,1.955471
-64.086914,1203.826904,-335.449219,1.956212
-73.699951,1132.781982,-425.262451,1.957037
54.107666,1107.147217,-467.559814,1.957779
-76.263428,1148.162842,-418.121338,1.958519
-109.497070,1131.774902,-320.526123,1.959275
-154.632568,1209.136963,-336.730957,1.960016
-53.009033,1198.516846,-363.555908,1.960757
-48.431396,1195.129395,-359.710693,1.961519
-185.668945,1158.782959,-395.599365,1.962298
-118.743896,1115.020752,-421.508789,1.963045
-13.732910,1148.712158,-380.218506,1.963802
-95.947266,1132.598877,-395.324707,1.964546
56.762695,1102.844238,-416.381836,1.965305
116.363525,1099.182129,-374.542236,1.966047
91.369629,1074.462891,-381.134033,1.966788
-64.270020,1031.890869,-460.601807,1.967528
-63.262939,1031.066895,-446.685791,1.968279
-9.429932,1052.856445,-410.980225,1.969020
19.775391,1046.997070,-400.360107,1.969761
58.319092,1016.510010,-406.219482,1.970502
72.967529,980.438232,-461.791992,1.971243
46.508789,971.923828,-467.010498,1.971973
-24.719238,979.980469,-433.227539,1.972704
-21.697998,993.530273,-441.192627,1.973434
10.803223,1009.826660,-410.247803,1.974190
28.381348,994.354248,-422.607422,1.974931
47.332764,982.910156,-443.389893,1.975671
37.536621,981.628418,-430.297852,1.976412
31.860352,955.444336,-466.918945,1.977166
15.197754,966.522217,-459.320068,1.977907
-14.556885,986.755371,-436.340332,1.978647
-15.289307,989.959717,-460.601807,1.979388
4.302979,981.719971,-466.552734,1.980141
28.747559,964.141846,-513.061523,1.980888
46.234131,950.225830,-481.658936,1.981636
76.171875,960.662842,-455.474854,1.982383
61.065674,981.903076,-384.246826,1.983147
56.762695,987.579346,-369.689941,1.983888
-130.462646,1011.108398,-417.755127,1.984628
-161.590576,1046.081543,-375.000000,1.985369
-77.178955,1050.750732,-385.345459,1.986120
4.760742,1004.699707,-389.648438,1.986861
103.179932,1017.608643,-354.675293,1.987636
98.693848,1021.087646,-326.934814,1.988387
7.507324,1043.701172,-380.401611,1.989158
-55.664062,1045.715332,-400.909424,1.989906
-127.166748,1044.067383,-397.521973,1.990648
-81.481934,1036.193848,-432.586670,1.991389
-54.840088,1022.186279,-416.564941,1.992145
4.852295,1030.609131,-420.043945,1.992886
5.218506,1024.566650,-426.086426,1.993636
-12.817383,1017.150879,-428.009033,1.994381
-72.692871,1025.756836,-432.220459,1.995122
-74.615479,1009.185791,-439.910889,1.995863
-87.707520,965.515137,-427.093506,1.996603
-27.832031,1002.136230,-566.894531,1.997355
-50.170898,1054.138184,-586.761475,1.998088
-40.557861,1067.413330,-517.456055,1.998818
-144.012451,1033.081055,-461.151123,1.999549
-52.459717,1045.440674,-469.390869,2.000280
-13.275146,1106.048584,-461.700439,2.001036
-36.071777,1134.063721,-481.018066,2.001777
-146.484375,1116.485596,-509.216309,2.002517
-204.345703,1110.534668,-538.879395,2.003259
-236.480713,1129.669189,-486.419678,2.004009
-213.226318,1169.586182,-461.975098,2.004750
-224.670410,1172.515869,-412.994385,2.005492
-215.698242,1194.213867,-442.382812,2.006232
-262.664795,1139.465332,-541.900635,2.006983
-253.326416,1118.774414,-543.548584,2.007724
-163.146973,1131.225586,-598.663330,2.008464
-116.821289,1153.198242,-499.328613,2.009205
-212.768555,1177.551270,-444.213867,2.009945
-295.715332,1194.854736,-370.605469,2.010676
-311.462402,1195.861816,-401.550293,2.011406
-338.195801,1163.177490,-432.128906,2.012137
-344.329834,1144.500732,-512.145996,2.012890
-332.336426,1118.957520,-549.865723,2.013630
-480.102539,1057.617188,-780.853271,2.014371
-529.815674,1034.820557,-811.065674,2.015112
-298.553467,1013.488770,-725.555420,2.015862
-308.258057,1019.531250,-702.850342,2.016603
-335.449219,1032.165527,-775.085449,2.017344
-362.274170,986.022949,-812.622070,2.018085
-371.704102,943.450928,-807.769775,2.018836
-482.025146,931.182861,-797.973633,2.019577
-537.872314,894.561768,-774.810791,2.020317
-546.936035,872.497559,-907.379150,2.021058
-621.734619,804.748535,-1052.673340,2.021807
-627.777100,717.956543,-1204.559326,2.022549
-622.558594,694.061279,-1211.242676,2.023290
-446.136475,738.372803,-1001.037598,2.024031
-420.501709,729.034424,-886.871338,2.024771
-292.419434,765.838623,-886.596680,2.025502
-448.425293,705.413818,-1174.896240,2.026232
-516.357422,663.391113,-1487.182617,2.027049
-585.845947,577.331543,-1669.738770,2.027803
-584.197998,475.250244,-1992.370605,2.028544
-580.627441,442.108154,-2012.878418,2.029285
-315.307617,476.348877,-1036.102295,2.030025
444.213867,600.860596,627.685547,2.030776
1235.961914,753.295898,643.341064,2.031516
595.001221,741.027832,-180.999756,2.032257
7.049561,708.801270,-760.620117,2.032998
-906.921387,527.984619,-1495.971680,2.033752
-1777.313232,347.900391,-1647.674561,2.034493
1262.512207,813.262939,455.657959,2.035234
994.537354,1011.291504,-0.640869,2.036009
-71.319580,762.451172,-1804.138184,2.036751
1334.381104,821.319580,-901.336670,2.037492
2999.908447,982.269287,538.787842,2.038232
2999.908447,523.956299,-776.092529,2.038982
1890.380859,340.484619,-1313.507080,2.039723
-1222.137451,150.787354,-1602.905273,2.040464
-2392.364502,181.915283,-1915.832520,2.041205
-3000.000000,312.011719,-2007.385254,2.041952
-3000.000000,525.329590,-1375.213623,2.042682
-1438.385010,560.302734,-614.776611,2.043413
1845.977783,765.380859,521.118164,2.044144
2631.500244,917.449951,626.953125,2.044890
2999.908447,1174.896240,678.771973,2.045631
2423.400879,905.181885,-119.293213,2.046372
263.397217,763.183594,-477.630615,2.047113
-1956.390381,576.049805,-720.794678,2.047859
-2443.359375,501.342773,-894.287109,2.048600
-2884.826660,425.811768,-1144.592285,2.049340
-2477.874756,294.799805,-1388.671875,2.050091
-2010.498047,215.698242,-1416.961670,2.050839
169.097900,257.720947,-1248.779297,2.051600
667.144775,-8.331299,-707.336426,2.052345
973.754883,295.166016,-549.682617,2.053086
856.933594,456.024170,-780.120850,2.053827
230.255127,282.073975,-1050.750732,2.054568
-886.138916,100.799561,-1045.898438,2.055308
92.559814,288.208008,-1222.595215,2.056049
54.840088,210.205078,-1178.009033,2.056790
-13.824463,300.750732,-1052.947998,2.057531
-474.060059,-1.647949,-512.969971,2.058272
-1521.881104,245.361328,-526.428223,2.059011
772.155762,706.146240,-1029.418945,2.059750
592.346191,686.370850,-819.122314,2.060491
697.082520,577.972412,-793.945312,2.061267
916.351318,565.612793,-803.192139,2.062019
1177.093506,604.339600,-410.156250,2.062797
2304.931641,677.215576,-84.777832,2.063545
915.435791,703.857422,-176.696777,2.064289
601.043701,649.475098,-847.320557,2.065030
1861.633301,1053.497314,-1181.396484,2.065791
698.272705,916.717529,-542.266846,2.066533
371.887207,768.951416,117.004395,2.067274
440.185547,925.598145,-36.987305,2.068015
821.685791,974.761963,-427.551270,2.068769
756.042480,894.744873,-622.741699,2.069510
1279.266357,1052.032471,-886.413574,2.070250
940.521240,983.642578,-226.684570,2.070991
99.517822,1010.925293,-36.346436,2.071732
380.859375,1093.048096,147.216797,2.072463
216.613770,1077.392578,-49.163818,2.073193
132.385254,1084.167480,-365.661621,2.073924
649.017334,1516.113281,128.173828,2.074680
733.337402,1472.076416,342.864990,2.075421
-284.454346,1374.755859,364.379883,2.076162
-28.015137,1354.339600,58.135986,2.076903
433.044434,1463.745117,-234.466553,2.077654
424.530029,1565.917969,88.806152,2.078396
-940.979004,1420.715332,509.307861,2.079136
-876.892090,1400.665283,803.833008,2.079877
-781.311035,1470.428467,682.891846,2.080629
-1364.593506,1565.917969,507.019043,2.081370
-635.101318,1605.468750,201.416016,2.082111
-511.138916,1578.186035,186.126709,2.082851
-585.296631,1435.729980,408.233643,2.083591
-391.021729,1560.974121,384.979248,2.084321
-279.327393,1679.077148,469.848633,2.085052
-109.588623,1840.850830,842.559814,2.085782
-7.873535,1903.839111,856.292725,2.086524
343.048096,1874.267578,874.694824,2.087265
434.600830,1853.210449,750.183105,2.088006
519.104004,1839.935303,633.636475,2.088747
478.546143,1753.784180,544.738770,2.089489
490.905762,1727.783203,480.834961,2.090230
477.722168,1683.471680,411.437988,2.090971
476.806641,1600.524902,330.688477,2.091712
478.088379,1529.663086,302.124023,2.092461
239.501953,1310.211182,150.695801,2.093202
61.523438,1193.206787,-168.731689,2.093943
-115.814209,992.431641,-291.687012,2.094684
-121.490479,821.136475,-496.398926,2.095425
-159.484863,736.358643,-703.674316,2.096243
-228.424072,613.128662,-774.353027,2.096975
-213.592529,597.015381,-718.414307,2.097705
-136.505127,626.312256,-661.926270,2.098459
3.204346,683.349609,-537.506104,2.099201
63.446045,702.301025,-463.165283,2.099941
126.068115,713.378906,-453.094482,2.100681
133.575439,663.024902,-473.052979,2.101422
110.321045,628.143311,-508.117676,2.102162
73.150635,541.809082,-582.183838,2.102903
68.389893,517.364502,-640.777588,2.103644
90.179443,500.610352,-647.369385,2.104384
128.173828,526.153564,-615.325928,2.105125
132.019043,546.295166,-597.198486,2.105865
104.461670,584.197998,-538.604736,2.106606
48.889160,609.375000,-516.082764,2.107382
16.113281,609.283447,-509.490967,2.108124
-4.486084,639.587402,-491.729736,2.108864
-9.155273,655.609131,-476.715088,2.109605
18.768311,652.770996,-479.827881,2.110354
60.699463,639.312744,-491.455078,2.111096
79.284668,613.220215,-514.343262,2.111836
104.461670,620.727539,-525.787354,2.112577
75.988770,620.635986,-533.843994,2.113317
66.558838,629.516602,-518.463135,2.114048
25.085449,637.939453,-512.420654,2.114778
6.500244,620.819092,-540.435791,2.115508
-15.563965,624.206543,-560.394287,2.116261
