ACC_X,ACC_Y,ACC_Z,Time
-319.244385,421.234131,867.553711,0.000207
-322.448730,417.480469,870.208740,0.000986
-321.990967,414.642334,871.215820,0.001733
-317.413330,415.008545,863.800049,0.002480
-312.469482,415.832520,855.743408,0.003225
-317.138672,419.586182,867.462158,0.003971
-321.899414,418.304443,870.849609,0.004716
-312.377930,416.839600,868.927002,0.005477
-312.927246,427.825928,861.053467,0.006223
-307.983398,415.649414,871.856689,0.006968
-308.441162,417.755127,866.088867,0.007713
-311.462402,422.332764,869.293213,0.008459
-312.652588,418.029785,870.483398,0.009194
-312.011719,422.149658,877.532959,0.009929
-309.173584,417.388916,881.378174,0.010664
-311.187744,420.501709,872.589111,0.011400
-319.610596,418.853760,867.828369,0.012167
-310.821533,424.438477,866.180420,0.012914
-301.940918,419.769287,873.321533,0.013658
-319.885254,417.480469,873.779297,0.014402
-316.131592,415.466309,877.624512,0.015147
-310.363770,417.938232,873.504639,0.015891
-317.138672,422.424316,874.694824,0.016634
-312.744141,418.762207,867.370605,0.017378
-306.518555,420.684814,870.758057,0.018138
-302.215576,411.071777,857.940674,0.018881
-303.314209,418.395996,864.807129,0.019625
-301.025391,416.015625,874.237061,0.020369
-305.328369,418.487549,865.447998,0.021114
-305.786133,415.740967,866.180420,0.021868
-304.595947,409.423828,867.187500,0.022605
-299.377441,425.994873,870.208740,0.023353
-305.786133,419.311523,865.264893,0.024093
-299.377441,422.790527,862.884521,0.024828
-307.342529,433.227539,875.701904,0.025563
-305.236816,431.121826,874.328613,0.026313
-300.567627,433.593750,873.779297,0.027058
-303.680420,436.981201,881.103516,0.027801
-298.187256,437.438965,879.364014,0.028544
-299.011230,438.720703,875.793457,0.029288
-295.349121,445.312500,876.068115,0.030031
-295.532227,436.340332,867.462158,0.030775
-298.736572,437.438965,872.772217,0.031519
-288.574219,432.586670,873.596191,0.032263
-288.940430,435.516357,872.955322,0.033007
-287.384033,435.058594,873.596191,0.033750
-280.517578,434.600830,865.081787,0.034493
-276.855469,440.460205,869.476318,0.035236
-277.954102,440.277100,870.208740,0.035990
-273.742676,439.819336,877.624512,0.036734
-266.876221,436.523438,871.215820,0.037477
-270.080566,446.960449,877.807617,0.038220
-274.658203,439.453125,881.469727,0.038974
-267.791748,439.178467,876.068115,0.039717
-270.446777,443.023682,876.983643,0.040461
-262.115479,440.643311,878.356934,0.041297
-265.045166,443.206787,877.624512,0.042066
-259.460449,440.734863,878.356934,0.042812
-256.896973,438.629150,878.814697,0.043558
-252.502441,433.319092,875.427246,0.044315
-253.143311,437.347412,877.807617,0.045061
-251.220703,443.115234,869.476318,0.045835
-256.622314,438.171387,885.864258,0.046582
-263.305664,439.544678,877.441406,0.047341
-257.812500,435.516357,878.723145,0.048129
-259.460449,440.002441,874.511719,0.048876
-258.636475,430.023193,870.574951,0.049635
-257.904053,428.649902,868.835449,0.050380
-256.072998,421.691895,866.912842,0.051125
-263.671875,430.023193,871.124268,0.051869
-267.700195,430.480957,869.384766,0.052614
-268.249512,425.354004,866.821289,0.053359
-256.805420,422.515869,865.081787,0.054103
-261.840820,425.811768,864.440918,0.054848
-267.517090,420.684814,864.532471,0.055592
-264.770508,425.994873,858.306885,0.056327
-270.080566,412.445068,855.010986,0.057061
-270.538330,418.945312,865.356445,0.057848
-276.580811,415.649414,860.961914,0.058592
-280.975342,423.339844,863.708496,0.059332
-283.447266,421.508789,857.666016,0.060117
-284.637451,414.184570,868.103027,0.060930
-284.545898,418.212891,862.243652,0.061717
-285.369873,414.733887,866.271973,0.062466
-290.679932,419.769287,869.110107,0.063209
-296.997070,410.339355,865.631104,0.063953
-298.278809,408.508301,861.785889,0.064711
-296.630859,411.254883,867.370605,0.065452
-305.786133,400.177002,851.531982,0.066199
-301.025391,396.057129,850.433350,0.067009
-307.434082,395.416260,845.672607,0.067785
-316.314697,391.937256,837.890625,0.068547
-313.110352,387.084961,838.165283,0.069305
-311.553955,383.514404,845.214844,0.070077
-305.145264,389.556885,848.602295,0.070843
-303.863525,380.676270,842.102051,0.071747
-302.490234,381.134033,845.581055,0.072532
-310.821533,395.416260,839.904785,0.073317
-306.518555,380.218506,842.376709,0.074119
-307.525635,384.063721,843.292236,0.074872
-307.617188,383.331299,836.791992,0.075628
-308.532715,391.937256,841.552734,0.076382
-307.067871,389.556885,845.947266,0.077193
-309.814453,386.352539,847.137451,0.077996
-309.814453,384.521484,845.855713,0.078753
-307.800293,383.331299,840.362549,0.079529
-306.701660,384.979248,844.848633,0.080279
-306.976318,390.014648,846.679688,0.081038
-305.236816,390.930176,846.588135,0.081800
-310.272217,387.542725,852.539062,0.082559
-319.061279,388.366699,838.623047,0.083311
-310.455322,379.028320,842.468262,0.084061
-315.765381,385.528564,840.637207,0.084896
-309.448242,380.950928,837.615967,0.085705
-286.102295,380.859375,837.066650,0.086515
-306.335449,384.338379,841.461182,0.087357
-306.152344,375.000000,838.897705,0.088141
-287.109375,375.091553,828.826904,0.088899
-304.504395,371.887207,826.446533,0.089696
-304.412842,371.612549,830.474854,0.090456
-300.567627,374.084473,837.158203,0.091235
-303.405762,371.704102,835.235596,0.092014
-298.278809,372.985840,827.728271,0.092823
-288.665771,374.084473,836.517334,0.093588
-291.137695,368.041992,828.918457,0.094343
-298.095703,364.746094,828.826904,0.095089
-294.525146,365.020752,826.446533,0.095867
-291.961670,367.401123,833.404541,0.096622
-294.250488,366.577148,839.355469,0.097366
-281.616211,366.851807,837.982178,0.098107
-282.806396,368.591309,829.010010,0.098909
-286.560059,365.112305,831.573486,0.099673
-278.869629,370.239258,832.855225,0.100418
-280.151367,364.288330,842.468262,0.101160
-283.264160,359.893799,833.038330,0.101901
-280.059814,367.218018,838.531494,0.102642
-278.686523,367.218018,836.608887,0.103383
-275.299072,370.330811,835.144043,0.104125
-270.538330,363.372803,837.158203,0.104866
-275.390625,361.724854,832.305908,0.105607
-271.545410,367.584229,843.383789,0.106349
-270.080566,362.915039,845.489502,0.107101
-263.854980,354.492188,842.376709,0.107843
-259.918213,358.245850,841.552734,0.108586
-257.446289,363.922119,848.144531,0.109327
-256.347656,357.971191,841.644287,0.110069
-251.037598,363.922119,840.087891,0.110828
-249.206543,367.492676,844.390869,0.111579
-247.192383,368.865967,851.165771,0.112333
-246.002197,374.267578,845.855713,0.113092
-249.298096,367.858887,851.074219,0.113850
-247.467041,363.372803,852.722168,0.114605
-249.206543,367.126465,846.038818,0.115360
-239.593506,396.423340,852.630615,0.116118
-245.819092,377.563477,850.524902,0.116864
-248.382568,376.739502,854.919434,0.117609
-248.291016,373.443604,853.179932,0.118350
-245.361328,380.676270,850.708008,0.119111
-249.664307,375.732422,860.321045,0.119852
-234.100342,373.901367,859.130859,0.120594
-241.790771,385.986328,861.145020,0.121340
-239.044189,381.683350,860.687256,0.122132
-236.846924,378.662109,863.525391,0.122891
-240.509033,385.803223,860.504150,0.123646
-244.537354,376.281738,870.483398,0.124390
-239.868164,382.507324,868.011475,0.125167
-235.473633,385.345459,866.638184,0.125909
-240.142822,382.141113,870.117188,0.126650
-239.501953,390.289307,865.722656,0.127392
-241.058350,387.359619,861.602783,0.128134
-241.149902,383.789062,867.187500,0.128865
-241.516113,387.268066,863.525391,0.129597
-237.579346,386.260986,871.856689,0.130328
-236.755371,385.620117,865.722656,0.131073
-242.614746,383.514404,863.433838,0.131804
-242.340088,377.929688,862.884521,0.132535
-241.790771,379.394531,861.694336,0.133267
-244.262695,378.387451,861.877441,0.134020
-242.523193,380.767822,864.898682,0.134760
-240.234375,382.141113,855.194092,0.135499
-249.755859,376.373291,852.722168,0.136240
-247.467041,376.098633,855.743408,0.136992
-239.318848,395.874023,859.497070,0.137732
-247.741699,368.225098,860.321045,0.138471
-249.938965,366.943359,856.842041,0.139211
-249.114990,368.408203,857.757568,0.139958
-254.058838,372.711182,857.025146,0.140696
-259.643555,375.183105,856.292725,0.141433
-257.263184,371.429443,856.842041,0.142181
-254.882812,371.246338,854.736328,0.142939
-253.234863,374.725342,854.278564,0.143757
-251.953125,376.739502,856.658936,0.144490
-258.636475,371.704102,858.398438,0.145220
-258.728027,368.133545,859.497070,0.145968
-261.199951,371.337891,843.841553,0.146700
-266.418457,373.809814,854.095459,0.147431
-265.960693,359.619141,862.152100,0.148162
-265.777588,372.985840,853.546143,0.148905
-262.573242,371.612549,846.679688,0.149637
-264.770508,367.584229,848.876953,0.150369
-266.876221,372.436523,851.257324,0.151099
-265.594482,376.190186,859.405518,0.151861
-265.686035,373.260498,856.658936,0.152602
-269.897461,372.344971,858.123779,0.153343
-276.947021,377.380371,860.504150,0.154085
-266.784668,377.014160,853.820801,0.154826
-265.136719,386.077881,856.475830,0.155557
-263.397217,380.126953,860.412598,0.156289
-261.657715,382.415771,854.370117,0.157020
-257.080078,383.789062,859.771729,0.157772
-265.411377,383.880615,858.306885,0.158512
-267.791748,387.451172,860.595703,0.159252
-274.658203,383.331299,852.355957,0.159992
-269.165039,386.444092,858.123779,0.160742
-279.327393,385.894775,861.236572,0.161482
-269.897461,386.444092,860.870361,0.162222
-263.946533,393.676758,864.440918,0.162963
-264.221191,390.289307,861.053467,0.163725
-263.122559,392.120361,863.800049,0.164472
-268.890381,395.050049,860.595703,0.165238
-261.199951,405.029297,861.968994,0.165986
-264.404297,400.177002,862.426758,0.166745
-274.475098,397.430420,859.039307,0.167487
-267.883301,379.760742,858.764648,0.168228
-265.045166,395.233154,866.180420,0.168968
-265.411377,398.712158,860.961914,0.169721
-267.333984,399.078369,862.060547,0.170471
-267.425537,397.979736,860.046387,0.171243
-259.826660,406.036377,863.800049,0.171991
-264.678955,408.508301,867.462158,0.172752
-260.009766,398.712158,863.525391,0.173495
-267.974854,403.930664,863.342285,0.174235
-262.023926,411.437988,869.567871,0.174975
-260.284424,406.494141,861.419678,0.175714
-267.242432,414.642334,867.004395,0.176453
-267.333984,409.606934,873.321533,0.177194
-263.397217,415.557861,871.765137,0.177956
-266.418457,420.135498,872.497559,0.178696
-259.460449,422.332764,871.215820,0.179436
-262.847900,422.515869,873.779297,0.180177
-265.045166,422.058105,876.708984,0.180919
-268.524170,416.564941,881.744385,0.181659
-267.791748,431.488037,881.286621,0.182399
-271.087646,427.459717,872.772217,0.183139
-264.404297,428.466797,881.286621,0.183891
-272.003174,432.678223,883.575439,0.184631
-269.073486,441.192627,889.984131,0.185372
-266.967773,428.649902,887.237549,0.186112
-269.348145,429.199219,887.786865,0.186883
-279.876709,428.009033,886.962891,0.187629
-273.925781,424.163818,879.089355,0.188370
-275.573730,431.213379,876.159668,0.189111
-272.827148,429.382324,875.518799,0.189868
-268.890381,426.452637,883.758545,0.190610
-275.207520,423.797607,883.300781,0.191351
-278.686523,422.607422,877.990723,0.192093
-278.686523,420.135498,873.046875,0.192845
-274.475098,420.318604,873.413086,0.193587
-278.869629,421.051025,876.251221,0.194331
-276.489258,414.825439,873.870850,0.195073
-277.770996,399.719238,876.159668,0.195825
-280.151367,414.642334,866.821289,0.196566
-283.264160,417.663574,868.011475,0.197308
-270.263672,419.952393,844.848633,0.198049
-279.235840,409.423828,871.032715,0.198790
-285.278320,413.085938,870.574951,0.199521
-288.665771,411.712646,874.145508,0.200252
-287.567139,410.797119,867.645264,0.200983
-284.179688,399.993896,867.553711,0.201736
-282.348633,407.867432,873.413086,0.202477
-287.017822,404.846191,865.722656,0.203218
-291.687012,403.289795,861.968994,0.203958
-286.834717,402.374268,869.384766,0.204708
-287.200928,404.937744,866.729736,0.205449
-281.799316,409.881592,869.934082,0.206189
-286.743164,403.839111,864.257812,0.206929
-292.602539,399.536133,883.026123,0.207682
-295.532227,403.015137,866.455078,0.208423
-294.250488,411.437988,865.722656,0.209164
-284.820557,398.254395,869.842529,0.209905
-294.525146,403.289795,867.279053,0.210653
-287.567139,408.233643,861.602783,0.211394
-298.645020,412.536621,865.264893,0.212135
-294.799805,407.592773,870.391846,0.212876
-305.053711,407.043457,871.948242,0.213626
-296.356201,410.247803,871.398926,0.214367
-301.849365,415.649414,869.384766,0.215196
-293.609619,416.656494,863.800049,0.215937
-294.158936,421.508789,871.765137,0.216691
-294.982910,419.128418,877.807617,0.217433
-293.792725,422.424316,877.624512,0.218173
-292.419434,419.586182,873.229980,0.218913
-295.532227,417.572021,889.801025,0.219664
-292.144775,423.065186,878.723145,0.220405
-289.123535,425.079346,874.603271,0.221146
-287.109375,424.987793,876.708984,0.221888
-287.292480,415.466309,874.420166,0.222644
-295.806885,406.585693,873.229980,0.223385
-291.046143,412.719727,866.088867,0.224125
-292.602539,414.459229,863.250732,0.224866
-291.778564,409.790039,863.342285,0.225616
-284.820557,412.261963,858.123779,0.226357
-285.461426,406.860352,865.081787,0.227097
-286.743164,409.149170,864.715576,0.227838
-286.651611,406.311035,864.715576,0.228588
-287.017822,407.135010,861.328125,0.229328
-283.081055,411.163330,867.462158,0.230068
-278.594971,408.508301,857.940674,0.230808
-274.749756,406.494141,859.954834,0.231558
-277.496338,406.036377,858.581543,0.232300
-276.580811,411.529541,858.215332,0.233042
-278.778076,407.226562,865.539551,0.233782
-278.594971,402.923584,865.356445,0.234535
-274.017334,402.557373,866.271973,0.235276
-281.158447,406.585693,859.680176,0.236019
-278.320312,404.479980,861.145020,0.236786
-281.982422,400.543213,864.074707,0.237562
-272.827148,410.797119,859.313965,0.238305
-275.024414,406.768799,861.236572,0.239045
-265.777588,402.557373,863.708496,0.239786
-264.221191,407.409668,865.722656,0.240537
-262.573242,402.832031,862.884521,0.241278
-264.129639,403.747559,859.588623,0.242018
-263.305664,408.966064,863.616943,0.242759
-263.214111,409.698486,869.567871,0.243509
-257.171631,412.078857,871.215820,0.244250
-255.523682,412.536621,867.919922,0.244996
-255.615234,418.304443,867.462158,0.245784
-255.981445,414.001465,871.490479,0.246533
-258.911133,410.339355,874.603271,0.247299
-260.009766,412.078857,870.758057,0.248048
-259.552002,417.846680,869.659424,0.248789
-258.178711,420.684814,872.497559,0.249530
-257.904053,414.733887,862.518311,0.250271
-255.065918,420.318604,869.842529,0.251012
-254.058838,417.297363,872.314453,0.251754
-257.537842,416.931152,865.997314,0.252497
-266.693115,419.769287,868.194580,0.253238
-261.657715,423.156738,868.927002,0.253980
-264.678955,429.656982,868.377686,0.254723
-262.756348,428.558350,869.018555,0.255465
-258.270264,424.804688,873.504639,0.256206
-255.615234,427.459717,865.631104,0.256948
-237.030029,431.945801,875.061035,0.257702
-263.305664,434.509277,874.786377,0.258444
-269.439697,430.389404,868.377686,0.259185
-270.446777,431.945801,867.370605,0.259927
-265.777588,428.833008,865.997314,0.260678
-268.341064,439.270020,870.849609,0.261419
-268.981934,435.241699,866.912842,0.262161
-268.341064,432.403564,863.067627,0.262902
-272.918701,432.952881,869.384766,0.263652
-272.003174,434.234619,868.103027,0.264394
-275.665283,436.706543,867.279053,0.265135
-276.580811,430.023193,871.032715,0.265877
-273.559570,435.974121,869.293213,0.266621
-274.749756,435.241699,868.927002,0.267362
-275.115967,442.291260,876.617432,0.268102
-272.918701,438.446045,869.842529,0.268843
-273.559570,432.952881,860.229492,0.269594
-277.770996,434.143066,862.609863,0.270336
-275.115967,444.396973,870.025635,0.271076
-280.609131,432.769775,875.244141,0.271817
-278.686523,440.185547,870.758057,0.272552
-274.383545,442.016602,870.941162,0.273283
-279.327393,443.389893,871.673584,0.274014
-284.454346,444.946289,874.511719,0.274745
-284.271240,437.347412,869.842529,0.275483
-282.073975,450.164795,871.673584,0.276224
-282.257080,446.594238,873.138428,0.276964
-278.137207,453.277588,873.046875,0.277704
-277.221680,442.932129,873.413086,0.278444
-279.510498,467.742920,878.997803,0.279184
-282.897949,449.523926,883.483887,0.279925
-260.467529,450.256348,876.525879,0.280668
-280.700684,442.016602,873.687744,0.281419
-282.806396,452.270508,877.624512,0.282162
-274.108887,446.868896,875.976562,0.282902
-273.834229,448.150635,878.814697,0.283643
-273.193359,444.213867,881.652832,0.284383
-274.200439,452.178955,876.983643,0.285124
-283.447266,448.791504,877.624512,0.285957
-281.524658,446.044922,881.286621,0.286699
-277.313232,445.495605,884.216309,0.287459
-277.954102,443.115234,878.356934,0.288197
-270.812988,446.960449,883.026123,0.288935
-276.397705,443.206787,884.490967,0.289673
-271.362305,441.741943,874.420166,0.290447
-271.911621,444.488525,873.779297,0.291182
-272.460938,444.122314,876.983643,0.291913
-270.721436,435.516357,875.061035,0.292644
-273.468018,437.713623,869.750977,0.293387
-269.714355,437.072754,875.427246,0.294119
-266.967773,428.558350,873.138428,0.294849
-267.333984,435.974121,864.257812,0.295580
-264.312744,432.037354,863.250732,0.296322
-267.974854,429.107666,864.257812,0.297053
-262.298584,435.058594,866.729736,0.297784
-267.608643,429.382324,867.095947,0.298515
-266.235352,423.797607,872.131348,0.299271
-272.918701,422.149658,865.814209,0.300013
-276.763916,426.544189,867.462158,0.300754
-272.277832,422.790527,844.390869,0.301496
-268.157959,426.544189,862.976074,0.302255
-268.707275,428.649902,862.243652,0.303010
-268.524170,430.023193,867.553711,0.303752
-262.115479,426.544189,862.976074,0.304493
-264.221191,438.995361,870.666504,0.305245
-266.510010,425.994873,865.722656,0.305987
-270.080566,422.149658,861.419678,0.306728
-262.664795,423.248291,867.095947,0.307470
-271.087646,416.107178,859.863281,0.308241
-266.693115,423.065186,862.335205,0.308989
-266.418457,427.917480,866.638184,0.309756
-261.749268,425.811768,866.180420,0.310503
-271.362305,418.853760,871.124268,0.311266
-260.833740,406.219482,862.518311,0.312011
-270.172119,425.170898,864.440918,0.312756
-270.721436,425.903320,865.814209,0.313508
-269.714355,435.424805,866.638184,0.314291
-275.482178,431.488037,863.342285,0.315080
-270.172119,423.797607,886.322021,0.315847
-269.439697,422.790527,871.765137,0.316631
-272.369385,425.811768,863.433838,0.317398
-270.629883,428.924561,860.504150,0.318175
-270.263672,431.854248,862.609863,0.318975
-270.629883,425.354004,853.088379,0.319756
-272.735596,423.248291,856.933594,0.320531
-269.348145,426.544189,857.025146,0.321314
-269.897461,418.487549,860.137939,0.322108
-274.017334,418.121338,858.856201,0.322901
-279.693604,413.635254,851.348877,0.323721
-280.151367,423.614502,860.046387,0.324481
-272.003174,435.516357,856.475830,0.325260
-277.038574,419.128418,854.095459,0.326003
-280.883789,424.072266,848.510742,0.326744
-267.974854,423.706055,846.405029,0.327485
-278.503418,419.677734,855.560303,0.328236
-279.418945,418.487549,850.250244,0.328978
-282.623291,413.909912,853.637695,0.329719
-277.862549,423.706055,853.912354,0.330460
-274.383545,421.234131,859.222412,0.331211
-276.397705,420.501709,853.912354,0.331952
-274.200439,423.248291,855.560303,0.332693
-275.756836,423.980713,852.905273,0.333435
-276.214600,414.367676,856.842041,0.334187
-277.587891,414.550781,852.539062,0.334929
-274.108887,420.135498,855.468750,0.335670
-269.714355,422.515869,855.926514,0.336410
-272.827148,429.473877,856.658936,0.337163
-270.172119,429.382324,857.391357,0.337906
-266.967773,431.304932,859.222412,0.338647
-268.066406,435.882568,858.947754,0.339388
-267.242432,431.488037,862.335205,0.340143
-260.009766,427.368164,861.053467,0.340909
-255.432129,421.325684,868.103027,0.341658
-254.516602,443.756104,871.673584,0.342400
-257.720947,435.058594,863.433838,0.343141
-251.495361,438.171387,874.511719,0.343882
-254.058838,442.016602,872.406006,0.344623
-258.819580,442.474365,874.328613,0.345365
-259.552002,438.629150,874.328613,0.346106
-254.333496,445.129395,867.462158,0.346847
-257.263184,449.707031,871.673584,0.347588
-255.523682,445.953369,880.462646,0.348328
-253.875732,447.692871,873.687744,0.349059
-256.347656,446.044922,873.321533,0.349790
-252.868652,449.157715,877.716064,0.350520
-252.502441,453.277588,882.659912,0.351259
-257.446289,456.939697,880.004883,0.352000
-257.537842,456.665039,879.638672,0.352741
-263.488770,455.200195,883.483887,0.353483
-254.241943,453.643799,869.567871,0.354225
-261.108398,445.220947,874.511719,0.354966
-263.671875,445.587158,869.293213,0.355707
-259.460449,450.256348,872.131348,0.356448
-260.559082,441.284180,871.490479,0.357282
-262.298584,443.206787,864.349365,0.358026
-255.981445,447.235107,862.884521,0.358767
-263.122559,439.178467,863.067627,0.359508
-267.700195,443.939209,868.652344,0.360249
-268.157959,439.636230,859.405518,0.360990
-267.608643,434.417725,862.609863,0.361731
-269.622803,435.699463,865.356445,0.362472
-261.932373,431.213379,862.884521,0.363213
-266.326904,433.227539,862.243652,0.363954
-262.023926,425.354004,860.595703,0.364696
-256.347656,427.734375,855.834961,0.365437
-261.291504,430.938721,852.996826,0.366178
-262.939453,431.030273,854.553223,0.366920
-269.348145,423.522949,854.278564,0.367661
-270.721436,421.508789,852.081299,0.368402
-269.439697,415.740967,852.172852,0.369141
-270.812988,414.367676,843.841553,0.369881
-263.763428,422.973633,847.320557,0.370623
-270.263672,413.818359,848.693848,0.371364
-263.763428,418.121338,851.440430,0.372107
-272.369385,417.480469,848.693848,0.372848
-274.017334,413.909912,850.708008,0.373589
-277.404785,417.663574,856.842041,0.374330
-271.453857,414.093018,853.637695,0.375088
-269.805908,410.980225,849.700928,0.375830
-274.200439,408.599854,854.187012,0.376571
-277.954102,412.170410,846.954346,0.377312
-281.982422,419.311523,850.067139,0.378062
-274.932861,412.902832,854.003906,0.378810
-273.284912,413.269043,852.722168,0.379580
-279.968262,414.276123,849.792480,0.380332
-274.017334,410.430908,854.095459,0.381079
-277.038574,406.585693,853.729248,0.381819
-273.742676,407.226562,859.130859,0.382559
-277.313232,405.120850,856.109619,0.383299
-273.284912,405.578613,847.595215,0.384039
-277.404785,405.670166,842.376709,0.384809
-275.299072,407.409668,840.820312,0.385561
-269.714355,402.648926,845.855713,0.386326
-269.989014,400.177002,842.285156,0.387099
-270.538330,405.212402,848.327637,0.387841
-275.207520,407.135010,846.130371,0.388583
-271.453857,407.775879,850.799561,0.389324
-272.369385,405.120850,851.074219,0.390076
-271.270752,402.282715,843.566895,0.390817
-275.115967,408.508301,849.243164,0.391557
-274.475098,405.578613,847.412109,0.392298
-270.446777,410.156250,843.933105,0.393049
-272.827148,412.811279,843.475342,0.393791
-274.108887,410.156250,857.482910,0.394534
-265.869141,409.606934,849.700928,0.395275
-275.756836,407.684326,848.144531,0.396030
-263.122559,405.395508,855.194092,0.396774
-268.615723,414.184570,856.842041,0.397515
-266.510010,414.916992,857.025146,0.398256
-274.566650,410.522461,852.813721,0.399009
-272.552490,411.804199,855.468750,0.399750
-269.256592,405.120850,848.876953,0.400492
-263.580322,411.804199,853.088379,0.401233
-265.686035,408.691406,844.757080,0.401984
-264.312744,409.057617,857.757568,0.402725
-263.397217,412.719727,852.081299,0.403467
-259.735107,414.001465,855.834961,0.404208
-265.411377,412.994385,846.313477,0.404959
-270.812988,405.395508,851.074219,0.405700
-267.883301,412.170410,854.370117,0.406440
-259.552002,413.909912,854.187012,0.407180
-264.770508,419.952393,861.328125,0.407931
-254.241943,416.198730,855.560303,0.408673
-254.425049,416.839600,848.693848,0.409413
-259.460449,419.128418,856.567383,0.410154
-237.030029,415.466309,847.961426,0.410904
-253.784180,410.705566,849.151611,0.411646
-260.650635,424.163818,852.447510,0.412387
-259.643555,416.473389,858.032227,0.413128
-263.031006,421.234131,861.968994,0.413868
-255.889893,427.276611,857.574463,0.414600
-258.361816,426.635742,861.968994,0.415330
-254.516602,425.170898,862.335205,0.416062
-259.277344,429.840088,863.891602,0.416829
-253.875732,425.811768,863.525391,0.417578
-257.720947,426.544189,861.877441,0.418318
-257.080078,432.495117,866.546631,0.419058
-259.368896,428.924561,870.025635,0.419813
-237.579346,432.586670,871.307373,0.420554
-252.868652,431.762695,863.616943,0.421294
-260.192871,421.875000,866.180420,0.422034
-253.509521,423.889160,870.941162,0.422784
-257.446289,428.833008,873.596191,0.423524
-251.861572,423.980713,868.469238,0.424265
-255.249023,425.445557,844.390869,0.425008
-254.699707,422.607422,859.405518,0.425761
-252.227783,423.980713,869.110107,0.426502
-257.812500,412.078857,857.666016,0.427241
-254.882812,419.311523,862.792969,0.427982
-276.947021,420.776367,855.010986,0.428856
-247.650146,423.156738,863.342285,0.429597
-245.727539,409.881592,853.820801,0.430337
-249.938965,416.015625,855.377197,0.431077
-257.354736,414.367676,853.820801,0.431828
-252.410889,404.296875,856.658936,0.432568
-250.488281,403.747559,858.032227,0.433308
-250.122070,408.142090,850.433350,0.434049
-256.256104,408.508301,858.764648,0.434799
-248.657227,408.966064,848.419189,0.435539
-248.474121,399.261475,853.912354,0.436279
-252.044678,395.874023,858.764648,0.437019
-251.312256,404.571533,855.651855,0.437777
-240.692139,406.677246,859.039307,0.438512
-249.481201,396.240234,850.341797,0.439243
-246.734619,404.846191,855.285645,0.439975
-247.833252,393.402100,850.982666,0.440707
-250.946045,398.071289,851.531982,0.441438
-243.988037,395.507812,855.377197,0.442169
-250.946045,404.937744,850.250244,0.442899
-248.382568,402.465820,848.968506,0.443641
-246.002197,396.240234,857.482910,0.444372
-248.474121,400.268555,857.025146,0.445103
-243.164062,397.888184,859.313965,0.445834
-244.903564,402.923584,854.370117,0.446577
-238.952637,402.923584,860.046387,0.447307
-244.628906,411.987305,853.912354,0.448038
-244.995117,399.810791,863.525391,0.448769
-239.044189,408.782959,862.426758,0.449525
-237.670898,406.127930,862.884521,0.450282
-235.656738,409.606934,845.123291,0.451030
-240.417480,413.543701,868.652344,0.451797
-241.333008,416.015625,862.701416,0.452544
-241.149902,421.234131,859.497070,0.453284
-236.206055,408.233643,854.644775,0.454025
-236.206055,412.811279,867.095947,0.454766
-240.234375,414.276123,864.349365,0.455507
-238.220215,418.670654,867.919922,0.456248
-240.966797,414.184570,866.638184,0.456988
-237.945557,417.205811,863.525391,0.457770
-241.607666,416.839600,857.940674,0.458528
-257.720947,423.431396,869.201660,0.459286
-230.163574,421.508789,868.011475,0.460044
-235.565186,425.628662,875.061035,0.460807
-232.727051,432.312012,868.469238,0.461550
-235.931396,430.480957,867.279053,0.462291
-231.353760,431.488037,864.074707,0.463032
-231.719971,428.009033,866.638184,0.463783
-238.403320,432.037354,890.350342,0.464526
-241.973877,433.227539,875.976562,0.465268
-241.973877,436.065674,872.772217,0.466011
-239.959717,435.974121,874.969482,0.466764
-247.650146,437.072754,872.406006,0.467506
-244.995117,440.368652,876.342773,0.468248
-238.403320,438.446045,872.497559,0.468989
-239.135742,435.333252,876.708984,0.469740
-245.178223,436.981201,874.603271,0.470481
-246.551514,437.530518,877.624512,0.471223
-244.628906,432.403564,874.694824,0.471964
-240.875244,435.974121,875.793457,0.472715
-243.804932,438.354492,868.560791,0.473456
-245.452881,435.882568,871.032715,0.474197
-254.425049,434.875488,876.708984,0.474938
-251.586914,442.291260,869.293213,0.475688
-250.305176,439.544678,874.786377,0.476430
-254.058838,439.544678,879.455566,0.477171
-255.706787,442.199707,879.089355,0.477913
-261.566162,431.671143,869.384766,0.478664
-256.072998,430.297852,872.222900,0.479405
-253.234863,431.945801,868.560791,0.480145
-266.326904,438.812256,869.934082,0.480886
-266.326904,441.650391,869.476318,0.481636
-262.207031,438.446045,872.222900,0.482377
-263.305664,442.749023,863.983154,0.483118
-268.066406,442.199707,890.533447,0.483859
-266.784668,432.952881,867.095947,0.484600
-271.179199,439.910889,869.018555,0.485331
-269.439697,442.199707,871.398926,0.486062
-274.200439,446.960449,876.983643,0.486793
-275.207520,443.023682,867.095947,0.487544
-274.749756,446.868896,871.124268,0.488285
-281.524658,446.594238,873.596191,0.489025
-281.707764,451.812744,875.244141,0.489764
-279.144287,446.594238,879.547119,0.490513
-276.763916,447.418213,887.054443,0.491253
-286.193848,446.228027,882.385254,0.491994
-287.841797,447.143555,875.061035,0.492736
-274.749756,457.763672,877.441406,0.493488
-282.165527,443.481445,882.568359,0.494229
-292.877197,448.242188,874.969482,0.494969
-288.208008,443.389893,867.462158,0.495709
-287.658691,448.516846,870.391846,0.496459
-288.482666,451.263428,872.406006,0.497200
-283.447266,450.897217,864.990234,0.497940
-287.933350,456.665039,865.539551,0.498680
-291.961670,456.939697,866.271973,0.499520
-287.658691,450.256348,864.349365,0.500261
-288.024902,450.714111,866.271973,0.501001
-298.553467,454.833984,861.511230,0.501741
-291.595459,453.186035,865.814209,0.502490
-296.356201,445.678711,872.131348,0.503230
-299.926758,450.622559,861.236572,0.503971
-293.243408,451.538086,863.250732,0.504711
-299.652100,452.087402,865.356445,0.505462
-292.053223,444.671631,859.497070,0.506202
-294.891357,446.228027,857.574463,0.506944
-295.989990,445.861816,869.110107,0.507685
-294.891357,443.115234,863.525391,0.508440
-293.426514,444.122314,859.680176,0.509184
-305.786133,436.981201,856.292725,0.509925
-325.469971,433.685303,850.250244,0.510666
-305.694580,439.636230,853.271484,0.511422
-305.786133,434.417725,853.546143,0.512162
-308.441162,442.840576,855.834961,0.512903
-295.806885,441.833496,862.243652,0.513643
-303.405762,437.622070,854.461670,0.514393
-302.581787,438.812256,853.088379,0.515133
-304.046631,427.185059,852.355957,0.515873
-310.729980,431.121826,858.581543,0.516613
-298.736572,435.791016,866.455078,0.517363
-303.222656,428.649902,859.497070,0.518103
-303.039551,435.058594,861.145020,0.518843
-302.032471,431.121826,861.236572,0.519582
-303.863525,428.192139,856.658936,0.520332
-312.561035,422.332764,851.257324,0.521075
-304.504395,430.389404,854.003906,0.521824
-312.103271,432.952881,848.052979,0.522571
-306.152344,439.636230,855.926514,0.523359
-300.750732,435.150146,857.299805,0.524105
-303.131104,438.903809,853.271484,0.524845
-304.687500,437.255859,851.898193,0.525586
-299.835205,429.565430,854.827881,0.526336
-297.729492,432.128906,854.553223,0.527077
-300.476074,431.854248,853.088379,0.527816
-297.088623,436.889648,862.335205,0.528557
-304.687500,434.326172,860.137939,0.529306
-308.532715,435.241699,862.426758,0.530046
-281.433105,429.107666,854.553223,0.530795
-300.933838,431.579590,858.306885,0.531552
-301.849365,433.685303,845.764160,0.532329
-295.623779,434.783936,852.630615,0.533095
-321.716309,434.783936,863.708496,0.533842
-299.652100,438.812256,861.145020,0.534582
-297.271729,437.347412,865.905762,0.535320
-297.180176,441.009521,860.778809,0.536083
-294.250488,429.931641,851.440430,0.536829
-295.715332,436.706543,860.778809,0.537593
-294.433594,443.115234,856.384277,0.538335
-298.828125,437.805176,854.095459,0.539077
-290.039062,445.861816,861.968994,0.539818
-297.180176,464.172363,861.785889,0.540559
-288.665771,445.404053,857.849121,0.541301
-289.215088,439.270020,863.250732,0.542042
-290.863037,444.488525,888.336182,0.542784
-290.679932,453.918457,863.067627,0.543525
-290.130615,449.707031,860.504150,0.544269
-291.137695,449.340820,862.060547,0.545010
-287.841797,446.777344,861.785889,0.545752
-287.841797,456.573486,867.279053,0.546494
-290.130615,450.714111,865.539551,0.547236
-291.046143,452.819824,867.279053,0.547977
-289.855957,450.622559,867.553711,0.548718
-288.848877,452.728271,868.927002,0.549470
-286.376953,426.269531,867.645264,0.550211
-285.461426,445.587158,865.356445,0.550953
-289.764404,447.601318,869.567871,0.551702
-290.496826,449.157715,865.722656,0.552449
-280.883789,442.657471,864.990234,0.553191
-283.355713,440.917969,863.159180,0.553934
-282.897949,438.812256,869.750977,0.554682
-287.567139,440.826416,862.060547,0.555424
-283.172607,424.530029,866.180420,0.556165
-283.081055,440.002441,858.306885,0.556906
-290.679932,436.248779,857.666016,0.557647
-287.841797,430.847168,859.680176,0.558381
-287.017822,434.051514,855.560303,0.559113
-288.940430,426.727295,854.553223,0.559843
-278.961182,429.290771,853.363037,0.560575
-283.905029,426.086426,851.348877,0.561315
-284.179688,423.614502,846.862793,0.562057
-280.334473,425.811768,847.137451,0.562797
-285.552979,423.980713,854.644775,0.563537
-287.567139,425.628662,856.567383,0.564278
-280.792236,422.698975,859.588623,0.565018
-283.264160,428.192139,848.602295,0.565758
-278.320312,428.741455,852.355957,0.566499
-280.334473,426.910400,858.306885,0.567240
-282.440186,431.854248,862.335205,0.567981
-285.827637,425.720215,860.687256,0.568722
-277.862549,426.818848,856.384277,0.569462
-280.517578,431.854248,860.046387,0.570285
-285.644531,428.192139,859.313965,0.571026
-284.271240,421.691895,858.123779,0.571767
-285.919189,434.783936,867.828369,0.572508
-289.947510,438.720703,857.208252,0.573248
-285.552979,440.460205,868.927002,0.573988
-286.743164,433.593750,864.257812,0.574728
-288.757324,438.812256,868.560791,0.575468
-289.306641,435.424805,870.391846,0.576229
-290.771484,437.805176,858.856201,0.576969
-287.017822,438.720703,858.123779,0.577709
-286.926270,439.544678,863.159180,0.578448
-282.897949,432.678223,865.264893,0.579188
-288.299561,424.255371,863.159180,0.579928
-288.665771,430.389404,859.405518,0.580668
-284.912109,435.241699,859.497070,0.581407
-289.489746,428.833008,856.018066,0.582147
-290.039062,437.347412,860.137939,0.582887
-283.172607,436.889648,846.496582,0.583626
-285.369873,430.297852,855.560303,0.584366
-280.883789,431.671143,856.384277,0.585115
-285.186768,424.896240,852.447510,0.585865
-286.376953,433.685303,858.764648,0.586599
-287.017822,421.508789,845.764160,0.587331
-284.179688,423.431396,848.236084,0.588082
-276.580811,430.206299,851.348877,0.588814
-272.186279,422.332764,861.236572,0.589546
-276.306152,424.530029,861.328125,0.590278
-286.560059,428.375244,858.398438,0.591024
-290.313721,425.262451,848.693848,0.591757
-279.327393,421.417236,859.405518,0.592493
-275.207520,428.558350,850.341797,0.593242
-277.679443,400.085449,854.827881,0.594008
-279.876709,423.431396,861.236572,0.594740
-261.474609,417.205811,850.250244,0.595471
-283.355713,418.029785,848.236084,0.596202
-281.616211,413.726807,840.362549,0.596959
-274.932861,418.853760,855.743408,0.597700
-275.024414,421.508789,851.440430,0.598441
-276.123047,422.332764,853.637695,0.599182
-273.834229,419.036865,865.814209,0.599934
-278.045654,421.783447,865.081787,0.600676
-269.348145,422.332764,854.003906,0.601451
-271.453857,427.734375,854.003906,0.602211
-271.453857,431.579590,862.335205,0.602985
-263.214111,430.297852,857.574463,0.603749
-266.693115,426.818848,862.609863,0.604494
-269.622803,430.206299,888.610840,0.605236
-267.791748,432.861328,867.187500,0.605977
-263.854980,437.164307,865.997314,0.606718
-261.840820,435.791016,866.912842,0.607459
-260.192871,447.326660,871.582031,0.608205
-255.706787,447.967529,868.194580,0.608957
-266.510010,452.545166,876.159668,0.609698
-265.960693,447.326660,872.314453,0.610439
-262.298584,455.932617,879.730225,0.611182
-262.756348,455.474854,876.159668,0.611927
-262.023926,451.263428,876.251221,0.612670
-260.650635,452.819824,881.927490,0.613411
-265.136719,454.193115,884.124756,0.614152
-260.009766,455.108643,877.990723,0.614893
-261.291504,457.855225,878.906250,0.615634
-263.671875,457.946777,874.420166,0.616375
-266.235352,451.538086,867.187500,0.617115
-261.199951,453.369141,869.750977,0.617856
-267.883301,448.791504,875.793457,0.618597
-264.312744,454.833984,871.398926,0.619338
-263.580322,450.531006,875.244141,0.620094
-263.763428,442.108154,871.124268,0.620837
-264.770508,437.805176,867.919922,0.621578
-262.939453,435.974121,861.877441,0.622319
-265.136719,431.396484,859.222412,0.623060
-265.411377,426.361084,866.455078,0.623801
-268.066406,429.290771,865.631104,0.624541
-260.467529,435.516357,863.342285,0.625281
-262.847900,436.614990,870.025635,0.626031
-269.348145,439.086914,868.103027,0.626773
-264.221191,426.452637,856.384277,0.627514
-258.544922,429.931641,857.574463,0.628254
-263.854980,426.727295,861.602783,0.629004
-267.150879,426.269531,863.800049,0.629736
-274.475098,424.804688,858.764648,0.630467
-274.932861,422.698975,857.940674,0.631198
-267.883301,416.656494,858.856201,0.631929
-266.601562,424.804688,863.525391,0.632681
-268.524170,416.198730,860.137939,0.633421
-265.502930,418.579102,854.370117,0.634161
-272.827148,415.008545,856.018066,0.634901
-265.228271,423.522949,866.546631,0.635650
-262.756348,417.846680,863.067627,0.636390
-267.517090,417.755127,857.025146,0.637130
-265.594482,417.388916,860.046387,0.637869
-271.728516,418.029785,861.328125,0.638619
-269.805908,412.078857,858.032227,0.639360
-271.179199,409.423828,855.468750,0.640100
-263.671875,413.177490,851.623535,0.640930
-266.510010,402.740479,848.144531,0.641671
-261.474609,402.923584,854.553223,0.642411
-262.939453,408.966064,852.447510,0.643151
-265.136719,406.768799,849.792480,0.643891
-265.869141,406.860352,851.898193,0.644631
-270.538330,398.803711,850.158691,0.645371
-261.108398,395.416260,854.003906,0.646112
-263.397217,400.634766,856.842041,0.646852
-262.115479,377.288818,848.144531,0.647592
-260.375977,396.697998,852.905273,0.648332
-239.959717,392.120361,847.229004,0.649071
-249.114990,404.754639,859.497070,0.649811
-255.798340,398.162842,855.194092,0.650552
-260.009766,375.274658,844.665527,0.651292
-256.530762,400.909424,847.869873,0.652031
-254.516602,402.282715,847.595215,0.652771
-255.249023,400.177002,848.419189,0.653532
-257.629395,393.493652,853.088379,0.654272
-252.410889,396.606445,857.025146,0.655012
-253.692627,391.937256,856.475830,0.655775
-257.812500,395.324707,850.799561,0.656515
-256.347656,375.915527,852.630615,0.657254
-245.635986,401.092529,855.560303,0.657994
-251.037598,403.106689,856.201172,0.658734
-249.938965,396.606445,847.229004,0.659474
-254.425049,402.008057,851.440430,0.660213
-249.481201,421.600342,848.693848,0.660953
-245.819092,402.557373,852.447510,0.661695
-247.192383,406.311035,853.454590,0.662437
-247.741699,399.993896,854.644775,0.663187
-248.748779,406.494141,858.856201,0.663938
-244.995117,408.233643,863.800049,0.664717
-251.220703,414.916992,859.497070,0.665457
-249.481201,409.423828,858.123779,0.666198
-240.600586,408.508301,852.996826,0.666938
-241.699219,412.994385,863.616943,0.667678
-244.262695,408.233643,857.666016,0.668418
-243.621826,410.888672,857.299805,0.669190
-243.988037,408.050537,864.349365,0.669941
-238.677979,413.360596,857.208252,0.670726
-237.854004,402.923584,854.187012,0.671474
-243.621826,399.261475,851.989746,0.672215
-243.530273,401.916504,851.440430,0.672955
-240.051270,408.599854,855.377197,0.673706
-240.692139,404.296875,861.602783,0.674448
-238.220215,405.853271,860.870361,0.675189
-235.107422,402.557373,854.370117,0.675930
-238.403320,403.289795,851.989746,0.676681
-233.367920,407.135010,856.933594,0.677422
-234.283447,403.015137,859.130859,0.678164
-232.177734,411.071777,865.356445,0.678904
-235.382080,410.705566,864.166260,0.679655
-236.206055,408.691406,859.954834,0.680397
-239.410400,408.874512,858.764648,0.681157
-216.888428,412.994385,861.877441,0.681899
-235.565186,407.592773,866.546631,0.682651
-235.382080,410.430908,861.236572,0.683393
-234.924316,405.853271,862.792969,0.684133
-230.895996,410.430908,855.743408,0.684874
-236.846924,409.515381,864.532471,0.685625
-241.973877,411.163330,858.947754,0.686367
-240.966797,404.937744,854.370117,0.687108
-235.748291,406.860352,865.173340,0.687849
-240.325928,419.494629,867.279053,0.688599
-239.501953,420.043945,867.187500,0.689340
-245.452881,421.325684,866.180420,0.690080
-246.459961,417.297363,863.159180,0.690820
-239.685059,412.078857,858.856201,0.691570
-248.199463,414.550781,861.328125,0.692311
-243.438721,412.353516,855.468750,0.693052
-250.488281,414.367676,865.356445,0.693792
-250.671387,426.727295,866.363525,0.694542
-251.678467,416.839600,861.511230,0.695283
-257.354736,415.557861,860.137939,0.696024
-250.122070,421.508789,863.708496,0.696764
-255.340576,422.515869,862.426758,0.697505
-255.615234,417.022705,856.201172,0.698236
-256.988525,418.762207,856.658936,0.698968
-256.622314,419.311523,852.630615,0.699699
-267.425537,410.339355,852.539062,0.700451
-269.989014,418.945312,850.708008,0.701191
-263.580322,417.663574,856.567383,0.701931
-266.876221,416.290283,850.982666,0.702671
-256.988525,415.283203,858.489990,0.703421
-275.573730,420.227051,855.651855,0.704163
-274.108887,407.501221,851.806641,0.704903
-274.566650,409.881592,853.271484,0.705643
-271.087646,414.733887,856.750488,0.706399
-272.186279,419.036865,852.172852,0.707149
-273.742676,421.508789,855.377197,0.707889
-274.291992,418.945312,847.686768,0.708629
-279.327393,421.691895,853.820801,0.709378
-283.447266,430.938721,850.891113,0.710118
-283.721924,419.586182,854.370117,0.710858
-285.461426,428.924561,848.693848,0.711598
-288.391113,424.987793,856.750488,0.712437
-290.863037,422.515869,846.221924,0.713178
-290.222168,414.001465,845.489502,0.713917
-294.067383,417.755127,849.792480,0.714657
-288.391113,416.381836,852.081299,0.715406
-285.461426,425.903320,856.658936,0.716146
-289.855957,426.086426,856.018066,0.716886
-291.412354,423.065186,851.348877,0.717625
-287.292480,423.248291,848.602295,0.718375
-288.665771,419.128418,851.623535,0.719115
-291.961670,419.128418,852.447510,0.719855
-291.412354,424.804688,862.243652,0.720594
-290.954590,427.368164,856.475830,0.721343
-292.053223,425.994873,850.891113,0.722083
-297.729492,424.163818,852.905273,0.722823
-297.546387,417.114258,852.081299,0.723563
-293.609619,430.023193,855.285645,0.724313
-297.912598,426.910400,860.778809,0.725053
-300.384521,430.297852,848.602295,0.725793
-288.940430,429.290771,850.524902,0.726532
-293.701172,433.868408,857.757568,0.727282
-292.968750,432.128906,861.694336,0.728022
-293.701172,436.889648,857.299805,0.728762
-295.440674,435.791016,853.546143,0.729502
-299.560547,433.319092,866.180420,0.730251
-300.384521,437.988281,864.440918,0.730991
-300.933838,438.171387,857.208252,0.731731
-294.067383,436.614990,864.807129,0.732470
-298.095703,441.558838,872.406006,0.733218
-305.328369,436.889648,863.616943,0.733984
-301.300049,441.192627,862.976074,0.734735
-303.497314,433.868408,863.983154,0.735482
-300.109863,439.727783,857.116699,0.736251
-300.109863,447.143555,868.286133,0.736982
-300.201416,444.122314,865.905762,0.737712
-305.053711,441.284180,866.821289,0.738443
-306.518555,440.551758,862.884521,0.739200
-282.257080,445.861816,865.539551,0.739947
-302.215576,444.213867,846.313477,0.740684
-298.095703,442.565918,864.990234,0.741440
-300.567627,441.741943,864.166260,0.742176
-306.060791,445.678711,865.081787,0.742907
-304.138184,441.192627,862.976074,0.743638
-300.476074,445.770264,863.983154,0.744378
-296.813965,434.051514,860.046387,0.745120
-312.194824,442.840576,863.342285,0.745861
-313.293457,440.093994,859.405518,0.746602
-309.631348,436.798096,861.877441,0.747344
-282.440186,434.051514,853.820801,0.748085
-304.870605,434.692383,853.546143,0.748827
-307.708740,437.255859,857.666016,0.749569
-307.067871,433.959961,865.631104,0.750312
-303.314209,431.488037,853.271484,0.751053
-306.793213,429.290771,853.179932,0.751793
-305.603027,427.093506,856.384277,0.752535
-297.637939,436.889648,851.715088,0.753276
-303.314209,438.354492,855.194092,0.754017
-311.920166,427.001953,849.975586,0.754758
-311.553955,434.967041,855.560303,0.755499
-307.250977,432.220459,863.067627,0.756253
-310.729980,434.692383,857.299805,0.756995
-302.215576,432.220459,853.271484,0.757737
-303.771973,436.614990,864.532471,0.758478
-306.427002,438.537598,856.842041,0.759220
-308.532715,444.030762,863.891602,0.759961
-310.363770,442.474365,874.786377,0.760702
-305.145264,435.882568,862.609863,0.761443
-309.356689,449.432373,867.187500,0.762193
-300.018311,440.826416,864.166260,0.762935
-300.018311,436.523438,867.370605,0.763676
-300.476074,442.565918,860.229492,0.764417
-303.771973,436.523438,868.835449,0.765168
-299.285889,440.093994,858.032227,0.765909
-297.912598,435.791016,865.356445,0.766651
-282.165527,429.473877,858.947754,0.767392
-302.398682,432.037354,854.370117,0.768138
-300.292969,428.283691,857.757568,0.768869
-303.680420,430.206299,858.947754,0.769601
-303.222656,427.917480,849.243164,0.770332
-282.257080,429.748535,854.553223,0.771077
-293.609619,432.586670,854.095459,0.771818
-298.553467,423.339844,848.602295,0.772558
-299.926758,428.741455,853.363037,0.773298
-298.553467,429.473877,855.377197,0.774048
-302.673340,426.452637,848.419189,0.774789
-301.300049,416.656494,847.961426,0.775529
-294.158936,424.346924,851.623535,0.776270
-293.884277,424.987793,848.327637,0.777020
-292.968750,423.614502,850.250244,0.777761
-296.997070,415.466309,842.468262,0.778501
-292.510986,417.572021,847.412109,0.779241
-293.334961,418.212891,853.454590,0.779990
-286.743164,411.712646,847.412109,0.780730
-290.496826,420.959473,850.158691,0.781470
-286.376953,421.600342,849.700928,0.782210
-289.123535,417.755127,854.095459,0.783049
-294.799805,417.480469,848.144531,0.783793
-286.834717,419.128418,859.222412,0.784533
-286.468506,418.762207,861.145020,0.785273
-286.010742,413.360596,855.377197,0.786013
-282.714844,423.156738,856.201172,0.786753
-285.461426,415.924072,848.419189,0.787492
-280.059814,422.515869,860.595703,0.788232
-280.517578,426.269531,851.715088,0.788972
-279.876709,425.720215,852.081299,0.789712
-280.975342,427.093506,854.278564,0.790452
-276.306152,430.023193,857.574463,0.791192
-282.073975,429.473877,863.891602,0.791933
-286.285400,426.452637,861.877441,0.792673
-288.116455,424.255371,851.531982,0.793416
-284.179688,427.734375,861.419678,0.794156
-272.186279,433.959961,860.595703,0.794897
-272.918701,434.326172,858.306885,0.795638
-273.834229,436.523438,861.145020,0.796377
-278.869629,428.100586,859.497070,0.797117
-276.672363,436.889648,863.342285,0.797869
-271.270752,430.664062,860.137939,0.798610
-268.981934,432.678223,868.286133,0.799350
-264.221191,436.981201,865.356445,0.800089
-269.531250,434.326172,865.631104,0.800839
-271.728516,438.903809,862.609863,0.801580
-270.629883,438.812256,861.419678,0.802320
-262.664795,442.565918,866.363525,0.803059
-265.411377,434.692383,867.279053,0.803800
-267.883301,433.593750,865.173340,0.804540
-271.911621,441.833496,868.469238,0.805288
-275.939941,448.150635,870.391846,0.806033
-265.502930,446.502686,866.729736,0.806814
-273.010254,448.333740,864.440918,0.807560
-271.362305,446.685791,865.264893,0.808299
-270.263672,442.016602,863.433838,0.809039
-273.284912,441.375732,869.567871,0.809790
-270.812988,447.601318,868.560791,0.810531
-273.010254,449.523926,888.519287,0.811270
-271.179199,449.157715,866.638184,0.812012
-270.080566,445.312500,860.321045,0.812791
-273.742676,439.361572,868.469238,0.813545
-276.489258,448.699951,860.870361,0.814303
-276.031494,456.024170,862.884521,0.815050
-277.954102,451.721191,863.891602,0.815814
-278.686523,448.242188,858.764648,0.816556
-276.855469,462.432861,863.891602,0.817297
-274.475098,446.960449,863.708496,0.818038
-278.869629,458.770752,861.053467,0.818789
-259.460449,448.059082,865.447998,0.819531
-279.052734,447.418213,861.511230,0.820272
-286.193848,448.974609,861.328125,0.821013
-285.278320,451.629639,864.257812,0.821766
-284.912109,459.869385,868.927002,0.822508
-287.292480,463.439941,869.476318,0.823248
-287.658691,458.496094,887.969971,0.823989
-291.778564,459.960938,865.539551,0.824740
-283.355713,455.474854,872.222900,0.825486
-287.292480,450.256348,866.271973,0.826232
-293.975830,450.714111,860.321045,0.826996
-289.489746,452.545166,857.940674,0.827765
-292.602539,449.798584,857.574463,0.828506
-290.771484,450.164795,857.025146,0.829247
-294.525146,455.200195,866.455078,0.829987
-292.236328,455.291748,870.025635,0.830739
-294.158936,448.608398,860.961914,0.831480
-299.102783,448.150635,862.976074,0.832241
-301.208496,450.164795,860.137939,0.832988
-298.828125,444.030762,856.750488,0.833729
-292.968750,453.826904,866.729736,0.834470
-296.447754,452.819824,864.257812,0.835211
-302.856445,453.460693,864.624023,0.835951
-302.215576,456.115723,862.701416,0.836692
-301.574707,444.946289,859.588623,0.837434
-307.067871,442.565918,856.201172,0.838175
-310.913086,440.460205,853.454590,0.838916
-297.363281,440.002441,854.187012,0.839656
-302.215576,431.579590,850.799561,0.840398
-304.687500,436.431885,855.560303,0.841138
-328.033447,426.910400,854.370117,0.841895
-296.081543,436.157227,860.046387,0.842636
-306.793213,440.734863,859.405518,0.843377
-304.321289,437.530518,848.419189,0.844118
-308.624268,434.692383,845.855713,0.844860
-303.955078,429.016113,843.109131,0.845601
-303.863525,429.473877,847.229004,0.846342
-306.610107,428.375244,848.510742,0.847083
-300.384521,426.177979,859.222412,0.847833
-301.116943,426.452637,847.320557,0.848574
-304.962158,431.396484,847.137451,0.849315
-304.870605,426.910400,849.609375,0.850055
-303.588867,433.227539,850.433350,0.850805
-302.947998,428.924561,847.778320,0.851547
-297.821045,427.551270,848.144531,0.852288
-304.321289,436.889648,855.560303,0.853029
-300.750732,435.516357,861.328125,0.853854
-296.997070,432.128906,855.010986,0.854596
-298.645020,434.692383,865.081787,0.855336
-298.828125,434.600830,867.004395,0.856077
-296.447754,432.312012,864.898682,0.856819
-289.306641,431.396484,863.983154,0.857560
-294.525146,426.361084,858.489990,0.858301
-284.820557,440.368652,856.201172,0.859042
-289.672852,436.065674,858.398438,0.859790
-284.729004,441.009521,856.658936,0.860521
-285.919189,432.037354,864.898682,0.861252
-289.764404,436.798096,863.525391,0.861993
-284.362793,438.079834,854.095459,0.862725
-281.707764,431.213379,862.609863,0.863456
-285.552979,432.861328,861.877441,0.864187
-282.257080,445.678711,862.335205,0.864919
-290.496826,440.002441,865.631104,0.865650
-286.834717,441.009521,863.250732,0.866392
-283.996582,444.488525,862.884521,0.867134
-275.573730,438.903809,868.103027,0.867875
-277.587891,436.614990,871.215820,0.868630
-280.426025,441.375732,858.673096,0.869372
-277.679443,443.115234,862.243652,0.870112
-277.221680,443.664551,857.849121,0.870853
-277.496338,443.847656,863.891602,0.871601
-283.538818,441.558838,865.631104,0.872332
-276.672363,443.115234,869.567871,0.873063
-275.299072,443.206787,867.095947,0.873794
-270.904541,448.516846,864.624023,0.874526
-274.200439,451.446533,871.765137,0.875267
-273.651123,439.453125,862.701416,0.876018
-269.073486,443.756104,873.413086,0.876773
-270.812988,463.623047,872.863770,0.877528
-260.833740,439.727783,871.673584,0.878268
-260.650635,445.312500,869.201660,0.879008
-260.650635,444.763184,860.229492,0.879748
-256.713867,433.044434,853.363037,0.880486
-259.918213,431.213379,865.081787,0.881237
-257.263184,436.431885,869.110107,0.881993
-254.425049,439.727783,865.173340,0.882739
-257.904053,439.086914,867.828369,0.883551
-258.453369,433.135986,854.370117,0.884290
-249.755859,426.818848,858.764648,0.885021
-248.748779,425.354004,857.025146,0.885751
-248.291016,429.016113,850.524902,0.886505
-252.227783,427.276611,852.539062,0.887238
-247.650146,427.276611,861.053467,0.887969
-255.432129,425.720215,860.412598,0.888700
-247.375488,426.177979,859.039307,0.889443
-246.185303,420.867920,854.553223,0.890174
-242.614746,405.853271,855.743408,0.890906
-243.988037,420.593262,859.680176,0.891636
-248.840332,424.530029,856.292725,0.892396
-249.206543,418.304443,857.208252,0.893138
-246.368408,418.212891,855.194092,0.893879
-249.664307,418.029785,868.377686,0.894623
-247.558594,416.931152,858.123779,0.895368
-248.748779,425.445557,861.419678,0.896101
-248.016357,420.501709,860.321045,0.896832
-250.396729,415.832520,860.870361,0.897563
-251.220703,419.677734,859.680176,0.898311
-242.523193,420.410156,864.349365,0.899043
-242.156982,416.198730,858.398438,0.899773
-246.002197,418.212891,864.898682,0.900504
-253.143311,412.628174,852.630615,0.901249
-249.938965,417.663574,859.588623,0.901980
-247.833252,418.762207,861.053467,0.902710
-251.403809,410.522461,854.187012,0.903441
-248.657227,405.944824,853.820801,0.904184
-246.917725,409.149170,844.299316,0.904915
-252.410889,405.487061,846.496582,0.905646
-249.389648,408.416748,854.553223,0.906377
-251.953125,408.233643,855.560303,0.907119
-250.213623,409.973145,853.729248,0.907851
-246.276855,422.149658,853.454590,0.908582
-253.509521,415.466309,858.947754,0.909313
-251.220703,415.283203,860.046387,0.910072
-250.854492,410.064697,855.651855,0.910821
-254.882812,413.543701,857.391357,0.911560
-259.002686,410.522461,855.560303,0.912315
-257.171631,414.459229,855.560303,0.913091
-254.882812,410.339355,857.208252,0.913831
-257.812500,412.170410,855.102539,0.914572
-261.108398,418.670654,849.151611,0.915313
-263.946533,408.691406,858.215332,0.916053
-263.397217,405.212402,850.067139,0.916794
-256.530762,407.592773,852.813721,0.917533
-237.121582,408.416748,850.708008,0.918273
-253.051758,413.818359,852.905273,0.919025
-261.566162,417.022705,848.327637,0.919765
-260.559082,406.036377,849.609375,0.920524
-265.502930,410.797119,847.961426,0.921285
-263.946533,408.966064,846.771240,0.922032
-266.693115,410.797119,851.348877,0.922813
-264.221191,412.628174,846.679688,0.923564
-268.432617,413.909912,848.602295,0.924413
-265.045166,410.339355,848.327637,0.925156
-268.615723,410.522461,845.855713,0.925897
-269.256592,406.860352,839.996338,0.926638
-272.369385,415.740967,847.412109,0.927390
-274.841309,416.198730,841.918945,0.928131
-266.143799,417.205811,842.559814,0.928872
-269.531250,415.374756,849.792480,0.929613
-270.904541,418.487549,842.468262,0.930365
-266.876221,421.051025,848.693848,0.931105
-264.129639,419.952393,849.609375,0.931845
-264.221191,421.417236,849.151611,0.932585
-268.341064,420.684814,849.060059,0.933335
-270.538330,415.740967,847.229004,0.934076
-270.629883,422.698975,851.074219,0.934817
-271.270752,422.058105,857.574463,0.935558
-278.045654,420.501709,856.018066,0.936309
-273.742676,428.649902,852.447510,0.937050
-273.284912,432.495117,851.165771,0.937791
-280.151367,421.875000,849.060059,0.938532
-279.602051,431.945801,855.285645,0.939283
-271.728516,431.671143,863.250732,0.940023
-277.862549,426.086426,848.968506,0.940763
-282.531738,425.445557,850.341797,0.941504
-273.559570,424.713135,856.750488,0.942254
-276.672363,435.333252,857.940674,0.942995
-279.876709,435.516357,858.764648,0.943736
-275.299072,428.283691,856.292725,0.944477
-282.531738,430.114746,858.215332,0.945228
-276.947021,430.938721,854.644775,0.945974
-289.764404,429.382324,863.159180,0.946720
-291.137695,426.635742,846.679688,0.947485
-293.060303,421.142578,848.419189,0.948248
-295.074463,437.164307,850.433350,0.948980
-294.799805,431.396484,845.855713,0.949712
-298.370361,427.368164,851.531982,0.950442
-293.060303,424.255371,852.355957,0.951196
-306.793213,417.846680,854.644775,0.951938
-300.933838,429.840088,853.271484,0.952696
-295.623779,430.114746,851.074219,0.953450
-302.307129,429.382324,852.996826,0.954229
-306.518555,420.043945,850.799561,0.954979
-307.250977,426.635742,854.736328,0.955721
-306.060791,428.649902,853.088379,0.956462
-305.969238,429.656982,844.390869,0.957213
-311.187744,423.797607,846.679688,0.957954
-310.913086,424.621582,847.595215,0.958694
-308.715820,427.001953,850.158691,0.959435
-317.047119,426.818848,854.919434,0.960188
-317.138672,428.741455,849.884033,0.960930
-314.849854,424.896240,855.743408,0.961672
-312.652588,427.459717,849.975586,0.962414
-316.223145,431.762695,848.327637,0.963166
-315.948486,430.480957,849.700928,0.963908
-315.765381,423.706055,849.975586,0.964649
-323.822021,437.164307,842.468262,0.965390
-314.941406,433.868408,847.045898,0.966140
-326.019287,432.769775,842.193604,0.966881
-323.089600,432.678223,850.708008,0.967622
-323.089600,429.290771,851.623535,0.968363
-320.800781,428.924561,851.074219,0.969114
-327.117920,435.516357,854.461670,0.969855
-323.822021,437.438965,866.912842,0.970597
-324.096680,436.889648,846.771240,0.971338
-326.660156,433.044434,853.363037,0.972089
-320.983887,441.009521,859.497070,0.972832
-319.976807,443.481445,856.475830,0.973577
-320.800781,443.481445,856.933594,0.974317
-317.047119,443.664551,855.285645,0.975070
-317.596436,437.164307,853.637695,0.975811
-316.772461,441.467285,849.609375,0.976551
-315.948486,437.072754,856.658936,0.977291
-315.307617,437.805176,852.813721,0.978041
-315.673828,436.340332,850.982666,0.978783
-319.152832,442.199707,855.377197,0.979523
-319.885254,431.213379,853.637695,0.980264
-312.835693,440.093994,853.179932,0.981005
-316.406250,440.002441,851.806641,0.981736
-310.638428,434.509277,856.384277,0.982468
-305.236816,431.854248,854.003906,0.983198
-306.427002,433.776855,854.827881,0.983950
-308.990479,433.227539,845.031738,0.984691
-281.433105,427.642822,855.560303,0.985432
-304.138184,439.453125,851.257324,0.986171
-305.419922,429.931641,849.243164,0.986921
-306.793213,431.396484,846.405029,0.987661
-305.328369,430.572510,850.799561,0.988401
-301.208496,432.586670,854.095459,0.989141
-293.060303,443.298340,853.271484,0.989891
-300.933838,438.446045,845.489502,0.990631
-297.088623,436.248779,849.517822,0.991371
-300.109863,439.361572,847.778320,0.992111
-302.947998,427.093506,860.046387,0.992861
-295.623779,440.185547,854.919434,0.993601
-301.574707,429.199219,854.461670,0.994341
-299.102783,433.135986,850.708008,0.995081
-297.546387,438.903809,857.208252,0.995965
-297.912598,427.917480,854.919434,0.996705
-296.997070,429.473877,860.778809,0.997445
-291.137695,428.649902,861.694336,0.998185
-287.475586,435.699463,862.426758,0.998926
-282.714844,431.762695,863.433838,0.999666
-274.841309,439.544678,862.976074,1.000406
-277.862549,438.629150,857.849121,1.001146
-282.714844,433.044434,850.799561,1.001886
-288.574219,433.959961,864.898682,1.002626
-290.405273,434.234619,853.546143,1.003366
-284.454346,439.727783,857.940674,1.004117
-283.905029,442.840576,854.370117,1.004859
-279.968262,440.093994,854.827881,1.005598
-277.954102,443.847656,856.658936,1.006338
-282.897949,445.037842,865.264893,1.007077
-287.017822,435.699463,845.672607,1.007826
-271.728516,444.488525,861.968994,1.008566
-278.503418,444.671631,854.827881,1.009306
-280.242920,441.375732,856.018066,1.010045
-277.496338,448.150635,864.532471,1.010794
-273.468018,445.587158,843.933105,1.011534
-274.200439,435.516357,855.834961,1.012275
-282.440186,436.706543,859.771729,1.013014
-269.989014,439.544678,856.018066,1.013761
-274.108887,433.959961,855.285645,1.014500
-270.263672,435.607910,862.976074,1.015240
-265.136719,435.516357,860.504150,1.015980
-267.791748,444.396973,862.792969,1.016729
-270.080566,446.044922,865.997314,1.017478
-268.066406,443.298340,859.130859,1.018223
-272.460938,434.875488,862.518311,1.019006
-262.573242,441.009521,867.828369,1.019752
-267.883301,447.967529,873.138428,1.020492
-272.186279,436.523438,864.166260,1.021231
-274.566650,436.889648,863.250732,1.021971
-272.094727,435.791016,870.941162,1.022710
-270.629883,437.072754,858.123779,1.023451
-269.805908,433.044434,863.708496,1.024215
-277.038574,429.290771,860.412598,1.025003
-273.651123,435.699463,864.440918,1.025767
-277.587891,436.523438,859.588623,1.026515
-273.284912,440.643311,854.553223,1.027258
-273.101807,429.840088,858.581543,1.028049
-273.193359,437.713623,851.715088,1.028800
-274.749756,427.825928,854.644775,1.029534
-279.693604,423.797607,854.095459,1.030264
-278.320312,433.227539,858.764648,1.031019
-280.975342,430.480957,868.103027,1.031750
-277.130127,431.945801,860.961914,1.032481
-281.707764,431.671143,861.145020,1.033211
-277.404785,436.340332,866.546631,1.033955
-279.235840,436.431885,859.863281,1.034686
-278.320312,436.706543,855.926514,1.035417
-280.151367,430.572510,859.130859,1.036147
-279.693604,428.283691,864.349365,1.036889
-279.052734,426.086426,863.067627,1.037620
-281.890869,432.128906,860.046387,1.038351
-281.799316,432.128906,862.518311,1.039081
-279.327393,432.220459,866.180420,1.039821
-275.299072,432.128906,869.018555,1.040552
-280.426025,435.058594,861.419678,1.041283
-278.411865,433.593750,855.194092,1.042013
-279.876709,434.967041,864.166260,1.042752
-284.729004,435.791016,860.870361,1.043483
-279.144287,435.058594,856.750488,1.044214
-285.552979,428.283691,850.799561,1.044944
-282.897949,434.509277,859.313965,1.045705
-281.341553,436.065674,857.299805,1.046445
-279.235840,425.079346,859.405518,1.047185
-284.637451,431.396484,855.743408,1.047925
-280.609131,438.903809,863.616943,1.048676
-282.989502,426.361084,852.447510,1.049417
-282.073975,427.917480,858.856201,1.050157
-278.778076,425.537109,862.426758,1.050898
-289.306641,421.325684,856.842041,1.051639
-287.933350,423.614502,852.081299,1.052371
-279.235840,431.945801,856.384277,1.053101
-282.257080,430.297852,850.799561,1.053832
-286.010742,423.889160,858.489990,1.054584
-274.291992,430.847168,855.102539,1.055325
-282.897949,420.867920,858.856201,1.056066
-275.390625,424.621582,858.123779,1.056806
-277.313232,434.417725,853.179932,1.057557
-272.644043,428.649902,852.905273,1.058297
-278.045654,430.023193,861.511230,1.059038
-282.073975,431.762695,860.595703,1.059779
-269.805908,437.622070,861.328125,1.060530
-271.636963,440.460205,863.342285,1.061271
-274.749756,438.629150,862.884521,1.062012
-274.383545,439.819336,868.469238,1.062752
-275.115967,438.537598,865.631104,1.063508
-276.580811,434.783936,858.032227,1.064263
-278.320312,434.967041,867.004395,1.065018
-283.172607,423.889160,862.609863,1.065780
-275.756836,433.868408,857.757568,1.066672
-281.250000,429.840088,863.525391,1.067431
-295.806885,428.375244,863.800049,1.068196
-280.609131,433.410645,866.729736,1.068954
-280.242920,426.910400,863.525391,1.069739
-276.214600,434.967041,856.567383,1.070499
-276.031494,427.459717,853.088379,1.071257
-272.735596,439.270020,857.940674,1.072041
-276.580811,436.523438,852.355957,1.072797
-277.038574,437.896729,858.123779,1.073561
-279.968262,438.812256,855.926514,1.074323
-283.905029,433.319092,852.722168,1.075102
-280.242920,431.213379,860.687256,1.075872
-283.813477,421.325684,856.384277,1.076629
-287.109375,428.741455,847.869873,1.077379
-281.707764,427.825928,851.440430,1.078116
-286.560059,430.847168,847.412109,1.078847
-289.398193,398.620605,851.531982,1.079578
-284.637451,431.030273,864.990234,1.080309
-289.764404,423.156738,861.145020,1.081048
-281.066895,429.656982,859.863281,1.081790
-290.588379,423.431396,854.919434,1.082529
-287.841797,409.149170,856.018066,1.083269
-293.518066,427.185059,860.504150,1.084009
-296.997070,419.677734,854.187012,1.084749
-292.510986,423.797607,860.595703,1.085487
-292.419434,421.783447,865.356445,1.086227
-295.257568,437.164307,855.743408,1.086967
-294.342041,424.255371,858.306885,1.087707
-293.426514,419.586182,862.426758,1.088450
-285.461426,423.706055,858.673096,1.089194
-291.503906,425.628662,855.926514,1.089980
-296.081543,421.417236,859.680176,1.090729
-297.271729,422.149658,855.834961,1.091468
-297.088623,421.600342,855.377197,1.092208
-294.982910,423.980713,857.116699,1.092961
-301.025391,414.825439,851.531982,1.093701
-300.842285,416.473389,852.813721,1.094441
-298.645020,424.896240,854.827881,1.095181
-305.328369,434.326172,857.940674,1.095930
-302.581787,432.220459,858.032227,1.096670
-297.729492,426.818848,859.405518,1.097410
-299.743652,429.656982,858.032227,1.098151
-300.201416,425.903320,863.342285,1.098903
-302.764893,426.452637,858.581543,1.099662
-298.736572,428.100586,855.010986,1.100420
-304.138184,427.734375,859.771729,1.101170
-300.018311,428.100586,859.863281,1.101944
-304.321289,428.283691,855.834961,1.102685
-297.912598,428.466797,852.905273,1.103432
-299.835205,432.403564,852.813721,1.104204
-295.257568,434.967041,857.299805,1.104956
-292.419434,429.565430,857.025146,1.105697
-290.222168,425.628662,856.018066,1.106437
-291.595459,422.790527,849.792480,1.107177
-285.644531,429.199219,848.052979,1.107927
-284.637451,426.818848,850.616455,1.108668
-281.158447,431.213379,856.018066,1.109408
-286.285400,425.994873,851.074219,1.110149
-283.538818,428.466797,854.461670,1.110902
-290.954590,427.276611,845.397949,1.111643
-288.482666,420.501709,847.137451,1.112384
-280.059814,427.734375,852.813721,1.113125
-285.003662,426.818848,850.341797,1.113874
-284.545898,415.374756,847.503662,1.114615
-280.700684,416.564941,845.397949,1.115355
-274.749756,418.945312,845.947266,1.116096
-275.390625,418.212891,845.764160,1.116846
-271.179199,412.353516,845.031738,1.117586
-274.383545,419.128418,852.081299,1.118327
-278.045654,410.247803,842.285156,1.119067
-274.291992,419.311523,848.419189,1.119820
-267.425537,417.663574,846.771240,1.120561
-264.953613,414.276123,848.785400,1.121301
-269.256592,409.790039,847.503662,1.122041
-269.989014,412.902832,837.066650,1.122790
-267.242432,413.635254,845.672607,1.123531
-266.235352,414.916992,847.503662,1.124272
-259.368896,409.240723,845.764160,1.125013
-262.847900,421.875000,848.876953,1.125766
-262.298584,419.494629,850.799561,1.126506
-260.925293,415.191650,849.060059,1.127247
-255.340576,415.100098,853.454590,1.127987
-254.058838,407.135010,849.884033,1.128728
-256.347656,411.621094,848.785400,1.129459
-254.241943,416.107178,850.891113,1.130189
-258.819580,416.107178,850.250244,1.130920
-250.762939,425.354004,854.644775,1.131670
-260.375977,421.508789,856.201172,1.132410
-252.319336,431.030273,855.194092,1.133150
-249.114990,421.600342,858.581543,1.133890
-247.467041,420.227051,856.109619,1.134639
-252.410889,413.726807,856.842041,1.135379
-250.854492,417.388916,861.785889,1.136119
-248.107910,433.044434,857.940674,1.136858
-250.488281,425.994873,865.997314,1.137700
-249.023438,421.691895,862.426758,1.138441
-249.664307,425.354004,867.187500,1.139181
-249.114990,425.262451,859.222412,1.139921
-249.847412,422.241211,861.694336,1.140670
-251.861572,421.417236,863.525391,1.141410
-245.086670,423.431396,865.997314,1.142150
-248.565674,432.861328,860.870361,1.142892
-251.953125,424.346924,863.800049,1.143646
-252.685547,425.079346,858.123779,1.144386
-257.171631,432.678223,860.961914,1.145127
-252.960205,435.516357,859.771729,1.145868
-252.685547,423.431396,856.201172,1.146619
-253.143311,432.128906,853.088379,1.147359
-247.650146,425.170898,865.081787,1.148099
-251.861572,431.945801,859.039307,1.148839
-251.403809,425.262451,858.856201,1.149588
-261.932373,426.635742,858.398438,1.150329
-259.277344,425.903320,855.377197,1.151069
-256.622314,426.177979,858.123779,1.151809
-263.305664,434.143066,863.800049,1.152558
-259.735107,430.389404,862.701416,1.153299
-259.826660,427.368164,862.701416,1.154038
-263.580322,420.776367,864.624023,1.154778
-262.939453,422.515869,857.391357,1.155527
-266.326904,415.557861,855.010986,1.156267
-268.707275,402.923584,851.898193,1.157006
-262.481689,422.058105,854.644775,1.157746
-274.108887,422.058105,854.095459,1.158495
-268.890381,425.994873,860.595703,1.159236
-268.524170,424.621582,853.637695,1.159981
-268.066406,424.346924,854.553223,1.160737
-274.658203,421.783447,845.031738,1.161508
-277.130127,430.023193,855.377197,1.162248
-276.214600,429.382324,861.877441,1.162987
-274.566650,428.192139,864.715576,1.163727
-279.785156,429.107666,863.708496,1.164477
-279.602051,427.368164,858.032227,1.165216
-278.778076,429.107666,861.236572,1.165956
-288.391113,428.192139,853.271484,1.166696
-275.665283,430.938721,860.870361,1.167456
-280.426025,428.192139,855.102539,1.168212
-280.700684,427.001953,859.497070,1.168958
-286.560059,429.016113,857.391357,1.169741
-288.299561,434.967041,858.032227,1.170487
-275.939941,438.262939,863.159180,1.171227
-302.490234,432.952881,861.877441,1.171967
-286.651611,433.227539,861.236572,1.172706
-286.376953,434.051514,856.292725,1.173445
-283.905029,429.656982,852.539062,1.174185
-285.919189,429.290771,851.715088,1.174926
-289.398193,429.931641,855.285645,1.175680
-292.327881,422.332764,849.792480,1.176426
-288.940430,425.628662,850.341797,1.177161
-293.701172,427.459717,849.060059,1.177892
-287.475586,398.620605,860.687256,1.178642
-292.968750,421.875000,854.370117,1.179373
-293.701172,427.276611,848.327637,1.180104
-298.370361,424.255371,851.440430,1.180835
-288.024902,424.438477,847.503662,1.181578
-289.398193,428.558350,853.454590,1.182308
-291.778564,436.431885,851.806641,1.183039
-295.623779,428.009033,851.898193,1.183769
-298.736572,421.417236,850.433350,1.184511
-297.821045,425.903320,852.447510,1.185242
-293.975830,421.325684,852.722168,1.185972
-293.518066,417.663574,850.341797,1.186703
-291.046143,421.325684,849.975586,1.187459
-290.130615,422.607422,845.123291,1.188199
-299.835205,426.269531,858.673096,1.188940
-304.046631,424.163818,854.644775,1.189681
-295.715332,415.191650,857.299805,1.190430
-300.109863,416.839600,843.383789,1.191171
-294.891357,427.368164,854.187012,1.191910
-294.433594,424.346924,844.573975,1.192650
-299.743652,427.276611,853.637695,1.193401
-294.433594,432.769775,858.032227,1.194142
-305.053711,427.825928,853.546143,1.194882
-298.736572,424.438477,853.179932,1.195623
-304.229736,421.600342,854.003906,1.196363
-296.630859,418.670654,851.165771,1.197094
-295.166016,419.036865,849.060059,1.197825
-296.997070,432.495117,851.989746,1.198556
-295.898438,432.312012,849.060059,1.199305
-297.088623,432.495117,854.187012,1.200045
-300.842285,435.424805,859.222412,1.200786
-303.405762,436.889648,859.588623,1.201527
-296.722412,434.692383,866.729736,1.202282
-297.180176,437.438965,860.778809,1.203023
-299.560547,437.347412,859.954834,1.203763
-301.391602,435.607910,863.616943,1.204504
-298.187256,437.072754,856.292725,1.205253
-300.842285,436.065674,855.926514,1.205994
-300.109863,441.375732,857.116699,1.206735
-298.645020,433.502197,852.081299,1.207475
-296.173096,432.495117,851.715088,1.208311
-300.292969,435.241699,857.482910,1.209054
-300.384521,436.065674,855.010986,1.209795
-298.645020,437.530518,855.377197,1.210535
-299.468994,437.072754,855.285645,1.211286
-300.201416,429.382324,853.363037,1.212027
-324.279785,442.016602,849.426270,1.212768
-301.849365,433.319092,854.278564,1.213509
-301.025391,436.157227,860.046387,1.214264
-294.891357,437.622070,856.475830,1.215005
-295.623779,440.917969,853.363037,1.215746
-294.799805,442.382812,847.778320,1.216486
-290.863037,438.171387,850.250244,1.217237
-293.151855,428.375244,845.397949,1.217978
-287.933350,428.558350,851.531982,1.218719
-293.609619,431.671143,858.581543,1.219459
-290.954590,428.741455,850.616455,1.220210
-289.215088,425.628662,852.722168,1.220951
-289.764404,433.044434,853.363037,1.221691
-293.792725,423.431396,848.693848,1.222431
-294.891357,426.361084,824.890137,1.223182
-290.039062,428.100586,846.496582,1.223923
-295.349121,424.346924,845.123291,1.224664
-294.616699,428.283691,840.637207,1.225405
-293.609619,424.255371,841.461182,1.226154
-294.616699,425.170898,851.715088,1.226895
-290.863037,422.515869,849.884033,1.227636
-288.757324,426.818848,851.715088,1.228377
-290.496826,427.185059,852.630615,1.229126
-288.299561,420.684814,843.383789,1.229868
-290.222168,425.720215,851.440430,1.230645
-296.539307,443.206787,848.144531,1.231415
-291.687012,423.980713,850.341797,1.232186
-295.989990,418.029785,852.722168,1.232928
-293.609619,417.755127,850.616455,1.233669
-302.215576,419.403076,861.511230,1.234409
-300.476074,427.368164,854.736328,1.235160
-299.835205,424.896240,856.475830,1.235901
-299.560547,417.022705,850.250244,1.236642
-297.180176,427.917480,864.440918,1.237450
-299.652100,429.931641,863.250732,1.238104
-300.933838,428.466797,856.750488,1.238866
-292.602539,420.684814,854.370117,1.239615
-288.665771,425.537109,861.053467,1.240356
-292.510986,426.361084,851.531982,1.241114
-295.532227,426.544189,852.355957,1.241855
-288.940430,426.818848,856.384277,1.242595
-289.672852,425.445557,852.355957,1.243335
-284.729004,433.410645,857.574463,1.244085
-287.658691,428.924561,853.363037,1.244828
-281.982422,427.093506,854.827881,1.245571
-289.672852,418.029785,859.497070,1.246312
-287.933350,423.339844,857.757568,1.247066
-286.560059,428.741455,863.708496,1.247808
-283.538818,425.537109,861.785889,1.248549
-280.151367,423.248291,853.637695,1.249290
-282.897949,429.748535,855.377197,1.250041
-281.158447,431.030273,855.285645,1.250782
-278.594971,422.241211,863.433838,1.251523
-284.088135,422.882080,863.616943,1.252264
-278.594971,425.170898,854.461670,1.253014
-277.496338,427.734375,861.328125,1.253755
-273.651123,439.270020,863.159180,1.254495
-270.263672,433.044434,867.004395,1.255236
-270.263672,431.121826,865.722656,1.255986
-270.904541,433.685303,857.574463,1.256727
-265.777588,432.769775,862.335205,1.257467
-263.671875,436.065674,867.828369,1.258207
-271.636963,437.805176,862.426758,1.258957
-277.954102,433.410645,867.645264,1.259698
-260.467529,436.157227,868.743896,1.260438
-265.869141,437.622070,858.947754,1.261179
-261.291504,440.368652,858.306885,1.261928
-261.566162,440.002441,867.736816,1.262668
-264.953613,437.988281,866.271973,1.263412
-259.735107,434.326172,869.201660,1.264156
-260.833740,439.819336,869.842529,1.264919
-263.763428,436.523438,861.602783,1.265653
-264.495850,431.671143,865.997314,1.266383
-259.735107,438.720703,862.426758,1.267115
-261.566162,444.396973,867.919922,1.267871
-265.960693,437.988281,866.088867,1.268611
-268.066406,436.523438,871.215820,1.269351
-270.263672,434.143066,858.306885,1.270091
-260.925293,437.896729,863.616943,1.270838
-261.657715,440.734863,870.758057,1.271578
-265.869141,437.988281,868.377686,1.272318
-260.284424,438.720703,859.039307,1.273057
-272.735596,435.882568,861.602783,1.273806
-268.981934,446.411133,867.462158,1.274545
-266.967773,436.065674,862.884521,1.275285
-265.045166,434.143066,866.455078,1.276025
-272.094727,434.143066,867.919922,1.276773
-266.235352,439.910889,869.476318,1.277513
-273.468018,433.227539,869.567871,1.278253
-269.439697,437.805176,870.391846,1.278993
-267.150879,441.558838,865.264893,1.279834
-273.376465,434.326172,864.624023,1.280574
-269.714355,439.453125,868.927002,1.281315
-275.756836,431.396484,863.891602,1.282056
-275.848389,432.128906,863.525391,1.282797
-268.249512,437.347412,872.222900,1.283536
-268.524170,438.812256,869.384766,1.284276
-272.552490,441.925049,863.250732,1.285031
-267.517090,435.424805,868.835449,1.285773
-273.376465,428.833008,858.764648,1.286513
-277.038574,429.290771,861.328125,1.287253
-280.883789,433.868408,865.264893,1.287992
-276.306152,435.791016,862.884521,1.288735
-274.749756,441.467285,862.976074,1.289475
-273.651123,428.649902,858.764648,1.290218
-274.383545,430.389404,857.574463,1.290968
-280.334473,435.607910,851.898193,1.291713
-302.947998,430.114746,856.292725,1.292453
-278.411865,425.537109,854.919434,1.293192
-277.770996,434.692383,853.729248,1.293933
-279.510498,429.107666,854.827881,1.294673
-270.080566,434.051514,845.855713,1.295412
-289.672852,430.664062,848.419189,1.296152
-287.109375,432.220459,854.919434,1.296907
-276.031494,428.466797,853.729248,1.297651
-279.876709,434.509277,857.849121,1.298391
-281.066895,441.741943,862.976074,1.299131
-288.757324,438.171387,856.658936,1.299874
-287.933350,432.861328,855.194092,1.300615
-282.165527,437.805176,857.666016,1.301365
-285.919189,442.932129,866.088867,1.302111
-288.299561,441.558838,867.462158,1.302902
-283.538818,451.538086,866.821289,1.303648
-290.313721,447.326660,863.250732,1.304388
-287.658691,468.383789,861.694336,1.305128
-289.855957,451.171875,864.349365,1.305868
-283.630371,443.664551,868.377686,1.306608
-285.552979,446.868896,868.652344,1.307348
-281.616211,448.059082,860.229492,1.308087
-283.905029,448.608398,865.997314,1.308827
-286.743164,440.185547,862.518311,1.309576
-288.940430,434.509277,861.694336,1.310335
-284.912109,443.298340,860.778809,1.311100
-283.905029,444.854736,852.996826,1.311873
-283.996582,438.629150,844.757080,1.312614
-283.996582,440.277100,854.919434,1.313353
-283.813477,450.256348,856.384277,1.314094
-291.870117,437.072754,856.018066,1.314843
-292.510986,430.755615,855.560303,1.315583
-282.989502,433.868408,853.820801,1.316323
-291.229248,435.607910,853.912354,1.317062
-287.658691,432.952881,845.214844,1.317814
-285.461426,426.177979,851.898193,1.318554
-281.524658,425.079346,849.700928,1.319294
-286.926270,423.980713,867.095947,1.320033
-289.123535,436.157227,856.384277,1.320784
-284.271240,427.276611,853.088379,1.321524
-286.285400,431.762695,847.320557,1.322264
-290.679932,423.980713,843.109131,1.323004
-284.454346,432.128906,850.341797,1.323751
-284.729004,429.840088,855.651855,1.324498
-283.905029,430.480957,857.482910,1.325233
-288.024902,423.614502,851.531982,1.325964
-287.750244,427.825928,849.060059,1.326715
-287.933350,415.557861,848.876953,1.327446
-289.489746,418.945312,855.285645,1.328177
-287.109375,417.022705,854.278564,1.328907
-288.024902,416.015625,847.229004,1.329649
-284.912109,413.269043,851.165771,1.330380
-285.095215,422.607422,853.179932,1.331111
-287.841797,416.931152,856.475830,1.331841
-283.172607,420.135498,861.785889,1.332584
-282.531738,415.374756,853.637695,1.333316
-283.630371,421.325684,849.243164,1.334046
-286.743164,424.072266,848.876953,1.334783
-288.116455,421.966553,855.010986,1.335556
-281.707764,423.156738,858.947754,1.336304
-294.433594,420.501709,858.215332,1.337050
-283.447266,399.353027,860.321045,1.337844
-283.538818,426.361084,857.849121,1.338618
-281.158447,425.170898,855.560303,1.339363
-284.088135,425.720215,853.363037,1.340106
-284.545898,424.530029,853.912354,1.340864
-276.031494,424.804688,856.109619,1.341613
-284.729004,424.987793,859.863281,1.342367
-278.869629,423.797607,857.208252,1.343098
-278.228760,425.262451,857.482910,1.343833
-272.003174,427.368164,856.109619,1.344565
-275.665283,414.367676,854.553223,1.345296
-275.573730,421.691895,862.152100,1.346028
-278.228760,419.311523,859.588623,1.346771
-277.038574,419.586182,856.292725,1.347503
-279.052734,415.466309,850.708008,1.348234
-275.665283,413.085938,853.820801,1.348965
-280.975342,415.832520,853.454590,1.349702
-278.778076,410.797119,854.827881,1.350539
-285.278320,409.423828,857.391357,1.351272
-278.594971,411.895752,856.933594,1.352003
-271.636963,415.466309,860.687256,1.352735
-271.545410,410.522461,857.208252,1.353466
-273.834229,416.473389,856.567383,1.354197
-277.679443,411.895752,851.989746,1.354927
-270.629883,412.261963,865.081787,1.355658
-276.672363,405.395508,859.405518,1.356390
-273.559570,408.233643,856.292725,1.357120
-277.221680,408.325195,853.454590,1.357850
-277.404785,407.684326,851.165771,1.358581
-271.820068,402.832031,855.834961,1.359321
-272.369385,413.543701,857.574463,1.360052
-268.524170,412.994385,860.412598,1.360783
-267.150879,411.254883,856.475830,1.361514
-266.510010,413.909912,853.179932,1.362253
-268.798828,406.768799,859.039307,1.362984
-271.545410,403.839111,852.264404,1.363715
-271.728516,416.839600,859.130859,1.364445
-270.629883,414.459229,862.976074,1.365202
-269.439697,418.945312,869.293213,1.365943
-267.150879,417.572021,864.715576,1.366684
-271.820068,411.437988,857.025146,1.367424
-271.270752,418.304443,856.567383,1.368184
-268.707275,419.769287,857.940674,1.368926
-269.805908,421.508789,854.919434,1.369667
-267.608643,421.508789,858.856201,1.370407
-269.256592,414.916992,855.285645,1.371158
-275.573730,431.121826,856.384277,1.371901
-272.735596,428.924561,857.025146,1.372647
-271.728516,429.748535,861.968994,1.373431
-272.277832,432.220459,860.870361,1.374180
-266.143799,429.199219,873.046875,1.374934
-265.136719,441.375732,871.490479,1.375676
-265.411377,442.291260,871.948242,1.376427
-273.010254,438.079834,861.145020,1.377169
-266.967773,442.840576,868.011475,1.377910
-270.721436,439.453125,868.286133,1.378651
-273.010254,440.460205,869.384766,1.379403
-265.136719,440.734863,876.342773,1.380144
-277.862549,440.460205,867.279053,1.380885
-271.270752,440.185547,863.342285,1.381636
-270.538330,441.467285,868.103027,1.382433
-267.059326,438.537598,868.194580,1.383208
-264.129639,441.192627,861.968994,1.383954
-262.115479,431.854248,864.440918,1.384696
-276.397705,436.981201,862.152100,1.385458
-274.658203,432.769775,864.532471,1.386198
-267.333984,430.023193,867.919922,1.386939
-271.728516,427.093506,860.961914,1.387680
-269.622803,440.643311,864.257812,1.388438
-271.270752,430.664062,854.461670,1.389181
-272.003174,430.114746,859.222412,1.389922
-267.791748,425.628662,857.391357,1.390664
-266.235352,428.466797,857.208252,1.391416
-270.538330,431.671143,860.412598,1.392158
-270.263672,424.804688,862.243652,1.392904
-260.833740,431.488037,865.905762,1.393645
-260.284424,433.319092,859.405518,1.394396
-267.608643,422.973633,859.130859,1.395138
-268.798828,425.811768,849.700928,1.395879
-267.791748,435.516357,856.018066,1.396620
-275.665283,432.037354,847.778320,1.397370
-265.960693,424.072266,856.109619,1.398112
-267.242432,424.621582,865.447998,1.398853
-266.876221,427.551270,854.003906,1.399594
-271.820068,422.241211,856.933594,1.400344
-264.587402,423.248291,855.560303,1.401085
-269.256592,422.882080,860.961914,1.401826
-268.432617,423.431396,861.236572,1.402567
-268.341064,414.733887,860.412598,1.403317
-270.996094,428.100586,854.919434,1.404059
-265.869141,429.290771,856.750488,1.404800
-265.777588,432.220459,857.391357,1.405541
-267.791748,436.065674,862.609863,1.406293
-268.157959,428.649902,855.102539,1.407034
-271.087646,429.016113,853.546143,1.407774
-270.080566,427.276611,849.609375,1.408515
-262.756348,429.931641,860.229492,1.409256
-269.348145,430.389404,860.687256,1.409987
-269.348145,419.952393,859.222412,1.410718
-270.355225,430.847168,859.405518,1.411449
-275.299072,428.558350,857.208252,1.412202
-272.369385,430.480957,864.166260,1.412942
-271.453857,429.107666,858.123779,1.413682
-266.876221,429.748535,857.849121,1.414422
-273.010254,434.600830,854.461670,1.415172
-273.468018,429.199219,856.842041,1.415912
-270.263672,420.867920,848.236084,1.416653
-273.925781,424.621582,860.046387,1.417393
-275.482178,428.100586,858.306885,1.418156
-274.291992,428.100586,862.701416,1.418896
-278.228760,423.339844,854.553223,1.419636
-284.454346,427.642822,854.187012,1.420376
-272.552490,427.642822,854.827881,1.421215
-277.679443,423.797607,855.102539,1.421957
-276.580811,425.170898,854.370117,1.422697
-275.115967,415.557861,854.736328,1.423437
-277.679443,423.065186,856.292725,1.424188
-282.165527,420.776367,853.088379,1.424928
-285.644531,417.114258,856.750488,1.425668
-286.651611,418.395996,856.475830,1.426408
-279.235840,413.909912,852.172852,1.427158
-275.756836,413.726807,850.708008,1.427899
-283.081055,420.867920,854.003906,1.428639
-277.221680,416.290283,855.102539,1.429379
-278.320312,413.635254,848.510742,1.430128
-279.510498,412.994385,848.144531,1.430869
-283.447266,423.248291,856.384277,1.431609
-287.933350,425.628662,857.482910,1.432349
-283.538818,427.093506,855.468750,1.433099
-281.524658,429.290771,850.982666,1.433839
-286.010742,428.283691,850.433350,1.434579
-288.391113,432.769775,858.764648,1.435319
-293.334961,425.903320,858.764648,1.436067
-288.391113,428.649902,866.821289,1.436808
-285.095215,435.607910,862.792969,1.437548
-286.834717,438.079834,862.792969,1.438288
-292.877197,437.438965,856.384277,1.439038
-289.123535,441.284180,863.159180,1.439778
-289.123535,434.967041,860.321045,1.440519
-285.827637,437.896729,867.004395,1.441258
-293.609619,440.185547,862.060547,1.442008
-289.947510,441.925049,862.701416,1.442749
-291.229248,440.002441,869.934082,1.443499
-292.419434,439.819336,868.835449,1.444244
-300.933838,442.382812,865.447998,1.445008
-294.250488,445.953369,868.835449,1.445755
-291.046143,441.375732,868.194580,1.446495
-287.017822,450.164795,867.736816,1.447235
-289.031982,445.220947,861.145020,1.447989
-286.560059,439.819336,868.103027,1.448730
-291.961670,440.093994,868.652344,1.449470
-289.215088,443.664551,860.504150,1.450211
-286.102295,448.150635,864.074707,1.450967
-296.447754,439.453125,860.778809,1.451732
-292.785645,440.368652,860.961914,1.452478
-286.468506,441.375732,862.426758,1.453241
-285.186768,432.586670,855.834961,1.453987
-283.996582,434.051514,856.658936,1.454728
-284.729004,438.720703,854.644775,1.455469
-281.707764,434.234619,862.701416,1.456208
-283.081055,433.044434,854.187012,1.456948
-284.179688,429.107666,856.933594,1.457688
-284.454346,434.875488,854.370117,1.458430
-289.306641,431.671143,845.397949,1.459170
-280.151367,429.565430,847.686768,1.459911
-281.433105,425.170898,856.750488,1.460651
-279.876709,427.093506,850.433350,1.461392
-280.975342,416.931152,850.433350,1.462151
-282.531738,415.924072,850.708008,1.462892
-274.017334,423.797607,850.158691,1.463633
-275.573730,419.311523,846.771240,1.464373
-280.517578,422.058105,841.827393,1.465113
-281.890869,419.403076,848.876953,1.465853
-281.799316,410.247803,854.827881,1.466593
-277.770996,421.325684,852.172852,1.467333
-278.320312,411.621094,852.905273,1.468085
-279.510498,414.093018,853.912354,1.468830
-279.235840,409.515381,854.461670,1.469571
-279.785156,410.705566,853.729248,1.470311
-282.257080,406.311035,846.954346,1.471049
-260.101318,413.085938,849.334717,1.471787
-273.010254,406.494141,849.151611,1.472533
-278.411865,411.895752,856.658936,1.473266
-280.334473,403.198242,848.510742,1.474020
-270.629883,410.156250,844.390869,1.474751
-273.468018,402.008057,851.531982,1.475481
-275.756836,407.318115,853.271484,1.476210
-279.602051,404.296875,853.363037,1.476953
-273.284912,412.445068,844.757080,1.477684
-268.798828,412.445068,849.975586,1.478414
-282.165527,408.416748,850.250244,1.479144
-281.890869,412.719727,851.531982,1.479879
-271.453857,415.832520,860.046387,1.480610
-275.573730,418.670654,857.391357,1.481340
-283.996582,418.853760,860.137939,1.482070
-275.482178,418.945312,855.010986,1.482816
-274.108887,423.065186,857.849121,1.483556
-278.778076,431.396484,858.123779,1.484297
-279.144287,427.734375,860.961914,1.485037
-284.637451,430.206299,858.947754,1.485777
-281.250000,440.185547,863.433838,1.486517
-278.411865,433.776855,864.440918,1.487257
-278.137207,429.290771,862.426758,1.487997
-279.968262,427.459717,865.814209,1.488747
-302.307129,428.283691,860.046387,1.489488
-280.517578,434.875488,862.426758,1.490228
-280.151367,429.107666,855.102539,1.490968
-278.778076,434.417725,855.834961,1.491792
-274.108887,436.157227,860.870361,1.492534
-283.905029,433.593750,852.539062,1.493274
-282.165527,439.086914,856.384277,1.494014
-284.362793,434.875488,861.877441,1.494755
-286.926270,438.995361,854.827881,1.495495
-281.890869,434.509277,856.018066,1.496235
-289.306641,425.903320,854.919434,1.496976
-287.841797,426.910400,853.912354,1.497717
-284.088135,427.459717,858.398438,1.498458
-283.721924,428.192139,856.658936,1.499198
-286.285400,427.734375,857.757568,1.499938
-287.750244,427.093506,855.743408,1.500690
-289.581299,421.325684,849.975586,1.501431
-277.587891,420.410156,846.679688,1.502170
-282.257080,413.452148,847.869873,1.502910
-279.052734,422.332764,851.074219,1.503659
-284.637451,423.248291,847.686768,1.504400
-304.046631,417.938232,845.031738,1.505167
-279.876709,415.740967,842.742920,1.505909
-282.440186,413.177490,837.432861,1.506649
-287.109375,418.945312,849.700928,1.507389
-285.827637,412.719727,848.327637,1.508129
-287.017822,409.790039,842.559814,1.508869
-290.679932,412.628174,839.630127,1.509623
-285.461426,406.219482,845.489502,1.510364
-289.123535,402.923584,843.658447,1.511104
-289.123535,410.980225,841.369629,1.511845
-286.193848,411.804199,852.355957,1.512587
-283.538818,399.902344,845.306396,1.513328
-280.883789,402.008057,844.482422,1.514076
-283.264160,415.008545,845.397949,1.514830
-282.257080,408.966064,851.715088,1.515612
-284.179688,406.860352,855.194092,1.516353
-281.433105,405.395508,851.623535,1.517093
-283.355713,411.071777,854.095459,1.517834
-285.003662,411.254883,848.236084,1.518584
-281.524658,407.867432,853.637695,1.519348
-284.912109,411.163330,859.954834,1.520117
-280.883789,414.184570,854.278564,1.520867
-274.658203,418.029785,857.849121,1.521629
-277.404785,413.543701,859.863281,1.522370
-282.073975,419.677734,860.687256,1.523110
-273.376465,418.762207,859.039307,1.523850
-273.834229,420.867920,864.440918,1.524602
-265.960693,424.713135,866.546631,1.525344
-273.193359,421.600342,867.919922,1.526086
-279.968262,428.100586,865.173340,1.526828
-269.165039,426.086426,874.511719,1.527583
-267.517090,432.495117,872.955322,1.528325
-267.608643,436.798096,874.328613,1.529067
-269.897461,435.241699,874.511719,1.529808
-271.728516,437.072754,871.032715,1.530561
-272.918701,438.903809,873.229980,1.531303
-273.010254,443.572998,876.983643,1.532044
-273.284912,448.699951,879.089355,1.532785
-272.460938,448.059082,876.159668,1.533537
-278.045654,440.185547,874.603271,1.534278
-267.608643,436.981201,873.138428,1.535020
-274.475098,437.988281,874.237061,1.535761
-278.686523,434.417725,874.877930,1.536511
-279.418945,440.826416,865.356445,1.537253
-269.531250,442.749023,869.018555,1.537994
-271.636963,436.981201,868.835449,1.538736
-270.446777,432.861328,867.828369,1.539487
-272.552490,441.284180,867.004395,1.540228
-274.566650,431.579590,860.412598,1.540970
-269.165039,435.424805,868.011475,1.541711
-273.742676,426.269531,856.567383,1.542462
-278.961182,431.579590,853.179932,1.543203
-302.856445,435.424805,858.764648,1.543944
-276.031494,427.276611,855.194092,1.544684
-273.834229,427.642822,863.433838,1.545434
-269.256592,402.832031,864.440918,1.546175
-275.024414,417.114258,857.757568,1.546916
-273.376465,421.325684,853.546143,1.547657
-273.284912,417.114258,848.602295,1.548397
-271.911621,425.628662,857.299805,1.549128
-275.390625,420.593262,852.630615,1.549859
-273.193359,414.367676,850.708008,1.550590
-277.496338,415.649414,842.468262,1.551342
-279.510498,414.184570,846.862793,1.552083
-278.045654,417.846680,850.433350,1.552823
-275.115967,414.093018,852.905273,1.553563
-274.841309,408.233643,855.377197,1.554314
-281.799316,413.909912,853.271484,1.555055
-280.059814,412.994385,850.250244,1.555795
-281.982422,417.022705,852.172852,1.556534
-285.003662,417.846680,855.285645,1.557284
-280.242920,421.508789,853.729248,1.558024
-285.919189,419.860840,857.391357,1.558764
-285.095215,417.572021,853.637695,1.559504
-283.172607,409.973145,853.179932,1.560254
-283.996582,416.564941,862.243652,1.560994
-276.489258,414.367676,856.933594,1.561734
-273.651123,418.670654,860.046387,1.562474
-282.440186,417.938232,855.651855,1.563315
-285.003662,412.811279,856.842041,1.564056
-283.264160,410.522461,858.764648,1.564796
-282.714844,409.149170,849.517822,1.565536
-277.221680,408.966064,855.834961,1.566286
-288.574219,415.924072,847.778320,1.567027
-280.334473,417.388916,856.201172,1.567766
-279.785156,415.649414,856.201172,1.568508
-284.729004,404.754639,856.201172,1.569277
-287.017822,412.719727,855.285645,1.570023
-283.172607,414.459229,851.440430,1.570764
-292.877197,418.579102,856.201172,1.571519
-291.687012,416.381836,850.708008,1.572260
-284.637451,410.064697,849.884033,1.573000
-284.729004,419.403076,854.187012,1.573740
-280.792236,417.388916,855.285645,1.574493
-287.200928,413.452148,846.954346,1.575233
-282.531738,409.973145,851.898193,1.575973
-279.418945,420.776367,852.264404,1.576713
-285.003662,415.466309,852.630615,1.577460
-286.285400,403.381348,843.750000,1.578201
-291.412354,411.254883,852.722168,1.578941
-285.003662,417.388916,853.271484,1.579681
-282.073975,409.149170,849.060059,1.580422
-282.623291,413.177490,852.905273,1.581162
-278.686523,415.557861,854.553223,1.581902
-280.242920,405.029297,850.799561,1.582642
-275.482178,403.839111,854.278564,1.583382
-279.785156,406.494141,854.187012,1.584122
-277.954102,413.177490,855.651855,1.584870
-270.812988,405.395508,848.144531,1.585623
-271.636963,410.430908,853.729248,1.586401
-280.334473,404.663086,852.539062,1.587141
-275.482178,413.177490,859.863281,1.587881
-277.221680,412.902832,855.377197,1.588621
-270.446777,418.670654,854.644775,1.589362
-268.341064,417.480469,856.475830,1.590103
-261.840820,414.001465,863.067627,1.590843
-265.777588,414.916992,858.673096,1.591600
-267.333984,423.156738,859.588623,1.592382
-268.066406,421.142578,859.222412,1.593138
-271.087646,422.882080,861.968994,1.593894
-263.488770,422.058105,859.130859,1.594633
-265.411377,419.860840,865.814209,1.595405
-261.657715,423.156738,860.229492,1.596145
-276.489258,419.677734,868.194580,1.596886
-262.390137,415.924072,860.961914,1.597626
-261.840820,429.565430,873.962402,1.598377
-259.643555,426.818848,871.032715,1.599117
-259.185791,422.424316,865.814209,1.599858
-237.304688,432.220459,865.722656,1.600600
-250.305176,441.009521,890.075684,1.601353
-259.918213,430.023193,865.264893,1.602094
-251.770020,432.403564,871.215820,1.602834
-259.094238,433.410645,870.483398,1.603574
-258.178711,431.854248,869.384766,1.604323
-258.361816,440.917969,868.652344,1.605064
-261.016846,426.452637,869.842529,1.605804
-257.080078,427.001953,868.377686,1.606544
-248.840332,433.685303,869.750977,1.607295
-251.220703,436.981201,870.483398,1.608035
-254.974365,437.805176,865.631104,1.608775
-256.713867,422.882080,863.433838,1.609515
-257.080078,429.748535,865.997314,1.610265
-259.735107,430.023193,855.102539,1.611005
-259.368896,431.030273,859.954834,1.611745
-259.735107,428.833008,858.581543,1.612485
-260.925293,422.241211,865.447998,1.613234
-261.199951,425.354004,855.102539,1.613974
-259.918213,428.558350,861.602783,1.614714
-258.819580,424.255371,856.384277,1.615454
-261.474609,423.614502,858.764648,1.616203
-265.228271,425.994873,862.060547,1.616944
-269.439697,422.515869,859.313965,1.617683
-270.080566,419.860840,857.574463,1.618423
-274.658203,419.860840,859.313965,1.619164
-271.087646,420.410156,856.018066,1.619910
-267.883301,412.261963,859.313965,1.620644
-267.425537,427.185059,865.814209,1.621374
-267.333984,416.473389,853.729248,1.622128
-263.122559,419.769287,859.222412,1.622859
-269.989014,411.712646,856.018066,1.623589
-271.545410,419.586182,855.560303,1.624319
-267.333984,421.691895,856.201172,1.625061
-267.608643,419.952393,852.081299,1.625792
-271.911621,411.804199,847.961426,1.626523
-276.031494,412.445068,856.201172,1.627255
-270.721436,410.797119,849.151611,1.627999
-279.876709,412.078857,853.637695,1.628730
-282.165527,406.677246,850.708008,1.629461
-279.327393,408.874512,850.982666,1.630192
-277.954102,412.902832,848.327637,1.630932
-273.651123,402.648926,855.285645,1.631663
-287.750244,409.790039,851.440430,1.632393
-276.763916,402.832031,851.074219,1.633124
-285.736084,408.233643,851.806641,1.633974
-280.517578,402.008057,850.158691,1.634717
-278.869629,416.198730,852.172852,1.635458
-284.362793,417.572021,850.433350,1.636199
-282.623291,399.078369,846.313477,1.636951
-273.193359,407.775879,856.475830,1.637692
-279.693604,413.543701,852.447510,1.638433
-288.574219,410.888672,855.010986,1.639174
-281.066895,413.177490,845.489502,1.639925
-278.594971,409.149170,852.630615,1.640667
-284.912109,404.571533,844.848633,1.641408
-284.729004,410.522461,846.496582,1.642149
-285.736084,416.381836,860.504150,1.642899
-286.560059,409.240723,845.306396,1.643641
-290.954590,404.571533,848.602295,1.644383
-292.053223,408.325195,859.222412,1.645124
-288.848877,408.874512,851.257324,1.645875
-286.560059,408.142090,852.996826,1.646617
-289.672852,408.233643,851.348877,1.647359
-287.933350,413.269043,854.827881,1.648100
-291.320801,406.311035,857.574463,1.648851
-293.060303,408.142090,853.271484,1.649592
-285.827637,411.529541,845.489502,1.650333
-295.806885,412.261963,853.454590,1.651074
-291.595459,417.663574,866.821289,1.651825
-284.912109,408.142090,855.102539,1.652566
-295.349121,416.931152,854.003906,1.653307
-294.891357,408.325195,846.679688,1.654048
-289.215088,416.381836,855.834961,1.654799
-287.292480,414.916992,864.257812,1.655541
-298.461914,416.015625,858.764648,1.656290
-295.257568,411.621094,858.489990,1.657041
-296.447754,417.114258,845.672607,1.657825
-293.151855,419.403076,854.644775,1.658572
-294.891357,414.459229,850.524902,1.659313
-300.018311,415.649414,850.708008,1.660054
-294.799805,405.487061,845.581055,1.660806
-290.313721,411.804199,850.524902,1.661548
-291.229248,418.762207,843.017578,1.662289
-298.553467,416.107178,850.524902,1.663029
-297.271729,413.909912,852.172852,1.663780
-301.757812,411.987305,852.905273,1.664521
-299.285889,416.564941,852.355957,1.665263
-296.264648,417.663574,848.419189,1.666004
-300.384521,413.452148,862.518311,1.666754
-303.863525,415.649414,853.179932,1.667496
-310.363770,411.163330,853.271484,1.668238
-295.623779,416.748047,856.567383,1.668979
-300.109863,416.473389,860.870361,1.669729
-297.363281,414.916992,857.849121,1.670471
-303.955078,418.121338,862.792969,1.671213
-299.377441,418.579102,860.046387,1.671954
-297.729492,410.980225,856.384277,1.672708
-321.258545,414.642334,857.208252,1.673450
-311.462402,420.959473,857.482910,1.674191
-305.511475,406.585693,846.405029,1.674932
-305.511475,420.776367,851.165771,1.675680
-308.532715,415.191650,847.869873,1.676421
-300.201416,417.755127,850.250244,1.677162
-301.849365,414.642334,849.700928,1.677903
-302.856445,410.522461,846.771240,1.678653
-299.560547,407.867432,844.848633,1.679394
-301.757812,408.050537,859.130859,1.680136
-301.391602,410.705566,848.052979,1.680878
-294.891357,408.691406,849.334717,1.681630
-294.891357,406.494141,853.454590,1.682371
-323.638916,405.120850,850.341797,1.683112
-304.504395,396.972656,847.320557,1.683853
-302.307129,407.409668,846.862793,1.684604
-304.595947,409.606934,845.947266,1.685346
-299.560547,406.768799,842.559814,1.686087
-300.659180,409.881592,846.679688,1.686828
-299.743652,407.318115,846.862793,1.687579
-298.095703,418.579102,852.172852,1.688319
-293.701172,411.163330,857.391357,1.689060
-302.764893,410.430908,859.497070,1.689802
-300.384521,406.677246,848.876953,1.690553
-291.046143,411.529541,859.405518,1.691295
-296.539307,411.621094,858.123779,1.692036
-292.694092,409.423828,853.637695,1.692777
-291.503906,414.001465,860.137939,1.693527
-290.496826,415.924072,857.482910,1.694269
-293.792725,419.311523,866.821289,1.695010
-291.687012,420.959473,866.271973,1.695752
-292.877197,419.677734,868.103027,1.696503
-288.940430,423.980713,868.194580,1.697245
-289.855957,416.839600,868.377686,1.697986
-291.046143,420.959473,862.060547,1.698727
-290.039062,424.438477,855.834961,1.699479
-289.489746,426.269531,859.405518,1.700232
-280.792236,431.304932,862.609863,1.700976
-289.672852,427.642822,870.391846,1.701717
-290.039062,429.199219,867.462158,1.702480
-290.954590,426.910400,872.772217,1.703221
-292.785645,430.389404,868.103027,1.703962
-285.186768,435.241699,865.173340,1.704837
-287.567139,431.213379,863.433838,1.705579
-283.264160,433.044434,859.405518,1.706320
-286.468506,439.086914,865.997314,1.707061
-288.116455,431.488037,866.363525,1.707802
-285.095215,443.756104,869.018555,1.708543
-289.947510,442.657471,867.370605,1.709285
-294.799805,438.262939,873.687744,1.710026
-284.545898,440.917969,873.413086,1.710767
-283.630371,445.037842,867.736816,1.711508
-277.221680,442.016602,877.166748,1.712249
-279.235840,452.453613,876.892090,1.712990
-278.869629,450.531006,874.145508,1.713733
-283.905029,444.396973,865.905762,1.714475
-278.869629,451.446533,869.842529,1.715216
-275.482178,449.890137,870.758057,1.715957
-275.299072,450.805664,866.455078,1.716710
-277.679443,448.059082,861.053467,1.717452
-279.693604,451.995850,871.307373,1.718193
-275.756836,443.756104,873.046875,1.718934
-279.968262,440.460205,864.715576,1.719685
-275.115967,443.939209,863.800049,1.720426
-275.482178,439.544678,885.681152,1.721168
-269.256592,441.925049,863.616943,1.721909
-274.475098,438.720703,864.898682,1.722660
-274.749756,435.974121,864.532471,1.723401
-271.636963,438.812256,865.173340,1.724142
-273.742676,436.614990,865.173340,1.724883
-261.199951,436.706543,869.934082,1.725635
-261.657715,435.241699,868.377686,1.726376
-262.390137,436.157227,867.553711,1.727156
-264.678955,436.523438,864.349365,1.727908
-259.735107,436.889648,856.018066,1.728695
-264.678955,438.720703,861.877441,1.729448
-261.199951,439.819336,868.377686,1.730189
-265.502930,435.150146,869.934082,1.730929
-261.566162,440.368652,865.997314,1.731681
-270.996094,431.945801,863.616943,1.732422
-269.989014,433.044434,854.370117,1.733164
-268.981934,430.389404,863.616943,1.733905
-271.453857,429.290771,861.511230,1.734656
-263.488770,428.283691,867.004395,1.735396
-267.974854,426.635742,859.130859,1.736137
-264.129639,426.177979,856.475830,1.736878
-268.707275,426.452637,853.820801,1.737628
-267.333984,430.938721,856.658936,1.738370
-268.432617,431.121826,855.102539,1.739111
-275.848389,426.269531,855.285645,1.739852
-270.996094,432.403564,852.539062,1.740593
-269.989014,432.769775,866.180420,1.741324
-273.468018,432.495117,861.694336,1.742056
-274.749756,430.755615,855.010986,1.742787
-273.559570,429.107666,861.328125,1.743543
-272.094727,432.586670,860.595703,1.744286
-273.468018,429.565430,863.800049,1.745025
-279.785156,428.375244,864.349365,1.745765
-278.594971,433.868408,860.229492,1.746515
-278.137207,436.614990,861.785889,1.747255
-281.158447,432.769775,862.792969,1.747995
-284.637451,433.502197,863.250732,1.748735
-284.545898,427.368164,858.947754,1.749484
-273.101807,431.762695,860.961914,1.750225
-279.235840,439.453125,851.531982,1.750965
-280.151367,432.586670,856.384277,1.751705
-283.630371,440.277100,856.750488,1.752454
-280.242920,435.150146,858.581543,1.753194
-279.510498,441.009521,865.722656,1.753934
-285.644531,440.460205,860.687256,1.754673
-282.806396,442.749023,859.588623,1.755423
-277.038574,443.572998,860.321045,1.756167
-280.700684,445.312500,861.694336,1.756912
-283.355713,448.791504,859.680176,1.757653
-283.538818,442.657471,860.961914,1.758414
-278.778076,446.502686,865.173340,1.759165
-288.024902,444.396973,864.166260,1.759907
-276.123047,444.763184,857.482910,1.760647
-278.686523,443.572998,857.208252,1.761405
-275.024414,438.720703,866.271973,1.762143
-278.869629,445.312500,855.102539,1.762881
-270.538330,441.284180,855.743408,1.763652
-269.348145,443.481445,856.933594,1.764421
-275.390625,443.389893,856.018066,1.765163
-273.468018,440.277100,850.158691,1.765929
-274.841309,438.262939,855.926514,1.766676
-266.326904,437.072754,858.581543,1.767414
-276.306152,444.854736,863.525391,1.768163
-278.778076,441.558838,856.842041,1.768897
-272.644043,445.312500,858.856201,1.769639
-269.256592,447.418213,862.518311,1.770371
-268.981934,441.925049,854.095459,1.771102
-266.235352,439.453125,860.229492,1.771834
-269.714355,442.199707,848.968506,1.772589
-267.242432,441.101074,852.813721,1.773320
-265.777588,442.016602,853.820801,1.774051
-266.693115,434.234619,854.827881,1.774781
-262.756348,441.375732,852.081299,1.775597
-267.059326,440.277100,850.799561,1.776329
-267.608643,436.614990,856.475830,1.777108
-267.333984,429.840088,857.757568,1.777857
-268.432617,441.467285,856.109619,1.778632
-263.763428,439.544678,854.919434,1.779382
-258.636475,438.720703,857.116699,1.780151
-269.348145,432.678223,853.454590,1.780895
-271.453857,439.636230,848.602295,1.781635
-264.862061,439.910889,848.693848,1.782376
-265.960693,435.058594,854.003906,1.783129
-273.925781,435.150146,848.693848,1.783870
-263.671875,432.952881,850.158691,1.784610
-265.228271,436.157227,849.151611,1.785351
-264.678955,435.974121,857.849121,1.786093
-264.404297,430.480957,854.187012,1.786825
-269.256592,438.262939,845.672607,1.787556
-268.341064,432.769775,851.623535,1.788287
-261.474609,437.347412,852.996826,1.789050
-263.946533,433.776855,854.827881,1.789792
-254.608154,424.987793,849.609375,1.790533
-259.002686,427.825928,845.672607,1.791274
-262.115479,426.818848,844.665527,1.792025
-260.009766,418.304443,845.672607,1.792765
-241.790771,427.734375,852.539062,1.793506
-263.031006,419.860840,848.052979,1.794247
-258.544922,431.213379,855.377197,1.794997
-254.791260,429.473877,851.348877,1.795747
-259.918213,429.016113,854.827881,1.796502
-258.453369,425.170898,852.722168,1.797266
-251.678467,427.917480,841.552734,1.798033
-261.657715,429.840088,855.468750,1.798775
-257.354736,428.741455,856.567383,1.799515
-263.854980,423.339844,854.461670,1.800256
-259.552002,430.572510,860.870361,1.801007
-262.756348,427.276611,851.898193,1.801747
-260.192871,431.945801,859.588623,1.802488
-255.065918,423.889160,848.876953,1.803228
-235.656738,423.522949,848.510742,1.803970
-258.453369,422.790527,853.179932,1.804700
-253.784180,422.515869,854.003906,1.805431
-261.840820,417.297363,852.264404,1.806163
-254.699707,427.001953,849.700928,1.806934
-260.284424,423.522949,841.644287,1.807693
-235.107422,419.952393,852.539062,1.808435
-254.241943,423.522949,852.081299,1.809175
-262.756348,411.346436,841.827393,1.809927
-263.397217,400.360107,848.052979,1.810675
-263.397217,420.593262,846.496582,1.811417
-266.876221,414.550781,841.094971,1.812158
-263.031006,417.572021,839.721680,1.812910
-260.650635,415.740967,845.031738,1.813652
-254.608154,409.698486,847.137451,1.814395
-264.953613,403.289795,837.432861,1.815150
-259.643555,415.649414,848.052979,1.815916
-257.720947,413.909912,842.102051,1.816671
-260.925293,413.269043,843.933105,1.817430
-259.368896,416.748047,849.243164,1.818185
-258.270264,406.585693,841.186523,1.818936
-258.087158,410.339355,845.672607,1.819695
-259.735107,415.740967,848.236084,1.820453
-251.586914,407.135010,844.207764,1.821258
-259.460449,409.881592,839.630127,1.822017
-256.805420,406.768799,840.911865,1.822768
-263.397217,414.550781,845.764160,1.823540
-260.467529,420.501709,845.031738,1.824340
-262.573242,415.649414,836.334229,1.825097
-257.171631,412.811279,842.468262,1.825848
-253.143311,419.219971,843.658447,1.826642
-257.904053,410.064697,840.728760,1.827439
-251.586914,412.445068,841.186523,1.828190
-255.065918,411.163330,840.637207,1.828932
-254.699707,414.550781,841.186523,1.829674
-255.249023,405.578613,845.855713,1.830418
-255.340576,405.670166,843.383789,1.831159
-252.044678,413.085938,846.588135,1.831900
-248.107910,417.480469,842.376709,1.832647
-258.087158,400.909424,832.031250,1.833387
-234.466553,411.987305,842.559814,1.834127
-248.474121,414.642334,843.292236,1.834868
-251.953125,405.761719,842.926025,1.835609
-246.093750,410.705566,840.362549,1.836350
-245.361328,415.557861,840.362549,1.837091
-243.530273,416.381836,834.777832,1.837831
-242.889404,422.149658,841.461182,1.838567
-240.142822,413.269043,842.102051,1.839298
-240.509033,407.043457,839.172363,1.840029
-243.255615,418.579102,843.383789,1.840759
-248.840332,407.226562,841.094971,1.841514
-246.276855,399.261475,838.897705,1.842255
-238.861084,404.663086,834.960938,1.842996
-241.241455,407.409668,842.193604,1.843736
-239.044189,411.346436,846.313477,1.844477
-235.107422,403.564453,832.946777,1.845236
-241.149902,403.564453,839.904785,1.845977
-234.100342,404.754639,842.010498,1.846718
-236.480713,404.113770,834.228516,1.847571
-237.670898,405.670166,843.658447,1.848312
-236.938477,406.311035,842.468262,1.849063
-237.487793,399.444580,840.637207,1.849807
-244.445801,405.487061,834.228516,1.850561
-245.544434,403.656006,826.354980,1.851314
-237.121582,408.599854,829.467773,1.852056
-234.924316,403.930664,841.644287,1.852797
-240.417480,399.169922,831.207275,1.853540
-240.966797,407.684326,844.573975,1.854271
-237.396240,399.261475,840.728760,1.855002
-238.037109,412.902832,838.256836,1.855733
-254.425049,405.670166,841.827393,1.856477
-240.417480,401.733398,847.320557,1.857208
-239.959717,402.557373,840.911865,1.857939
-232.818604,404.113770,849.243164,1.858670
-236.938477,401.184082,833.587646,1.859428
-239.227295,402.282715,825.073242,1.860169
-237.030029,400.909424,825.073242,1.860909
-238.311768,398.895264,833.862305,1.861650
-233.642578,404.571533,830.017090,1.862402
-230.621338,395.690918,828.826904,1.863143
-231.811523,391.204834,827.545166,1.863884
-232.727051,394.592285,821.960449,1.864624
-230.804443,382.141113,822.235107,1.865375
-226.226807,381.408691,816.009521,1.866119
-232.177734,387.084961,818.664551,1.866865
-221.832275,380.859375,821.228027,1.867613
-230.712891,381.042480,824.249268,1.868386
-225.585938,379.119873,818.206787,1.869128
-216.613770,377.380371,818.389893,1.869869
-212.585449,355.041504,807.678223,1.870610
-215.515137,367.767334,799.713135,1.871361
-221.740723,361.999512,810.333252,1.872102
-217.529297,367.767334,818.481445,1.872843
-216.522217,363.830566,814.178467,1.873584
-215.423584,356.872559,813.903809,1.874326
-216.247559,352.294922,806.304932,1.875057
-215.057373,354.492188,806.396484,1.875787
-209.381104,358.612061,806.213379,1.876518
-208.190918,353.942871,807.678223,1.877276
-209.197998,351.104736,796.325684,1.878017
-205.902100,343.505859,795.776367,1.878758
-205.993652,338.928223,797.973633,1.879498
-209.838867,342.132568,790.374756,1.880248
-206.268311,339.935303,792.755127,1.880989
-205.444336,333.801270,797.332764,1.881730
-202.514648,330.413818,803.741455,1.882471
-206.176758,329.498291,797.882080,1.883222
-203.887939,336.090088,791.748047,1.883963
-206.542969,326.019287,789.276123,1.884704
-202.972412,323.638916,794.677734,1.885465
-203.430176,317.687988,796.966553,1.886226
-205.718994,317.779541,786.621094,1.886967
-197.296143,319.061279,795.776367,1.887708
-204.986572,316.955566,799.072266,1.888449
-197.021484,307.342529,794.494629,1.889199
-208.374023,305.511475,790.649414,1.889940
-200.225830,302.032471,789.916992,1.890680
-194.915771,296.447754,784.515381,1.891421
-188.140869,295.349121,784.790039,1.892162
-193.176270,284.729004,783.416748,1.892892
-186.584473,286.376953,784.332275,1.893631
-181.640625,295.074463,788.360596,1.894373
-175.781250,279.510498,786.621094,1.895126
-176.239014,272.918701,775.085449,1.895867
-176.879883,272.644043,771.240234,1.896608
-178.802490,265.228271,763.000488,1.897348
-169.830322,256.347656,761.901855,1.898098
-171.478271,260.284424,760.620117,1.898839
-168.090820,255.615234,765.747070,1.899580
-161.407471,253.692627,763.458252,1.900321
-159.301758,249.572754,763.732910,1.901063
-157.653809,242.614746,754.211426,1.901795
-151.702881,245.727539,750.000000,1.902553
-160.217285,240.051270,743.225098,1.903297
-156.097412,234.100342,743.774414,1.904051
-143.920898,234.832764,744.415283,1.904795
-143.188477,219.177246,738.372803,1.905537
-142.181396,230.987549,735.717773,1.906278
-137.145996,227.966309,740.203857,1.907030
-126.525879,221.923828,734.985352,1.907771
-127.532959,219.177246,731.048584,1.908512
-126.434326,217.987061,734.985352,1.909253
-121.307373,218.078613,735.076904,1.910004
-112.792969,216.156006,734.527588,1.910744
-97.229004,220.001221,735.534668,1.911485
-103.912354,217.895508,735.534668,1.912225
-103.088379,217.071533,736.083984,1.912966
-90.270996,217.163086,737.365723,1.913697
-92.559814,211.761475,731.323242,1.914428
-88.165283,213.867188,732.879639,1.915159
-84.045410,220.001221,721.160889,1.915923
-81.939697,214.141846,716.674805,1.916664
-73.883057,213.317871,712.280273,1.917404
-73.425293,224.670410,710.449219,1.918230
-66.650391,216.705322,706.420898,1.918984
-60.699463,223.297119,712.463379,1.919725
-55.480957,216.247559,708.801270,1.920465
-40.832520,219.543457,713.012695,1.921206
-33.050537,225.677490,718.597412,1.921960
-26.641846,224.945068,718.688965,1.922701
-23.895264,222.106934,720.886230,1.923442
-22.979736,217.803955,720.520020,1.924182
-19.317627,223.205566,721.527100,1.924924
-20.141602,225.219727,723.175049,1.925655
-19.409180,227.600098,721.160889,1.926386
-13.641357,229.888916,715.209961,1.927116
-14.739990,226.135254,710.449219,1.927870
-37.994385,302.947998,714.935303,1.928609
0.000000,340.942383,704.132080,1.929348
63.262939,296.264648,718.780518,1.930114
28.839111,204.803467,741.943359,1.930856
-10.253906,219.085693,774.993896,1.931596
81.115723,229.797363,762.817383,1.932354
62.164307,273.925781,747.161865,1.933097
-1.831055,258.728027,757.873535,1.933838
3.387451,257.904053,749.633789,1.934578
39.184570,225.494385,730.865479,1.935322
-7.415771,238.220215,721.343994,1.936084
-16.937256,236.663818,706.329346,1.936826
-1.098633,209.747314,718.872070,1.937567
4.852295,214.965820,726.928711,1.938307
-17.028809,214.599609,727.203369,1.939044
-10.620117,210.296631,721.618652,1.939775
12.176514,218.170166,710.357666,1.940515
8.697510,261.932373,727.111816,1.941251
-8.331299,232.086182,717.773438,1.942009
-11.444092,259.735107,709.350586,1.942752
48.706055,264.312744,747.528076,1.943493
50.994873,287.200928,775.909424,1.944235
32.867432,291.412354,762.908936,1.944976
57.769775,247.833252,752.838135,1.945717
55.206299,253.967285,748.809814,1.946457
8.148193,245.819092,736.175537,1.947197
21.972656,281.799316,728.942871,1.947933
47.058105,278.778076,725.646973,1.948663
6.958008,258.636475,724.914551,1.949394
3.570557,249.206543,728.759766,1.950124
28.747559,278.686523,723.632812,1.950866
31.860352,272.827148,718.322754,1.951608
15.747070,264.678955,721.618652,1.952348
13.458252,259.826660,722.076416,1.953089
9.155273,262.664795,719.512939,1.953830
26.550293,265.411377,725.463867,1.954570
5.584717,260.559082,713.562012,1.955312
11.352539,254.791260,715.393066,1.956052
10.803223,259.735107,711.547852,1.956806
16.113281,270.904541,710.083008,1.957547
20.782471,273.193359,708.709717,1.958288
9.704590,264.129639,710.815430,1.959029
18.859863,268.707275,705.047607,1.959774
24.627686,274.566650,707.702637,1.960505
23.986816,267.150879,712.097168,1.961236
13.092041,265.502930,705.963135,1.961967
18.035889,269.439697,712.005615,1.962704
27.557373,266.326904,700.744629,1.963444
11.077881,262.756348,700.469971,1.964183
7.598877,257.537842,706.878662,1.964922
24.993896,265.136719,709.259033,1.965667
19.134521,254.608154,706.329346,1.966406
19.226074,277.862549,708.526611,1.967145
30.029297,259.918213,705.322266,1.967884
28.472900,261.383057,707.977295,1.968625
23.254395,263.305664,709.716797,1.969364
15.838623,274.749756,704.681396,1.970103
9.338379,249.298096,691.589355,1.970843
63.537598,259.643555,688.293457,1.971582
165.161133,270.629883,683.898926,1.972321
168.365479,261.016846,657.531738,1.973060
77.545166,260.650635,678.039551,1.973804
86.608887,259.094238,667.694092,1.974543
161.041260,264.404297,664.123535,1.975283
115.631104,266.510010,668.151855,1.976022
93.383789,264.678955,683.349609,1.976761
135.040283,282.806396,687.744141,1.977510
135.406494,284.454346,688.659668,1.978249
115.997314,280.517578,694.061279,1.978988
127.807617,281.799316,690.032959,1.979727
145.019531,292.236328,692.138672,1.980525
98.876953,287.841797,689.300537,1.981270
117.370605,295.623779,700.103760,1.982011
141.815186,311.462402,695.800781,1.982752
138.061523,312.011719,705.047607,1.983512
121.948242,315.673828,702.758789,1.984253
135.772705,318.145752,700.012207,1.984994
132.934570,322.540283,707.061768,1.985735
121.673584,331.695557,708.892822,1.986504
129.364014,334.350586,712.738037,1.987245
131.011963,342.407227,710.998535,1.987983
122.039795,354.217529,712.371826,1.988730
123.413086,364.288330,716.583252,1.989482
123.779297,375.640869,718.780518,1.990223
108.306885,384.063721,729.492188,1.990963
98.510742,390.563965,728.942871,1.991787
93.383789,391.845703,747.253418,1.992540
70.587158,397.705078,743.041992,1.993281
59.143066,401.550293,753.936768,1.994021
37.719727,412.353516,753.570557,1.994762
9.979248,408.325195,753.936768,1.995503
1.373291,413.269043,770.141602,1.996234
-4.119873,430.847168,770.233154,1.996964
-12.542725,443.298340,774.902344,1.997695
-17.944336,445.587158,783.325195,1.998450
-21.789551,458.221436,783.142090,1.999191
-26.367188,487.060547,787.445068,1.999931
-24.169922,470.214844,790.649414,2.000672
-16.296387,489.898682,790.100098,2.001422
-25.360107,497.589111,795.043945,2.002163
-16.937256,503.082275,791.381836,2.002904
-18.035889,533.569336,794.860840,2.003644
-27.557373,525.146484,796.691895,2.004394
-33.416748,547.943115,791.656494,2.005135
-33.233643,544.738770,793.029785,2.005876
-41.656494,550.598145,794.952393,2.006616
-46.508789,564.971924,793.121338,2.007357
-53.649902,576.141357,794.952393,2.008088
-50.720215,579.528809,785.705566,2.008819
-50.811768,582.824707,799.896240,2.009550
-84.686279,534.942627,805.206299,2.010306
-42.663574,599.670410,797.973633,2.011057
-7.873535,640.594482,812.713623,2.011835
-52.459717,644.439697,803.558350,2.012598
-33.233643,685.363770,807.220459,2.013365
-55.572510,674.926758,812.988281,2.014124
-83.496094,654.418945,823.883057,2.014866
-74.707031,639.312744,816.009521,2.015619
-79.925537,662.292480,803.192139,2.016360
-105.010986,660.278320,803.009033,2.017103
-111.602783,684.814453,798.522949,2.017844
-113.250732,701.385498,804.565430,2.018594
-139.434814,702.941895,810.607910,2.019335
-157.104492,698.547363,811.981201,2.020076
-150.604248,699.920654,813.262939,2.020817
-167.816162,705.596924,819.213867,2.021567
-206.726074,719.879150,826.995850,2.022309
-190.795898,727.386475,828.277588,2.023049
-191.619873,756.683350,814.178467,2.023790
-203.887939,745.056152,794.860840,2.024538
-293.518066,813.354492,801.452637,2.025270
-346.252441,800.537109,804.473877,2.026001
-328.033447,775.360107,806.488037,2.026735
-342.681885,866.363525,828.094482,2.027477
-312.927246,744.506836,863.708496,2.028222
-194.366455,738.555908,874.328613,2.028961
-470.855713,823.242188,813.720703,2.029700
-669.158936,755.310059,800.903320,2.030440
-268.615723,803.009033,804.016113,2.031179
-252.960205,820.678711,812.896729,2.031918
-565.979004,809.509277,827.453613,2.032657
-343.322754,833.221436,830.017090,2.033408
-423.889160,839.996338,843.109131,2.034149
-486.877441,835.327148,839.630127,2.034889
-443.664551,823.242188,869.201660,2.035628
-453.643799,827.545166,871.307373,2.036367
-504.180908,846.588135,891.357422,2.037112
-456.115723,843.841553,892.364502,2.037843
-482.482910,844.848633,902.435303,2.038588
-487.335205,854.736328,904.449463,2.039323
-449.340820,850.067139,901.245117,2.040062
-514.892578,843.750000,914.245605,2.040801
-503.356934,840.087891,910.491943,2.041540
-501.251221,840.911865,911.315918,2.042288
-519.287109,848.419189,915.802002,2.043028
-516.448975,838.165283,918.640137,2.043766
-512.512207,841.827393,921.386719,2.044505
-556.365967,838.073730,918.273926,2.045244
-532.836914,838.806152,916.992188,2.045994
-535.583496,846.771240,911.956787,2.046733
-546.020508,853.912354,908.386230,2.047472
-540.985107,846.588135,900.054932,2.048211
-538.787842,848.785400,899.780273,2.048960
-549.133301,836.151123,895.111084,2.049699
-549.591064,833.312988,893.646240,2.050438
-547.760010,838.439941,874.603271,2.051178
-556.365967,826.171875,871.948242,2.051927
-542.999268,823.883057,868.927002,2.052666
-546.203613,823.883057,850.799561,2.053405
-535.034180,821.777344,852.447510,2.054144
-495.574951,814.270020,842.010498,2.054892
-520.568848,810.699463,833.496094,2.055631
-494.934082,808.410645,821.594238,2.056396
-454.376221,798.156738,802.825928,2.057138
-459.228516,789.093018,777.008057,2.057879
-438.903809,787.353516,769.958496,2.058620
-425.994873,776.824951,754.486084,2.059360
-357.879639,792.388916,701.110840,2.060101
-501.251221,794.128418,569.549561,2.060841
-660.369873,772.430420,580.810547,2.061581
-450.805664,742.858887,584.838867,2.062322
-522.399902,730.773926,599.395752,2.063061
-566.528320,723.083496,595.275879,2.063875
-417.205811,741.119385,599.121094,2.064606
-465.179443,732.604980,618.255615,2.065337
-493.011475,738.922119,615.509033,2.066092
-436.523438,752.929688,632.995605,2.066853
-484.222412,764.648438,651.123047,2.067613
-426.086426,779.754639,657.257080,2.068354
-442.657471,778.839111,684.448242,2.069106
-465.270996,776.000977,729.583740,2.069847
-415.374756,795.684814,730.590820,2.070587
-467.468262,797.058105,752.014160,2.071328
-468.017578,798.431396,758.148193,2.072079
-462.249756,818.664551,749.542236,2.072820
-484.313965,814.270020,749.267578,2.073560
-487.609863,814.727783,745.422363,2.074301
-491.363525,812.255859,752.471924,2.075044
-505.187988,801.910400,744.598389,2.075775
-465.270996,819.763184,744.049072,2.076506
-466.094971,807.403564,746.063232,2.077237
-459.503174,813.262939,748.718262,2.077976
-431.671143,814.178467,739.196777,2.078717
-430.847168,813.903809,742.767334,2.079457
-418.029785,813.354492,745.239258,2.080198
-419.494629,808.044434,742.309570,2.080939
-419.860840,811.523438,745.147705,2.081680
-432.769775,821.136475,752.014160,2.082421
-433.410645,839.813232,760.253906,2.083161
